faccX,faccY,yaw,posX,posY,velX,velY
0,0,-79.95037078857422,0.0,0.0,0.0,0.0
0,0,-79.9529037475586,0.0,0.0,0.0,0.0
0.24620530009269714,-0.30972999334335327,-79.93291473388672,1.7097590284215078e-05,-2.1509027315510643e-05,0.0020517108341058096,-0.002581083277861277
-0.18711796402931213,-1.4312365055084229,-79.96720886230469,5.5396058079269194e-05,-0.00018542753325568307,0.0025441053013006846,-0.017089137434959413
0.399318665266037,-1.7870947122573853,-80.09886169433594,0.00011253397290905315,-0.0006937417139609654,0.004312444478273392,-0.04390856424967448
-0.13819673657417297,-2.163184642791748,-80.1815185546875,0.00020254151481721136,-0.001699876073333952,0.006488460550705592,-0.07682755887508393
0.9622493982315063,-1.5382543802261353,-79.96416473388672,0.00036790840327739717,-0.0032373797645171482,0.013355566064516704,-0.10767288406689962
1.7879084348678589,-1.866669774055481,-79.75972747802734,0.0007814843538734649,-0.005268380898568365,0.036273548007011415,-0.13604725201924642
-0.5061253905296326,-1.424574375152588,-79.60846710205078,0.001475056198736032,-0.007764393720361921,0.04695507337649663,-0.16347428659598032
-0.34060898423194885,-0.9206886887550354,-79.43444061279297,0.002198839756763644,-0.0106518306541774,0.03989895358681679,-0.18301814546187717
1.2050379514694214,-1.0654637813568115,-79.34407806396484,0.002923852105935415,-0.013840060333410899,0.04710252831379573,-0.19956941604614256
0.12973105907440186,-1.3498990535736084,-79.2706298828125,0.0038015865368975542,-0.017333950797716775,0.05822560340166093,-0.21969743967056274
0,-1.352527379989624,-79.12052917480469,0.004781022361583181,-0.021183243294556935,0.05930669556061428,-0.24221765995025635
-0.07015270739793777,-0.4983993470668793,-79.04093933105469,0.005764595571801896,-0.025348740871995686,0.058722089665631465,-0.2576420493423939
0.5486546158790588,-1.449454426765442,-79.02961730957031,0.006776526365429165,-0.029778042650885052,0.06270960556964081,-0.27387416412432986
-0.7243996858596802,-0.9509508609771729,-78.94606018066406,0.007809481939507857,-0.03450930686460601,0.0612450633198023,-0.293877541522185
1.0057767629623413,-1.0529237985610962,-78.84442901611328,0.00884977306963669,-0.039546423852443696,0.06358987229565781,-0.3105764970183372
0.2851492166519165,-0.38336795568466187,-78.79312133789062,0.009999251912037533,-0.04482244128568305,0.0743475887924433,-0.3225455949703852
0,-0.11758100241422653,-78.68670654296875,0.011258180420845748,-0.05023298932394634,0.0767238322645426,-0.32672016962120926
-0.22828377783298492,-0.13693548738956451,-78.59135437011719,0.012521057918460834,-0.055696000240536205,0.07482146744926772,-0.3288411403695742
1.235327124595642,-1.3095571994781494,-78.62511444091797,0.013838015941696036,-0.06127713679439492,0.08321349533895653,-0.34089524609347177
-0.754229724407196,0.08968847244977951,-78.73681640625,0.015258317072358397,-0.06704343733532975,0.08722264034052692,-0.3510608188187082
0.10842236131429672,-1.5921961069107056,-78.88316345214844,0.016667180011152395,-0.0729987917902569,0.08184091231475275,-0.3635817157725493
0,-0.18461839854717255,-79.09065246582031,0.0180387245470451,-0.07918187694934507,0.08274443199237189,-0.3783885033180316
-0.5788697600364685,-0.9850142002105713,-79.07744598388672,0.01937759912469321,-0.08556957649067044,0.07792051732540131,-0.38813544164101277
-0.9700943827629089,0,-78.96180725097656,0.02056870745908883,-0.09210690428192417,0.06501248280207317,-0.3963438933094342
1.2144657373428345,-0.4444490671157837,-78.9782485961914,0.021669219072080324,-0.0987435003556311,0.06704891075690587,-0.40004763553539907
1.046321988105774,-0.48459163308143616,-79.03466796875,0.022943700065629354,-0.10547547766317923,0.08588880846897762,-0.4077896413703759
0.0979129895567894,-0.4298161566257477,-79.00202941894531,0.024454640969116658,-0.11233547222697071,0.09542409994949898,-0.4154097062846024
-0.2801148593425751,-0.07101976126432419,-78.88023376464844,0.02603238972731763,-0.11929374760378979,0.09390575103461743,-0.4195833389336863
-0.3974781632423401,-0.092420794069767,-78.83558654785156,0.027550430506881746,-0.12629815329124944,0.08825914251307647,-0.4209453435614704
0.23184515535831451,0.0917443186044693,-78.90699005126953,0.02900991392321885,-0.1333139559947368,0.08687886744737626,-0.42095098085701455
1.3364571332931519,-0.13071967661380768,-78.99451446533203,0.03056680492849814,-0.14033251229777102,0.09994805318613847,-0.4212757755070924
-1.0930695533752441,-1.36660897731781,-79.13304901123047,0.03224950773020586,-0.14745775637941225,0.10197628301878771,-0.43375351428985587
0.20135164260864258,-0.24234314262866974,-79.10784912109375,0.03388718759227131,-0.1547987144036839,0.09454530042906603,-0.4471614486227432
-0.23650699853897095,-0.5236232280731201,-78.97996520996094,0.03546050125526058,-0.16230459732313945,0.09425233912964663,-0.4535445017119248
0.4037015438079834,-0.14592891931533813,-78.79093933105469,0.03704298430639837,-0.1699101690285735,0.0956456270068884,-0.4591241029401619
-0.9245039224624634,0.4739845395088196,-78.652587890625,0.03860091125799551,-0.17753945577061833,0.09130560718476774,-0.45639030610521625
0.7347269058227539,-0.2558591961860657,-78.51728820800781,0.04010949241825277,-0.18513081327908562,0.0897241320461035,-0.45457259491085994
0.09337731450796127,0.5679418444633484,-78.5169448852539,0.04166240185654413,-0.19268535078813626,0.09662500054885945,-0.45197190617521593
0.11401286721229553,-0.6047917604446411,-78.60711669921875,0.04328722062831125,-0.20022077491299967,0.09835325206319492,-0.45227898880839335
0.5281652808189392,-0.14102599024772644,-78.55825805664062,0.044971037200755556,-0.20781055095915985,0.10370473663012188,-0.4584941367308297
0.37160927057266235,-0.7154727578163147,-78.41288757324219,0.04676193382177089,-0.21551159898440034,0.11120285789171856,-0.46563162629803007
-1.3889254331588745,-0.17117193341255188,-78.44473266601562,0.04854466783089772,-0.22333369863736952,0.10272522320350012,-0.4730203320582706
0.6898830533027649,0.3261062800884247,-78.52621459960938,0.050208210274577156,-0.2312066115087104,0.09689987003803255,-0.47172921250263833
0.3628668487071991,0.22611036896705627,-78.49971008300781,0.05189631574062839,-0.2390304166720144,0.10567278588811559,-0.46712740709384265
0.07851698249578476,0,-78.32901000976562,0.0536881804937083,-0.24680017134795573,0.10935098448147379,-0.4652431540191172
0.5542495846748352,0.21006400883197784,-78.32633972167969,0.05555463902445305,-0.2545396361365499,0.11462403920789563,-0.46349262061218405
-0.7539370059967041,-0.4164719581604004,-78.52128601074219,0.05745117249588173,-0.262278847032123,0.11295997736354672,-0.46521268685658757
-0.10043168067932129,-0.36018791794776917,-78.69534301757812,0.059274507626477235,-0.27008632652668474,0.10584023830791318,-0.4716848524908223
-1.3892124891281128,-0.5389038920402527,-78.87947082519531,0.0609350640864836,-0.2780101776661143,0.09342653689285123,-0.4791772842407225
0.24599942564964294,-0.12593597173690796,-78.87162780761719,0.0624127832386229,-0.2860426351717775,0.08389976136386398,-0.48471761643886546
0.7066175937652588,0.32785359025001526,-78.8375473022461,0.06387726655436889,-0.2941072400555841,0.09183823652565483,-0.4830349696179229
1.6109975576400757,-0.2193010449409485,-78.83252716064453,0.06556884932642183,-0.30215028451134746,0.11115169612069928,-0.4821303650736807
-1.1103432178497314,0.8052221536636353,-78.76782989501953,0.0674561452575856,-0.3101451016300253,0.11532381561895215,-0.4772476891676583
-0.892795205116272,-0.845582902431488,-78.70210266113281,0.0692391020163066,-0.3181020326125951,0.09863099542756879,-0.47758402874072375
0.8138512372970581,0.9852831959724426,-78.79991912841797,0.07087746972011197,-0.32605206501566686,0.09797312902907533,-0.47641985962788247
0.4098444879055023,-0.5766289234161377,-78.94769287109375,0.07259533407373563,-0.33396401724053737,0.10817059340576334,-0.4730144073565799
-0.2440606951713562,-1.2882243394851685,-79.06553649902344,0.07440969006054933,-0.34197709439529295,0.10955212501188122,-0.4885548512140908
-0.4800456464290619,-0.08976045250892639,-79.01144409179688,0.07618527364813621,-0.35021536863719405,0.10351790549854441,-0.5000380578140416
-0.3269021511077881,0.06192859634757042,-78.8604507446289,0.07785453403161634,-0.35855126903521706,0.09679334051907065,-0.5002699899487196
0.7803955078125,0.09739155322313309,-78.67155456542969,0.07949924896781646,-0.3668780383017533,0.10057245182494325,-0.49894232203563044
-0.5371665358543396,0.42334917187690735,-78.5865478515625,0.08119234739906261,-0.37515758111865966,0.10259935992459458,-0.4946028159931301
0.2203991413116455,0.4210163950920105,-78.60601043701172,0.08288033899540706,-0.38334232488750564,0.0999596316367388,-0.48756643626838914
0.7892217040061951,0.4853665828704834,-78.64826965332031,0.084616445414722,-0.39140548889628696,0.10837313868105414,-0.48001324478536833
0,-0.7635570764541626,-78.62723541259766,0.08647747145551778,-0.3994250284269864,0.1149499862144391,-0.48233149889856564
-0.12587888538837433,-0.25566092133522034,-78.50205993652344,0.08838456296982868,-0.40753466576958675,0.1139009955028693,-0.49082498221347715
-0.070061095058918,-0.485847145318985,-78.50252532958984,0.09026930595178988,-0.41576657575555126,0.1122681623324752,-0.4970042161022622
0,1.0333709716796875,-78.48219299316406,0.09213557663684092,-0.4240119568693139,0.11168431987365089,-0.49244151754925636
-0.28869250416755676,-0.14434565603733063,-78.38614654541016,0.09397693387750125,-0.43215757762599305,0.10927854900558792,-0.4850329732522367
0.09080563485622406,0,-78.2773208618164,0.0957845008838922,-0.4402514845174218,0.10762949176132681,-0.48623585371921446
1.1918655633926392,0.06478380411863327,-78.32254028320312,0.09766740013534826,-0.448350916537456,0.11831841841340067,-0.4856959886848925
-0.5715806484222412,-0.16637805104255676,-78.49876403808594,0.09968244911688899,-0.4564529048382406,0.12348745937148732,-0.48654260740925853
-0.20700523257255554,-0.5071136951446533,-78.68399810791016,0.10168650497578914,-0.46460871855521346,0.11699924369653068,-0.4921550386274853
-1.3749008178710938,-0.4056045711040497,-78.7785873413086,0.10352663778389495,-0.47287468574527214,0.10381669327616694,-0.4997610241795578
0.35287997126579285,0.5993955731391907,-78.76069641113281,0.10518594233526125,-0.48119057843979013,0.09529985288778943,-0.4981460991625983
1.421661138534546,0.41874992847442627,-78.70178985595703,0.10689750523823832,-0.48942230887711025,0.11008769546945892,-0.4896615533158181
-0.36763226985931396,-0.5039151310920715,-78.67881774902344,0.10689750523823832,-0.48942230887711025,0.11008769546945892,-0.4896615533158181
-0.9571589231491089,0.36304283142089844,-78.6589126586914,0.10689750523823832,-0.48942230887711025,0.11008769546945892,-0.4896615533158181
-0.6542819738388062,0.19757579267024994,-78.7232894897461,0.10689750523823832,-0.48942230887711025,0.11008769546945892,-0.4896615533158181
0.8827846050262451,0.27052029967308044,-78.94549560546875,0.10689750523823832,-0.48942230887711025,0.11008769546945892,-0.4896615533158181
1.1203670501708984,-0.7929186820983887,-79.23602294921875,0.10689750523823832,-0.48942230887711025,0.11008769546945892,-0.4896615533158181
-0.8525257706642151,-0.06939298659563065,-79.25342559814453,0.10689750523823832,-0.48942230887711025,0.11008769546945892,-0.4896615533158181
-0.5579006671905518,-0.15470492839813232,-79.11852264404297,0.10689750523823832,-0.48942230887711025,0.11008769546945892,-0.4896615533158181
0.40090811252593994,0.31786009669303894,-78.93354797363281,0.10689750523823832,-0.48942230887711025,0.11008769546945892,-0.4896615533158181
-0.41278570890426636,1.221207857131958,-78.8766098022461,0.10689750523823832,-0.48942230887711025,0.11008769546945892,-0.4896615533158181
-0.8634794354438782,1.726969838142395,-78.97261810302734,0.10689750523823832,-0.48942230887711025,0.11008769546945892,-0.4896615533158181
0.3113119602203369,2.56911039352417,-79.38865661621094,0.10689750523823832,-0.48942230887711025,0.11008769546945892,-0.4896615533158181
-1.8651965856552124,1.030050277709961,-80.04957580566406,0.10689750523823832,-0.48942230887711025,0.11008769546945892,-0.4896615533158181
-0.6340287923812866,2.789033889770508,-80.94023132324219,0.10689750523823832,-0.48942230887711025,0.11008769546945892,-0.4896615533158181
-0.8684412240982056,1.261983871459961,-82.09699249267578,0.10689750523823832,-0.48942230887711025,0.11008769546945892,-0.4896615533158181
-0.39562368392944336,1.7445307970046997,-83.47203826904297,0.10689750523823832,-0.48942230887711025,0.11008769546945892,-0.4896615533158181
2.7647011280059814,5.0464701652526855,-84.90969848632812,0.10689750523823832,-0.48942230887711025,0.11008769546945892,-0.4896615533158181
-0.9971678256988525,-1.0903836488723755,-86.45506286621094,0.10689750523823832,-0.48942230887711025,0.11008769546945892,-0.4896615533158181
0.8652209639549255,1.1684983968734741,-87.83793640136719,0.10689750523823832,-0.48942230887711025,0.11008769546945892,-0.4896615533158181
-2.0023374557495117,0.7562017440795898,-89.37438201904297,0.10689750523823832,-0.48942230887711025,0.11008769546945892,-0.4896615533158181
-0.37090161442756653,0.8478051424026489,-91.07130432128906,0.10689750523823832,-0.48942230887711025,0.11008769546945892,-0.4896615533158181
-1.7011207342147827,0.7093674540519714,-92.88826751708984,0.10689750523823832,-0.48942230887711025,0.11008769546945892,-0.4896615533158181
0.5704866051673889,2.6633355617523193,-94.89869689941406,0.10689750523823832,-0.48942230887711025,0.11008769546945892,-0.4896615533158181
-1.5714257955551147,0.8382657766342163,-97.00784301757812,0.10689750523823832,-0.48942230887711025,0.11008769546945892,-0.4896615533158181
-0.218246728181839,0.7584123611450195,-99.15449523925781,0.10689750523823832,-0.48942230887711025,0.11008769546945892,-0.4896615533158181
-0.6529257297515869,1.1001700162887573,-101.38619232177734,0.10689750523823832,-0.48942230887711025,0.11008769546945892,-0.4896615533158181
0.5620959997177124,0.8930459022521973,-103.71247863769531,0.10689750523823832,-0.48942230887711025,0.11008769546945892,-0.4896615533158181
-1.5021528005599976,0.8526571393013,-106.07470703125,0.10689750523823832,-0.48942230887711025,0.11008769546945892,-0.4896615533158181
0.6780171990394592,0.8029192686080933,-108.51142883300781,0.10689750523823832,-0.48942230887711025,0.11008769546945892,-0.4896615533158181
-0.6802655458450317,1.0952919721603394,-110.96400451660156,0.10689750523823832,-0.48942230887711025,0.11008769546945892,-0.4896615533158181
-0.4781722128391266,0.7007880806922913,-113.48837280273438,0.10689750523823832,-0.48942230887711025,0.11008769546945892,-0.4896615533158181
0.6217177510261536,0.7999318242073059,-116.0911865234375,0.10689750523823832,-0.48942230887711025,0.11008769546945892,-0.4896615533158181
-0.43890804052352905,0.34553268551826477,-118.7255630493164,0.10689750523823832,-0.48942230887711025,0.11008769546945892,-0.4896615533158181
0.6148042678833008,0.32233715057373047,-121.38145446777344,0.10689750523823832,-0.48942230887711025,0.11008769546945892,-0.4896615533158181
-0.539412260055542,1.078034520149231,-124.04087829589844,0.10689750523823832,-0.48942230887711025,0.11008769546945892,-0.4896615533158181
-0.21878443658351898,0.27593499422073364,-126.7229995727539,0.10689750523823832,-0.48942230887711025,0.11008769546945892,-0.4896615533158181
-0.5550292134284973,0.9059679508209229,-129.3617706298828,0.10689750523823832,-0.48942230887711025,0.11008769546945892,-0.4896615533158181
0.13559406995773315,0.4099833369255066,-132.03115844726562,0.10689750523823832,-0.48942230887711025,0.11008769546945892,-0.4896615533158181
0.18051886558532715,0.9296723008155823,-134.68785095214844,0.10689750523823832,-0.48942230887711025,0.11008769546945892,-0.4896615533158181
0.039197664707899094,0.7694692611694336,-137.33436584472656,0.10689750523823832,-0.48942230887711025,0.11008769546945892,-0.4896615533158181
-1.2172621488571167,0.8181231021881104,-139.91748046875,0.10689750523823832,-0.48942230887711025,0.11008769546945892,-0.4896615533158181
1.5473703145980835,0.3684901297092438,-142.44345092773438,0.10689750523823832,-0.48942230887711025,0.11008769546945892,-0.4896615533158181
-1.053236722946167,1.3787280321121216,-144.8478546142578,0.10689750523823832,-0.48942230887711025,0.11008769546945892,-0.4896615533158181
0.11164109408855438,0.09112421423196793,-147.26754760742188,0.10689750523823832,-0.48942230887711025,0.11008769546945892,-0.4896615533158181
-1.0265146493911743,1.226951003074646,-149.6396026611328,0.10689750523823832,-0.48942230887711025,0.11008769546945892,-0.4896615533158181
0.18826329708099365,0.3745476305484772,-151.95628356933594,0.10689750523823832,-0.48942230887711025,0.11008769546945892,-0.4896615533158181
0.11544618010520935,1.1804726123809814,-154.31626892089844,0.10689750523823832,-0.48942230887711025,0.11008769546945892,-0.4896615533158181
-0.2603038549423218,0.3760949969291687,-156.64686584472656,0.10689750523823832,-0.48942230887711025,0.11008769546945892,-0.4896615533158181
0.6883252263069153,-0.006745406426489353,-159.08103942871094,0.10689750523823832,-0.48942230887711025,0.11008769546945892,-0.4896615533158181
0.8431400656700134,0.822441041469574,-161.5786895751953,0.10689750523823832,-0.48942230887711025,0.11008769546945892,-0.4896615533158181
0.5938935279846191,-0.27344077825546265,-164.123291015625,0.10689750523823832,-0.48942230887711025,0.11008769546945892,-0.4896615533158181
0.21144454181194305,0.830651044845581,-166.71527099609375,0.10689750523823832,-0.48942230887711025,0.11008769546945892,-0.4896615533158181
0.4036736786365509,-0.3436588943004608,-169.33775329589844,0.10689750523823832,-0.48942230887711025,0.11008769546945892,-0.4896615533158181
-0.2151896357536316,0.34042099118232727,-171.9871368408203,0.10689750523823832,-0.48942230887711025,0.11008769546945892,-0.4896615533158181
0.4957982301712036,1.3069614171981812,-174.78858947753906,0.10689750523823832,-0.48942230887711025,0.11008769546945892,-0.4896615533158181
0.6556389927864075,-0.8658776879310608,-177.55191040039062,0.10689750523823832,-0.48942230887711025,0.11008769546945892,-0.4896615533158181
1.1365463733673096,0.5427470207214355,179.6655731201172,0.10689750523823832,-0.48942230887711025,0.11008769546945892,-0.4896615533158181
0.007964745163917542,-0.36024144291877747,176.87716674804688,0.10689750523823832,-0.48942230887711025,0.11008769546945892,-0.4896615533158181
-0.09950035065412521,-0.025476209819316864,174.051025390625,0.10689750523823832,-0.48942230887711025,0.11008769546945892,-0.4896615533158181
-0.005642248317599297,0.3752996325492859,171.1902313232422,0.10689750523823832,-0.48942230887711025,0.11008769546945892,-0.4896615533158181
0.9066507816314697,-0.21522139012813568,168.35403442382812,0.10689750523823832,-0.48942230887711025,0.11008769546945892,-0.4896615533158181
0.8859584927558899,-0.6341806650161743,165.56063842773438,0.10689750523823832,-0.48942230887711025,0.11008769546945892,-0.4896615533158181
-0.8812101483345032,0.9148111343383789,162.85980224609375,0.10689750523823832,-0.48942230887711025,0.11008769546945892,-0.4896615533158181
-0.09824008494615555,0.992049515247345,160.17291259765625,0.10689750523823832,-0.48942230887711025,0.11008769546945892,-0.4896615533158181
0.6957061886787415,-1.071363925933838,157.4684600830078,0.10689750523823832,-0.48942230887711025,0.11008769546945892,-0.4896615533158181
0.30438998341560364,1.3270541429519653,154.82420349121094,0.10689750523823832,-0.48942230887711025,0.11008769546945892,-0.4896615533158181
0.8897550702095032,-1.2976261377334595,152.1103057861328,0.10689750523823832,-0.48942230887711025,0.11008769546945892,-0.4896615533158181
0.17270033061504364,0.6340945959091187,149.41427612304688,0.10689750523823832,-0.48942230887711025,0.11008769546945892,-0.4896615533158181
-0.2028432935476303,1.0413200855255127,146.6293182373047,0.10689750523823832,-0.48942230887711025,0.11008769546945892,-0.4896615533158181
0.9207009077072144,-1.1800376176834106,143.7447967529297,0.10689750523823832,-0.48942230887711025,0.11008769546945892,-0.4896615533158181
0.13995902240276337,0.7418227791786194,140.864501953125,0.10689750523823832,-0.48942230887711025,0.11008769546945892,-0.4896615533158181
0.09119173884391785,-0.6996736526489258,137.98178100585938,0.10689750523823832,-0.48942230887711025,0.11008769546945892,-0.4896615533158181
1.2638295888900757,0.047748588025569916,135.1934356689453,0.10689750523823832,-0.48942230887711025,0.11008769546945892,-0.4896615533158181
-0.7026703953742981,-1.2221519947052002,132.69834899902344,0.10689750523823832,-0.48942230887711025,0.11008769546945892,-0.4896615533158181
0.2724212110042572,0.9649738073348999,130.57530212402344,0.10689750523823832,-0.48942230887711025,0.11008769546945892,-0.4896615533158181
-0.6246788501739502,-1.9036140441894531,128.85504150390625,0.10689750523823832,-0.48942230887711025,0.11008769546945892,-0.4896615533158181
-0.6694733500480652,0.07805267721414566,127.55278778076172,0.10689750523823832,-0.48942230887711025,0.11008769546945892,-0.4896615533158181
-1.2747339010238647,-0.8400213122367859,126.55136108398438,0.10689750523823832,-0.48942230887711025,0.11008769546945892,-0.4896615533158181
-1.409110188484192,-0.6296386122703552,125.92628479003906,0.10689750523823832,-0.48942230887711025,0.11008769546945892,-0.4896615533158181
-1.270236611366272,0.3777949810028076,125.77193450927734,0.10689750523823832,-0.48942230887711025,0.11008769546945892,-0.4896615533158181
-1.405617356300354,0.7053062319755554,125.89820098876953,0.10689750523823832,-0.48942230887711025,0.11008769546945892,-0.4896615533158181
0.34224846959114075,0.43509748578071594,125.99346923828125,0.10689750523823832,-0.48942230887711025,0.11008769546945892,-0.4896615533158181
0.6601196527481079,0.28072476387023926,126.0466079711914,0.10689750523823832,-0.48942230887711025,0.11008769546945892,-0.4896615533158181
0.21129487454891205,-0.36980441212654114,126.02910614013672,0.10689750523823832,-0.48942230887711025,0.11008769546945892,-0.4896615533158181
0.48286810517311096,0.016703331843018532,126.01311492919922,0.10689750523823832,-0.48942230887711025,0.11008769546945892,-0.4896615533158181
0.048050276935100555,0.039941076189279556,126.02783966064453,0.10689750523823832,-0.48942230887711025,0.11008769546945892,-0.4896615533158181
0.035467635840177536,0.37307414412498474,126.0311279296875,0.10689750523823832,-0.48942230887711025,0.11008769546945892,-0.4896615533158181
-0.004207081161439419,0.37064704298973083,126.02495574951172,0.10689750523823832,-0.48942230887711025,0.11008769546945892,-0.4896615533158181
-0.10715993493795395,0.34847649931907654,126.02473449707031,0.10689750523823832,-0.48942230887711025,0.11008769546945892,-0.4896615533158181
0.15363956987857819,0.23524990677833557,126.02655029296875,0.10689750523823832,-0.48942230887711025,0.11008769546945892,-0.4896615533158181
0.12530149519443512,0.05980188399553299,126.02565002441406,0.10689750523823832,-0.48942230887711025,0.11008769546945892,-0.4896615533158181
0.11689218878746033,0.21032598614692688,126.02433776855469,0.10689750523823832,-0.48942230887711025,0.11008769546945892,-0.4896615533158181
0.003783091204240918,0.29997122287750244,126.02417755126953,0.10689750523823832,-0.48942230887711025,0.11008769546945892,-0.4896615533158181
0.03888732194900513,0.26481491327285767,126.0245590209961,0.10689750523823832,-0.48942230887711025,0.11008769546945892,-0.4896615533158181
0.11389650404453278,0.17600475251674652,126.02459716796875,0.10689750523823832,-0.48942230887711025,0.11008769546945892,-0.4896615533158181
0.11626256257295609,0.1644534468650818,126.02386474609375,0.10689750523823832,-0.48942230887711025,0.11008769546945892,-0.4896615533158181
0.07456953078508377,0.2350265234708786,126.02305603027344,0.10689750523823832,-0.48942230887711025,0.11008769546945892,-0.4896615533158181
0.03961016610264778,0.2710144519805908,126.02374267578125,0.10689750523823832,-0.48942230887711025,0.11008769546945892,-0.4896615533158181
0.07796639204025269,0.22897161543369293,126.02293395996094,0.10689750523823832,-0.48942230887711025,0.11008769546945892,-0.4896615533158181
0.11246410757303238,0.17277151346206665,126.02298736572266,0.10689750523823832,-0.48942230887711025,0.11008769546945892,-0.4896615533158181
0.0718877837061882,0.2194705456495285,126.02278137207031,0.10689750523823832,-0.48942230887711025,0.11008769546945892,-0.4896615533158181
0.04259592667222023,0.24486121535301208,126.02253723144531,0.10689750523823832,-0.48942230887711025,0.11008769546945892,-0.4896615533158181
0.059708867222070694,0.22612786293029785,126.0221176147461,0.10689750523823832,-0.48942230887711025,0.11008769546945892,-0.4896615533158181
0.08561571687459946,0.19325141608715057,126.02163696289062,0.10689750523823832,-0.48942230887711025,0.11008769546945892,-0.4896615533158181
0.09253757447004318,0.21280355751514435,126.02062225341797,0.10689750523823832,-0.48942230887711025,0.11008769546945892,-0.4896615533158181
0.05146585404872894,0.22977648675441742,126.01947784423828,0.10689750523823832,-0.48942230887711025,0.11008769546945892,-0.4896615533158181
0.06135421618819237,0.23431897163391113,126.01904296875,0.10689750523823832,-0.48942230887711025,0.11008769546945892,-0.4896615533158181
0.08170602470636368,0.21944954991340637,126.01954650878906,0.10689750523823832,-0.48942230887711025,0.11008769546945892,-0.4896615533158181
0.07216652482748032,0.2125280201435089,126.0174560546875,0.10689750523823832,-0.48942230887711025,0.11008769546945892,-0.4896615533158181
0.0775233805179596,0.2365073263645172,126.01659393310547,0.10689750523823832,-0.48942230887711025,0.11008769546945892,-0.4896615533158181
0.06199324503540993,0.2312345951795578,126.0163803100586,0.10689750523823832,-0.48942230887711025,0.11008769546945892,-0.4896615533158181
0.08087035268545151,0.22567926347255707,126.01539611816406,0.10689750523823832,-0.48942230887711025,0.11008769546945892,-0.4896615533158181
0.08091279119253159,0.19881944358348846,126.01569366455078,0.10689750523823832,-0.48942230887711025,0.11008769546945892,-0.4896615533158181
0.07773520797491074,0.21736955642700195,126.01427459716797,0.10689750523823832,-0.48942230887711025,0.11008769546945892,-0.4896615533158181
0.07970413565635681,0.23494282364845276,126.01490020751953,0.10689750523823832,-0.48942230887711025,0.11008769546945892,-0.4896615533158181
0.07388656586408615,0.21453407406806946,126.01416015625,0.10689750523823832,-0.48942230887711025,0.11008769546945892,-0.4896615533158181
0.08789528161287308,0.22201986610889435,126.01435852050781,0.10689750523823832,-0.48942230887711025,0.11008769546945892,-0.4896615533158181
0.07038338482379913,0.2167259305715561,126.01409912109375,0.10689750523823832,-0.48942230887711025,0.11008769546945892,-0.4896615533158181
0.0640513151884079,0.23227368295192719,126.01312255859375,0.10689750523823832,-0.48942230887711025,0.11008769546945892,-0.4896615533158181
0.07346726953983307,0.23332533240318298,126.01266479492188,0.10689750523823832,-0.48942230887711025,0.11008769546945892,-0.4896615533158181
0.08768297731876373,0.2051456868648529,126.01185607910156,0.10689750523823832,-0.48942230887711025,0.11008769546945892,-0.4896615533158181
0.07979260385036469,0.2175818383693695,126.01264953613281,0.10689750523823832,-0.48942230887711025,0.11008769546945892,-0.4896615533158181
0.06490320712327957,0.22103899717330933,126.01393127441406,0.10689750523823832,-0.48942230887711025,0.11008769546945892,-0.4896615533158181
0.08038172125816345,0.2056722790002823,126.01353454589844,0.10689750523823832,-0.48942230887711025,0.11008769546945892,-0.4896615533158181
0.07350296527147293,0.21010972559452057,126.01312255859375,0.10689750523823832,-0.48942230887711025,0.11008769546945892,-0.4896615533158181
0.0814468115568161,0.21540768444538116,126.01274108886719,0.10689750523823832,-0.48942230887711025,0.11008769546945892,-0.4896615533158181
0.07082558423280716,0.22212529182434082,126.01398468017578,0.10689750523823832,-0.48942230887711025,0.11008769546945892,-0.4896615533158181
0.06429976969957352,0.2167319506406784,126.01380920410156,0.10689750523823832,-0.48942230887711025,0.11008769546945892,-0.4896615533158181
0.0839613601565361,0.20833368599414825,126.01341247558594,0.10689750523823832,-0.48942230887711025,0.11008769546945892,-0.4896615533158181
0.07015708833932877,0.19487646222114563,126.01170349121094,0.10689750523823832,-0.48942230887711025,0.11008769546945892,-0.4896615533158181
0.07256683707237244,0.23130495846271515,126.01140594482422,0.10689750523823832,-0.48942230887711025,0.11008769546945892,-0.4896615533158181
0.05708462744951248,0.21714508533477783,126.01080322265625,0.10689750523823832,-0.48942230887711025,0.11008769546945892,-0.4896615533158181
0.07656422257423401,0.2237417995929718,126.01154327392578,0.10689750523823832,-0.48942230887711025,0.11008769546945892,-0.4896615533158181
0.08337503671646118,0.19610939919948578,126.01232147216797,0.10689750523823832,-0.48942230887711025,0.11008769546945892,-0.4896615533158181
0.0750386118888855,0.2154683768749237,126.01128387451172,0.10689750523823832,-0.48942230887711025,0.11008769546945892,-0.4896615533158181
0.0757242813706398,0.21941348910331726,126.011474609375,0.10689750523823832,-0.48942230887711025,0.11008769546945892,-0.4896615533158181
0.06696005910634995,0.22351913154125214,126.0098876953125,0.10689750523823832,-0.48942230887711025,0.11008769546945892,-0.4896615533158181
0.08324600011110306,0.22476084530353546,126.00912475585938,0.10689750523823832,-0.48942230887711025,0.11008769546945892,-0.4896615533158181
0.06548529863357544,0.20007717609405518,126.00935363769531,0.10689750523823832,-0.48942230887711025,0.11008769546945892,-0.4896615533158181
0.07681409269571304,0.2151598334312439,126.00985717773438,0.10689750523823832,-0.48942230887711025,0.11008769546945892,-0.4896615533158181
0.07311435788869858,0.20716428756713867,126.01002502441406,0.10689750523823832,-0.48942230887711025,0.11008769546945892,-0.4896615533158181
0.06934872269630432,0.20959743857383728,126.0083999633789,0.10689750523823832,-0.48942230887711025,0.11008769546945892,-0.4896615533158181
0.07338880002498627,0.2021874338388443,126.00812530517578,0.10689750523823832,-0.48942230887711025,0.11008769546945892,-0.4896615533158181
0.0812755823135376,0.20403240621089935,126.00833129882812,0.10689750523823832,-0.48942230887711025,0.11008769546945892,-0.4896615533158181
0.08469966053962708,0.20847639441490173,126.00751495361328,0.10689750523823832,-0.48942230887711025,0.11008769546945892,-0.4896615533158181
0.07179446518421173,0.19720576703548431,126.00801849365234,0.10689750523823832,-0.48942230887711025,0.11008769546945892,-0.4896615533158181
0.08511723577976227,0.2108607441186905,126.00691223144531,0.10689750523823832,-0.48942230887711025,0.11008769546945892,-0.4896615533158181
0.08101276308298111,0.19392259418964386,126.0068130493164,0.10689750523823832,-0.48942230887711025,0.11008769546945892,-0.4896615533158181
0.07088492810726166,0.2102777659893036,126.00501251220703,0.10689750523823832,-0.48942230887711025,0.11008769546945892,-0.4896615533158181
0.07154858112335205,0.22164161503314972,126.00416564941406,0.10689750523823832,-0.48942230887711025,0.11008769546945892,-0.4896615533158181
0.07234984636306763,0.209968701004982,126.00376892089844,0.10689750523823832,-0.48942230887711025,0.11008769546945892,-0.4896615533158181
0.07276084274053574,0.21114607155323029,126.00476837158203,0.10689750523823832,-0.48942230887711025,0.11008769546945892,-0.4896615533158181
0.07723202556371689,0.2057371437549591,126.00440979003906,0.10689750523823832,-0.48942230887711025,0.11008769546945892,-0.4896615533158181
0.08079211413860321,0.21604497730731964,126.00447845458984,0.10689750523823832,-0.48942230887711025,0.11008769546945892,-0.4896615533158181
0.06440246850252151,0.20377734303474426,126.00401306152344,0.10689750523823832,-0.48942230887711025,0.11008769546945892,-0.4896615533158181
0.06696473062038422,0.2040439397096634,126.002685546875,0.10689750523823832,-0.48942230887711025,0.11008769546945892,-0.4896615533158181
0.06982465088367462,0.19961996376514435,126.00300598144531,0.10689750523823832,-0.48942230887711025,0.11008769546945892,-0.4896615533158181
0.06455179303884506,0.21035371720790863,126.00244140625,0.10689750523823832,-0.48942230887711025,0.11008769546945892,-0.4896615533158181
0.0832088440656662,0.19564853608608246,126.00233459472656,0.10689750523823832,-0.48942230887711025,0.11008769546945892,-0.4896615533158181
0.0861499011516571,0.19960056245326996,126.00177764892578,0.10689750523823832,-0.48942230887711025,0.11008769546945892,-0.4896615533158181
0.08222485333681107,0.21200180053710938,126.00096893310547,0.10689750523823832,-0.48942230887711025,0.11008769546945892,-0.4896615533158181
0.06057539954781532,0.202869713306427,126.0007095336914,0.10689750523823832,-0.48942230887711025,0.11008769546945892,-0.4896615533158181
0.059006255120038986,0.2121763527393341,125.99964141845703,0.10689750523823832,-0.48942230887711025,0.11008769546945892,-0.4896615533158181
0.07909683883190155,0.20345398783683777,125.99976348876953,0.10689750523823832,-0.48942230887711025,0.11008769546945892,-0.4896615533158181
0.07874925434589386,0.2132040560245514,125.9991683959961,0.10689750523823832,-0.48942230887711025,0.11008769546945892,-0.4896615533158181
0.07103068381547928,0.21230651438236237,125.99945068359375,0.10689750523823832,-0.48942230887711025,0.11008769546945892,-0.4896615533158181
0.06715243309736252,0.19698013365268707,126.00110626220703,0.10689750523823832,-0.48942230887711025,0.11008769546945892,-0.4896615533158181
0.08793902397155762,0.18218930065631866,126.00221252441406,0.10689750523823832,-0.48942230887711025,0.11008769546945892,-0.4896615533158181
0.07923781871795654,0.19070786237716675,126.00228118896484,0.10689750523823832,-0.48942230887711025,0.11008769546945892,-0.4896615533158181
0.07300680875778198,0.21021431684494019,126.00145721435547,0.10689750523823832,-0.48942230887711025,0.11008769546945892,-0.4896615533158181
0.0663483515381813,0.18956008553504944,126.00157928466797,0.10689750523823832,-0.48942230887711025,0.11008769546945892,-0.4896615533158181
0.07519815117120743,0.19438700377941132,126.00204467773438,0.10689750523823832,-0.48942230887711025,0.11008769546945892,-0.4896615533158181
0.07985667884349823,0.19921249151229858,126.00214385986328,0.10689750523823832,-0.48942230887711025,0.11008769546945892,-0.4896615533158181
0.0733647421002388,0.19589723646640778,126.0025634765625,0.10689750523823832,-0.48942230887711025,0.11008769546945892,-0.4896615533158181
0.07415292412042618,0.19815319776535034,126.00245666503906,0.10689750523823832,-0.48942230887711025,0.11008769546945892,-0.4896615533158181
0.06324521452188492,0.194952130317688,126.00279998779297,0.10689750523823832,-0.48942230887711025,0.11008769546945892,-0.4896615533158181
0.08801877498626709,0.20783080160617828,126.00416564941406,0.10689750523823832,-0.48942230887711025,0.11008769546945892,-0.4896615533158181
0.06982848793268204,0.19704049825668335,126.00297546386719,0.10689750523823832,-0.48942230887711025,0.11008769546945892,-0.4896615533158181
0.0709301084280014,0.19268177449703217,126.00292205810547,0.10689750523823832,-0.48942230887711025,0.11008769546945892,-0.4896615533158181
0.08825446665287018,0.18664012849330902,126.00301361083984,0.10689750523823832,-0.48942230887711025,0.11008769546945892,-0.4896615533158181
0.07829935848712921,0.18660420179367065,126.00309753417969,0.10689750523823832,-0.48942230887711025,0.11008769546945892,-0.4896615533158181
0.06441490352153778,0.1928091198205948,126.00411224365234,0.10689750523823832,-0.48942230887711025,0.11008769546945892,-0.4896615533158181
0.057183265686035156,0.19059772789478302,126.00434112548828,0.10689750523823832,-0.48942230887711025,0.11008769546945892,-0.4896615533158181
0.08409906178712845,0.1934943050146103,126.0036849975586,0.10689750523823832,-0.48942230887711025,0.11008769546945892,-0.4896615533158181
0.07792627066373825,0.17804910242557526,126.00409698486328,0.10689750523823832,-0.48942230887711025,0.11008769546945892,-0.4896615533158181
0.07990526407957077,0.18861395120620728,126.00428771972656,0.10689750523823832,-0.48942230887711025,0.11008769546945892,-0.4896615533158181
0.07219912111759186,0.19602860510349274,126.00605010986328,0.10689750523823832,-0.48942230887711025,0.11008769546945892,-0.4896615533158181
0.0737382173538208,0.19659893214702606,126.00553131103516,0.10689750523823832,-0.48942230887711025,0.11008769546945892,-0.4896615533158181
0.07675601541996002,0.19105379283428192,126.0050277709961,0.10689750523823832,-0.48942230887711025,0.11008769546945892,-0.4896615533158181
0.07365451753139496,0.18926312029361725,126.0038070678711,0.10689750523823832,-0.48942230887711025,0.11008769546945892,-0.4896615533158181
0.07429306954145432,0.1978292465209961,126.00353240966797,0.10689750523823832,-0.48942230887711025,0.11008769546945892,-0.4896615533158181
0.06431248784065247,0.19229713082313538,126.0036849975586,0.10689750523823832,-0.48942230887711025,0.11008769546945892,-0.4896615533158181
0.09049086272716522,0.1983928084373474,126.002685546875,0.10689750523823832,-0.48942230887711025,0.11008769546945892,-0.4896615533158181
0.06651035696268082,0.19146206974983215,126.0027847290039,0.10689750523823832,-0.48942230887711025,0.11008769546945892,-0.4896615533158181
0.07661911100149155,0.1886351853609085,126.00323486328125,0.10689750523823832,-0.48942230887711025,0.11008769546945892,-0.4896615533158181
0.07784312963485718,0.19227512180805206,126.0027847290039,0.10689750523823832,-0.48942230887711025,0.11008769546945892,-0.4896615533158181
0.053759098052978516,0.19416743516921997,126.00341033935547,0.10689750523823832,-0.48942230887711025,0.11008769546945892,-0.4896615533158181
0.08125467598438263,0.18643192946910858,126.00282287597656,0.10689750523823832,-0.48942230887711025,0.11008769546945892,-0.4896615533158181
0.06804317235946655,0.17659829556941986,126.0040283203125,0.10689750523823832,-0.48942230887711025,0.11008769546945892,-0.4896615533158181
0.07403035461902618,0.19077710807323456,126.00411987304688,0.10689750523823832,-0.48942230887711025,0.11008769546945892,-0.4896615533158181
0.07167094200849533,0.19690856337547302,126.00430297851562,0.10689750523823832,-0.48942230887711025,0.11008769546945892,-0.4896615533158181
0.06154460087418556,0.19036567211151123,126.00496673583984,0.10689750523823832,-0.48942230887711025,0.11008769546945892,-0.4896615533158181
0.06642956286668777,0.18116700649261475,126.00408172607422,0.10689750523823832,-0.48942230887711025,0.11008769546945892,-0.4896615533158181
0.07202895730733871,0.17773574590682983,126.00484466552734,0.10689750523823832,-0.48942230887711025,0.11008769546945892,-0.4896615533158181
0.07949890196323395,0.1849704384803772,126.00413513183594,0.10689750523823832,-0.48942230887711025,0.11008769546945892,-0.4896615533158181
0.06652192026376724,0.18427567183971405,126.0032730102539,0.10689750523823832,-0.48942230887711025,0.11008769546945892,-0.4896615533158181
0.07402724772691727,0.19233091175556183,126.0031967163086,0.10689750523823832,-0.48942230887711025,0.11008769546945892,-0.4896615533158181
0.08272381871938705,0.17502444982528687,126.0025405883789,0.10689750523823832,-0.48942230887711025,0.11008769546945892,-0.4896615533158181
0.07366976886987686,0.18634214997291565,126.00169372558594,0.10689750523823832,-0.48942230887711025,0.11008769546945892,-0.4896615533158181
0.08082646131515503,0.18177014589309692,126.00202178955078,0.10689750523823832,-0.48942230887711025,0.11008769546945892,-0.4896615533158181
0.0761268213391304,0.1808702051639557,126.00216674804688,0.10689750523823832,-0.48942230887711025,0.11008769546945892,-0.4896615533158181
0.07605911791324615,0.17696230113506317,126.00230407714844,0.10689750523823832,-0.48942230887711025,0.11008769546945892,-0.4896615533158181
0.05027315020561218,0.18329577147960663,126.00205993652344,0.10689750523823832,-0.48942230887711025,0.11008769546945892,-0.4896615533158181
0.07688746601343155,0.18161553144454956,126.00040435791016,0.10689750523823832,-0.48942230887711025,0.11008769546945892,-0.4896615533158181
0.07449544221162796,0.17418093979358673,126.00074768066406,0.10689750523823832,-0.48942230887711025,0.11008769546945892,-0.4896615533158181
0.0724998265504837,0.16592548787593842,125.9994125366211,0.10689750523823832,-0.48942230887711025,0.11008769546945892,-0.4896615533158181
0.07247170060873032,0.17398139834403992,126.00001525878906,0.10689750523823832,-0.48942230887711025,0.11008769546945892,-0.4896615533158181
0.07143209874629974,0.16786737740039825,125.9996566772461,0.10689750523823832,-0.48942230887711025,0.11008769546945892,-0.4896615533158181
0.07728850096464157,0.18719695508480072,125.99882507324219,0.10689750523823832,-0.48942230887711025,0.11008769546945892,-0.4896615533158181
0.051699284464120865,0.1702536642551422,125.99884796142578,0.10689750523823832,-0.48942230887711025,0.11008769546945892,-0.4896615533158181
0.08197686076164246,0.18610624969005585,125.9991226196289,0.10689750523823832,-0.48942230887711025,0.11008769546945892,-0.4896615533158181
0.07590444386005402,0.18003027141094208,125.99909973144531,0.10689750523823832,-0.48942230887711025,0.11008769546945892,-0.4896615533158181
0.0601213164627552,0.1823243647813797,125.99765014648438,0.10689750523823832,-0.48942230887711025,0.11008769546945892,-0.4896615533158181
0.06950978934764862,0.1815730780363083,125.99685668945312,0.10689750523823832,-0.48942230887711025,0.11008769546945892,-0.4896615533158181
0.07321463525295258,0.1768219769001007,125.99668884277344,0.10689750523823832,-0.48942230887711025,0.11008769546945892,-0.4896615533158181
0.058024607598781586,0.1813371777534485,125.99625396728516,0.10689750523823832,-0.48942230887711025,0.11008769546945892,-0.4896615533158181
0.06307777762413025,0.16080130636692047,125.9959945678711,0.10689750523823832,-0.48942230887711025,0.11008769546945892,-0.4896615533158181
0.0728050172328949,0.1717851459980011,125.9942626953125,0.10689750523823832,-0.48942230887711025,0.11008769546945892,-0.4896615533158181
0.053154148161411285,0.1851559728384018,125.99282836914062,0.10689750523823832,-0.48942230887711025,0.11008769546945892,-0.4896615533158181
0.0827060267329216,0.1759958565235138,125.99227905273438,0.10689750523823832,-0.48942230887711025,0.11008769546945892,-0.4896615533158181
0.061143115162849426,0.17604506015777588,125.99251556396484,0.10689750523823832,-0.48942230887711025,0.11008769546945892,-0.4896615533158181
0.06535715609788895,0.15606829524040222,125.99189758300781,0.10689750523823832,-0.48942230887711025,0.11008769546945892,-0.4896615533158181
0.06305554509162903,0.16188617050647736,125.99080657958984,0.10689750523823832,-0.48942230887711025,0.11008769546945892,-0.4896615533158181
0.07910531759262085,0.17140869796276093,125.98998260498047,0.10689750523823832,-0.48942230887711025,0.11008769546945892,-0.4896615533158181
0.07778631895780563,0.16311879456043243,125.98880004882812,0.10689750523823832,-0.48942230887711025,0.11008769546945892,-0.4896615533158181
0.05860711634159088,0.16313809156417847,125.9879379272461,0.10689750523823832,-0.48942230887711025,0.11008769546945892,-0.4896615533158181
0.06976940482854843,0.16061900556087494,125.98721313476562,0.10689750523823832,-0.48942230887711025,0.11008769546945892,-0.4896615533158181
0.06755183637142181,0.16694657504558563,125.98725128173828,0.10689750523823832,-0.48942230887711025,0.11008769546945892,-0.4896615533158181
0.07439496368169785,0.16675232350826263,125.98628234863281,0.10689750523823832,-0.48942230887711025,0.11008769546945892,-0.4896615533158181
0.08335772901773453,0.16649894416332245,125.98571014404297,0.10689750523823832,-0.48942230887711025,0.11008769546945892,-0.4896615533158181
0.072081059217453,0.1605704426765442,125.98479461669922,0.10689750523823832,-0.48942230887711025,0.11008769546945892,-0.4896615533158181
0.07960712164640427,0.16864795982837677,125.98445129394531,0.10689750523823832,-0.48942230887711025,0.11008769546945892,-0.4896615533158181
0.07702086865901947,0.15390515327453613,125.98393249511719,0.10689750523823832,-0.48942230887711025,0.11008769546945892,-0.4896615533158181
0.0635039284825325,0.16829411685466766,125.98282623291016,0.10689750523823832,-0.48942230887711025,0.11008769546945892,-0.4896615533158181
0.06775049865245819,0.17266131937503815,125.98322296142578,0.10689750523823832,-0.48942230887711025,0.11008769546945892,-0.4896615533158181
0.07692034542560577,0.15297198295593262,125.98221588134766,0.10689750523823832,-0.48942230887711025,0.11008769546945892,-0.4896615533158181
0.07114875316619873,0.17161302268505096,125.98133850097656,0.10689750523823832,-0.48942230887711025,0.11008769546945892,-0.4896615533158181
0.07073213905096054,0.15456141531467438,125.98068237304688,0.10689750523823832,-0.48942230887711025,0.11008769546945892,-0.4896615533158181
0.08340097963809967,0.17040833830833435,125.98078155517578,0.10689750523823832,-0.48942230887711025,0.11008769546945892,-0.4896615533158181
0.058802515268325806,0.15567752718925476,125.98092651367188,0.10689750523823832,-0.48942230887711025,0.11008769546945892,-0.4896615533158181
0.0730491504073143,0.16564933955669403,125.98066711425781,0.10689750523823832,-0.48942230887711025,0.11008769546945892,-0.4896615533158181
0.07368430495262146,0.16010881960391998,125.98040771484375,0.10689750523823832,-0.48942230887711025,0.11008769546945892,-0.4896615533158181
0.08174332976341248,0.15325132012367249,125.98016357421875,0.10689750523823832,-0.48942230887711025,0.11008769546945892,-0.4896615533158181
0.06410565227270126,0.1548900604248047,125.98016357421875,0.10689750523823832,-0.48942230887711025,0.11008769546945892,-0.4896615533158181
0.06827957928180695,0.1588011384010315,125.98027038574219,0.10689750523823832,-0.48942230887711025,0.11008769546945892,-0.4896615533158181
0.063436359167099,0.15801748633384705,125.98095703125,0.10689750523823832,-0.48942230887711025,0.11008769546945892,-0.4896615533158181
0.05942564830183983,0.15484412014484406,125.98031616210938,0.10689750523823832,-0.48942230887711025,0.11008769546945892,-0.4896615533158181
0.0725240409374237,0.16900894045829773,125.9800796508789,0.10689750523823832,-0.48942230887711025,0.11008769546945892,-0.4896615533158181
0.06201533228158951,0.15688179433345795,125.98068237304688,0.10689750523823832,-0.48942230887711025,0.11008769546945892,-0.4896615533158181
0.06960579752922058,0.16409853100776672,125.98021697998047,0.10689750523823832,-0.48942230887711025,0.11008769546945892,-0.4896615533158181
0.05340123549103737,0.16428935527801514,125.98072052001953,0.10689750523823832,-0.48942230887711025,0.11008769546945892,-0.4896615533158181
0.06918282806873322,0.15144222974777222,125.98031616210938,0.10689750523823832,-0.48942230887711025,0.11008769546945892,-0.4896615533158181
0.060920894145965576,0.15612483024597168,125.97935485839844,0.10689750523823832,-0.48942230887711025,0.11008769546945892,-0.4896615533158181
0.07446485012769699,0.15076468884944916,125.97879791259766,0.10689750523823832,-0.48942230887711025,0.11008769546945892,-0.4896615533158181
0.07039675116539001,0.1377812623977661,125.9776382446289,0.10689750523823832,-0.48942230887711025,0.11008769546945892,-0.4896615533158181
0.04914933443069458,0.14845050871372223,125.9771957397461,0.10689750523823832,-0.48942230887711025,0.11008769546945892,-0.4896615533158181
0.05686952918767929,0.15074379742145538,125.97625732421875,0.10689750523823832,-0.48942230887711025,0.11008769546945892,-0.4896615533158181
0.06706765294075012,0.1487678736448288,125.97711944580078,0.10689750523823832,-0.48942230887711025,0.11008769546945892,-0.4896615533158181
0.0689392164349556,0.1498938500881195,125.9771728515625,0.10689750523823832,-0.48942230887711025,0.11008769546945892,-0.4896615533158181
0.07769204676151276,0.15290197730064392,125.97651672363281,0.10689750523823832,-0.48942230887711025,0.11008769546945892,-0.4896615533158181
0.05850619450211525,0.1529526710510254,125.97769165039062,0.10689750523823832,-0.48942230887711025,0.11008769546945892,-0.4896615533158181
0.05789337679743767,0.16028037667274475,125.97864532470703,0.10689750523823832,-0.48942230887711025,0.11008769546945892,-0.4896615533158181
0.07177796214818954,0.15526637434959412,125.9785385131836,0.10689750523823832,-0.48942230887711025,0.11008769546945892,-0.4896615533158181
0.07585755735635757,0.15589061379432678,125.97750091552734,0.10689750523823832,-0.48942230887711025,0.11008769546945892,-0.4896615533158181
0.06585333496332169,0.14672157168388367,125.9765853881836,0.10689750523823832,-0.48942230887711025,0.11008769546945892,-0.4896615533158181
0.06823449581861496,0.15421882271766663,125.9762954711914,0.10689750523823832,-0.48942230887711025,0.11008769546945892,-0.4896615533158181
0.08285199105739594,0.1509082019329071,125.97791290283203,0.10689750523823832,-0.48942230887711025,0.11008769546945892,-0.4896615533158181
0.0700312927365303,0.13487087190151215,125.9775161743164,0.10689750523823832,-0.48942230887711025,0.11008769546945892,-0.4896615533158181
0.07445209473371506,0.1580759733915329,125.97718811035156,0.10689750523823832,-0.48942230887711025,0.11008769546945892,-0.4896615533158181
0.07178580015897751,0.13576741516590118,125.97745513916016,0.10689750523823832,-0.48942230887711025,0.11008769546945892,-0.4896615533158181
0.06063579022884369,0.12844540178775787,125.97756958007812,0.10689750523823832,-0.48942230887711025,0.11008769546945892,-0.4896615533158181
0.05743170902132988,0.15088073909282684,125.9771957397461,0.10689750523823832,-0.48942230887711025,0.11008769546945892,-0.4896615533158181
0.04457743465900421,0.13867448270320892,125.97610473632812,0.10689750523823832,-0.48942230887711025,0.11008769546945892,-0.4896615533158181
0.07215175777673721,0.14130046963691711,125.97622680664062,0.10689750523823832,-0.48942230887711025,0.11008769546945892,-0.4896615533158181
0.07774687558412552,0.13460226356983185,125.9759292602539,0.10689750523823832,-0.48942230887711025,0.11008769546945892,-0.4896615533158181
0.06760421395301819,0.13899895548820496,125.97517395019531,0.10689750523823832,-0.48942230887711025,0.11008769546945892,-0.4896615533158181
0.06125686690211296,0.1511664241552353,125.97586059570312,0.10689750523823832,-0.48942230887711025,0.11008769546945892,-0.4896615533158181
0.06926654279232025,0.14148163795471191,125.97553253173828,0.10689750523823832,-0.48942230887711025,0.11008769546945892,-0.4896615533158181
0.055182382464408875,0.1433631181716919,125.97486114501953,0.10689750523823832,-0.48942230887711025,0.11008769546945892,-0.4896615533158181
0.06480711698532104,0.1286216676235199,125.97513580322266,0.10689750523823832,-0.48942230887711025,0.11008769546945892,-0.4896615533158181
0.06703794747591019,0.156301349401474,125.97457885742188,0.10689750523823832,-0.48942230887711025,0.11008769546945892,-0.4896615533158181
0.037652745842933655,0.1439725160598755,125.97582244873047,0.10689750523823832,-0.48942230887711025,0.11008769546945892,-0.4896615533158181
0.06130528822541237,0.13305436074733734,125.97563171386719,0.10689750523823832,-0.48942230887711025,0.11008769546945892,-0.4896615533158181
0.07590793818235397,0.1320866495370865,125.97563934326172,0.10874182885900763,-0.4975649221955486,0.11123113902285697,-0.48745204489678123
0.07477341592311859,0.1448952704668045,125.97566986083984,0.11060614515897924,-0.5056698880882725,0.11248681697373591,-0.48514386223008216
-0.07912606000900269,0.30223292112350464,125.96817016601562,0.11248062317492442,-0.5137245685565801,0.11245054493968688,-0.4814177939668296
-0.9312777519226074,1.7162744998931885,125.96134948730469,0.11428463199253507,-0.5216080243295678,0.10403051317359013,-0.46459689879169047
-1.4507710933685303,1.5600230693817139,125.92076873779297,0.1158530538200608,-0.529123785311563,0.08418010612949732,-0.437294419047733
-1.2762153148651123,2.4197747707366943,126.0024185180664,0.11706668153275841,-0.536135650779017,0.06145521939421697,-0.40412943704674625
-1.5814509391784668,0.593963623046875,126.12840270996094,0.117892486143909,-0.5426618540080056,0.037641333943853814,-0.37901495043188316
-0.5132644176483154,1.6172821521759033,126.14657592773438,0.11837437536541581,-0.5488252111141465,0.02018537263696396,-0.3605879023050267
0.376385360956192,1.6185511350631714,126.08184051513672,0.11870129275265048,-0.5546102988409498,0.019044713831196266,-0.33362262491136774
-1.0446999073028564,0.6969556212425232,125.98365783691406,0.1189722939174519,-0.5600098768425069,0.013475425944974063,-0.31432673527548693
-1.0437954664230347,1.3190585374832153,125.88119506835938,0.11905184994891495,-0.5651086547805202,-0.0039287021694083615,-0.2975266172861058
-0.8719832897186279,0.9238625168800354,125.79263305664062,0.11885333138802608,-0.5699116733287356,-0.01989352513725555,-0.27883560849974537
0,1.072805404663086,125.7413101196289,0.11846121824061913,-0.5744202759758464,-0.027160052551577447,-0.2621967091535527
-0.7024911046028137,0,125.83293151855469,0.11795976659360653,-0.5787157207530819,-0.03301414508993423,-0.25325666411469366
-1.535931944847107,0.5328060388565063,125.9476547241211,0.11725408479700694,-0.5828996647356284,-0.0516676705020169,-0.24881661379088946
0.7963478565216064,1.8495080471038818,126.03770446777344,0.11634159694917294,-0.5868811698206182,-0.057830871238062735,-0.22896399640788623
0.5190562009811401,1.378722071647644,126.1144027709961,0.11546909659919848,-0.5904730537802808,-0.04686917075887318,-0.20206207875162352
-0.81986403465271,0.5022683143615723,126.16445922851562,0.1146670543203234,-0.5937101307604461,-0.04937590270613626,-0.1863871588682134
-1.0690151453018188,0.611548125743866,126.16973114013672,0.11371295044327984,-0.5967392350443534,-0.06511656253909066,-0.17710535520066806
0,0.7362380623817444,126.14996337890625,0.11255343723809348,-0.5995973947013002,-0.07402502208327248,-0.16587380363295465
-0.6169185042381287,0.4082077145576477,126.1469955444336,0.11127684530724463,-0.6022824826940065,-0.07916600961859022,-0.15633675549179304
-0.7905328273773193,1.294411301612854,126.10418701171875,0.10985967213779484,-0.604769857853858,-0.09089477071538561,-0.1421482636903722
-1.2026113271713257,0.08438800275325775,126.25145721435547,0.10820634650402809,-0.6070432456303387,-0.10750430533662432,-0.13065826948732126
-0.42477309703826904,0.4890801012516022,126.35284423828125,0.10630159527451424,-0.6091810592812382,-0.1210658422050376,-0.1258793686206141
0,0.389840692281723,126.36941528320312,0.10425433310602485,-0.6112180125920309,-0.12460561801368984,-0.11855502867450307
1.0573194026947021,0,126.40476989746094,0.10225099776431715,-0.6131668574663086,-0.115794622991234,-0.11530635623882204
0,0.6892034411430359,126.55317687988281,0.10039451233965038,-0.6150407687202096,-0.10698362796877814,-0.10956299422929675
0.2770683765411377,0.34937649965286255,126.64576721191406,0.09863069273298611,-0.6167946950170315,-0.10467472483093533,-0.10090816138933092
-0.7485167980194092,0.6942450404167175,126.69879150390625,0.09685337451209008,-0.6184040239887933,-0.10860346167658759,-0.09221131522208442
-0.48585134744644165,0.569419264793396,126.82051086425781,0.0949575968073785,-0.6198531247768552,-0.11888986288880302,-0.08168077934533348
-0.3924744129180908,0.7093325853347778,126.99700164794922,0.09291510424809536,-0.6211256688874629,-0.12620924422517413,-0.0710245139275987
0.11583356559276581,-1.4089995622634888,127.05878448486328,0.09079240567438931,-0.6223579987707651,-0.12851458461955184,-0.07685507206867129
0.4057227075099945,0.7727054953575134,126.98564910888672,0.08868671511636225,-0.6236831037265559,-0.12416828234369551,-0.08215752262622109
-0.4493694007396698,0.3070923388004303,126.86640930175781,0.08661421272360416,-0.6249774098096208,-0.12453200478727613,-0.07315920734157155
-1.5447323322296143,0.13010983169078827,126.77755737304688,0.08440020002347114,-0.6261663686701406,-0.14114951922868685,-0.0695158559208114
0.43030786514282227,0.6000638008117676,126.71580505371094,0.08197031744833422,-0.6272742597665637,-0.15043638978774346,-0.06343107564995677
0.6822177171707153,1.4599430561065674,126.70305633544922,0.07954030300619916,-0.6281883883289993,-0.14116534326846397,-0.046264351842303986
0.7417908906936646,0.5471324920654297,126.63288116455078,0.07728643677171534,-0.6288200806133035,-0.12929860486959413,-0.02953872227420401
-0.42958807945251465,0,126.53048706054688,0.0751531407746694,-0.6292743973392579,-0.12669691477591788,-0.024979284840325428
-0.249838724732399,0.3117102086544037,126.43518829345703,0.07299434311144683,-0.6296690722109957,-0.13235880481079215,-0.022381699768205397
-1.7551805973052979,-0.5125090479850769,126.27347564697266,0.07064912557834767,-0.6300560449043081,-0.14906729916110628,-0.02405502342929434
0.6863654255867004,0.7362394332885742,126.21781158447266,0.06809044731651544,-0.6304414251291502,-0.15797409225876125,-0.022190603551765196
0.4433627724647522,0.3144938349723816,126.26104736328125,0.06553599912595633,-0.6307383009336059,-0.14855969060833246,-0.013434492982923898
0.6439393758773804,-0.09318985790014267,126.25122833251953,0.06313551137611899,-0.6309468408182469,-0.13949883937214802,-0.011590293173988573
0.4886367619037628,0.10155148804187775,126.21408081054688,0.06088918184059577,-0.6311394317023868,-0.1300607048906385,-0.011520612922807448
0.12206879258155823,0.7832430601119995,126.16171264648438,0.05876391353370216,-0.631269997851923,-0.12497149193659417,-0.004147325021525138
-0.5655879378318787,0,126.08139038085938,0.05665025539411654,-0.6312847280564405,-0.12866748481368018,0.0023797004794081913
-0.7734465599060059,0,125.99793243408203,0.054412808807101185,-0.6312450663817837,-0.13982610562816256,0.0023797004794081913
0,1.4242150783538818,126.14187622070312,0.05202866214663834,-0.6311065008822412,-0.14627149362737926,0.014248159465690542
-0.2021249681711197,-0.5288174748420715,126.28648376464844,0.04957676746339235,-0.6308068511686803,-0.1479558683621386,0.021709806161622294
-0.07204381376504898,0,126.35621643066406,0.04709179682527781,-0.6304817445017395,-0.15024060821160665,0.017302993871271696
0.5917347073554993,0.11392565816640854,126.38037109375,0.04462387633380593,-0.6301854497665124,-0.14590985076501956,0.01825237435599177
1.2165026664733887,0,126.36750030517578,0.042317617527571495,-0.6298733320232065,-0.13084120598311216,0.019201754840711842
-0.786459743976593,-0.3420853912830353,126.4337387084961,0.04016679485302635,-0.6295770587058115,-0.12725751496230553,0.01635104324668655
-0.33739715814590454,1.187766671180725,126.59639739990234,0.037967790652118305,-0.6292458134517072,-0.13662298914665968,0.023398387245833964
0.39117681980133057,0.2741861641407013,126.77162170410156,0.03569447553173338,-0.6287543158284904,-0.13617482529953112,0.03558132754017918
-0.7821027636528015,-1.570999264717102,126.79100036621094,0.033397747475084845,-0.6282513501681386,-0.13943254149829337,0.02477455170204251
-0.6339505314826965,-0.07185220718383789,126.781005859375,0.030975534749062214,-0.6279525278808754,-0.15123298562442253,0.011084122769534677
-0.3412567973136902,0.5022967457771301,126.7696533203125,0.028387262257488756,-0.6277379005195364,-0.15935971336439242,0.014671160591145446
0.4435735046863556,0.4176475703716278,126.6505355834961,0.02573837236164976,-0.6274294961543958,-0.15850707413628687,0.02233736322571843
1.0582859516143799,1.4793654680252075,126.48151397705078,0.023200883588288087,-0.6269254697507451,-0.14599157866711407,0.03814580521235872
0.4857305884361267,0.37429356575012207,126.43289184570312,0.020874913981339692,-0.6261609800087492,-0.1331247741666932,0.05359296382715313
0,-0.23404672741889954,126.38909912109375,0.018689899036091757,-0.6252580245811903,-0.1290770192630588,0.05476168747991332
-0.5203746557235718,0,126.33380126953125,0.01650247825283775,-0.624361583034818,-0.1334134747274219,0.05281129808475583
0.15871182084083557,0.8968887329101562,126.28221130371094,0.01425380486606942,-0.62341911079362,-0.13642733168477805,0.06028537085900713
0.5523126125335693,-0.20944803953170776,126.32637023925781,0.012029392701418564,-0.6223666156755964,-0.13050212807332467,0.06601404330382753
0.8874908089637756,1.0246888399124146,126.35269165039062,0.009954343582244913,-0.6212097676760617,-0.11850376622751346,0.07280771664033342
0,0,126.3313980102539,0.008040912117964396,-0.61992514678484,-0.11110800948614867,0.0813467903062702
-0.6465837359428406,-0.2570040225982666,126.19588470458984,0.006144210311532554,-0.6185872144479715,-0.11649620728567234,0.07920509011795132
-1.623071551322937,-0.19777242839336395,126.1896743774414,0.00404499190626678,-0.6172987113106578,-0.1354100013462205,0.07541528635968774
-0.6875590085983276,0.21896830201148987,126.68718719482422,0.0016276980949463506,-0.6160403179356618,-0.15466525601223102,0.07559191863983879
-0.0807749330997467,0.7341790199279785,126.7891845703125,-0.0010034126956531995,-0.6147142618387521,-0.16106803885971496,0.08353481298933435
0.5547649264335632,0.8370365500450134,126.93460083007812,-0.003654964038222489,-0.6132129027632373,-0.15711812224859983,0.09662827607244262
0,-1.9284675121307373,127.0198974609375,-0.006235074066919045,-0.6116782253121748,-0.1524950811949868,0.08753301805506158
-0.5340242385864258,-0.15059500932693481,126.98701477050781,-0.00881374377007066,-0.6103637210196916,-0.15694528318320702,0.07020749704291432
-1.0050166845321655,0.5308842062950134,126.949951171875,-0.011536376331674012,-0.6091671870969647,-0.16977062420919528,0.07337657368431498
-0.8584174513816833,0.45523762702941895,126.8883056640625,-0.014495291883487952,-0.6078757635193563,-0.18529924200847736,0.08159425562868525
1.9409083127975464,0.4794565737247467,126.71917724609375,-0.01750843960714203,-0.6064509499393814,-0.17627848483001185,0.08938337396830329
0.7642185688018799,1.260899543762207,126.55358123779297,-0.020258558320864487,-0.6048403689761953,-0.1537357608166833,0.1038863416140279
0.40296050906181335,-0.6830909848213196,126.48648834228516,-0.02273976689851312,-0.6030688043549239,-0.14400926850115253,0.1087014129385353
-0.5737771391868591,0,126.41242980957031,-0.025151783639513235,-0.6013045510132277,-0.14543274041886126,0.1030089880650243
-1.4381659030914307,-0.8517414331436157,126.2882080078125,-0.027715380913319137,-0.5996468832561123,-0.162198932437847,0.09591114278882751
-0.1529577374458313,0.7760695815086365,126.24324798583984,-0.030529191151209452,-0.5980536191993286,-0.17545829610899086,0.09528054402520268
1.4175323247909546,-0.18784791231155396,126.22136688232422,-0.03336567840668255,-0.5964247614052144,-0.1649201745477815,0.10018239126851171
0.8767408728599548,1.1339225769042969,126.21958923339844,-0.03595502345486426,-0.5946893552545869,-0.14580123123402391,0.10806634680678456
0,-0.33475765585899353,126.12800598144531,-0.038324159192593826,-0.5928327519105123,-0.1384950572935243,0.1147260544821621
-1.0324550867080688,0.5532650947570801,125.93817138671875,-0.04070410841739618,-0.590905476874775,-0.1470988496827582,0.11654694980631282
0.3329933285713196,0.2850516438484192,126.13653564453125,-0.04320432964531276,-0.5889048112711556,-0.1529276976672311,0.12353292262802532
-1.2982033491134644,-1.415209412574768,126.24152374267578,-0.04582015308008204,-0.5869244124057389,-0.1609711145050823,0.11411494122197241
-0.6579405665397644,-0.07930152118206024,127.0170669555664,-0.048638848315975994,-0.5851262822002169,-0.17727231380219255,0.1016606834406655
0.5466952323913574,0.818508505821228,126.87712097167969,-0.05160111224977284,-0.5833806036578281,-0.17819935825342928,0.1078207416459919
1.0284173488616943,1.1655620336532593,126.451171875,-0.054461718735854085,-0.5814458086207092,-0.1650734200763205,0.1243546628082793
0.5006330609321594,-0.9344611763954163,126.38626098632812,-0.057106758347557074,-0.5793571822365949,-0.1523313333280384,0.12628050328542798
-1.0485613346099854,-0.6981513500213623,126.3912582397461,-0.059683664477585344,-0.5773658830517279,-0.1568974022753536,0.11267539889862149
-0.5915125012397766,-0.2618730962276459,126.35106658935547,-0.06241251519855302,-0.5755546281010737,-0.17056468424076826,0.10467519517987976
0.47567909955978394,0.395250529050827,126.3016357421875,-0.06526330392212694,-0.5738007791930185,-0.17152996258810152,0.1057866737867396
-0.12373378127813339,1.1635582447052002,126.26464080810547,-0.06809769598482573,-0.571929417353951,-0.16859708493575443,0.11877674690137316
1.3088562488555908,0,126.2710189819336,-0.0708253472290621,-0.5698690022497125,-0.15872106437260894,0.12847306560724983
0.8223000168800354,0,126.28102111816406,-0.0733227013390406,-0.5677277844895916,-0.14096142882481205,0.12847306560724983
-0.6039035320281982,-0.49674713611602783,126.19050598144531,-0.07565689206356165,-0.5656210630583677,-0.13914145811771342,0.12433350613961627
0.5984874367713928,0.4320353865623474,126.27300262451172,-0.0779762924832497,-0.5635533318275375,-0.13918659224485347,0.12379424156000227
-1.0806175470352173,-0.21041284501552582,126.4511489868164,-0.08032955027832114,-0.5614747040139301,-0.14320434316371866,0.12564109607289245
1.128777027130127,-0.7029200196266174,126.48111724853516,-0.08271294492270986,-0.5594441116394264,-0.14280301416292776,0.11802998886754126
1.2379827499389648,0.9789915680885315,126.55220794677734,-0.08492863684090664,-0.5574577735229909,-0.12308001602068533,0.12033058510472389
-0.706427276134491,0.20979595184326172,126.69617462158203,-0.08694305686668163,-0.5553697090823613,-0.11865038707231472,0.13023714777082215
-0.1914878934621811,0.072250597178936,126.77658081054688,-0.08898291853799777,-0.5531795033869432,-0.1261330134856203,0.13258753567934048
0.8844025731086731,-0.49826663732528687,126.92916107177734,-0.09103701635444932,-0.5509992955728532,-0.12035872448856622,0.12903740201145422
-0.5150247812271118,-0.32921209931373596,127.05644989013672,-0.09301734386037809,-0.5489061360071511,-0.11728057622288654,0.12214174587279569
0.8280709981918335,1.1176180839538574,126.7048568725586,-0.09495028081013698,-0.5468156898270045,-0.11467185774818052,0.12871179574479671
-0.1320132166147232,-1.0047719478607178,126.6785888671875,-0.09681314109333047,-0.5446626566940291,-0.10887137623503794,0.12965218021223954
-0.6930327415466309,-0.978302001953125,126.76122283935547,-0.09868495888878676,-0.5426395004925623,-0.11574675921971589,0.11312656396379085
-0.3300164043903351,0.2253153771162033,126.75482940673828,-0.10068511662202764,-0.5408063484976683,-0.1242721687691906,0.10685167542348317
1.5249253511428833,0.5236685872077942,126.711181640625,-0.10267333964687855,-0.53897347446531,-0.11431459421291937,0.11309320845951648
0.8576874732971191,0.32277458906173706,126.54943084716797,-0.1044131236598411,-0.5370298068815216,-0.09445948734258601,0.1201469015950959
1.0614458322525024,-0.46667444705963135,126.454345703125,-0.10585417530266547,-0.5350373515672976,-0.07846670979633916,0.11894773611178011
-1.1374874114990234,-0.07670142501592636,126.42984771728516,-0.10716723446449658,-0.5330926237343288,-0.0791003896233935,0.1144196038444838
0.663027286529541,-0.8277604579925537,126.46402740478516,-0.10851852291134269,-0.5312484401899074,-0.08305422399813918,0.10688242148607979
0.43533480167388916,0.5354548096656799,126.47354888916016,-0.10982648483296421,-0.5294873655018287,-0.07390120659644393,0.10444654108335584
0.38581740856170654,0.44234025478363037,126.5151596069336,-0.11100114715052747,-0.5276786873820749,-0.06705827151114731,0.1125948332871001
0.1855158805847168,-0.8695833683013916,126.48980712890625,-0.1120791090861892,-0.5258317764879509,-0.062297160768260446,0.10903447400778542
0.7764101028442383,1.3131717443466187,126.56714630126953,-0.11305059468347764,-0.5239837305061513,-0.05428111090635249,0.1127310438081623
-0.5768329501152039,-0.5527835488319397,126.84358215332031,-0.1139414203407551,-0.5220520750402157,-0.05261796796694387,0.11906761210411797
-0.22498686611652374,-0.17224282026290894,127.04544067382812,-0.11487406840522027,-0.5201179638918897,-0.05929979976887493,0.11302572569499422
-1.534389853477478,-0.2841656506061554,127.06534576416016,-0.11598457734022888,-0.5182658968296724,-0.07396127243215828,0.10922232177108536
1.0103480815887451,0.9558923840522766,126.90055847167969,-0.11725365700381268,-0.5163988771103316,-0.07832828719789772,0.11482004454980303
-0.12265293300151825,0.5969937443733215,126.77855682373047,-0.11849748296068131,-0.5143773703866942,-0.0709308276263375,0.127760762286683
0.7011764049530029,0.5367551445960999,126.6097412109375,-0.11963948818001253,-0.5121692917868488,-0.06610979869340845,0.13720866969476153
0.8628548979759216,-0.4777953326702118,126.58953857421875,-0.12063270487331039,-0.5098783861938857,-0.05307620450233408,0.1377000014608106
-1.3228609561920166,-0.34045496582984924,126.47662353515625,-0.12154925314683653,-0.5076402091069347,-0.056909588320801535,0.1308812489733101
0,0.28931236267089844,126.41657257080078,-0.12258961162969655,-0.5054624065270434,-0.06793342962240168,0.13045506061365217
0.6684902310371399,0.7002357840538025,126.47007751464844,-0.12367541252402565,-0.5032194368955156,-0.062362677697092174,0.13870129516969135
-0.18706542253494263,-0.6012135744094849,126.61910247802734,-0.12468135820727565,-0.5009008721003511,-0.0583508042929072,0.13952648025006065
-0.8100081086158752,0,126.6372299194336,-0.12572311282959847,-0.4986171817055174,-0.06665975038583068,0.1345163671299816
0.21934805810451508,-0.6224581599235535,126.59955596923828,-0.1268751267284256,-0.4964184685144568,-0.07158191747342535,0.12932921579728532
1.0023858547210693,0.8976144790649414,126.63645935058594,-0.12798331605348093,-0.4942438735067839,-0.061400801533212146,0.13162218512346355
0.1463432013988495,0.2891181707382202,126.68838500976562,-0.1289268898945817,-0.49196775843182317,-0.05182805939887949,0.14151162387182323
-0.1571802943944931,-1.8362298011779785,126.73332977294922,-0.1297914434604655,-0.4897166696749622,-0.051918368507176516,0.1286190269514919
0.7945995330810547,1.1855055093765259,126.84040832519531,-0.130612484377343,-0.4876182084127013,-0.04660654151812184,0.12319632451981313
-0.1454513818025589,0.5172979235649109,126.98597717285156,-0.13134418033658402,-0.4854466860989724,-0.04119697359080104,0.13738635312765843
-0.16769923269748688,-0.6438971757888794,127.07352447509766,-0.13205254313354875,-0.4831657051615825,-0.043806562044968085,0.13633135935912535
-0.6832222938537598,0.25186100602149963,127.09449768066406,-0.13284174427364207,-0.48092074057294204,-0.05089757476622847,0.1330643912777305
0,0,126.99506378173828,-0.13373748317904127,-0.4786855103706728,-0.05659109388167647,0.13516323299457633
0.7781861424446106,-0.11680589616298676,126.86001586914062,-0.1346266273727328,-0.4764409013413301,-0.050106209361304714,0.13418985052655144
1.370316743850708,-1.831215739250183,126.81414031982422,-0.1353125292727618,-0.4743396831127913,-0.03220201864217706,0.11795633689810836
0.8354535698890686,-1.6207350492477417,126.89897155761719,-0.13569605108945504,-0.4726134629692463,-0.013820599361012254,0.08919008032729232
2.0145328044891357,-2.650545120239258,127.24251556396484,-0.13572847869169566,-0.4714235783088947,0.009929287092139447,0.05359607891490066
1.5454939603805542,-2.057408332824707,127.50049591064453,-0.1353157664925996,-0.47085725153899805,0.03959617679938686,0.014363133472700955
1.0622835159301758,-1.3855714797973633,127.5372543334961,-0.13447473455453268,-0.47085696180144065,0.06132765576864294,-0.014328364965816298
2.3816020488739014,-1.1959824562072754,127.34794616699219,-0.13321344823861056,-0.4712750424630935,0.09002670214201025,-0.03584131443252162
2.1081724166870117,-0.35876595973968506,126.96947479248047,-0.13140121330946866,-0.47198036634363183,0.12744148935501787,-0.04879755123207963
1.4878184795379639,-0.7619935274124146,126.433837890625,-0.12902746689686942,-0.4728714893841076,0.15740808015689267,-0.05813721362501379
1.3556138277053833,-2.0085530281066895,125.79036712646484,-0.12620653831736264,-0.47403284201088003,0.18110334938392056,-0.08122510158767299
3.290339469909668,-2.976142168045044,125.26278686523438,-0.12286551351529626,-0.4757327530926296,0.219819626864046,-0.12276422822227076
2.447711944580078,-5.425938129425049,125.00505828857422,-0.11880337727488927,-0.4783623013614362,0.2676367219847939,-0.1927815640345215
1.3922295570373535,-3.558878183364868,125.04456329345703,-0.11407610263753037,-0.48219927300595533,0.2996362344982725,-0.26765503330777085
0.7076914310455322,-1.5959522724151611,125.28587341308594,-0.10893633754949786,-0.48701816456495844,0.31713557606562987,-0.3106119537726044
0.7208623290061951,-0.9149120450019836,125.6592788696289,-0.10355153949284487,-0.49236939603876695,0.3290401907327276,-0.331535823084414
0.7369142174720764,-0.40615564584732056,125.88916015625,-0.09796630183157176,-0.4979867339020384,0.34118832862004655,-0.3425447205081582
0,1.0002467632293701,125.9495620727539,-0.09222865508946876,-0.5036545562495784,0.34732928043231387,-0.33759396119664115
-0.4665626287460327,0.47497615218162537,125.91558074951172,-0.086472233931482,-0.50917867623373,0.3434412585260969,-0.32530043690154953
0.16907662153244019,0.6443634033203125,125.84841918945312,-0.08076887170654799,-0.5145226182685126,0.34096220846598363,-0.3159726072723667
0,0.638480544090271,125.70802307128906,-0.07507442680006407,-0.5196997420044819,0.3423711803120873,-0.3052822410439452
-0.6406485438346863,0.5731039643287659,125.57313537597656,-0.06941272994374002,-0.5247036415421297,0.33703244244679825,-0.29518570347378653
-0.6610981225967407,0.8667092323303223,125.43849182128906,-0.06388592164368445,-0.529523416239147,0.3261845535598697,-0.28318726016829415
-0.8613482117652893,0.8976375460624695,125.29584503173828,-0.05855523785757288,-0.5341206798267858,0.31349750077351946,-0.2684843703483542
-0.23244717717170715,0.9068747162818909,125.09367370605469,-0.05340623752446818,-0.5384701059810401,0.3043825391990445,-0.2534467681621512
0.4518970549106598,0.8686807751655579,124.82933044433594,-0.04831795562964112,-0.5425709163190587,0.30621128818020243,-0.23865047240008916
0.18570564687252045,0,124.53217315673828,-0.04317015619456947,-0.5464880991385627,0.3115246440283956,-0.23141146594037618
-0.30416813492774963,0,124.16849517822266,-0.03798630535576671,-0.5503449569042356,0.31053745662793536,-0.23141146594037618
0.12481928616762161,0.42833131551742554,123.75019836425781,-0.032823135859798354,-0.5541720694396642,0.30904288288826764,-0.2278420383110643
0.33782723546028137,0.8314543962478638,123.23567199707031,-0.02764029291432529,-0.5578819516259761,0.31289827056850017,-0.21734382404635358
-0.6665569543838501,0.44034266471862793,122.728271484375,-0.022448150190886647,-0.5614160294530705,0.3101588562441371,-0.20674551520496615
0.332820326089859,0.2531643807888031,122.20027923583984,-0.017302012074893666,-0.5648136278283263,0.3073777176750205,-0.20096628982573755
-0.2226685732603073,0,121.71282196044922,-0.012171400686363496,-0.5681454851323117,0.30829564894860007,-0.19885658665249753
0.38004472851753235,0.3618205487728119,121.21337127685547,-0.007022210970882854,-0.5714346351495219,0.30960711690907694,-0.1958414154127241
-0.7736943364143372,0.3884381949901581,120.71153259277344,-0.0018894291340577386,-0.5746465574380837,0.3063267035099369,-0.18958925921469935
0.29436784982681274,0.5084733963012695,120.1651840209961,0.003182729362872631,-0.5777440928978224,0.3023323161217075,-0.18211499595393746
0.8803979754447937,0.07484758645296097,119.61487579345703,0.00830318225832273,-0.5807388344288078,0.31212203133230426,-0.17725398776431886
-0.25147733092308044,-0.7952176928520203,119.07524108886719,0.013548891158619587,-0.5837430932600464,0.31736303670331856,-0.18325707198431102
0,0.373982310295105,118.50244140625,0.01882081140013857,-0.5868266302502402,0.31526739227895956,-0.18676736683895198
-0.40960264205932617,0.5205881595611572,118.04401397705078,0.024046823310200444,-0.5898772967482605,0.3118540369284652,-0.17931261292348313
-0.505062997341156,0,117.56241607666016,0.029180872145160942,-0.5928296883414601,0.3042318232667945,-0.1749743782604735
0.26842522621154785,0,117.1240463256836,0.03423496935439018,-0.5957459279791346,0.3022598418407144,-0.1749743782604735
0.16622841358184814,-0.10564983636140823,116.73675537109375,0.03930281766560996,-0.598669504411001,0.3058819555056594,-0.1758547935634852
0.09079165756702423,0.14275792241096497,116.33634948730469,0.04441869887342295,-0.6015978406866389,0.3080237894319,-0.17554555951307224
0.2190677523612976,0.11227048933506012,115.98204803466797,0.04957394671186631,-0.6045058897054856,0.3106059511813027,-0.17342032274852204
-0.31664401292800903,-0.2348312884569168,115.54602813720703,0.054743936435682,-0.6074047395845666,0.30979281567658007,-0.17444166274120418
1.0771218538284302,-0.15754660964012146,115.10307312011719,0.059959960991465305,-0.610339349095399,0.31613013101741694,-0.1777114785586795
0.2725279927253723,-0.7725780010223389,114.6756820678711,0.06532252219221071,-0.6133657990582285,0.32737721307203194,-0.18546251698086666
-0.10623648762702942,0.19121208786964417,114.17337799072266,0.07079035709793197,-0.6164972136407675,0.3287629756145181,-0.19030723292380577
0.5735988616943359,-0.10613862425088882,113.73936462402344,0.07630219574526194,-0.6196630929767463,0.332657662065079,-0.18959828739364948
-0.5253095626831055,0.1148679256439209,113.35816192626953,0.08184984353655571,-0.6228224582318215,0.3330600728901726,-0.1895255432153742
0,-0.3144747316837311,112.97382354736328,0.08736436492065003,-0.6259950788691638,0.32868249320114673,-0.19118893326570596
0.629639744758606,-0.09591706097126007,112.5798568725586,0.09288613145627737,-0.6292100605203044,0.3339294910741351,-0.19460886487116422
0.5013884902000427,-0.4756773114204407,112.2159423828125,0.09853016660160731,-0.6324932356551287,0.34335472636545716,-0.19937215130776173
0.5443946123123169,-1.1534134149551392,111.8284912109375,0.10432536920092829,-0.6359292361440342,0.35206958555306017,-0.21294790736089156
0.13510721921920776,-0.5813559889793396,111.4356689453125,0.11024038325400232,-0.6395988380308778,0.35773210081582285,-0.22740431906034556
0.41122040152549744,-0.578785240650177,111.02935791015625,0.1162405243523733,-0.6434694753783856,0.3622848309886954,-0.23707216264059153
-0.13513515889644623,-0.5832462310791016,110.71540069580078,0.12229777745514524,-0.6475013747190433,0.3645855413439375,-0.2467557582383355
-0.4658883512020111,-0.206008642911911,110.48959350585938,0.12833246540045404,-0.6516687800559317,0.35957701209311704,-0.2533328821882606
-0.7331094741821289,0.43802309036254883,110.38616180419922,0.1342421518641321,-0.655874882644663,0.3495853635482492,-0.2513994284595053
-0.06619081646203995,-0.3947136104106903,110.41068267822266,0.14001306762530819,-0.6600618655162136,0.34292452779288113,-0.25103851612657313
0.15133897960186005,-0.6306772232055664,110.43333435058594,0.1457343894887409,-0.6643170484817688,0.3436340958190463,-0.25958343974004194
0.5377082228660583,-0.7888279557228088,110.2751693725586,0.15150947491922973,-0.6687420158926395,0.3493761558396123,-0.27141264956444505
0.2129383385181427,-1.4553980827331543,109.75791931152344,0.1573845390833194,-0.6734214090824953,0.3556315438511473,-0.29011453321824476
0.9993067383766174,-2.071636199951172,108.9554443359375,0.163395915166734,-0.6785015842390969,0.36573358615860363,-0.31950648557394745
0.7336135506629944,-1.9074246883392334,107.8774185180664,0.1696118166227829,-0.684103016004794,0.38017458856726705,-0.3526653263097008
0.725994884967804,-2.3394012451171875,106.65546417236328,0.1760494214624895,-0.6902756899108901,0.3923379921975237,-0.38805554242183765
0.9122987389564514,-1.599195122718811,105.34244537353516,0.1827021583896652,-0.6970167959212427,0.40599043906355914,-0.420877178820471
0.8135407567024231,-1.1351546049118042,103.88867950439453,0.18958851567236748,-0.7042213009660027,0.4203724348607164,-0.4436634265507261
0.8294763565063477,-0.9045969247817993,102.33158874511719,0.1967088213306856,-0.7117573408202991,0.43406424413745615,-0.4606613559648395
0.6175225973129272,-0.5976378917694092,100.72306823730469,0.20404371143810288,-0.7195393519486403,0.44612256875261674,-0.4731799794360996
1.0223610401153564,-0.3386979401111603,99.12516784667969,0.21159296839213457,-0.7274907082609003,0.45978826573118575,-0.4809827780351043
0.7469602227210999,-0.15026859939098358,97.68592071533203,0.21937897568646242,-0.7355410439045064,0.47453260958815624,-0.4850574991976222
1.0986279249191284,0.11346521228551865,96.35999298095703,0.2274160183565178,-0.7436278913485713,0.48991251081849146,-0.48536419409016773
1.3682482242584229,0.26089388132095337,95.1339111328125,0.2357525377138522,-0.7516912974241292,0.5104698120616378,-0.4822445349767805
1.1219580173492432,0.5091012120246887,93.94949340820312,0.24443329890388005,-0.7596752344589266,0.5312215307417016,-0.47582790919890017
1.126201868057251,0.3647975027561188,92.8199462890625,0.25344311329717273,-0.767545012201493,0.5499561964534224,-0.4685454199090601
0.8666772246360779,0.7856529355049133,91.79447937011719,0.2627474442861668,-0.7752742101417647,0.5665635222258668,-0.45895833292355154
1.2078561782836914,0.37694475054740906,90.8441162109375,0.2723342344762451,-0.7828427797400702,0.5838513005835315,-0.4492700188731155
0.6155394911766052,0.2722156345844269,89.94647216796875,0.2821917141852387,-0.7902855328056546,0.5990462644957006,-0.4438603489970169
0.3647227883338928,0.0974804013967514,89.07131958007812,0.2922438923629108,-0.7976575319531062,0.6072151168249548,-0.44077954869717373
0.30519238114356995,-0.20438867807388306,88.2322006225586,0.30241066619676266,-0.8050112819506061,0.612797743237267,-0.4416704510028165
0.079616978764534,-0.27877911925315857,87.38541412353516,0.3126506847895996,-0.8124060094532453,0.6160044879031679,-0.44569684931387515
0,-0.15945298969745636,86.55274200439453,0.32292295521151104,-0.819864723060487,0.6166679627262056,-0.4493487835551303
0,-0.08906368166208267,85.74732208251953,0.33320075459028115,-0.8273711275552502,0.6166679627262056,-0.4514197558164598
0,-0.2413041889667511,84.96754455566406,0.34347855396905125,-0.8349177323654293,0.6166679627262056,-0.45417282140503346
0,-0.06046479567885399,84.23090362548828,0.35375635334782135,-0.8425082355683359,0.6166679627262056,-0.45668756294374685
0,0,83.4857177734375,0.36403415272659145,-0.850123893894876,0.6166679627262056,-0.4571914362410706
0.15638937056064606,-0.08521688729524612,82.81810760498047,0.37432281247831717,-0.857749669004956,0.6179712074808776,-0.457901576968531
0.4915654957294464,0,82.32233428955078,0.38466732946871307,-0.865387279793827,0.6233708313666284,-0.4586117176959914
0.5677706599235535,0,82.0672378540039,0.3951304083356328,-0.8730308084220936,0.6321986326637368,-0.4586117176959914
0.3654992878437042,-0.06642057746648788,82.0302963256836,0.40573186262640115,-0.8806789495904619,0.6399758822284639,-0.4591652225082121
0.27311450242996216,0,82.1830062866211,0.416442475510089,-0.8883363158390339,0.6452976638140778,-0.45971872732043284
0.008370420895516872,0.08957046270370483,82.43983459472656,0.416442475510089,-0.8883363158390339,0.6452976638140778,-0.45971872732043284
-0.18014387786388397,0.18306756019592285,82.78005981445312,0.416442475510089,-0.8883363158390339,0.6452976638140778,-0.45971872732043284
-0.31958961486816406,0.4204504191875458,83.2525634765625,0.416442475510089,-0.8883363158390339,0.6452976638140778,-0.45971872732043284
-0.3361167907714844,0.7852057814598083,83.84646606445312,0.416442475510089,-0.8883363158390339,0.6452976638140778,-0.45971872732043284
-0.08576450496912003,0.5713657140731812,84.58329772949219,0.416442475510089,-0.8883363158390339,0.6452976638140778,-0.45971872732043284
-0.12926848232746124,0.4745084047317505,85.4259262084961,0.416442475510089,-0.8883363158390339,0.6452976638140778,-0.45971872732043284
-0.41747424006462097,0.3459402620792389,86.32823944091797,0.416442475510089,-0.8883363158390339,0.6452976638140778,-0.45971872732043284
-0.5938326716423035,0.31591179966926575,87.26879119873047,0.416442475510089,-0.8883363158390339,0.6452976638140778,-0.45971872732043284
-0.6829990148544312,0.3966885507106781,88.2037353515625,0.416442475510089,-0.8883363158390339,0.6452976638140778,-0.45971872732043284
-0.5975094437599182,-0.3560824692249298,89.0164794921875,0.416442475510089,-0.8883363158390339,0.6452976638140778,-0.45971872732043284
-1.0863852500915527,0.27036431431770325,89.69351959228516,0.416442475510089,-0.8883363158390339,0.6452976638140778,-0.45971872732043284
-0.7253708243370056,-0.05836082622408867,90.17949676513672,0.416442475510089,-0.8883363158390339,0.6452976638140778,-0.45971872732043284
-0.4780691862106323,-0.19989709556102753,90.56635284423828,0.416442475510089,-0.8883363158390339,0.6452976638140778,-0.45971872732043284
-0.3681586980819702,0.6785426139831543,90.86774444580078,0.416442475510089,-0.8883363158390339,0.6452976638140778,-0.45971872732043284
0.03315553441643715,0.587509036064148,91.13263702392578,0.416442475510089,-0.8883363158390339,0.6452976638140778,-0.45971872732043284
-0.13001081347465515,0.6309318542480469,91.29708099365234,0.416442475510089,-0.8883363158390339,0.6452976638140778,-0.45971872732043284
-0.012717006728053093,0.42403602600097656,91.34056091308594,0.416442475510089,-0.8883363158390339,0.6452976638140778,-0.45971872732043284
-0.2773693799972534,0.1782388836145401,91.29473114013672,0.416442475510089,-0.8883363158390339,0.6452976638140778,-0.45971872732043284
-0.26945364475250244,0.17539268732070923,91.14946746826172,0.416442475510089,-0.8883363158390339,0.6452976638140778,-0.45971872732043284
-0.21349504590034485,0.34663528203964233,90.9248046875,0.416442475510089,-0.8883363158390339,0.6452976638140778,-0.45971872732043284
-0.3454170227050781,0.39655524492263794,90.60723114013672,0.416442475510089,-0.8883363158390339,0.6452976638140778,-0.45971872732043284
-0.2975917458534241,0.4345972239971161,90.17198944091797,0.416442475510089,-0.8883363158390339,0.6452976638140778,-0.45971872732043284
-0.22427083551883698,0.5543846487998962,89.66859436035156,0.416442475510089,-0.8883363158390339,0.6452976638140778,-0.45971872732043284
-0.0852847471833229,0.4938982129096985,89.10198211669922,0.416442475510089,-0.8883363158390339,0.6452976638140778,-0.45971872732043284
-0.3359644412994385,0.6453214883804321,88.49835205078125,0.416442475510089,-0.8883363158390339,0.6452976638140778,-0.45971872732043284
                                                                                                                                                                                                                                                                                                                                                                                                                                                                                                                                                                                                                                                                                                                                                                                                                                                                                                                                                                                                                                                                                                                                                                                                                                                                                                                                                                                                                                                                                                                                                                                                                                                                                                                                                                                                                                                                                                                                                                                                                                                                                                                                                                                                                                                                                                                                                                                                                                                                                                                                                                                                                                                                                                                                                                                                                                                                                                                                                                                                                                                                                                                                                                                                                                                                              