faccX,faccY,yaw,posX,posY,velX,velY
0,0,62.33815383911133,0.0,0.0,0.0,0.0
0,0,62.34320068359375,0.0,0.0,0.0,0.0
0,0,62.34190368652344,0.0,0.0,0.0,0.0
0,0.2211504727602005,62.34891128540039,0.0,1.535767171945837e-05,0.0,0.0018429206063350042
0.9981839656829834,0.7613855004310608,62.331260681152344,6.931833095020718e-05,0.00011430467996332381,0.008318199714024862,0.010030720382928848
0.5244441032409668,2.7898061275482178,62.321868896484375,0.00031369305319256253,0.0005280938827329211,0.02100676695505778,0.039623983949422834
1.4874521493911743,2.794034481048584,62.406497955322266,0.0008035208533207575,0.001576260324153635,0.037772569060325625,0.08615598902106285
0.5969001054763794,1.4557647705078125,62.5201301574707,0.0015778103553586538,0.0033073184225294325,0.055142171184221905,0.12157098278403282
0.8705928921699524,0.8827158212661743,62.64458465576172,0.002598755777710014,0.00549589595446984,0.06737127949794133,0.14105832104881605
-0.269939124584198,1.125173568725586,62.70729064941406,0.0037633225032024913,0.00798630473514398,0.07237672756115596,0.1577907326320807
0.9144559502601624,1.0414072275161743,62.61530303955078,0.005014359408782588,0.010766607278751002,0.07774770110845566,0.17584557260076206
1.4255163669586182,1.6505272388458252,62.697975158691406,0.006472652504841487,0.013884306715594399,0.09724747041861218,0.1982783598204454
-0.6672165989875793,1.418802261352539,62.67346954345703,0.008146103384594122,0.017402093927893374,0.10356663515170417,0.22385610565543176
2.209209442138672,0.3078400790691376,62.62765121459961,0.009979296806785795,0.02125293474023541,0.11641657551129661,0.2382447918256124
-0.40073472261428833,1.206039547920227,62.57963562011719,0.012045161587496599,0.02532881180031432,0.13148719817399981,0.2508604553838571
0,1.4170677661895752,62.608219146728516,0.014208786090215048,0.029691979620191787,0.12814774215221408,0.2727196830014388
1.8732171058654785,0.7117838859558105,62.62415313720703,0.01647466631399261,0.03438514459050364,0.14375788470109307,0.29046011343598366
-0.7768480777740479,0.44501715898513794,62.66580581665039,0.01894676779707273,0.03930647988700205,0.15289429326852166,0.3001001221438249
1.25205397605896,0.7401109933853149,62.686317443847656,0.021528006427817877,0.044390449155535965,0.15685434242089594,0.30997619008024535
0.14660486578941345,0.7031067609786987,62.62776565551758,0.024239374554405613,0.04965694244537089,0.16850983276963238,0.32200300469994547
-0.34567561745643616,2.1195623874664307,62.523006439208984,0.027034047409478165,0.055219677881234226,0.16685090983907386,0.3455252476036549
0.8847135901451111,-1.2051018476486206,62.45014190673828,0.029852329099343888,0.06104193621211582,0.1713428929448128,0.3531457521021366
-0.11655598133802414,0.7277089953422546,62.40217208862305,0.032761388260146816,0.06689454646574126,0.17774420635153854,0.3491674783329169
0,0.11464940756559372,62.30609893798828,0.03571569753396843,0.07277250154926959,0.176772906507055,0.3561871316904823
0.4905121922492981,0.37855231761932373,62.25117111206055,0.03869597598910333,0.07874320386391546,0.18086050810913248,0.36029714606702323
0.7065698504447937,-0.3071058988571167,62.256813049316406,0.04179344848833151,0.08475311785522434,0.19083619179824993,0.36089253289004164
0.7417755126953125,1.2313425540924072,62.272674560546875,0.04507463122407596,0.0908321765044497,0.20290573649108415,0.3685945050170024
-0.8230193257331848,1.099446177482605,62.237430572509766,0.0484507515674664,0.09713727858331468,0.20222870471576854,0.38801774444679415
0.4348924458026886,0.6109118461608887,62.279884338378906,0.05179427672384515,0.10372301585351427,0.19899431404968107,0.40227072797715663
-0.11585663259029388,0.3504636585712433,62.352359771728516,0.05513300388947959,0.1104942901742955,0.20165294582645102,0.41028219051659104
0.08051089197397232,0,62.36888122558594,0.05849143175459986,0.1173566644369728,0.20135839798798166,0.41320272100468475
-0.0731002539396286,0.1051236018538475,62.42866134643555,0.06184791968204083,0.12425067670384629,0.20142015330493454,0.4140787510201335
0.6442502737045288,-0.28042322397232056,62.442752838134766,0.06524458543294008,0.13113981563597918,0.20617973680297538,0.4126179208358129
0,0.08474569022655487,62.40817642211914,0.06872565398199693,0.1380031922656215,0.21154848908384646,0.41098727472126484
0.2734815180301666,0.4986003637313843,62.395774841308594,0.0722704539054798,0.14489349032027854,0.21382750173409784,0.415848491837581
-0.09716226905584335,1.003186821937561,62.4893798828125,0.07584648999333798,0.15192858929435413,0.21529682880888387,0.42836338505148885
0.6045134663581848,0.5153607726097107,62.6793098449707,0.07947000319552093,0.15917343373927806,0.21952475545307004,0.4410179483393828
0.6358359456062317,-0.1497207134962082,62.88041687011719,0.08321488449556963,0.16654912454903953,0.2298610005527735,0.4440649488319953
-2.0135860443115234,-0.4663563370704651,62.988948822021484,0.08695022408126132,0.1739074239010612,0.21837974973022942,0.4389309734106064
-0.06752762198448181,0.5250770449638367,62.9207763671875,0.09044536479438348,0.18122701795150836,0.20103713584442937,0.43942031264305115
0.944186806678772,0.15871140360832214,62.850425720214844,0.09385686283517218,0.18859817513782118,0.2083426290502151,0.4451185497144858
0,0.9419633746147156,62.81684112548828,0.09739480851425068,0.19609325338155031,0.21621085243920488,0.4542908395330111
0.4453950524330139,0.47259265184402466,62.7026252746582,0.10102925293354528,0.20376300043116014,0.21992247787614666,0.46607880642016725
0.9505575895309448,-0.6386865377426147,62.68516159057617,0.10479156872050634,0.21151944624053107,0.23155541655917966,0.46469469070434566
0.11001034080982208,-0.2551780045032501,62.63508224487305,0.10872447621387744,0.21920228382572532,0.2403934826453527,0.4572458195189634
-0.5025471448898315,0.7421514391899109,62.58853530883789,0.11270377475768333,0.22685686508400574,0.23712234261135262,0.4613039314746856
-1.5113595724105835,0.7500216364860535,62.48921203613281,0.11651595916806001,0.23464888707217244,0.22033978663384918,0.4737387071053187
1.1957695484161377,-1.3370680809020996,62.44477462768555,0.12016637297140233,0.24250376507639884,0.2177098697672288,0.4688466534018516
-0.07510194182395935,0.6496931910514832,62.41984176635742,0.12387269494020282,0.25027014159907895,0.2270487664888303,0.46311852931976316
-0.08750416338443756,-0.670449435710907,62.36384963989258,0.12764554895771052,0.2579873423485292,0.22569371561209364,0.46294556061426795
1.6714065074920654,-0.12243332713842392,62.33824157714844,0.13151710410291956,0.2656480403891247,0.23889290181299055,0.4563382042571902
-0.6281251907348633,0.408044695854187,62.362632751464844,0.13557110255791088,0.273273511249572,0.24758691278596723,0.4587182989964882
0.12744010984897614,-0.5430394411087036,62.324745178222656,0.13966278130705992,0.28090944159775966,0.24341453711191816,0.45759334278603386
-0.5568342208862305,0.8442595601081848,62.31929397583008,0.14368987122343652,0.28855691537467965,0.23983625285327437,0.4601035104443629
0.33245977759361267,0.16152991354465485,62.36396408081055,0.14767156054576244,0.29629515370664494,0.2379664658258359,0.4684850893914699
0.14823013544082642,-0.497575044631958,62.398223876953125,0.1516710495534871,0.3040799020623995,0.24197221510112288,0.4656847132990757
-0.2558669447898865,-0.1626954823732376,62.29556655883789,0.15569644502674546,0.3117954618307865,0.2410752416898807,0.4601824589073657
0.4013681709766388,0,62.18244552612305,0.15972446997339532,0.31945387118185553,0.24228775190810364,0.458826663220922
-0.6773195266723633,1.4722590446472168,62.16548538208008,0.16374343588327372,0.3272032224469714,0.23998815727730594,0.47109548859298217
1.1325422525405884,0.6166326403617859,62.28851318359375,0.16777485119385857,0.3351998758460912,0.24378167999287448,0.4885029193013905
-0.29870933294296265,-0.9504302740097046,62.50536346435547,0.17189578425760077,0.34331841077655545,0.25073028765618804,0.4857212723543245
-1.4273364543914795,0,62.67191696166992,0.1759547580944168,0.3513477632134324,0.23634657276173437,0.4778010200709103
-0.05628204718232155,0.1355452686548233,62.613914489746094,0.1797908385778364,0.3593205264138264,0.22398308524861937,0.4789305639763672
0.5620430111885071,-1.0285248756408691,62.441795349121094,0.1797908385778364,0.3593205264138264,0.22398308524861937,0.4789305639763672
-0.21317508816719055,0.909159243106842,62.29948043823242,0.1797908385778364,0.3593205264138264,0.22398308524861937,0.4789305639763672
2.0857908725738525,0.5063377618789673,62.30036163330078,0.1797908385778364,0.3593205264138264,0.22398308524861937,0.4789305639763672
-0.49809789657592773,-0.2846602499485016,62.38514709472656,0.1797908385778364,0.3593205264138264,0.22398308524861937,0.4789305639763672
-0.740485668182373,-2.5029520988464355,62.291080474853516,0.1797908385778364,0.3593205264138264,0.22398308524861937,0.4789305639763672
-1.697239875793457,-1.9962279796600342,61.823001861572266,0.1797908385778364,0.3593205264138264,0.22398308524861937,0.4789305639763672
-0.993769109249115,-3.3516688346862793,61.03287887573242,0.1797908385778364,0.3593205264138264,0.22398308524861937,0.4789305639763672
-1.5335854291915894,-1.9856526851654053,60.03904342651367,0.1797908385778364,0.3593205264138264,0.22398308524861937,0.4789305639763672
-0.4201677143573761,-1.9869948625564575,58.868751525878906,0.1797908385778364,0.3593205264138264,0.22398308524861937,0.4789305639763672
-1.2111858129501343,-1.6110738515853882,57.40882110595703,0.1797908385778364,0.3593205264138264,0.22398308524861937,0.4789305639763672
-0.8882198929786682,-2.047508478164673,55.702484130859375,0.1797908385778364,0.3593205264138264,0.22398308524861937,0.4789305639763672
-0.9704203009605408,-1.7668589353561401,53.83938980102539,0.1797908385778364,0.3593205264138264,0.22398308524861937,0.4789305639763672
-0.6054078340530396,-1.4898483753204346,51.87283706665039,0.1797908385778364,0.3593205264138264,0.22398308524861937,0.4789305639763672
-1.289562702178955,-1.0848479270935059,49.793453216552734,0.1797908385778364,0.3593205264138264,0.22398308524861937,0.4789305639763672
-0.3826095461845398,-1.2348829507827759,47.62843704223633,0.1797908385778364,0.3593205264138264,0.22398308524861937,0.4789305639763672
-2.0261762142181396,-0.9899081587791443,45.408607482910156,0.1797908385778364,0.3593205264138264,0.22398308524861937,0.4789305639763672
-0.3743128180503845,-1.3506978750228882,43.186119079589844,0.1797908385778364,0.3593205264138264,0.22398308524861937,0.4789305639763672
-0.7517944574356079,-1.6071016788482666,40.93214797973633,0.1797908385778364,0.3593205264138264,0.22398308524861937,0.4789305639763672
0.5993269085884094,-0.881023108959198,38.60665512084961,0.1797908385778364,0.3593205264138264,0.22398308524861937,0.4789305639763672
-1.3416684865951538,-0.044564034789800644,36.24854278564453,0.1797908385778364,0.3593205264138264,0.22398308524861937,0.4789305639763672
0.5392018556594849,-1.3080074787139893,33.906185150146484,0.1797908385778364,0.3593205264138264,0.22398308524861937,0.4789305639763672
-0.409312903881073,-0.31849104166030884,31.59465980529785,0.1797908385778364,0.3593205264138264,0.22398308524861937,0.4789305639763672
-0.3606513440608978,-0.7464072704315186,29.311918258666992,0.1797908385778364,0.3593205264138264,0.22398308524861937,0.4789305639763672
0.742844820022583,-1.621363639831543,27.165283203125,0.1797908385778364,0.3593205264138264,0.22398308524861937,0.4789305639763672
-0.27523186802864075,-0.49453845620155334,25.10154914855957,0.1797908385778364,0.3593205264138264,0.22398308524861937,0.4789305639763672
-0.481362521648407,-1.141245722770691,23.06076431274414,0.1797908385778364,0.3593205264138264,0.22398308524861937,0.4789305639763672
-0.9518752694129944,0.49900975823402405,21.050411224365234,0.1797908385778364,0.3593205264138264,0.22398308524861937,0.4789305639763672
-0.3847234547138214,-1.096330165863037,18.90677833557129,0.1797908385778364,0.3593205264138264,0.22398308524861937,0.4789305639763672
0.3869345784187317,-1.0798923969268799,16.742197036743164,0.1797908385778364,0.3593205264138264,0.22398308524861937,0.4789305639763672
-0.6601158976554871,-0.5844355821609497,14.433518409729004,0.1797908385778364,0.3593205264138264,0.22398308524861937,0.4789305639763672
-1.851607084274292,0.5511105060577393,12.025108337402344,0.1797908385778364,0.3593205264138264,0.22398308524861937,0.4789305639763672
0.049544356763362885,-1.3442753553390503,9.541359901428223,0.1797908385778364,0.3593205264138264,0.22398308524861937,0.4789305639763672
-1.0342025756835938,0.3877295255661011,7.033044338226318,0.1797908385778364,0.3593205264138264,0.22398308524861937,0.4789305639763672
-0.1240672916173935,-0.8063972592353821,4.431832790374756,0.1797908385778364,0.3593205264138264,0.22398308524861937,0.4789305639763672
0.8218948245048523,-1.465559720993042,1.8068599700927734,0.1797908385778364,0.3593205264138264,0.22398308524861937,0.4789305639763672
-0.49836382269859314,-0.3170345425605774,-0.7896236181259155,0.1797908385778364,0.3593205264138264,0.22398308524861937,0.4789305639763672
-0.5292977094650269,-0.10319285839796066,-3.4032366275787354,0.1797908385778364,0.3593205264138264,0.22398308524861937,0.4789305639763672
-0.6673603653907776,0.061318062245845795,-6.07345724105835,0.1797908385778364,0.3593205264138264,0.22398308524861937,0.4789305639763672
-0.2588236927986145,-0.8583378195762634,-8.783320426940918,0.1797908385778364,0.3593205264138264,0.22398308524861937,0.4789305639763672
-0.6211971640586853,0.8271574378013611,-11.478211402893066,0.1797908385778364,0.3593205264138264,0.22398308524861937,0.4789305639763672
-0.8742152452468872,-0.31066229939460754,-14.209434509277344,0.1797908385778364,0.3593205264138264,0.22398308524861937,0.4789305639763672
-0.46402719616889954,-1.2840595245361328,-17.010011672973633,0.1797908385778364,0.3593205264138264,0.22398308524861937,0.4789305639763672
-0.5613596439361572,1.7254377603530884,-19.795625686645508,0.1797908385778364,0.3593205264138264,0.22398308524861937,0.4789305639763672
-0.5789338946342468,-2.0546939373016357,-22.512834548950195,0.1797908385778364,0.3593205264138264,0.22398308524861937,0.4789305639763672
-0.15016968548297882,1.7896119356155396,-25.309734344482422,0.1797908385778364,0.3593205264138264,0.22398308524861937,0.4789305639763672
-1.2106554508209229,-1.4931116104125977,-28.029024124145508,0.1797908385778364,0.3593205264138264,0.22398308524861937,0.4789305639763672
-0.4289839565753937,0.7499251365661621,-30.835241317749023,0.1797908385778364,0.3593205264138264,0.22398308524861937,0.4789305639763672
-0.12050611525774002,-1.096970796585083,-33.45161437988281,0.1797908385778364,0.3593205264138264,0.22398308524861937,0.4789305639763672
0.24633826315402985,0.19143398106098175,-35.5975456237793,0.1797908385778364,0.3593205264138264,0.22398308524861937,0.4789305639763672
1.3173350095748901,1.640751600265503,-37.41783905029297,0.1797908385778364,0.3593205264138264,0.22398308524861937,0.4789305639763672
1.4852044582366943,0.9298854470252991,-38.927146911621094,0.1797908385778364,0.3593205264138264,0.22398308524861937,0.4789305639763672
1.0791980028152466,0.790835440158844,-40.019309997558594,0.1797908385778364,0.3593205264138264,0.22398308524861937,0.4789305639763672
0.7826746702194214,1.1626625061035156,-40.602359771728516,0.1797908385778364,0.3593205264138264,0.22398308524861937,0.4789305639763672
1.032345175743103,0.6720867156982422,-40.79811477661133,0.1797908385778364,0.3593205264138264,0.22398308524861937,0.4789305639763672
0.29999133944511414,-0.07296594232320786,-40.71880340576172,0.1797908385778364,0.3593205264138264,0.22398308524861937,0.4789305639763672
0.5231361389160156,-0.9435370564460754,-40.68186950683594,0.1797908385778364,0.3593205264138264,0.22398308524861937,0.4789305639763672
0.5364403128623962,-0.6625815629959106,-40.71913146972656,0.1797908385778364,0.3593205264138264,0.22398308524861937,0.4789305639763672
0.22444403171539307,-0.6263242959976196,-40.7247200012207,0.1797908385778364,0.3593205264138264,0.22398308524861937,0.4789305639763672
0.08145039528608322,0.06661900132894516,-40.70890808105469,0.1797908385778364,0.3593205264138264,0.22398308524861937,0.4789305639763672
-0.34785225987434387,-0.07149390131235123,-40.69420623779297,0.1797908385778364,0.3593205264138264,0.22398308524861937,0.4789305639763672
-0.5822115540504456,0.19063755869865417,-40.70029830932617,0.1797908385778364,0.3593205264138264,0.22398308524861937,0.4789305639763672
-0.6280809640884399,0.2440488189458847,-40.70140838623047,0.1797908385778364,0.3593205264138264,0.22398308524861937,0.4789305639763672
-0.277612566947937,-0.02526942826807499,-40.704444885253906,0.1797908385778364,0.3593205264138264,0.22398308524861937,0.4789305639763672
-0.027203209698200226,-0.16813132166862488,-40.69865036010742,0.1797908385778364,0.3593205264138264,0.22398308524861937,0.4789305639763672
0.01273670420050621,-0.2609749734401703,-40.70155715942383,0.1797908385778364,0.3593205264138264,0.22398308524861937,0.4789305639763672
0.11010599881410599,-0.3069140315055847,-40.70441818237305,0.1797908385778364,0.3593205264138264,0.22398308524861937,0.4789305639763672
0.006839622277766466,-0.2608422040939331,-40.699432373046875,0.1797908385778364,0.3593205264138264,0.22398308524861937,0.4789305639763672
-0.08334024250507355,-0.14132221043109894,-40.69449234008789,0.1797908385778364,0.3593205264138264,0.22398308524861937,0.4789305639763672
-0.149642676115036,-0.12296897917985916,-40.69636535644531,0.1797908385778364,0.3593205264138264,0.22398308524861937,0.4789305639763672
-0.2132893055677414,-0.05756372958421707,-40.69688415527344,0.1797908385778364,0.3593205264138264,0.22398308524861937,0.4789305639763672
-0.2365996390581131,-0.049431998282670975,-40.6987419128418,0.1797908385778364,0.3593205264138264,0.22398308524861937,0.4789305639763672
-0.178316131234169,-0.09005806595087051,-40.69886779785156,0.1797908385778364,0.3593205264138264,0.22398308524861937,0.4789305639763672
-0.08459650725126266,-0.15195715427398682,-40.69807815551758,0.1797908385778364,0.3593205264138264,0.22398308524861937,0.4789305639763672
-0.051140155643224716,-0.19234468042850494,-40.69772720336914,0.1797908385778364,0.3593205264138264,0.22398308524861937,0.4789305639763672
-0.06159602850675583,-0.17463599145412445,-40.696475982666016,0.1797908385778364,0.3593205264138264,0.22398308524861937,0.4789305639763672
-0.11198011785745621,-0.14896705746650696,-40.69590377807617,0.1797908385778364,0.3593205264138264,0.22398308524861937,0.4789305639763672
-0.15473122894763947,-0.11133985221385956,-40.696563720703125,0.1797908385778364,0.3593205264138264,0.22398308524861937,0.4789305639763672
-0.15989544987678528,-0.11638832092285156,-40.69751739501953,0.1797908385778364,0.3593205264138264,0.22398308524861937,0.4789305639763672
-0.12387467920780182,-0.13528557121753693,-40.69709014892578,0.1797908385778364,0.3593205264138264,0.22398308524861937,0.4789305639763672
-0.08605724573135376,-0.1491585522890091,-40.69755935668945,0.1797908385778364,0.3593205264138264,0.22398308524861937,0.4789305639763672
-0.08999421447515488,-0.15187214314937592,-40.696598052978516,0.1797908385778364,0.3593205264138264,0.22398308524861937,0.4789305639763672
-0.12872913479804993,-0.11634405702352524,-40.69606399536133,0.1797908385778364,0.3593205264138264,0.22398308524861937,0.4789305639763672
-0.12928424775600433,-0.12635882198810577,-40.696163177490234,0.1797908385778364,0.3593205264138264,0.22398308524861937,0.4789305639763672
-0.11934977024793625,-0.1195714995265007,-40.696083068847656,0.1797908385778364,0.3593205264138264,0.22398308524861937,0.4789305639763672
-0.10400187969207764,-0.14641979336738586,-40.695980072021484,0.1797908385778364,0.3593205264138264,0.22398308524861937,0.4789305639763672
-0.10130929201841354,-0.12539853155612946,-40.69686508178711,0.1797908385778364,0.3593205264138264,0.22398308524861937,0.4789305639763672
-0.12657807767391205,-0.1391332894563675,-40.6972541809082,0.1797908385778364,0.3593205264138264,0.22398308524861937,0.4789305639763672
-0.12580162286758423,-0.12827275693416595,-40.69773864746094,0.1797908385778364,0.3593205264138264,0.22398308524861937,0.4789305639763672
-0.11966918408870697,-0.1327252835035324,-40.69660949707031,0.1797908385778364,0.3593205264138264,0.22398308524861937,0.4789305639763672
-0.10364734381437302,-0.13880793750286102,-40.69662857055664,0.1797908385778364,0.3593205264138264,0.22398308524861937,0.4789305639763672
-0.09833788126707077,-0.14400553703308105,-40.69609451293945,0.1797908385778364,0.3593205264138264,0.22398308524861937,0.4789305639763672
-0.10219408571720123,-0.1329648643732071,-40.69620895385742,0.1797908385778364,0.3593205264138264,0.22398308524861937,0.4789305639763672
-0.10377983003854752,-0.13791212439537048,-40.696834564208984,0.1797908385778364,0.3593205264138264,0.22398308524861937,0.4789305639763672
-0.12008187174797058,-0.1313592940568924,-40.6961669921875,0.1797908385778364,0.3593205264138264,0.22398308524861937,0.4789305639763672
-0.10764468461275101,-0.14074242115020752,-40.69633865356445,0.1797908385778364,0.3593205264138264,0.22398308524861937,0.4789305639763672
-0.1091584786772728,-0.14258472621440887,-40.697593688964844,0.1797908385778364,0.3593205264138264,0.22398308524861937,0.4789305639763672
-0.10867030918598175,-0.13457582890987396,-40.69736862182617,0.1797908385778364,0.3593205264138264,0.22398308524861937,0.4789305639763672
-0.11054609715938568,-0.11705795675516129,-40.6981315612793,0.1797908385778364,0.3593205264138264,0.22398308524861937,0.4789305639763672
-0.11512087285518646,-0.12470003217458725,-40.698394775390625,0.1797908385778364,0.3593205264138264,0.22398308524861937,0.4789305639763672
-0.09996632486581802,-0.14039497077465057,-40.6983528137207,0.1797908385778364,0.3593205264138264,0.22398308524861937,0.4789305639763672
-0.11026468127965927,-0.13922198116779327,-40.698883056640625,0.1797908385778364,0.3593205264138264,0.22398308524861937,0.4789305639763672
-0.10730800032615662,-0.1476396769285202,-40.699073791503906,0.1797908385778364,0.3593205264138264,0.22398308524861937,0.4789305639763672
-0.10463681071996689,-0.13072001934051514,-40.69936752319336,0.1797908385778364,0.3593205264138264,0.22398308524861937,0.4789305639763672
-0.10834003984928131,-0.1351018249988556,-40.6983642578125,0.1797908385778364,0.3593205264138264,0.22398308524861937,0.4789305639763672
-0.11149673163890839,-0.1271894872188568,-40.698402404785156,0.1797908385778364,0.3593205264138264,0.22398308524861937,0.4789305639763672
-0.11321920901536942,-0.13031287491321564,-40.69831466674805,0.1797908385778364,0.3593205264138264,0.22398308524861937,0.4789305639763672
-0.11344732344150543,-0.13151435554027557,-40.69822311401367,0.1797908385778364,0.3593205264138264,0.22398308524861937,0.4789305639763672
-0.11990062147378922,-0.11980114132165909,-40.69843292236328,0.1797908385778364,0.3593205264138264,0.22398308524861937,0.4789305639763672
-0.10653235018253326,-0.13978064060211182,-40.698726654052734,0.1797908385778364,0.3593205264138264,0.22398308524861937,0.4789305639763672
-0.10806010663509369,-0.12136738002300262,-40.69960021972656,0.1797908385778364,0.3593205264138264,0.22398308524861937,0.4789305639763672
-0.12908029556274414,-0.12191028147935867,-40.699275970458984,0.1797908385778364,0.3593205264138264,0.22398308524861937,0.4789305639763672
-0.11421762406826019,-0.13032734394073486,-40.699745178222656,0.1797908385778364,0.3593205264138264,0.22398308524861937,0.4789305639763672
-0.11486736685037613,-0.13815216720104218,-40.698760986328125,0.1797908385778364,0.3593205264138264,0.22398308524861937,0.4789305639763672
-0.09795671701431274,-0.12999515235424042,-40.69917297363281,0.1797908385778364,0.3593205264138264,0.22398308524861937,0.4789305639763672
-0.11731079965829849,-0.13811664283275604,-40.70010757446289,0.1797908385778364,0.3593205264138264,0.22398308524861937,0.4789305639763672
-0.10827762633562088,-0.13757044076919556,-40.698974609375,0.1797908385778364,0.3593205264138264,0.22398308524861937,0.4789305639763672
-0.11477845907211304,-0.1313350647687912,-40.69842529296875,0.1797908385778364,0.3593205264138264,0.22398308524861937,0.4789305639763672
-0.11154835671186447,-0.13852424919605255,-40.69843292236328,0.1797908385778364,0.3593205264138264,0.22398308524861937,0.4789305639763672
-0.0984291285276413,-0.13764242827892303,-40.69768142700195,0.1797908385778364,0.3593205264138264,0.22398308524861937,0.4789305639763672
-0.10093283653259277,-0.12077739089727402,-40.696937561035156,0.1797908385778364,0.3593205264138264,0.22398308524861937,0.4789305639763672
-0.11002203077077866,-0.12602205574512482,-40.69732666015625,0.1797908385778364,0.3593205264138264,0.22398308524861937,0.4789305639763672
-0.10055934637784958,-0.1257670521736145,-40.697776794433594,0.1797908385778364,0.3593205264138264,0.22398308524861937,0.4789305639763672
-0.09628158807754517,-0.13525043427944183,-40.69696044921875,0.1797908385778364,0.3593205264138264,0.22398308524861937,0.4789305639763672
-0.09808315336704254,-0.12817253172397614,-40.69779586791992,0.1797908385778364,0.3593205264138264,0.22398308524861937,0.4789305639763672
-0.12307838350534439,-0.12017370760440826,-40.69828414916992,0.1797908385778364,0.3593205264138264,0.22398308524861937,0.4789305639763672
-0.09671720862388611,-0.12688709795475006,-40.697486877441406,0.1797908385778364,0.3593205264138264,0.22398308524861937,0.4789305639763672
-0.09625289589166641,-0.12621094286441803,-40.69737243652344,0.1797908385778364,0.3593205264138264,0.22398308524861937,0.4789305639763672
-0.10442505776882172,-0.1316455900669098,-40.6983757019043,0.1797908385778364,0.3593205264138264,0.22398308524861937,0.4789305639763672
-0.11275087296962738,-0.12431728094816208,-40.69823455810547,0.1797908385778364,0.3593205264138264,0.22398308524861937,0.4789305639763672
-0.11353061348199844,-0.12117177993059158,-40.6976318359375,0.1797908385778364,0.3593205264138264,0.22398308524861937,0.4789305639763672
-0.10876105725765228,-0.11032886058092117,-40.696983337402344,0.1797908385778364,0.3593205264138264,0.22398308524861937,0.4789305639763672
-0.09981118887662888,-0.13373124599456787,-40.69790267944336,0.1797908385778364,0.3593205264138264,0.22398308524861937,0.4789305639763672
-0.10513303428888321,-0.13057394325733185,-40.69820022583008,0.1797908385778364,0.3593205264138264,0.22398308524861937,0.4789305639763672
-0.1214556097984314,-0.1263260841369629,-40.69849395751953,0.1797908385778364,0.3593205264138264,0.22398308524861937,0.4789305639763672
-0.10201646387577057,-0.12248634546995163,-40.698177337646484,0.1797908385778364,0.3593205264138264,0.22398308524861937,0.4789305639763672
-0.1104905903339386,-0.13469256460666656,-40.69770812988281,0.1835091325643266,0.3672848428335661,0.22221219313020513,0.47678740639239536
0,-0.19905366003513336,-40.70564270019531,0.18720499615883462,0.375208122785617,0.22129143821075564,0.4740061878537137
1.2924264669418335,-0.8115516304969788,-40.6584587097168,0.1909829386336626,0.3830380449935586,0.23206165876860424,0.4655844770992794
2.097280263900757,-1.7136942148208618,-40.46835708618164,0.19508602924722565,0.39062242198373287,0.26030921485895914,0.44454076172163076
2.0320000648498535,-2.023975133895874,-40.45078659057617,0.1997112717399271,0.3977718743076547,0.2947198842652142,0.4133935171489913
0.2869603931903839,-1.9494438171386719,-40.51838684082031,0.20478430873171122,0.40438583438853826,0.3140445547488829,0.38028169255703675
1.5993467569351196,-0.1805099993944168,-40.49087142944336,0.21014937819628465,0.4105759491383407,0.32976378099992876,0.362532077419261
1.609971284866333,-0.6128485798835754,-40.429073333740234,0.21586831052140856,0.4165630560828785,0.3565080980149409,0.3559207559252778
0.6136601567268372,-2.184605121612549,-40.30454635620117,0.22196453100510155,0.4223008010634737,0.3750383600282173,0.3326086417461434
1.4518013000488281,-1.0037744045257568,-40.184356689453125,0.22835860516229237,0.4276228631810387,0.39225053883468114,0.30603881236165753
0.4587198495864868,-1.077552318572998,-40.09996032714844,0.23502878922270617,0.43257897347574004,0.40817154841497544,0.28869442300250125
0.647111713886261,-0.7476552128791809,-40.06818389892578,0.24190844222153027,0.4372637966694309,0.417386811443915,0.27348436024039974
0.0743422880768776,-0.7487743496894836,-40.14739990234375,0.2489149900512874,0.44171795062048136,0.42339892812694113,0.26101411388566087
2.2592380046844482,-0.2099270522594452,-40.24684524536133,0.2561336930404004,0.4460016093656626,0.44284543056661885,0.25302493553608646
-1.4912689924240112,-1.3201618194580078,-40.45750427246094,0.2635677813979177,0.4501124354529503,0.4492451723354558,0.24027419493844102
1.0622193813323975,-0.6014254093170166,-40.590736389160156,0.2710254058249606,0.45398356181103716,0.44566975890969235,0.22426096803198248
0.7629200220108032,0.1406252086162567,-40.59162902832031,0.27857998093202097,0.45768924459763266,0.46087925393755236,0.22042096635947614
-0.40666621923446655,-0.5930627584457397,-40.60574722290039,0.2862860416783952,0.4613315080959969,0.46384803562735516,0.21665065344423046
0.8048399090766907,-1.0119719505310059,-40.5397834777832,0.29404449322286796,0.46483089157638846,0.4671661497093737,0.20327536420275757
0,0.09722650051116943,-40.48651885986328,0.30188648737837676,0.4681552903235164,0.4738731489516795,0.19565248545259228
0.1062072217464447,-1.6411489248275757,-40.36845779418945,0.30979174869574827,0.47130894824603764,0.47475820913289984,0.18278646524995557
1.4187031984329224,0.6283273696899414,-40.385128021240234,0.31781028207158685,0.474285054503319,0.4874657959677279,0.1743462856238086
0.5625989437103271,-1.0334193706512451,-40.34986877441406,0.32607230243092006,0.4771626945414268,0.503976647152255,0.17097051894913107
-0.6322659254074097,0,-40.27223587036133,0.3344670752319509,0.479940437956506,0.5033960889714459,0.1623586908603707
0.09387748688459396,0,-40.318748474121094,0.3428196219621331,0.48264641613751214,0.4989095186504225,0.1623586908603707
0.885029137134552,-1.3790546655654907,-40.40693283081055,0.3512027602329748,0.4852566266334096,0.507067073850582,0.15086656864732495
0.5824273228645325,-0.6501168608665466,-40.47980880737305,0.35975578482909554,0.4876301547548628,0.5192958776839077,0.13395680592705797
-0.3321192264556885,0.7271713614463806,-40.571781158447266,0.3684280986305224,0.48986811919396517,0.5213817784873147,0.13459892676522325
-0.5739849805831909,-0.4216957688331604,-40.59718322753906,0.3770548710353777,0.49213264822287256,0.513830910095324,0.13714455670366676
0.6161812543869019,0.18760420382022858,-40.59394073486328,0.38562164983375835,0.4944021344759189,0.5141825457103549,0.13519379366189233
-0.7409729361534119,-1.7347337007522583,-40.53514862060547,0.39418269283991936,0.4965479248218857,0.5131426150289673,0.1223010478541254
0.7766633629798889,0.2918079197406769,-40.36789321899414,0.40273754825893177,0.49848607244021753,0.5134400352525212,0.11027666634569556
0.7790052890777588,-0.2743540108203888,-40.24470138549805,0.4114029147250889,0.5003252289563208,0.526403940686335,0.11042211558669797
-0.1803780496120453,-0.5052757263183594,-40.22944641113281,0.4202178850726018,0.5021114565954645,0.531392501015216,0.10392520111054174
-0.3793606460094452,-0.757440984249115,-40.40538787841797,0.4290355560134373,0.5037558546201841,0.5267280118850368,0.09340256185581278
0.7466909885406494,-0.13998915255069733,-40.6933708190918,0.4378398652630859,0.5052502424471699,0.5297890980727968,0.085923977382481
0.7746533751487732,0.6565626263618469,-40.85468292236328,0.44677533247844425,0.5067181818947815,0.5424669677702086,0.09022875633090725
0.49827665090560913,-0.2744181156158447,-40.75740432739258,0.4559048465264237,0.5082485323135428,0.5530747179873285,0.09341329392045727
-0.6691657304763794,-0.7355902194976807,-40.66706848144531,0.46511089119568677,0.5097352810778343,0.5516506423242388,0.08499655779451123
-1.0144165754318237,-0.8613598346710205,-40.602935791015625,0.47418815312984713,0.5110409910650922,0.5376207897750037,0.07168864067643872
-0.15389946103096008,-0.1820661872625351,-40.655357360839844,0.4830673665680095,0.5121633416026208,0.5278848228044806,0.06299342382699243
1.5185056924819946,0.913518488407135,-40.815025329589844,0.49196021126971273,0.5132640272984279,0.5392565413999059,0.0690888596698641
-0.7507650852203369,-0.8599826693534851,-40.9694709777832,0.5010011356129932,0.5144192260581377,0.545654379793753,0.06953499149531119
0.23030732572078705,-0.33799198269844055,-40.992862701416016,0.5100592323762572,0.5154949498988893,0.5413172317979233,0.05955186939487847
-0.70571368932724,-0.2076447755098343,-40.99343490600586,0.5190481719087499,0.5164495896139284,0.5373555121012029,0.05500489640980952
-0.15952801704406738,-0.21249262988567352,-41.01704406738281,0.5279440108808274,0.5173371616787172,0.5301451645481087,0.05150375136484695
-0.29940178990364075,-0.20648542046546936,-40.9939079284668,0.5367478934978134,0.518166461836857,0.5263207494902111,0.04801226761192076
0.7671936750411987,0.2848045825958252,-41.06422424316406,0.5455523915368959,0.5189721051277592,0.5302190151996907,0.04866492729634039
-1.2794827222824097,-0.16475076973438263,-41.05628204345703,0.5543537994952769,0.5197915243197024,0.525949939806014,0.04966537573685242
0.9285436868667603,-0.31424468755722046,-41.081661224365234,0.5543537994952769,0.5197915243197024,0.525949939806014,0.04966537573685242
-0.6121631860733032,0.09423540532588959,-41.13094711303711,0.5543537994952769,0.5197915243197024,0.525949939806014,0.04966537573685242
-1.290249228477478,1.190190076828003,-41.35427474975586,0.5543537994952769,0.5197915243197024,0.525949939806014,0.04966537573685242
-1.681335687637329,2.0675771236419678,-41.811309814453125,0.5543537994952769,0.5197915243197024,0.525949939806014,0.04966537573685242
-1.188690423965454,1.5096195936203003,-42.57460021972656,0.5543537994952769,0.5197915243197024,0.525949939806014,0.04966537573685242
-2.8461878299713135,0.796757161617279,-43.54060363769531,0.5543537994952769,0.5197915243197024,0.525949939806014,0.04966537573685242
-1.9577006101608276,-0.12511980533599854,-44.804195404052734,0.5543537994952769,0.5197915243197024,0.525949939806014,0.04966537573685242
-1.2202881574630737,2.2209620475769043,-46.336029052734375,0.5543537994952769,0.5197915243197024,0.525949939806014,0.04966537573685242
-1.7055273056030273,2.0152430534362793,-48.05120849609375,0.5543537994952769,0.5197915243197024,0.525949939806014,0.04966537573685242
-1.9282994270324707,0.9145293831825256,-49.904273986816406,0.5543537994952769,0.5197915243197024,0.525949939806014,0.04966537573685242
-1.3666280508041382,0.7439810633659363,-51.83684539794922,0.5543537994952769,0.5197915243197024,0.525949939806014,0.04966537573685242
-1.0280823707580566,0.31872227787971497,-53.75939178466797,0.5543537994952769,0.5197915243197024,0.525949939806014,0.04966537573685242
-1.8062037229537964,0.49523380398750305,-55.76382827758789,0.5543537994952769,0.5197915243197024,0.525949939806014,0.04966537573685242
-1.4665205478668213,-0.18901649117469788,-57.82815170288086,0.5543537994952769,0.5197915243197024,0.525949939806014,0.04966537573685242
-1.1469987630844116,0.0445479117333889,-59.92991256713867,0.5543537994952769,0.5197915243197024,0.525949939806014,0.04966537573685242
-1.4332611560821533,0.16224844753742218,-62.070220947265625,0.5543537994952769,0.5197915243197024,0.525949939806014,0.04966537573685242
-0.7707644104957581,0.7609878778457642,-64.26605224609375,0.5543537994952769,0.5197915243197024,0.525949939806014,0.04966537573685242
-0.8616493344306946,1.1238441467285156,-66.46147155761719,0.5543537994952769,0.5197915243197024,0.525949939806014,0.04966537573685242
-1.8663091659545898,-0.5239531993865967,-68.80184936523438,0.5543537994952769,0.5197915243197024,0.525949939806014,0.04966537573685242
-0.8641810417175293,0.41568222641944885,-71.04456329345703,0.5543537994952769,0.5197915243197024,0.525949939806014,0.04966537573685242
-0.5844426155090332,1.316569447517395,-73.3457260131836,0.5543537994952769,0.5197915243197024,0.525949939806014,0.04966537573685242
-1.0833005905151367,0.09424145519733429,-75.69867706298828,0.5543537994952769,0.5197915243197024,0.525949939806014,0.04966537573685242
0.8317762017250061,1.1266669034957886,-78.08366394042969,0.5543537994952769,0.5197915243197024,0.525949939806014,0.04966537573685242
-3.3091232776641846,-0.5597086548805237,-80.51238250732422,0.5543537994952769,0.5197915243197024,0.525949939806014,0.04966537573685242
0.8741153478622437,0.19158302247524261,-82.9651870727539,0.5543537994952769,0.5197915243197024,0.525949939806014,0.04966537573685242
-0.5209574103355408,1.8818624019622803,-85.46347045898438,0.5543537994952769,0.5197915243197024,0.525949939806014,0.04966537573685242
-1.6735903024673462,-0.8174847364425659,-87.89817810058594,0.5543537994952769,0.5197915243197024,0.525949939806014,0.04966537573685242
-0.290620356798172,0.10791022330522537,-90.37954711914062,0.5543537994952769,0.5197915243197024,0.525949939806014,0.04966537573685242
0.626747727394104,1.1555172204971313,-92.86176300048828,0.5543537994952769,0.5197915243197024,0.525949939806014,0.04966537573685242
0.5011237859725952,0.9917037487030029,-95.31489562988281,0.5543537994952769,0.5197915243197024,0.525949939806014,0.04966537573685242
-2.2897744178771973,-0.560011625289917,-97.75714874267578,0.5543537994952769,0.5197915243197024,0.525949939806014,0.04966537573685242
0.18364635109901428,0.5128491520881653,-100.17495727539062,0.5543537994952769,0.5197915243197024,0.525949939806014,0.04966537573685242
-0.9326301217079163,0.4327489733695984,-102.66279602050781,0.5543537994952769,0.5197915243197024,0.525949939806014,0.04966537573685242
1.4361361265182495,1.4605472087860107,-105.16390228271484,0.5543537994952769,0.5197915243197024,0.525949939806014,0.04966537573685242
-0.9248742461204529,-0.07635314017534256,-107.62346649169922,0.5543537994952769,0.5197915243197024,0.525949939806014,0.04966537573685242
0.6970968842506409,0.5248492956161499,-110.04647827148438,0.5543537994952769,0.5197915243197024,0.525949939806014,0.04966537573685242
-1.2703018188476562,-0.23935186862945557,-112.472900390625,0.5543537994952769,0.5197915243197024,0.525949939806014,0.04966537573685242
0.2865251302719116,1.220144510269165,-114.975830078125,0.5543537994952769,0.5197915243197024,0.525949939806014,0.04966537573685242
-0.14693859219551086,-0.22267483174800873,-117.4078369140625,0.5543537994952769,0.5197915243197024,0.525949939806014,0.04966537573685242
0.34411776065826416,-0.054086048156023026,-119.80453491210938,0.5543537994952769,0.5197915243197024,0.525949939806014,0.04966537573685242
-1.1024092435836792,0.3902289569377899,-121.72846984863281,0.5543537994952769,0.5197915243197024,0.525949939806014,0.04966537573685242
3.061634063720703,0.33454832434654236,-123.2582778930664,0.5543537994952769,0.5197915243197024,0.525949939806014,0.04966537573685242
-0.12869895994663239,-2.2285239696502686,-124.33086395263672,0.5543537994952769,0.5197915243197024,0.525949939806014,0.04966537573685242
1.3854119777679443,-0.9527763724327087,-125.13816833496094,0.5543537994952769,0.5197915243197024,0.525949939806014,0.04966537573685242
0.33451905846595764,-0.9715631008148193,-125.58871459960938,0.5543537994952769,0.5197915243197024,0.525949939806014,0.04966537573685242
-0.09132900089025497,-1.1846520900726318,-125.70653533935547,0.5543537994952769,0.5197915243197024,0.525949939806014,0.04966537573685242
0.07886998355388641,-0.9188064932823181,-125.62555694580078,0.5543537994952769,0.5197915243197024,0.525949939806014,0.04966537573685242
-0.734140157699585,0.20000483095645905,-125.56656646728516,0.5543537994952769,0.5197915243197024,0.525949939806014,0.04966537573685242
-0.027819760143756866,0.10409427434206009,-125.56231689453125,0.5543537994952769,0.5197915243197024,0.525949939806014,0.04966537573685242
-0.15599052608013153,0.04090438783168793,-125.56338500976562,0.5543537994952769,0.5197915243197024,0.525949939806014,0.04966537573685242
-0.14850452542304993,0.154176726937294,-125.56217193603516,0.5543537994952769,0.5197915243197024,0.525949939806014,0.04966537573685242
-0.09553758054971695,0.04258785769343376,-125.55493927001953,0.5543537994952769,0.5197915243197024,0.525949939806014,0.04966537573685242
-0.18931405246257782,0.039761435240507126,-125.5603256225586,0.5543537994952769,0.5197915243197024,0.525949939806014,0.04966537573685242
-0.2257939875125885,-0.022562261670827866,-125.55657958984375,0.5543537994952769,0.5197915243197024,0.525949939806014,0.04966537573685242
-0.20050662755966187,-0.029089050367474556,-125.55735778808594,0.5543537994952769,0.5197915243197024,0.525949939806014,0.04966537573685242
-0.19201937317848206,0.019480478018522263,-125.55857849121094,0.5543537994952769,0.5197915243197024,0.525949939806014,0.04966537573685242
-0.16721752285957336,0.0595414824783802,-125.55741882324219,0.5543537994952769,0.5197915243197024,0.525949939806014,0.04966537573685242
-0.16086719930171967,0.008603289723396301,-125.55740356445312,0.5543537994952769,0.5197915243197024,0.525949939806014,0.04966537573685242
-0.2329421043395996,-0.008479559794068336,-125.55767822265625,0.5543537994952769,0.5197915243197024,0.525949939806014,0.04966537573685242
-0.1765580177307129,-0.008120587095618248,-125.5577163696289,0.5543537994952769,0.5197915243197024,0.525949939806014,0.04966537573685242
-0.18945114314556122,0.03592871502041817,-125.55833435058594,0.5543537994952769,0.5197915243197024,0.525949939806014,0.04966537573685242
-0.18654561042785645,0.01926187239587307,-125.5570068359375,0.5543537994952769,0.5197915243197024,0.525949939806014,0.04966537573685242
-0.19892176985740662,-0.00021749557345174253,-125.55768585205078,0.5543537994952769,0.5197915243197024,0.525949939806014,0.04966537573685242
-0.21182572841644287,-0.012769883498549461,-125.55868530273438,0.5543537994952769,0.5197915243197024,0.525949939806014,0.04966537573685242
-0.1841607391834259,0.003449122654274106,-125.5581283569336,0.5543537994952769,0.5197915243197024,0.525949939806014,0.04966537573685242
-0.1742093712091446,0.02100537344813347,-125.55823516845703,0.5543537994952769,0.5197915243197024,0.525949939806014,0.04966537573685242
-0.19732315838336945,0.01962023787200451,-125.55854797363281,0.5543537994952769,0.5197915243197024,0.525949939806014,0.04966537573685242
-0.18610648810863495,0.00660398555919528,-125.55815124511719,0.5543537994952769,0.5197915243197024,0.525949939806014,0.04966537573685242
-0.19559447467327118,0.0062997895292937756,-125.55794525146484,0.5543537994952769,0.5197915243197024,0.525949939806014,0.04966537573685242
-0.18643155694007874,0.00545117724686861,-125.55876922607422,0.5543537994952769,0.5197915243197024,0.525949939806014,0.04966537573685242
-0.1850866824388504,0.01603916846215725,-125.55912017822266,0.5543537994952769,0.5197915243197024,0.525949939806014,0.04966537573685242
-0.1951339840888977,0.0057238368317484856,-125.56047821044922,0.5543537994952769,0.5197915243197024,0.525949939806014,0.04966537573685242
-0.1710691750049591,0.01679208315908909,-125.5604476928711,0.5543537994952769,0.5197915243197024,0.525949939806014,0.04966537573685242
-0.18043817579746246,0.003241349942982197,-125.56122589111328,0.5543537994952769,0.5197915243197024,0.525949939806014,0.04966537573685242
-0.18157513439655304,0.013200389221310616,-125.56172180175781,0.5543537994952769,0.5197915243197024,0.525949939806014,0.04966537573685242
-0.17949900031089783,0.011126539669930935,-125.56080627441406,0.5543537994952769,0.5197915243197024,0.525949939806014,0.04966537573685242
-0.19835026562213898,0.019545620307326317,-125.56170654296875,0.5543537994952769,0.5197915243197024,0.525949939806014,0.04966537573685242
-0.16496846079826355,0.00991617888212204,-125.56234741210938,0.5543537994952769,0.5197915243197024,0.525949939806014,0.04966537573685242
-0.1889001876115799,-0.0003025544574484229,-125.56182861328125,0.5543537994952769,0.5197915243197024,0.525949939806014,0.04966537573685242
-0.17412713170051575,0.034138426184654236,-125.56169128417969,0.5543537994952769,0.5197915243197024,0.525949939806014,0.04966537573685242
-0.18952085077762604,0.019545046612620354,-125.5617446899414,0.5543537994952769,0.5197915243197024,0.525949939806014,0.04966537573685242
-0.17519356310367584,0.021940942853689194,-125.5624008178711,0.5543537994952769,0.5197915243197024,0.525949939806014,0.04966537573685242
-0.16451360285282135,0.020536040887236595,-125.56391906738281,0.5543537994952769,0.5197915243197024,0.525949939806014,0.04966537573685242
-0.17338059842586517,0.026723587885499,-125.56404113769531,0.5543537994952769,0.5197915243197024,0.525949939806014,0.04966537573685242
-0.18366962671279907,0.02611340582370758,-125.56331634521484,0.5543537994952769,0.5197915243197024,0.525949939806014,0.04966537573685242
-0.19971750676631927,0.01347748190164566,-125.56322479248047,0.5543537994952769,0.5197915243197024,0.525949939806014,0.04966537573685242
-0.17091521620750427,0.014274515211582184,-125.56271362304688,0.5543537994952769,0.5197915243197024,0.525949939806014,0.04966537573685242
-0.17589180171489716,0.012560177594423294,-125.56241607666016,0.5543537994952769,0.5197915243197024,0.525949939806014,0.04966537573685242
-0.18017257750034332,0.008408978581428528,-125.5623779296875,0.5543537994952769,0.5197915243197024,0.525949939806014,0.04966537573685242
-0.1818925440311432,0.019446762278676033,-125.56312561035156,0.5543537994952769,0.5197915243197024,0.525949939806014,0.04966537573685242
-0.1759825199842453,0.01690058223903179,-125.56291961669922,0.5543537994952769,0.5197915243197024,0.525949939806014,0.04966537573685242
-0.16444669663906097,0.011121852323412895,-125.56272888183594,0.5543537994952769,0.5197915243197024,0.525949939806014,0.04966537573685242
-0.17437899112701416,0.03206498175859451,-125.56327819824219,0.5543537994952769,0.5197915243197024,0.525949939806014,0.04966537573685242
-0.1884581595659256,0.021346481516957283,-125.56356048583984,0.5543537994952769,0.5197915243197024,0.525949939806014,0.04966537573685242
-0.18283143639564514,0.03421584516763687,-125.56365966796875,0.5543537994952769,0.5197915243197024,0.525949939806014,0.04966537573685242
-0.17985515296459198,0.023649854585528374,-125.56381225585938,0.5543537994952769,0.5197915243197024,0.525949939806014,0.04966537573685242
-0.1756097674369812,0.015464277938008308,-125.56404113769531,0.5543537994952769,0.5197915243197024,0.525949939806014,0.04966537573685242
-0.17664369940757751,0.026931436732411385,-125.56507873535156,0.5543537994952769,0.5197915243197024,0.525949939806014,0.04966537573685242
-0.17043304443359375,0.018278146162629128,-125.56633758544922,0.5543537994952769,0.5197915243197024,0.525949939806014,0.04966537573685242
-0.16718198359012604,0.02574988082051277,-125.56597900390625,0.5543537994952769,0.5197915243197024,0.525949939806014,0.04966537573685242
-0.16335219144821167,0.021864067763090134,-125.56596374511719,0.5543537994952769,0.5197915243197024,0.525949939806014,0.04966537573685242
-0.17318572103977203,0.02582639269530773,-125.566650390625,0.5543537994952769,0.5197915243197024,0.525949939806014,0.04966537573685242
-0.17841999232769012,0.0176701620221138,-125.5671157836914,0.5543537994952769,0.5197915243197024,0.525949939806014,0.04966537573685242
-0.17647093534469604,0.02050500363111496,-125.56707000732422,0.5543537994952769,0.5197915243197024,0.525949939806014,0.04966537573685242
-0.18372289836406708,0.03132643923163414,-125.56722259521484,0.5543537994952769,0.5197915243197024,0.525949939806014,0.04966537573685242
-0.1711375117301941,0.019062340259552002,-125.56639099121094,0.5543537994952769,0.5197915243197024,0.525949939806014,0.04966537573685242
-0.17727385461330414,0.025867639109492302,-125.56633758544922,0.5543537994952769,0.5197915243197024,0.525949939806014,0.04966537573685242
-0.16926048696041107,0.028360404074192047,-125.56614685058594,0.5543537994952769,0.5197915243197024,0.525949939806014,0.04966537573685242
-0.17418426275253296,0.0061402153223752975,-125.56611633300781,0.5543537994952769,0.5197915243197024,0.525949939806014,0.04966537573685242
-0.18118278682231903,0.011846008710563183,-125.5661849975586,0.5543537994952769,0.5197915243197024,0.525949939806014,0.04966537573685242
-0.17192442715168,0.0259997621178627,-125.5657730102539,0.5543537994952769,0.5197915243197024,0.525949939806014,0.04966537573685242
-0.16957439482212067,0.027420716360211372,-125.56644439697266,0.5543537994952769,0.5197915243197024,0.525949939806014,0.04966537573685242
-0.1651248186826706,0.029229197651147842,-125.56730651855469,0.5543537994952769,0.5197915243197024,0.525949939806014,0.04966537573685242
-0.1696641892194748,0.021949445828795433,-125.56730651855469,0.5543537994952769,0.5197915243197024,0.525949939806014,0.04966537573685242
-0.171260803937912,0.021034283563494682,-125.56666564941406,0.5543537994952769,0.5197915243197024,0.525949939806014,0.04966537573685242
-0.1660410761833191,0.015559257008135319,-125.56694030761719,0.5543537994952769,0.5197915243197024,0.525949939806014,0.04966537573685242
-0.1616590917110443,0.026821525767445564,-125.56720733642578,0.5543537994952769,0.5197915243197024,0.525949939806014,0.04966537573685242
-0.16426871716976166,0.028755109757184982,-125.5676498413086,0.5543537994952769,0.5197915243197024,0.525949939806014,0.04966537573685242
-0.15837593376636505,0.03436250984668732,-125.56841278076172,0.5543537994952769,0.5197915243197024,0.525949939806014,0.04966537573685242
-0.1685623675584793,0.021098367869853973,-125.56865692138672,0.5543537994952769,0.5197915243197024,0.525949939806014,0.04966537573685242
-0.16734205186367035,0.019544800743460655,-125.56827545166016,0.5543537994952769,0.5197915243197024,0.525949939806014,0.04966537573685242
-0.17066796123981476,0.020357606932520866,-125.56993865966797,0.5543537994952769,0.5197915243197024,0.525949939806014,0.04966537573685242
-0.1654091328382492,0.02314208447933197,-125.56938171386719,0.5543537994952769,0.5197915243197024,0.525949939806014,0.04966537573685242
-0.16803869605064392,0.019316503778100014,-125.57024383544922,0.5543537994952769,0.5197915243197024,0.525949939806014,0.04966537573685242
-0.16360938549041748,0.015574420802295208,-125.57050323486328,0.5543537994952769,0.5197915243197024,0.525949939806014,0.04966537573685242
-0.16673217713832855,0.025080116465687752,-125.5694351196289,0.5543537994952769,0.5197915243197024,0.525949939806014,0.04966537573685242
-0.16704289615154266,0.023173954337835312,-125.5701904296875,0.5543537994952769,0.5197915243197024,0.525949939806014,0.04966537573685242
-0.17447040975093842,0,-125.57028198242188,0.5630959156235783,0.5206208898843678,0.52310399559016,0.04985849202300104
-0.16213928163051605,0,-125.57032775878906,0.5717909398770684,0.5214518647514178,0.5202989148286479,0.04985849202300104
-0.32249194383621216,-0.21338120102882385,-125.58612823486328,0.580428933511333,0.5222680214795075,0.5162603212830918,0.048080315347760846
-1.2259491682052612,-1.646680235862732,-125.52899932861328,0.5889257415666038,0.5229401891355193,0.5033566453494129,0.03257980337366455
-2.771493911743164,-3.1840221881866455,-125.3917007446289,0.5970374187752088,0.5231477204122992,0.47004461968317607,-0.007676050160080265
-0.2052810937166214,-2.8051681518554688,-125.46963500976562,0.6046647752834381,0.5226038702471283,0.4452381613043445,-0.05758596966043122
-2.3570210933685303,-0.21239332854747772,-125.45854187011719,0.6119074736532962,0.5214345512055376,0.4238856430786349,-0.08273231533045577
-0.4315776526927948,-1.55117666721344,-125.46246337890625,0.6187785816805748,0.5199332091447688,0.40064732019479055,-0.09742873196179676
-1.2631417512893677,-1.6602064371109009,-125.298828125,0.6253383481696558,0.5180863842298274,0.38652465849493917,-0.12419025783116626
-1.296569585800171,-1.6806268692016602,-125.14036560058594,0.6316026680794958,0.5157845442863697,0.3651937306858597,-0.15203053538377093
-0.821491003036499,-0.058845534920692444,-125.09272766113281,0.6375421427167021,0.5131299053352427,0.34754322577888747,-0.1665261387514572
-0.9093446135520935,-0.3846873641014099,-125.07923126220703,0.6432143328951982,0.5103236687936197,0.3331195956406492,-0.17022224624330803
-0.4033903181552887,-1.1164861917495728,-125.06531524658203,0.6486751640078405,0.5073823831926304,0.322180137876421,-0.18273202587539955
-0.7801427245140076,-0.800159752368927,-125.04852294921875,0.6539626431778177,0.5042037490152544,0.3123173625208436,-0.19870407540972038
-0.9099029302597046,-1.015450119972229,-125.11283874511719,0.6590505682715836,0.5007659304061799,0.2982336487310626,-0.21383415767923
-0.2515181601047516,-1.4074602127075195,-125.27408599853516,0.6639404748413815,0.4970337701162011,0.28855513964469215,-0.2340250771182279
-0.5763782262802124,0.29783114790916443,-125.42719268798828,0.668692234364183,0.49305629459028627,0.28165600309148414,-0.24327198599154753
-0.5143288373947144,-1.070784568786621,-125.41007232666016,0.6733107575362859,0.4889480841695329,0.27256677756085973,-0.24971326449885967
0,-0.19737385213375092,-125.40536499023438,0.6778178198819256,0.48469812987087685,0.26828070391590375,-0.26028125133986274
-1.2406175136566162,-0.6517260074615479,-125.42372131347656,0.6822030109531867,0.480301143747185,0.2579422246354319,-0.2673570835031569
-0.804416835308075,0.36163729429244995,-125.40595245361328,0.6863600317562102,0.4758250473059401,0.24090027172739284,-0.2697744894462327
-1.10915207862854,-0.4450114965438843,-125.44269561767578,0.6902421495548656,0.4713230159400132,0.22495386411125437,-0.2704692744649947
-0.10151998698711395,-1.1604771614074707,-125.47281646728516,0.6939073061743855,0.46670370243101666,0.2148649302311239,-0.2838483466145893
-0.738746702671051,-0.2862033545970917,-125.52625274658203,0.6974300364914557,0.46187243272938433,0.20786270781730587,-0.295904017581294
-0.22955229878425598,0,-125.55244445800781,0.7008271719688653,0.4569208238700713,0.19979354947184497,-0.2982890455362697
-0.6448331475257874,-0.13627079129219055,-125.6500473022461,0.7040963432485134,0.4519398765284049,0.19250700408592794,-0.2994246354637046
0.729828953742981,-0.881512463092804,-125.72151947021484,0.7073106958031551,0.4468787865446775,0.19321530247107122,-0.30790616258357956
-0.643328070640564,0.19842790067195892,-125.701904296875,0.7105369578501106,0.4416995807403386,0.19393614316359137,-0.3135985339370866
-0.7205308079719543,-0.12455316632986069,-125.69993591308594,0.7136745144807113,0.4364780686979387,0.18257065250848706,-0.31298291115090243
-0.2803688943386078,0,-125.70862579345703,0.7166478517654145,0.4312530373199841,0.17422982165589904,-0.3140208542036513
-0.17538169026374817,-0.6404705047607422,-125.65151977539062,0.7195200327801932,0.42597487929820377,0.17043190011754608,-0.3193581084099908
-0.2156282365322113,-0.5675036311149597,-125.58799743652344,0.7223334109816804,0.42056835706526813,0.1671734840609131,-0.32942455954228833
-1.12870454788208,-0.23124447464942932,-125.48661041259766,0.7250262792726668,0.41502247912110746,0.15597071085746067,-0.33608079375699157
-0.4495609998703003,-0.08701463788747787,-125.4682388305664,0.7275161893461417,0.40939903123123145,0.14281849795952417,-0.33873295302813244
1.9038605690002441,0.6476570963859558,-125.5565414428711,0.7299974906711011,0.4037924155181583,0.15493766103560702,-0.3340609325406451
-1.261508584022522,-0.5413199663162231,-125.65657806396484,0.7326243927984291,0.3982321178320691,0.16029059424375472,-0.333174789790064
0.3484521806240082,-0.8961125612258911,-125.76647186279297,0.7352324960078112,0.3925793829655998,0.15268179088210043,-0.3451533941862483
-0.20837418735027313,-1.7060747146606445,-125.86705780029297,0.7377869201609346,0.38664611894611467,0.15384910749271488,-0.36683828815196945
-2.3002138137817383,0.6178662776947021,-125.7987289428711,0.7401768644524013,0.3804565774465703,0.13294420748328145,-0.3759066917933523
0.05065606161952019,0.6348660588264465,-125.63764190673828,0.7422363819554447,0.3742784612178284,0.11419789288192964,-0.36546725565567606
-0.06231260299682617,0.30131760239601135,-125.64505767822266,0.7441388706881035,0.36825235304448534,0.11410075503711875,-0.3576657251454889
0.36062854528427124,0.10308978706598282,-125.82752227783203,0.7460612663236031,0.36231934147188427,0.11658672122284745,-0.35429566356663894
-0.3351351320743561,-0.6020545959472656,-126.06819152832031,0.7480061487199013,0.35637976341182354,0.11679916633293008,-0.35845370364064966
-0.7377930283546448,-1.2069969177246094,-126.08695983886719,0.749878292592087,0.3502799064404744,0.10785809832935507,-0.3735291329212486
-0.6827709078788757,0.6901229023933411,-126.10022735595703,0.7515772772908934,0.3440185268629445,0.09602006552740906,-0.3778364163823425
0.5474099516868591,0.7281438112258911,-126.18304443359375,0.753168211649948,0.33781974400057346,0.09489205755914226,-0.3660175271021822
-1.5526477098464966,0.39473387598991394,-126.24397277832031,0.7546799377649503,0.3317974294993715,0.08651507624114528,-0.35666021304205053
0.47948089241981506,-0.5602187514305115,-126.25658416748047,0.7560473302288704,0.3258416006100984,0.07757201942925626,-0.3580392536707222
0.11306129395961761,1.0588918924331665,-126.39046478271484,0.757381345982301,0.31990890979482267,0.0825098709824182,-0.35388364416236673
-0.9923558235168457,-0.6953421831130981,-126.51557922363281,0.7586954483785665,0.3140360955663749,0.0751824165694413,-0.35085406325136614
0.7481043338775635,-0.6528449058532715,-126.52406311035156,0.7599315267457212,0.30809490374211834,0.07314698748911395,-0.36208895565941923
0.051485635340213776,0.10477054119110107,-126.50892639160156,0.7612061702850688,0.30202202709469317,0.07981023723259544,-0.36665624203160396
-0.29973307251930237,0.26931893825531006,-126.55723571777344,0.7625191015002524,0.29593706816357246,0.07774150858943636,-0.36353882970288387
-0.07889784127473831,0.6576554775238037,-126.529296875,0.7637884994966184,0.2899424608918424,0.07458625097448603,-0.35581404290472457
0,-0.9761085510253906,-126.4385757446289,0.7650261246627713,0.28399011204665936,0.0739287689638632,-0.3584678185172378
-1.2021970748901367,0.34065109491348267,-126.31257629394531,0.7661747849041906,0.2779715194146976,0.0639104600064454,-0.36376329731817036
0.25936511158943176,0.09732300043106079,-126.240966796875,0.7671744847957355,0.27193921266046034,0.056053526978939526,-0.36011351319029916
0.7248330116271973,0.41622430086135864,-126.2264175415039,0.7681770573372745,0.26597298378098955,0.06425517800574476,-0.3558339523461957
-0.16582655906677246,-1.1068912744522095,-126.2763900756836,0.7692867968632425,0.2599944549242758,0.06891356511041496,-0.36158951045945276
0.1767929047346115,-0.23648713529109955,-126.403564453125,0.7704361178335319,0.2538746729159416,0.06900495132431363,-0.372784330540647
-0.9892299175262451,-0.49387943744659424,-126.44194030761719,0.7715297811186044,0.2476108808393796,0.062234642884383344,-0.37887071864679445
-0.7666649222373962,0.21492190659046173,-126.24620056152344,0.7724450880250272,0.24127699681117912,0.047602185886352996,-0.38119536473726223
-0.5053173303604126,0.9040644764900208,-126.14227294921875,0.7731501256889249,0.23500144811993867,0.03700233378137126,-0.3718704782115915
0,0.05329118296504021,-126.23416137695312,0.7737317397706728,0.22887008984831875,0.032791356028367816,-0.36389251438279935
1.7806079387664795,-0.8244224190711975,-126.44239044189453,0.7744019157002265,0.22275166382832026,0.04762975551808848,-0.3703186080170173
-0.42959311604499817,0.08747149258852005,-126.43024444580078,0.7752895654326615,0.21652850988036423,0.05888821237410082,-0.3764598657377063
-1.0803114175796509,0.2047949582338333,-126.39080810546875,0.7761661811573948,0.2102744750660429,0.04630567459389541,-0.37402431198085334
0.4951139986515045,0.6841714382171631,-126.42655944824219,0.7768973036909785,0.20410247031056,0.04142902943616086,-0.366616258677095
-1.7814425230026245,0.17858150601387024,-126.41482543945312,0.7774984591451679,0.19805211273151335,0.03070962506656819,-0.35942665080850306
0.7384598255157471,-1.0709760189056396,-126.32955169677734,0.7779378568756186,0.1919996967101986,0.022018102587510878,-0.3668632717492678
-0.34700343012809753,2.073960542678833,-126.3876953125,0.778332009723979,0.18595496055075061,0.02528023921574129,-0.35850506738449117
0.09049274027347565,-1.0855351686477661,-126.45301818847656,0.778332009723979,0.18595496055075061,0.02528023921574129,-0.35850506738449117
0.2309311479330063,0.24073879420757294,-126.48263549804688,0.778332009723979,0.18595496055075061,0.02528023921574129,-0.35850506738449117
-0.23598076403141022,1.6071983575820923,-126.56478881835938,0.778332009723979,0.18595496055075061,0.02528023921574129,-0.35850506738449117
2.4401042461395264,1.9042974710464478,-127.02691650390625,0.778332009723979,0.18595496055075061,0.02528023921574129,-0.35850506738449117
1.6797637939453125,2.0444068908691406,-127.7935791015625,0.778332009723979,0.18595496055075061,0.02528023921574129,-0.35850506738449117
1.2205276489257812,2.120767831802368,-128.77374267578125,0.778332009723979,0.18595496055075061,0.02528023921574129,-0.35850506738449117
0.8769708275794983,2.641293525695801,-130.0463409423828,0.778332009723979,0.18595496055075061,0.02528023921574129,-0.35850506738449117
0.775353193283081,2.2739622592926025,-131.5752410888672,0.778332009723979,0.18595496055075061,0.02528023921574129,-0.35850506738449117
1.5729522705078125,1.5796844959259033,-133.2946014404297,0.778332009723979,0.18595496055075061,0.02528023921574129,-0.35850506738449117
0.9338324069976807,1.9478950500488281,-135.1966094970703,0.778332009723979,0.18595496055075061,0.02528023921574129,-0.35850506738449117
0.9693608283996582,0.5499072670936584,-137.25137329101562,0.778332009723979,0.18595496055075061,0.02528023921574129,-0.35850506738449117
0.17838463187217712,0.5188949108123779,-139.40647888183594,0.778332009723979,0.18595496055075061,0.02528023921574129,-0.35850506738449117
0.0273645780980587,1.9943140745162964,-141.5948944091797,0.778332009723979,0.18595496055075061,0.02528023921574129,-0.35850506738449117
-0.3348364531993866,1.379517912864685,-143.72230529785156,0.778332009723979,0.18595496055075061,0.02528023921574129,-0.35850506738449117
0.2615487277507782,1.3354833126068115,-145.91091918945312,0.778332009723979,0.18595496055075061,0.02528023921574129,-0.35850506738449117
1.1759690046310425,0.524444580078125,-148.14956665039062,0.778332009723979,0.18595496055075061,0.02528023921574129,-0.35850506738449117
0.028049210086464882,1.1492695808410645,-150.42752075195312,0.778332009723979,0.18595496055075061,0.02528023921574129,-0.35850506738449117
1.4518475532531738,0.45206502079963684,-152.79286193847656,0.778332009723979,0.18595496055075061,0.02528023921574129,-0.35850506738449117
-0.3335278630256653,1.3935537338256836,-155.15408325195312,0.778332009723979,0.18595496055075061,0.02528023921574129,-0.35850506738449117
0.777412474155426,0.9496868848800659,-157.5574188232422,0.778332009723979,0.18595496055075061,0.02528023921574129,-0.35850506738449117
-0.45886313915252686,1.7628252506256104,-159.94766235351562,0.778332009723979,0.18595496055075061,0.02528023921574129,-0.35850506738449117
0.1934029757976532,0.389622300863266,-162.40167236328125,0.778332009723979,0.18595496055075061,0.02528023921574129,-0.35850506738449117
1.2081254720687866,0.5831025838851929,-164.95155334472656,0.778332009723979,0.18595496055075061,0.02528023921574129,-0.35850506738449117
-0.42365124821662903,1.0942553281784058,-167.53565979003906,0.778332009723979,0.18595496055075061,0.02528023921574129,-0.35850506738449117
0.5020320415496826,1.1352471113204956,-170.1294403076172,0.778332009723979,0.18595496055075061,0.02528023921574129,-0.35850506738449117
1.7153675556182861,0.71346515417099,-172.78321838378906,0.778332009723979,0.18595496055075061,0.02528023921574129,-0.35850506738449117
-1.007352590560913,0.6645185947418213,-175.3738555908203,0.778332009723979,0.18595496055075061,0.02528023921574129,-0.35850506738449117
1.6619784832000732,-0.5029180645942688,-177.971923828125,0.778332009723979,0.18595496055075061,0.02528023921574129,-0.35850506738449117
-0.7708794474601746,1.4815876483917236,179.5432891845703,0.778332009723979,0.18595496055075061,0.02528023921574129,-0.35850506738449117
0.9562476277351379,-0.7515563368797302,177.02603149414062,0.778332009723979,0.18595496055075061,0.02528023921574129,-0.35850506738449117
0.6604389548301697,1.6835720539093018,174.57147216796875,0.778332009723979,0.18595496055075061,0.02528023921574129,-0.35850506738449117
1.3514083623886108,-0.49447759985923767,172.05274963378906,0.778332009723979,0.18595496055075061,0.02528023921574129,-0.35850506738449117
0.5844008922576904,-0.3306078612804413,169.45741271972656,0.778332009723979,0.18595496055075061,0.02528023921574129,-0.35850506738449117
0.05029592663049698,0.007631037849932909,166.92523193359375,0.778332009723979,0.18595496055075061,0.02528023921574129,-0.35850506738449117
0.27444446086883545,-0.5447308421134949,164.35194396972656,0.778332009723979,0.18595496055075061,0.02528023921574129,-0.35850506738449117
-0.15851794183254242,1.8840179443359375,161.8293914794922,0.778332009723979,0.18595496055075061,0.02528023921574129,-0.35850506738449117
0.4336147606372833,-1.6033198833465576,159.3636474609375,0.778332009723979,0.18595496055075061,0.02528023921574129,-0.35850506738449117
-0.5149459838867188,1.2489521503448486,156.96742248535156,0.778332009723979,0.18595496055075061,0.02528023921574129,-0.35850506738449117
0.5602148771286011,0.13655243813991547,154.5364532470703,0.778332009723979,0.18595496055075061,0.02528023921574129,-0.35850506738449117
-0.5509352684020996,0.7702505588531494,152.16909790039062,0.778332009723979,0.18595496055075061,0.02528023921574129,-0.35850506738449117
0.37935352325439453,-1.3480768203735352,150.16647338867188,0.778332009723979,0.18595496055075061,0.02528023921574129,-0.35850506738449117
-0.17470361292362213,-0.7968640327453613,148.68467712402344,0.778332009723979,0.18595496055075061,0.02528023921574129,-0.35850506738449117
-0.47459566593170166,-0.8886704444885254,147.70599365234375,0.778332009723979,0.18595496055075061,0.02528023921574129,-0.35850506738449117
-1.7048410177230835,-1.7705891132354736,147.08706665039062,0.778332009723979,0.18595496055075061,0.02528023921574129,-0.35850506738449117
-0.5705332159996033,-0.18439581990242004,146.84996032714844,0.778332009723979,0.18595496055075061,0.02528023921574129,-0.35850506738449117
-1.1543346643447876,-0.5720296502113342,147.0304718017578,0.778332009723979,0.18595496055075061,0.02528023921574129,-0.35850506738449117
-0.6118965744972229,0.04799595847725868,147.2782745361328,0.778332009723979,0.18595496055075061,0.02528023921574129,-0.35850506738449117
-0.19162455201148987,1.7375119924545288,147.4585418701172,0.778332009723979,0.18595496055075061,0.02528023921574129,-0.35850506738449117
-0.33638930320739746,0.2708704173564911,147.39654541015625,0.778332009723979,0.18595496055075061,0.02528023921574129,-0.35850506738449117
-0.028066731989383698,0.07995928823947906,147.3584442138672,0.778332009723979,0.18595496055075061,0.02528023921574129,-0.35850506738449117
0.3568370044231415,0.01631864160299301,147.39547729492188,0.778332009723979,0.18595496055075061,0.02528023921574129,-0.35850506738449117
0.3190799951553345,-0.20015427470207214,147.38363647460938,0.778332009723979,0.18595496055075061,0.02528023921574129,-0.35850506738449117
0.2567279040813446,0.08589679002761841,147.37295532226562,0.778332009723979,0.18595496055075061,0.02528023921574129,-0.35850506738449117
-0.04513082280755043,0.18037433922290802,147.38934326171875,0.778332009723979,0.18595496055075061,0.02528023921574129,-0.35850506738449117
-0.19763405621051788,0.17056399583816528,147.38279724121094,0.778332009723979,0.18595496055075061,0.02528023921574129,-0.35850506738449117
-0.08746529370546341,0.2715000808238983,147.38259887695312,0.778332009723979,0.18595496055075061,0.02528023921574129,-0.35850506738449117
-0.03221578150987625,0.09920507669448853,147.38653564453125,0.778332009723979,0.18595496055075061,0.02528023921574129,-0.35850506738449117
0.0915234386920929,0.13556665182113647,147.38134765625,0.778332009723979,0.18595496055075061,0.02528023921574129,-0.35850506738449117
0.0025907910894602537,0.13531826436519623,147.38299560546875,0.778332009723979,0.18595496055075061,0.02528023921574129,-0.35850506738449117
-0.06975162029266357,0.18256475031375885,147.38232421875,0.778332009723979,0.18595496055075061,0.02528023921574129,-0.35850506738449117
-0.036139342933893204,0.17878809571266174,147.3800811767578,0.778332009723979,0.18595496055075061,0.02528023921574129,-0.35850506738449117
0.016459230333566666,0.11784694343805313,147.38180541992188,0.778332009723979,0.18595496055075061,0.02528023921574129,-0.35850506738449117
0.011802521534264088,0.13888095319271088,147.38011169433594,0.778332009723979,0.18595496055075061,0.02528023921574129,-0.35850506738449117
-0.05155695974826813,0.14799880981445312,147.38134765625,0.778332009723979,0.18595496055075061,0.02528023921574129,-0.35850506738449117
-0.03612598031759262,0.15528160333633423,147.38113403320312,0.778332009723979,0.18595496055075061,0.02528023921574129,-0.35850506738449117
0.004196142312139273,0.13207846879959106,147.38107299804688,0.778332009723979,0.18595496055075061,0.02528023921574129,-0.35850506738449117
-0.0019648501183837652,0.13124123215675354,147.38211059570312,0.778332009723979,0.18595496055075061,0.02528023921574129,-0.35850506738449117
-0.031129729002714157,0.16051287949085236,147.38165283203125,0.778332009723979,0.18595496055075061,0.02528023921574129,-0.35850506738449117
-0.038536906242370605,0.16090579330921173,147.38221740722656,0.778332009723979,0.18595496055075061,0.02528023921574129,-0.35850506738449117
-0.003710480872541666,0.1482260525226593,147.3806915283203,0.778332009723979,0.18595496055075061,0.02528023921574129,-0.35850506738449117
0.0036162561737000942,0.12890835106372833,147.3814697265625,0.778332009723979,0.18595496055075061,0.02528023921574129,-0.35850506738449117
-0.006134561728686094,0.1409248560667038,147.3812713623047,0.778332009723979,0.18595496055075061,0.02528023921574129,-0.35850506738449117
-0.021452829241752625,0.15162576735019684,147.3822021484375,0.778332009723979,0.18595496055075061,0.02528023921574129,-0.35850506738449117
-0.012364513240754604,0.14124524593353271,147.3817138671875,0.778332009723979,0.18595496055075061,0.02528023921574129,-0.35850506738449117
-0.01511255744844675,0.1323445737361908,147.3819122314453,0.778332009723979,0.18595496055075061,0.02528023921574129,-0.35850506738449117
-0.0026131493505090475,0.14681704342365265,147.38243103027344,0.778332009723979,0.18595496055075061,0.02528023921574129,-0.35850506738449117
-0.019665192812681198,0.16154907643795013,147.3818359375,0.778332009723979,0.18595496055075061,0.02528023921574129,-0.35850506738449117
-0.0004381272883620113,0.16097596287727356,147.38192749023438,0.778332009723979,0.18595496055075061,0.02528023921574129,-0.35850506738449117
0.0010320850415155292,0.14804309606552124,147.38169860839844,0.778332009723979,0.18595496055075061,0.02528023921574129,-0.35850506738449117
-0.002720901742577553,0.1513281911611557,147.3815460205078,0.778332009723979,0.18595496055075061,0.02528023921574129,-0.35850506738449117
-0.023331277072429657,0.1518249362707138,147.38221740722656,0.778332009723979,0.18595496055075061,0.02528023921574129,-0.35850506738449117
-0.009568076580762863,0.14735494554042816,147.38172912597656,0.778332009723979,0.18595496055075061,0.02528023921574129,-0.35850506738449117
-0.002760901115834713,0.1330110728740692,147.38050842285156,0.778332009723979,0.18595496055075061,0.02528023921574129,-0.35850506738449117
-0.011066545732319355,0.14197343587875366,147.38189697265625,0.778332009723979,0.18595496055075061,0.02528023921574129,-0.35850506738449117
-0.003470399184152484,0.15484735369682312,147.37985229492188,0.778332009723979,0.18595496055075061,0.02528023921574129,-0.35850506738449117
-0.005079728085547686,0.1267629712820053,147.3797607421875,0.778332009723979,0.18595496055075061,0.02528023921574129,-0.35850506738449117
-0.001962595619261265,0.1404099464416504,147.37989807128906,0.778332009723979,0.18595496055075061,0.02528023921574129,-0.35850506738449117
-0.004293577279895544,0.13972821831703186,147.38003540039062,0.778332009723979,0.18595496055075061,0.02528023921574129,-0.35850506738449117
-0.019046315923333168,0.15479058027267456,147.38050842285156,0.778332009723979,0.18595496055075061,0.02528023921574129,-0.35850506738449117
0.004045666661113501,0.1511078029870987,147.37855529785156,0.778332009723979,0.18595496055075061,0.02528023921574129,-0.35850506738449117
-0.0027133722323924303,0.15366189181804657,147.37890625,0.778332009723979,0.18595496055075061,0.02528023921574129,-0.35850506738449117
0.0033953520469367504,0.14826013147830963,147.37835693359375,0.778332009723979,0.18595496055075061,0.02528023921574129,-0.35850506738449117
0.004229163751006126,0.1406853348016739,147.3780517578125,0.778332009723979,0.18595496055075061,0.02528023921574129,-0.35850506738449117
-0.017720382660627365,0.14844107627868652,147.37779235839844,0.778332009723979,0.18595496055075061,0.02528023921574129,-0.35850506738449117
0.008064690977334976,0.14824704825878143,147.3787384033203,0.778332009723979,0.18595496055075061,0.02528023921574129,-0.35850506738449117
-0.012662350200116634,0.14437000453472137,147.37783813476562,0.778332009723979,0.18595496055075061,0.02528023921574129,-0.35850506738449117
-0.016147281974554062,0.1427839994430542,147.37783813476562,0.778332009723979,0.18595496055075061,0.02528023921574129,-0.35850506738449117
0.011179305613040924,0.14439994096755981,147.37940979003906,0.778332009723979,0.18595496055075061,0.02528023921574129,-0.35850506738449117
-0.0014199542347341776,0.15027114748954773,147.38021850585938,0.778332009723979,0.18595496055075061,0.02528023921574129,-0.35850506738449117
0.007780554238706827,0.1315358281135559,147.37901306152344,0.778332009723979,0.18595496055075061,0.02528023921574129,-0.35850506738449117
-0.017939841374754906,0.13847769796848297,147.37875366210938,0.778332009723979,0.18595496055075061,0.02528023921574129,-0.35850506738449117
-0.014818713068962097,0.14851891994476318,147.3786163330078,0.778332009723979,0.18595496055075061,0.02528023921574129,-0.35850506738449117
-0.009645642712712288,0.15521332621574402,147.37852478027344,0.778332009723979,0.18595496055075061,0.02528023921574129,-0.35850506738449117
-0.00448972312733531,0.13148897886276245,147.37847900390625,0.778332009723979,0.18595496055075061,0.02528023921574129,-0.35850506738449117
0.009604161605238914,0.1438237577676773,147.37942504882812,0.778332009723979,0.18595496055075061,0.02528023921574129,-0.35850506738449117
0.006963374093174934,0.13692452013492584,147.3783721923828,0.778332009723979,0.18595496055075061,0.02528023921574129,-0.35850506738449117
-0.001207939931191504,0.1487530618906021,147.378173828125,0.778332009723979,0.18595496055075061,0.02528023921574129,-0.35850506738449117
0.004418851807713509,0.13180837035179138,147.37808227539062,0.778332009723979,0.18595496055075061,0.02528023921574129,-0.35850506738449117
-0.011886314488947392,0.14121657609939575,147.3776397705078,0.778332009723979,0.18595496055075061,0.02528023921574129,-0.35850506738449117
0.004033781122416258,0.1369984745979309,147.37705993652344,0.778332009723979,0.18595496055075061,0.02528023921574129,-0.35850506738449117
-0.010844681411981583,0.13878443837165833,147.3763885498047,0.778332009723979,0.18595496055075061,0.02528023921574129,-0.35850506738449117
-0.0019041007617488503,0.1361922323703766,147.37710571289062,0.778332009723979,0.18595496055075061,0.02528023921574129,-0.35850506738449117
0.0064928713254630566,0.13682469725608826,147.37734985351562,0.778332009723979,0.18595496055075061,0.02528023921574129,-0.35850506738449117
-0.002429874846711755,0.13816417753696442,147.37704467773438,0.778332009723979,0.18595496055075061,0.02528023921574129,-0.35850506738449117
-0.01164216734468937,0.13368472456932068,147.37667846679688,0.778332009723979,0.18595496055075061,0.02528023921574129,-0.35850506738449117
-0.015358034521341324,0.12976926565170288,147.376953125,0.778332009723979,0.18595496055075061,0.02528023921574129,-0.35850506738449117
-0.008563210256397724,0.14739763736724854,147.37709045410156,0.778332009723979,0.18595496055075061,0.02528023921574129,-0.35850506738449117
4.3069900129921734e-05,0.13612692058086395,147.37643432617188,0.778332009723979,0.18595496055075061,0.02528023921574129,-0.35850506738449117
-0.0001617177331354469,0.1422117054462433,147.37533569335938,0.778332009723979,0.18595496055075061,0.02528023921574129,-0.35850506738449117
0.006336814258247614,0.1459808051586151,147.375,0.778332009723979,0.18595496055075061,0.02528023921574129,-0.35850506738449117
-0.010158185847103596,0.14744806289672852,147.374755859375,0.778332009723979,0.18595496055075061,0.02528023921574129,-0.35850506738449117
0.007952947169542313,0.1299925595521927,147.37435913085938,0.778332009723979,0.18595496055075061,0.02528023921574129,-0.35850506738449117
0.0023593225050717592,0.13062667846679688,147.37405395507812,0.778332009723979,0.18595496055075061,0.02528023921574129,-0.35850506738449117
0.004691598005592823,0.1369968205690384,147.37513732910156,0.778332009723979,0.18595496055075061,0.02528023921574129,-0.35850506738449117
0.0006347566959448159,0.1248033195734024,147.37405395507812,0.778332009723979,0.18595496055075061,0.02528023921574129,-0.35850506738449117
0.0023972915951162577,0.13550005853176117,147.37245178222656,0.778332009723979,0.18595496055075061,0.02528023921574129,-0.35850506738449117
0.008667982183396816,0.1314428150653839,147.37286376953125,0.778332009723979,0.18595496055075061,0.02528023921574129,-0.35850506738449117
0,0.14168047904968262,147.37364196777344,0.7787539489874485,0.1799988429897671,0.02535247240060293,-0.3562290399335323
0,0.1403207778930664,147.37374877929688,0.7791764901941253,0.17408127574482923,0.02535247240060293,-0.35387902945900934
-0.28193196654319763,0.20862220227718353,147.39015197753906,0.7795794527920142,0.1682075240719131,0.02300303934607628,-0.3509711712909239
-1.3831088542938232,1.6346317529678345,147.38671875,0.7798472089463352,0.16248600829728974,0.009127699172434441,-0.3356107216638821
-2.57641863822937,2.544355869293213,147.41651916503906,0.779724370078895,0.1571827037433265,-0.023868363265258836,-0.30078582481170674
-2.8325634002685547,-0.36783117055892944,147.5769805908203,0.7789509402718005,0.15232075421165459,-0.06894321358607487,-0.28264811898892106
-0.5706835389137268,2.0616774559020996,147.7059326171875,0.7775655501190337,0.14772758044276585,-0.09730360474592722,-0.268532733277728
-0.9487579464912415,0.6531798839569092,147.7907257080078,0.7758383066034484,0.1434405666478495,-0.10996561712430196,-0.24590892211223625
-1.8725476264953613,1.2542238235473633,147.82803344726562,0.7738096223199193,0.13947454320344446,-0.1334764968991903,-0.2300138912163673
-1.0889661312103271,0.6113930344581604,147.86495971679688,0.7713793533606477,0.13577053507608872,-0.15815577821340437,-0.21446708406632128
-1.4385336637496948,0.9267105460166931,147.8713836669922,0.7685679029046631,0.13230289642362744,-0.1792182765047379,-0.20164955422903083
-0.06484927982091904,0.2096860706806183,147.8581085205078,0.7654765300362807,0.12902098695152536,-0.1917464677011597,-0.1921795824232199
-1.898014783859253,1.7961336374282837,147.81365966796875,0.7621444455701725,0.12595728694642372,-0.2081036682318278,-0.17546441818897904
-1.4014512300491333,-0.9082152843475342,147.82643127441406,0.7584469215153428,0.12309454097334913,-0.235599218347731,-0.1680650985799728
-0.48440828919410706,2.1374056339263916,147.6919708251953,0.7543893054095998,0.12037881643795922,-0.25131471434142466,-0.15782184566681565
-1.693227767944336,0.8350746631622314,147.60110473632812,0.7500495021110526,0.11795487458636568,-0.26946168148424504,-0.13305117652441045
-0.810234785079956,-0.8070263266563416,147.47776794433594,0.7453846225201329,0.11573930277877174,-0.29032386942611416,-0.13281744038686136
1.3899112939834595,1.7084567546844482,147.2438201904297,0.7405861466761493,0.11358827810760379,-0.28549323185191827,-0.1253055201532938
-1.4412184953689575,-0.4134851396083832,147.0395050048828,0.7358243631451877,0.11158978135609585,-0.2859207918634641,-0.11451409002765991
-0.0548611618578434,1.4506548643112183,147.00631713867188,0.7309551221934892,0.10975323886429476,-0.2983881223403541,-0.10587100898846963
-0.9031874537467957,0.6820980906486511,147.22674560546875,0.7259154556672885,0.1081368298919147,-0.3063718608037261,-0.08809806769713738
-2.111776351928711,-1.0221301317214966,147.30032348632812,0.7205998855007212,0.10664491542744346,-0.3314965591843553,-0.09093166803941109
-0.1494603306055069,1.1687390804290771,147.112548828125,0.7149179125224726,0.1051395688037802,-0.35034019820547374,-0.08970992680018125
-0.10155655443668365,1.6175401210784912,146.92672729492188,0.7090614774909201,0.10383789496832631,-0.3524320055808253,-0.06649093345428485
0.28434666991233826,-0.30928146839141846,146.83160400390625,0.7032003044892587,0.10282056403941373,-0.3509087546185282,-0.05558877801522591
-0.5315911769866943,0.4502241015434265,146.83668518066406,0.6973346554881809,0.1019038720886844,-0.3529691255108145,-0.054414256072292506
0.27771028876304626,0.2899457514286041,146.91172790527344,0.6914342061124296,0.10104836850504703,-0.3550847995793449,-0.04824617396419225
-0.2576768398284912,0.5130776166915894,146.97140502929688,0.685517517331172,0.10030003111731885,-0.35491785417155697,-0.041554312563190636
-0.6587393283843994,-0.3387809991836548,146.93600463867188,0.6795385797499647,0.09961956317303705,-0.36255465557333105,-0.040101840750624514
0.07803903520107269,1.0189037322998047,146.88768005371094,0.6734556757478269,0.09899842990588192,-0.3673938246831921,-0.03443415130798993
-1.4099605083465576,0.7015756368637085,146.89376831054688,0.6672399507896942,0.09854400511805178,-0.3784931702927378,-0.02009682323162732
-1.7118253707885742,-1.1536197662353516,146.9700927734375,0.6607149405987642,0.09817766611076274,-0.4045080526188639,-0.02386385764305768
0.6135464310646057,1.6454830169677734,147.1144561767578,0.653896870350969,0.09781409232023487,-0.41366037711656367,-0.019764997220287496
0.2090328484773636,0.13947513699531555,147.18284606933594,0.6470596542934389,0.09760863112725529,-0.40680554978704725,-0.004890345937261755
0.9063616394996643,-1.1480704545974731,147.14169311523438,0.6403570197475421,0.09745708402013412,-0.397510595720572,-0.013295306917279735
-0.2612287998199463,1.0498443841934204,147.21688842773438,0.6337766440438437,0.09722867431662362,-0.392134488723241,-0.014113857503980174
-0.10433918982744217,0.22261996567249298,147.2867889404297,0.6272156825658419,0.09708180893807575,-0.39518088863696926,-0.00350998792176423
-0.24812018871307373,0.727942705154419,147.42340087890625,0.6206048580761605,0.09708932043596488,-0.3981180501248069,0.004411367668460037
-0.6038064956665039,-0.1598234623670578,147.57839965820312,0.6139103956654429,0.09720229595563279,-0.40521743916130337,0.009145694691688046
-0.44496962428092957,-0.183016836643219,147.50662231445312,0.6070839400044249,0.09733091584639632,-0.4139572401608653,0.00628869219993574
-0.7552249431610107,0.5361199378967285,147.37332153320312,0.6001013058234492,0.09746024843176007,-0.4239588615562148,0.009231218043714986
-0.33346131443977356,1.0072076320648193,147.21449279785156,0.592959721585179,0.09772127759151376,-0.43303124703622137,0.022092281126727883
1.0178192853927612,-0.18316665291786194,147.0162353515625,0.5857900589936692,0.09814670734495555,-0.4273282639449465,0.028959289286285862
-0.09878013283014297,-0.34686028957366943,146.7811737060547,0.5787317434246259,0.09859255473983174,-0.419669604340258,0.024542398098856433
0.20160068571567535,1.4373881816864014,146.7164764404297,0.5717443903351275,0.09907732581176495,-0.41881276639954523,0.0336301305331292
0.23556223511695862,-1.1203502416610718,146.78396606445312,0.5647945360979707,0.09965984451092998,-0.41516974205927326,0.03627211336667362
-1.2115247249603271,0.49073466658592224,146.70828247070312,0.557807265224077,0.1002206564298832,-0.423302762807968,0.031025316907714037
0.661834716796875,0.5711842179298401,146.60162353515625,0.5507140462600439,0.10081148941199203,-0.4278835128759968,0.03987464094534539
-0.3178691864013672,0,146.53646850585938,0.5436065408739437,0.10151573233177069,-0.42501713345603426,0.044634509428094056
0.6904177665710449,0.22256413102149963,146.5660400390625,0.5365487934121882,0.10227509666467098,-0.4219125619546203,0.046489210519939886
0.18386633694171906,0.12322618812322617,146.68051147460938,0.5295776315534663,0.10307393005661059,-0.4146268610920139,0.0493707965128126
-0.33572840690612793,-0.24204190075397491,146.62942504882812,0.5226566378915185,0.10388852557400255,-0.41589237834171733,0.04838066557422303
0.2473050206899643,0.6984391808509827,146.49374389648438,0.5157189577395582,0.10472656425580189,-0.4166292398935187,0.05218397624169809
-1.4588643312454224,-0.39678850769996643,146.4215545654297,0.5086910010114333,0.10561724515657679,-0.4267255674814808,0.05469773185128989
-0.06320787966251373,0.3367050588130951,146.53695678710938,0.5014732087609844,0.1065247015590367,-0.4394095025723803,0.054197036443899296
0.46794822812080383,1.1637089252471924,146.69842529296875,0.4941778240200877,0.1075321809153281,-0.4360366663352279,0.06670048631106835
0.49208182096481323,-1.450584888458252,146.822998046875,0.48697721500124264,0.10862393374528957,-0.42803641592618114,0.06430985328430952
0.38194477558135986,0.3796018660068512,146.86471557617188,0.4799039710272331,0.10962139081235783,-0.420752860954963,0.05538499476388118
-0.12177529186010361,0.3502259850502014,146.90286254882812,0.4729094906699088,0.11059515654807926,-0.41858478192395254,0.061466893522689955
0.17209140956401825,0.3595575988292694,147.02301025390625,0.46593657181268344,0.11166889530011573,-0.4181654809430866,0.06738175672168555
-0.22620853781700134,0.34623730182647705,147.29165649414062,0.4589633889963922,0.11284093811357825,-0.41861645701186145,0.07326338089381676
-0.9812320470809937,-0.8258673548698425,147.32977294921875,0.45190259800557664,0.11402868681923607,-0.4286784618860114,0.06926646378512205
-0.25985828042030334,0.24242256581783295,147.1980438232422,0.4446717701458444,0.11514261088308171,-0.4390208812818555,0.06440442387635531
-0.3717500865459442,0.39165377616882324,147.0919189453125,0.43731089376566307,0.11626005102699226,-0.4442842843399076,0.06968839339291077
1.2407912015914917,0.19170022010803223,146.9580535888672,0.429966505770765,0.11746203494439333,-0.43704227504786136,0.0745496766952179
-0.18521475791931152,0.26709574460983276,146.7626953125,0.4227557717730001,0.11873639038686348,-0.42824580468392653,0.07837297640120011
1.091953992843628,1.6124314069747925,146.74087524414062,0.41568130969735995,0.12017312937907686,-0.4206896443928906,0.09403570266440532
-0.590533971786499,-1.0255616903305054,146.7293243408203,0.40870463645894073,0.12178114593158391,-0.41651114421741453,0.09892628363644104
-0.9261963963508606,0.5248733758926392,146.50540161132812,0.40165745555752985,0.12339514730368864,-0.42915056395189255,0.09475388101612549
0.7258415818214417,-0.1687072068452835,146.44354248046875,0.3944910326295449,0.12499911241569679,-0.4308201874063044,0.09772193242485346
-0.4131915867328644,-0.19407720863819122,146.41468811035156,0.3873324079779876,0.126602617927258,-0.42821477078056625,0.09469872896249117
1.4166239500045776,0.1955113708972931,146.4117889404297,0.3802651779346498,0.12818102967123418,-0.4198528344199686,0.09471068031465035
0.32429444789886475,0.008767611347138882,146.3150634765625,0.3802651779346498,0.12818102967123418,-0.4198528344199686,0.09471068031465035
-0.6455734372138977,-0.05492914468050003,146.15318298339844,0.3802651779346498,0.12818102967123418,-0.4198528344199686,0.09471068031465035
-0.1615702211856842,0.4123489558696747,146.0282440185547,0.3802651779346498,0.12818102967123418,-0.4198528344199686,0.09471068031465035
1.1621325016021729,0.02022700197994709,145.96156311035156,0.3802651779346498,0.12818102967123418,-0.4198528344199686,0.09471068031465035
2.631403684616089,-3.2349207401275635,145.43484497070312,0.3802651779346498,0.12818102967123418,-0.4198528344199686,0.09471068031465035
2.0718204975128174,-0.7345894575119019,144.67247009277344,0.3802651779346498,0.12818102967123418,-0.4198528344199686,0.09471068031465035
2.924394130706787,-1.1673824787139893,143.63995361328125,0.3802651779346498,0.12818102967123418,-0.4198528344199686,0.09471068031465035
2.30391001701355,-1.2153432369232178,142.2506561279297,0.3802651779346498,0.12818102967123418,-0.4198528344199686,0.09471068031465035
1.7182331085205078,-0.7175093293190002,140.56288146972656,0.3802651779346498,0.12818102967123418,-0.4198528344199686,0.09471068031465035
1.7144712209701538,-0.9362016320228577,138.71800231933594,0.3802651779346498,0.12818102967123418,-0.4198528344199686,0.09471068031465035
1.6963378190994263,-0.2286115437746048,136.78158569335938,0.3802651779346498,0.12818102967123418,-0.4198528344199686,0.09471068031465035
0.08467444777488708,-0.841059148311615,134.7958526611328,0.3802651779346498,0.12818102967123418,-0.4198528344199686,0.09471068031465035
1.7188981771469116,-0.590271532535553,132.76832580566406,0.3802651779346498,0.12818102967123418,-0.4198528344199686,0.09471068031465035
1.5538102388381958,0.20116467773914337,130.77772521972656,0.3802651779346498,0.12818102967123418,-0.4198528344199686,0.09471068031465035
0.9132457971572876,-0.3406914472579956,128.79652404785156,0.3802651779346498,0.12818102967123418,-0.4198528344199686,0.09471068031465035
0.8692251443862915,-0.9509563446044922,126.7287368774414,0.3802651779346498,0.12818102967123418,-0.4198528344199686,0.09471068031465035
1.2329344749450684,-0.7096045613288879,124.53605651855469,0.3802651779346498,0.12818102967123418,-0.4198528344199686,0.09471068031465035
1.2943226099014282,0.8146775364875793,122.27133178710938,0.3802651779346498,0.12818102967123418,-0.4198528344199686,0.09471068031465035
0.9885786771774292,-1.0446717739105225,119.92886352539062,0.3802651779346498,0.12818102967123418,-0.4198528344199686,0.09471068031465035
1.3980188369750977,0.3082754909992218,117.51374816894531,0.3802651779346498,0.12818102967123418,-0.4198528344199686,0.09471068031465035
-0.33579859137535095,-0.8689881563186646,115.06877136230469,0.3802651779346498,0.12818102967123418,-0.4198528344199686,0.09471068031465035
0.5580351948738098,-1.040158987045288,112.65303802490234,0.3802651779346498,0.12818102967123418,-0.4198528344199686,0.09471068031465035
1.2701719999313354,1.720051646232605,110.29560089111328,0.3802651779346498,0.12818102967123418,-0.4198528344199686,0.09471068031465035
-0.7298033237457275,-2.2869813442230225,107.87384033203125,0.3802651779346498,0.12818102967123418,-0.4198528344199686,0.09471068031465035
2.384033203125,0.8402275443077087,105.53728485107422,0.3802651779346498,0.12818102967123418,-0.4198528344199686,0.09471068031465035
-0.29252272844314575,-1.271620512008667,103.13111877441406,0.3802651779346498,0.12818102967123418,-0.4198528344199686,0.09471068031465035
1.9010324478149414,0.46852394938468933,100.7502212524414,0.3802651779346498,0.12818102967123418,-0.4198528344199686,0.09471068031465035
-0.15000326931476593,-0.32125332951545715,98.29757690429688,0.3802651779346498,0.12818102967123418,-0.4198528344199686,0.09471068031465035
0.17735706269741058,-0.003251563524827361,95.83016967773438,0.3802651779346498,0.12818102967123418,-0.4198528344199686,0.09471068031465035
0.23156465590000153,-1.0767288208007812,93.36585998535156,0.3802651779346498,0.12818102967123418,-0.4198528344199686,0.09471068031465035
1.292235255241394,-0.13939674198627472,90.99607849121094,0.3802651779346498,0.12818102967123418,-0.4198528344199686,0.09471068031465035
-0.21956288814544678,-0.8859578371047974,88.6231918334961,0.3802651779346498,0.12818102967123418,-0.4198528344199686,0.09471068031465035
1.448208212852478,0.5165182948112488,86.38428497314453,0.3802651779346498,0.12818102967123418,-0.4198528344199686,0.09471068031465035
-0.9444742202758789,0.027827102690935135,84.2141342163086,0.3802651779346498,0.12818102967123418,-0.4198528344199686,0.09471068031465035
1.211343765258789,0.6086684465408325,82.16082763671875,0.3802651779346498,0.12818102967123418,-0.4198528344199686,0.09471068031465035
-0.8317296504974365,-1.7089836597442627,80.02518463134766,0.3802651779346498,0.12818102967123418,-0.4198528344199686,0.09471068031465035
2.0765984058380127,0.11504574865102768,77.91539764404297,0.3802651779346498,0.12818102967123418,-0.4198528344199686,0.09471068031465035
-0.5224984288215637,-0.9862419962882996,75.70655822753906,0.3802651779346498,0.12818102967123418,-0.4198528344199686,0.09471068031465035
0.9473243355751038,-0.17367097735404968,73.48648071289062,0.3802651779346498,0.12818102967123418,-0.4198528344199686,0.09471068031465035
-0.5035730004310608,-1.0326229333877563,71.22481536865234,0.3802651779346498,0.12818102967123418,-0.4198528344199686,0.09471068031465035
0.46142351627349854,0.2503301799297333,68.87391662597656,0.3802651779346498,0.12818102967123418,-0.4198528344199686,0.09471068031465035
-0.90843266248703,-0.41901084780693054,66.4619140625,0.3802651779346498,0.12818102967123418,-0.4198528344199686,0.09471068031465035
0.6430649161338806,0.019032316282391548,64.22450256347656,0.3802651779346498,0.12818102967123418,-0.4198528344199686,0.09471068031465035
-0.7501923441886902,0.4041093587875366,62.44551086425781,0.3802651779346498,0.12818102967123418,-0.4198528344199686,0.09471068031465035
0.4140412211418152,0.6312642693519592,61.1587028503418,0.3802651779346498,0.12818102967123418,-0.4198528344199686,0.09471068031465035
-0.9299421310424805,0.8960587382316589,60.33051681518555,0.3802651779346498,0.12818102967123418,-0.4198528344199686,0.09471068031465035
-0.6105074882507324,1.812593698501587,59.78305435180664,0.3802651779346498,0.12818102967123418,-0.4198528344199686,0.09471068031465035
-1.0405001640319824,1.0733150243759155,59.58943176269531,0.3802651779346498,0.12818102967123418,-0.4198528344199686,0.09471068031465035
0.42167240381240845,0.38727712631225586,59.71414566040039,0.3802651779346498,0.12818102967123418,-0.4198528344199686,0.09471068031465035
0.10485265403985977,-0.6065323948860168,59.76953887939453,0.3802651779346498,0.12818102967123418,-0.4198528344199686,0.09471068031465035
-0.023523135110735893,-0.5218250751495361,59.65827941894531,0.3802651779346498,0.12818102967123418,-0.4198528344199686,0.09471068031465035
0.018013449385762215,-0.04659414663910866,59.61488723754883,0.3802651779346498,0.12818102967123418,-0.4198528344199686,0.09471068031465035
0.08659987151622772,0.08416298031806946,59.613555908203125,0.3802651779346498,0.12818102967123418,-0.4198528344199686,0.09471068031465035
0.26245516538619995,0.04118504375219345,59.57309341430664,0.3802651779346498,0.12818102967123418,-0.4198528344199686,0.09471068031465035
0.22561918199062347,0.2469199299812317,59.538177490234375,0.3802651779346498,0.12818102967123418,-0.4198528344199686,0.09471068031465035
0.18804293870925903,0.01770082861185074,59.504547119140625,0.3802651779346498,0.12818102967123418,-0.4198528344199686,0.09471068031465035
0.0891798883676529,-0.08182042837142944,59.46406555175781,0.3802651779346498,0.12818102967123418,-0.4198528344199686,0.09471068031465035
0.0989939272403717,-0.09726767987012863,59.42860412597656,0.3802651779346498,0.12818102967123418,-0.4198528344199686,0.09471068031465035
0.16554968059062958,0.02295558899641037,59.391029357910156,0.3802651779346498,0.12818102967123418,-0.4198528344199686,0.09471068031465035
0.18864136934280396,0.09932784736156464,59.35709762573242,0.3802651779346498,0.12818102967123418,-0.4198528344199686,0.09471068031465035
0.16200898587703705,0.03399452194571495,59.32080841064453,0.3802651779346498,0.12818102967123418,-0.4198528344199686,0.09471068031465035
0.11764459311962128,-0.02300867810845375,59.28496170043945,0.3802651779346498,0.12818102967123418,-0.4198528344199686,0.09471068031465035
0.12319662421941757,-0.03261738643050194,59.24946594238281,0.3802651779346498,0.12818102967123418,-0.4198528344199686,0.09471068031465035
0.15887585282325745,0.03411560133099556,59.21244812011719,0.3802651779346498,0.12818102967123418,-0.4198528344199686,0.09471068031465035
0.1674976795911789,0.0414903461933136,59.17548751831055,0.3802651779346498,0.12818102967123418,-0.4198528344199686,0.09471068031465035
0.13728448748588562,0.014302094466984272,59.13793182373047,0.3802651779346498,0.12818102967123418,-0.4198528344199686,0.09471068031465035
0.12569649517536163,-0.007278467062860727,59.101478576660156,0.3802651779346498,0.12818102967123418,-0.4198528344199686,0.09471068031465035
0.14657549560070038,-0.016897957772016525,59.066471099853516,0.3802651779346498,0.12818102967123418,-0.4198528344199686,0.09471068031465035
0.1540251523256302,0.031062956899404526,59.03114700317383,0.3802651779346498,0.12818102967123418,-0.4198528344199686,0.09471068031465035
0.1624496877193451,0.022715233266353607,58.99470901489258,0.3802651779346498,0.12818102967123418,-0.4198528344199686,0.09471068031465035
0.12199922651052475,0.0006427709013223648,58.95704650878906,0.3802651779346498,0.12818102967123418,-0.4198528344199686,0.09471068031465035
0.13085013628005981,-0.01729782484471798,58.920188903808594,0.3802651779346498,0.12818102967123418,-0.4198528344199686,0.09471068031465035
0.15787716209888458,0.009131214581429958,58.8863410949707,0.3802651779346498,0.12818102967123418,-0.4198528344199686,0.09471068031465035
0.15263961255550385,0.014761787839233875,58.85101318359375,0.3802651779346498,0.12818102967123418,-0.4198528344199686,0.09471068031465035
0.1381845772266388,0.008843651972711086,58.81850814819336,0.3802651779346498,0.12818102967123418,-0.4198528344199686,0.09471068031465035
0.13753369450569153,-0.0042261602357029915,58.78475570678711,0.3802651779346498,0.12818102967123418,-0.4198528344199686,0.09471068031465035
0.1517273336648941,0.0028234960045665503,58.75066375732422,0.3802651779346498,0.12818102967123418,-0.4198528344199686,0.09471068031465035
0.1579856425523758,0.017910068854689598,58.71782684326172,0.3802651779346498,0.12818102967123418,-0.4198528344199686,0.09471068031465035
0.14291638135910034,0.013473272323608398,58.68201446533203,0.3802651779346498,0.12818102967123418,-0.4198528344199686,0.09471068031465035
0.14145058393478394,0.0092777656391263,58.647151947021484,0.3802651779346498,0.12818102967123418,-0.4198528344199686,0.09471068031465035
0.13763311505317688,0.01912977732717991,58.61397171020508,0.3802651779346498,0.12818102967123418,-0.4198528344199686,0.09471068031465035
0.13014733791351318,-0.008170454762876034,58.58015060424805,0.3802651779346498,0.12818102967123418,-0.4198528344199686,0.09471068031465035
0.14672428369522095,0.019949035719037056,58.54566192626953,0.3802651779346498,0.12818102967123418,-0.4198528344199686,0.09471068031465035
0.14388573169708252,0.01700589619576931,58.514198303222656,0.3802651779346498,0.12818102967123418,-0.4198528344199686,0.09471068031465035
0.13880400359630585,0.01046664733439684,58.48249816894531,0.3802651779346498,0.12818102967123418,-0.4198528344199686,0.09471068031465035
0.140986368060112,-0.0016065185191109776,58.45087432861328,0.3802651779346498,0.12818102967123418,-0.4198528344199686,0.09471068031465035
0.1477598398923874,0.013671576976776123,58.42058181762695,0.3802651779346498,0.12818102967123418,-0.4198528344199686,0.09471068031465035
0.13866488635540009,-0.003114213002845645,58.38895797729492,0.3802651779346498,0.12818102967123418,-0.4198528344199686,0.09471068031465035
0.14743348956108093,0.012073804624378681,58.357887268066406,0.3802651779346498,0.12818102967123418,-0.4198528344199686,0.09471068031465035
0.13981415331363678,0.00893384963274002,58.32762908935547,0.3802651779346498,0.12818102967123418,-0.4198528344199686,0.09471068031465035
0.14292290806770325,0.005271460395306349,58.29615020751953,0.3802651779346498,0.12818102967123418,-0.4198528344199686,0.09471068031465035
0.1561070829629898,0.003247505286708474,58.266021728515625,0.3802651779346498,0.12818102967123418,-0.4198528344199686,0.09471068031465035
0.14263014495372772,0.006268825847655535,58.236202239990234,0.3802651779346498,0.12818102967123418,-0.4198528344199686,0.09471068031465035
0.14487363398075104,0.022202646359801292,58.20680618286133,0.3802651779346498,0.12818102967123418,-0.4198528344199686,0.09471068031465035
0.1437443047761917,0.009737088344991207,58.176212310791016,0.3802651779346498,0.12818102967123418,-0.4198528344199686,0.09471068031465035
0.15451732277870178,0.015279488638043404,58.14521789550781,0.3802651779346498,0.12818102967123418,-0.4198528344199686,0.09471068031465035
0.1412947028875351,-0.002448364393785596,58.11551284790039,0.3802651779346498,0.12818102967123418,-0.4198528344199686,0.09471068031465035
0.14521118998527527,0.014896188862621784,58.08687973022461,0.3802651779346498,0.12818102967123418,-0.4198528344199686,0.09471068031465035
0.14206448197364807,0.019237210974097252,58.05964279174805,0.3802651779346498,0.12818102967123418,-0.4198528344199686,0.09471068031465035
0.14906886219978333,-0.00905600655823946,58.03248977661133,0.3802651779346498,0.12818102967123418,-0.4198528344199686,0.09471068031465035
0.14582006633281708,0.009902674704790115,58.00395965576172,0.3802651779346498,0.12818102967123418,-0.4198528344199686,0.09471068031465035
0.14620773494243622,-0.0011556318495422602,57.974945068359375,0.3802651779346498,0.12818102967123418,-0.4198528344199686,0.09471068031465035
0.14381998777389526,-0.004228669684380293,57.94776916503906,0.3802651779346498,0.12818102967123418,-0.4198528344199686,0.09471068031465035
0.15610605478286743,-0.0008572001243010163,57.9205436706543,0.3802651779346498,0.12818102967123418,-0.4198528344199686,0.09471068031465035
0.1412280648946762,0.014072973281145096,57.89590072631836,0.3802651779346498,0.12818102967123418,-0.4198528344199686,0.09471068031465035
0.15222495794296265,0.00466541014611721,57.86796569824219,0.3802651779346498,0.12818102967123418,-0.4198528344199686,0.09471068031465035
0.1319902241230011,0.0031707705929875374,57.84149932861328,0.3802651779346498,0.12818102967123418,-0.4198528344199686,0.09471068031465035
0.13792285323143005,0.005828507244586945,57.81460189819336,0.3802651779346498,0.12818102967123418,-0.4198528344199686,0.09471068031465035
0.13880015909671783,0.0008335531456395984,57.788490295410156,0.3802651779346498,0.12818102967123418,-0.4198528344199686,0.09471068031465035
0.14424878358840942,-0.00794804934412241,57.76188659667969,0.3802651779346498,0.12818102967123418,-0.4198528344199686,0.09471068031465035
0.14858657121658325,0.011375632137060165,57.73819351196289,0.3802651779346498,0.12818102967123418,-0.4198528344199686,0.09471068031465035
0.1371006816625595,0.0035710192751139402,57.714908599853516,0.3802651779346498,0.12818102967123418,-0.4198528344199686,0.09471068031465035
0.1485162377357483,0.006282774731516838,57.689247131347656,0.3802651779346498,0.12818102967123418,-0.4198528344199686,0.09471068031465035
0.1357971429824829,0.0007940088398754597,57.669342041015625,0.3802651779346498,0.12818102967123418,-0.4198528344199686,0.09471068031465035
0.13012638688087463,-0.008238079957664013,57.644126892089844,0.3802651779346498,0.12818102967123418,-0.4198528344199686,0.09471068031465035
0.13140492141246796,0.0010008298559114337,57.62174987792969,0.3802651779346498,0.12818102967123418,-0.4198528344199686,0.09471068031465035
0.1417618989944458,0.001161858788691461,57.59906005859375,0.3802651779346498,0.12818102967123418,-0.4198528344199686,0.09471068031465035
0.13415996730327606,-0.006533042527735233,57.57596206665039,0.3802651779346498,0.12818102967123418,-0.4198528344199686,0.09471068031465035
0.14434029161930084,0.0007428976823575795,57.55276107788086,0.3802651779346498,0.12818102967123418,-0.4198528344199686,0.09471068031465035
0.14869998395442963,-0.012726511806249619,57.52931213378906,0.3802651779346498,0.12818102967123418,-0.4198528344199686,0.09471068031465035
0.14946478605270386,-0.0014374763704836369,57.50984573364258,0.3802651779346498,0.12818102967123418,-0.4198528344199686,0.09471068031465035
0.14405249059200287,0.003272482892498374,57.49015426635742,0.3802651779346498,0.12818102967123418,-0.4198528344199686,0.09471068031465035
0.13391205668449402,0.014025647193193436,57.471256256103516,0.3802651779346498,0.12818102967123418,-0.4198528344199686,0.09471068031465035
0.13648103177547455,0.003665952943265438,57.45073699951172,0.3802651779346498,0.12818102967123418,-0.4198528344199686,0.09471068031465035
0.15125274658203125,-0.011896822601556778,57.43314743041992,0.3802651779346498,0.12818102967123418,-0.4198528344199686,0.09471068031465035
0.14705832302570343,-0.007313431240618229,57.41107940673828,0.3802651779346498,0.12818102967123418,-0.4198528344199686,0.09471068031465035
0.13279347121715546,-0.008353455923497677,57.39070510864258,0.3802651779346498,0.12818102967123418,-0.4198528344199686,0.09471068031465035
0.136458620429039,-0.002953894902020693,57.36793518066406,0.3802651779346498,0.12818102967123418,-0.4198528344199686,0.09471068031465035
0.140305295586586,-0.0011107843602076173,57.346458435058594,0.3802651779346498,0.12818102967123418,-0.4198528344199686,0.09471068031465035
0.13266320526599884,0.005708170123398304,57.32870101928711,0.3802651779346498,0.12818102967123418,-0.4198528344199686,0.09471068031465035
0.12906523048877716,0,57.30880355834961,0.3732858062801333,0.1297599374105147,-0.4176717641220122,0.09475824839901201
0.16194112598896027,0.1742275357246399,57.288604736328125,0.3663448189861885,0.13135134068492355,-0.41524671115136436,0.09621014453005067
1.02541983127594,1.2767808437347412,57.238521575927734,0.35950649608903135,0.1330556075645535,-0.4053520365074902,0.10830188102554551
2.0132298469543457,1.9258942604064941,57.33613967895508,0.3529616461526725,0.1350830469083224,-0.38002995585557114,0.13499084022672247
1.0205261707305908,2.822700262069702,57.37163543701172,0.34683849105630776,0.13766265775393974,-0.3547486557081967,0.17456246124735744
0.8901683688163757,0.49532780051231384,57.3368034362793,0.341058700581973,0.14080245072351943,-0.338826201211972,0.20221269510220757
0.5207370519638062,1.4908932447433472,57.293479919433594,0.3355095767715499,0.14431059432558788,-0.3270686560388038,0.21876453714600474
1.555294394493103,0.9356855154037476,57.32680892944336,0.33020260135468493,0.14812518235858707,-0.3097683939849962,0.2389860268138972
0.9669237732887268,1.4851175546646118,57.34505844116211,0.32521494882769764,0.15227639412979566,-0.288749909253481,0.2591593857311335
-0.1667749583721161,2.0550618171691895,57.327354431152344,0.32045801623006437,0.15684156301502522,-0.28208200246250925,0.2886608804964152
1.9883949756622314,-0.38186126947402954,57.30950927734375,0.31588315091244545,0.16176877217244431,-0.2669018356517583,0.30260421839387486
-0.05363304540514946,1.564333438873291,57.43553924560547,0.31156914545229514,0.16689429193521718,-0.2507788195662826,0.3124581531388687
1.166962742805481,1.3657851219177246,57.437923431396484,0.30746681302184325,0.17230540827647547,-0.24150107208794652,0.33687580781212717
1.3850725889205933,0.9769623875617981,57.5070915222168,0.3036190198295251,0.17808269587261366,-0.22023411099022924,0.35639870372445653
0.5531686544418335,0.11159642785787582,57.601253509521484,0.3000830513993659,0.1840982686302032,-0.2040821006288757,0.3654700271862871
0.7338607311248779,1.882525086402893,57.5826416015625,0.2967710600962157,0.19032791641068722,-0.1933568557491531,0.3820877064717935
-0.1584303230047226,-0.19002771377563477,57.591827392578125,0.2935884062787381,0.19681357939164956,-0.1885616023481518,0.39619185124368733
0.8851098418235779,0.4131474196910858,57.55952072143555,0.29049617676174244,0.2034322713363996,-0.182505939691328,0.39805118212631607
0.8346740007400513,0.3679298162460327,57.55324935913086,0.2875738405337317,0.2101206991798894,-0.16817440766996442,0.40456015909245874
-0.4101434350013733,0.9412063360214233,57.55687713623047,0.2848004150285197,0.2169542807308934,-0.16463665295547544,0.41546962702802087
0.4285607933998108,1.4569326639175415,57.47917175292969,0.2820577497958172,0.22404531194524507,-0.1644831749688218,0.43545411869417894
1.0077742338180542,1.4775426387786865,57.478172302246094,0.2794161090343381,0.23150666359727973,-0.15251371640867295,0.4599080795499808
0.6905107498168945,0.4210847318172455,57.63081359863281,0.2769921502180571,0.23930364737940413,-0.13836134154504837,0.4757299743049469
0.26079776883125305,0.21876637637615204,57.642181396484375,0.27475219095054576,0.24727691438922222,-0.1304337705563138,0.4810620668732252
0.9180927872657776,0.15145504474639893,57.59416198730469,0.27266016217433614,0.2553203253246873,-0.12060968258883856,0.4841472453825798
-0.1489199548959732,0,57.6195182800293,0.2707034155778812,0.26339996379250435,-0.11419990898575685,0.4854093707554665
0.43121862411499023,-0.2199402153491974,57.63276290893555,0.2688196878357032,0.2714748463456962,-0.11184742007559838,0.4835765356275565
0.39588040113449097,0.666134238243103,57.60353469848633,0.26701300160008556,0.27956544096885644,-0.10495492819851937,0.4872948191516724
-2.105177640914917,1.3703612089157104,57.49967575073242,0.2651450515995699,0.28782844458299256,-0.11919907186335625,0.5042656145446625
1.3999314308166504,-0.3525092303752899,57.44505310058594,0.2631094249705905,0.2963035556572467,-0.12507612361417514,0.5127477143658327
1.0002254247665405,-0.1108427420258522,57.46687698364258,0.26119150046976974,0.3048171736763716,-0.10507481648431521,0.5088864479291565
0.5098745822906494,-0.5296486616134644,57.5023307800293,0.2595451215844101,0.3132541359054937,-0.09249064975883864,0.5035490195654955
0.8397048711776733,0.2819250524044037,57.66288375854492,0.2580973315504759,0.32162941653650134,-0.08124415431326928,0.5014846561554199
-0.3427284359931946,0.5467785000801086,57.83017349243164,0.25677777456436474,0.3300450429969031,-0.0771026840200653,0.5083905190927909
1.146266222000122,0.46555736660957336,57.73738479614258,0.25554853106583636,0.33858851941696977,-0.0704065358033409,0.5168266513152049
-0.15583372116088867,-0.5425428748130798,57.65351104736328,0.25444386883722786,0.3471969507230424,-0.06215293162968062,0.516185105413509
-0.26476743817329407,1.0696622133255005,57.54362106323242,0.2533787782295572,0.3558366413228865,-0.06565794129079881,0.5205777665677792
0.24576975405216217,0.230666846036911,57.529884338378906,0.25228315992442435,0.3646032380614719,-0.06581625532514158,0.531413842062466
-0.20995566248893738,-0.11763113737106323,57.5656623840332,0.25118870942536387,0.37346798513117035,-0.06551780456211471,0.532355806301348
0.7334877848625183,0.49614131450653076,57.6199836730957,0.2501331024133823,0.38236686733182723,-0.06115503687566821,0.535510057777477
0.2540297508239746,-0.6225409507751465,57.64580535888672,0.24918242940543275,0.3912832572089332,-0.052925724078280764,0.5344567274752385
1.0349105596542358,0.8706307411193848,57.611793518066406,0.2483898437479113,0.4002080977911833,-0.04218455482429568,0.5365241423947739
-0.44727301597595215,-0.8433993458747864,57.58012008666992,0.24772757599692846,0.4091520579002104,-0.037287575293643314,0.5367510706884788
0.5747035145759583,-1.0189709663391113,57.54737091064453,0.24711496574888164,0.41796857780667024,-0.0362256544719766,0.5212313180866963
-0.1521380990743637,1.0321457386016846,57.541988372802734,0.24654054966153632,0.42665668135618895,-0.03270427600946331,0.5213411078555511
-0.9848031401634216,1.4836481809616089,57.485965728759766,0.2459165241419871,0.4355204077315289,-0.042178786336444854,0.5423060571852452
1.9824944734573364,1.1024237871170044,57.437225341796875,0.24528282849008065,0.44473843034906624,-0.033864691892328894,0.5638566569192336
-0.5359871983528137,-0.46319830417633057,57.505924224853516,0.2448188688526463,0.4541804319562577,-0.021810464599791204,0.5691835359437392
0.10956747084856033,-0.23501968383789062,57.46543502807617,0.24442574862823976,0.4636183368617079,-0.025363962328993316,0.5633650527102874
-0.21047717332839966,-0.5683914422988892,57.34228515625,0.24399600830452878,0.4729519619675643,-0.02620487651632531,0.5566699599924808
1.1923682689666748,-0.4652806222438812,57.270355224609375,0.24362744724423158,0.4821580118518457,-0.018022450719339684,0.548056026121291
-1.128156304359436,1.173775553703308,57.24776077270508,0.24333153222978476,0.4913414799907741,-0.01748735101427936,0.5539601505501196
-0.5035971403121948,-0.36230790615081787,57.205142974853516,0.24292676016811124,0.5006305010865784,-0.03108529638654295,0.5607223809463904
1.063360571861267,-0.24262940883636475,57.20041275024414,0.24244754435552643,0.5099338645665885,-0.026420601123634015,0.5556812366548305
1.3364461660385132,0.04295149818062782,57.21380615234375,0.24244754435552643,0.5099338645665885,-0.026420601123634015,0.5556812366548305
0.386287659406662,-0.11352939903736115,57.301326751708984,0.24244754435552643,0.5099338645665885,-0.026420601123634015,0.5556812366548305
-0.4445759952068329,-1.0219128131866455,57.4171257019043,0.24244754435552643,0.5099338645665885,-0.026420601123634015,0.5556812366548305
-0.3271026015281677,-1.4655084609985352,57.188961029052734,0.24244754435552643,0.5099338645665885,-0.026420601123634015,0.5556812366548305
-2.529898166656494,-1.6088511943817139,56.44193649291992,0.24244754435552643,0.5099338645665885,-0.026420601123634015,0.5556812366548305
-0.715868353843689,-3.467832326889038,55.41688537597656,0.24244754435552643,0.5099338645665885,-0.026420601123634015,0.5556812366548305
-2.2847061157226562,-1.6259751319885254,54.21415710449219,0.24244754435552643,0.5099338645665885,-0.026420601123634015,0.5556812366548305
-0.793633759021759,-2.430673837661743,52.737762451171875,0.24244754435552643,0.5099338645665885,-0.026420601123634015,0.5556812366548305
-0.2716739773750305,-1.325576901435852,51.05792236328125,0.24244754435552643,0.5099338645665885,-0.026420601123634015,0.5556812366548305
-1.0265661478042603,-1.4637247323989868,49.18877029418945,0.24244754435552643,0.5099338645665885,-0.026420601123634015,0.5556812366548305
-0.6130850315093994,-1.6375770568847656,47.14260482788086,0.24244754435552643,0.5099338645665885,-0.026420601123634015,0.5556812366548305
-1.9137449264526367,-1.063833475112915,45.03276824951172,0.24244754435552643,0.5099338645665885,-0.026420601123634015,0.5556812366548305
0.01604541763663292,-1.4057213068008423,42.86961364746094,0.24244754435552643,0.5099338645665885,-0.026420601123634015,0.5556812366548305
-0.6102274656295776,-0.6656609177589417,40.646366119384766,0.24244754435552643,0.5099338645665885,-0.026420601123634015,0.5556812366548305
-1.133819580078125,-0.06340453028678894,38.3271598815918,0.24244754435552643,0.5099338645665885,-0.026420601123634015,0.5556812366548305
0.9548503756523132,-1.5126322507858276,36.03811264038086,0.24244754435552643,0.5099338645665885,-0.026420601123634015,0.5556812366548305
0.6036533117294312,-1.187381625175476,33.75582504272461,0.24244754435552643,0.5099338645665885,-0.026420601123634015,0.5556812366548305
-0.23897957801818848,-1.3656221628189087,31.38665199279785,0.24244754435552643,0.5099338645665885,-0.026420601123634015,0.5556812366548305
-1.060597538948059,-0.8877052664756775,28.958677291870117,0.24244754435552643,0.5099338645665885,-0.026420601123634015,0.5556812366548305
0.19340667128562927,-1.635964274406433,26.553184509277344,0.24244754435552643,0.5099338645665885,-0.026420601123634015,0.5556812366548305
0.5827590823173523,-1.4670249223709106,24.1116943359375,0.24244754435552643,0.5099338645665885,-0.026420601123634015,0.5556812366548305
-2.0302793979644775,0.048360325396060944,21.621854782104492,0.24244754435552643,0.5099338645665885,-0.026420601123634015,0.5556812366548305
-0.41700905561447144,-0.7355319857597351,19.12961196899414,0.24244754435552643,0.5099338645665885,-0.026420601123634015,0.5556812366548305
1.2301673889160156,-0.953240156173706,16.697317123413086,0.24244754435552643,0.5099338645665885,-0.026420601123634015,0.5556812366548305
-1.494327425956726,-1.4199976921081543,14.116697311401367,0.24244754435552643,0.5099338645665885,-0.026420601123634015,0.5556812366548305
-0.853077232837677,-0.5486746430397034,11.421948432922363,0.24244754435552643,0.5099338645665885,-0.026420601123634015,0.5556812366548305
-0.5127083659172058,-0.597168505191803,8.723742485046387,0.24244754435552643,0.5099338645665885,-0.026420601123634015,0.5556812366548305
0.5617067813873291,-0.5189288258552551,6.0845208168029785,0.24244754435552643,0.5099338645665885,-0.026420601123634015,0.5556812366548305
-1.19575035572052,-0.3522854149341583,3.409714937210083,0.24244754435552643,0.5099338645665885,-0.026420601123634015,0.5556812366548305
0.45347219705581665,-1.982254147529602,0.7826860547065735,0.24244754435552643,0.5099338645665885,-0.026420601123634015,0.5556812366548305
-0.45641466975212097,1.0995289087295532,-1.8212049007415771,0.24244754435552643,0.5099338645665885,-0.026420601123634015,0.5556812366548305
-0.5287388563156128,-0.907482922077179,-4.42930793762207,0.24244754435552643,0.5099338645665885,-0.026420601123634015,0.5556812366548305
-0.4143146574497223,-0.7855457663536072,-7.030780792236328,0.24244754435552643,0.5099338645665885,-0.026420601123634015,0.5556812366548305
-0.6089257597923279,0.6055472493171692,-9.691728591918945,0.24244754435552643,0.5099338645665885,-0.026420601123634015,0.5556812366548305
-0.24880263209342957,-2.002535820007324,-12.263272285461426,0.24244754435552643,0.5099338645665885,-0.026420601123634015,0.5556812366548305
-0.6105089783668518,0.5478283762931824,-14.906037330627441,0.24244754435552643,0.5099338645665885,-0.026420601123634015,0.5556812366548305
-0.6872785687446594,0.8775126934051514,-17.558149337768555,0.24244754435552643,0.5099338645665885,-0.026420601123634015,0.5556812366548305
0.0413208045065403,-1.0110667943954468,-20.267515182495117,0.24244754435552643,0.5099338645665885,-0.026420601123634015,0.5556812366548305
-0.7475181818008423,0.6216596364974976,-22.98650360107422,0.24244754435552643,0.5099338645665885,-0.026420601123634015,0.5556812366548305
-0.3606715202331543,-1.1191809177398682,-25.71839714050293,0.24244754435552643,0.5099338645665885,-0.026420601123634015,0.5556812366548305
0.21117284893989563,0.43368440866470337,-28.23162841796875,0.24244754435552643,0.5099338645665885,-0.026420601123634015,0.5556812366548305
-0.28974422812461853,0.6160499453544617,-30.151317596435547,0.24244754435552643,0.5099338645665885,-0.026420601123634015,0.5556812366548305
1.38979172706604,0.8954271078109741,-31.590574264526367,0.24244754435552643,0.5099338645665885,-0.026420601123634015,0.5556812366548305
1.4460283517837524,2.7634928226470947,-32.634639739990234,0.24244754435552643,0.5099338645665885,-0.026420601123634015,0.5556812366548305
0.8942484259605408,0.1396339386701584,-33.21094512939453,0.24244754435552643,0.5099338645665885,-0.026420601123634015,0.5556812366548305
1.311967134475708,0.8614393472671509,-33.3519172668457,0.24244754435552643,0.5099338645665885,-0.026420601123634015,0.5556812366548305
