faccX,faccY,yaw,posX,posY,velX,velY
0,0,-30.75548553466797,0.0,0.0,0.0,0.0
0,0,-30.754966735839844,0.0,0.0,0.0,0.0
0,0,-30.754249572753906,0.0,0.0,0.0,0.0
0.5697945356369019,-0.12628792226314545,-30.751117706298828,3.956906497478485e-05,-8.769994601607322e-06,0.004748287796974182,-0.0010523993521928787
1.6016197204589844,-0.9611115455627441,-30.681852340698242,0.00026949985159768,-0.00010182383573717539,0.022843406597773234,-0.01011406158407529
1.5020787715911865,-0.4707087278366089,-30.603307723999023,0.0008657579123973846,-0.0003698234922356075,0.04870756069819132,-0.022045897195736568
1.263187050819397,-0.7668404579162598,-30.608503341674805,0.001869582939479086,-0.0008231960278418328,0.07175144255161285,-0.03235880707701047
2.1269636154174805,-1.0952520370483398,-30.699832916259766,0.0033008674449390833,-0.0014918214579423268,0.10000269810358683,-0.0478762445350488
1.3465452194213867,-1.1744123697280884,-30.62257957458496,0.005208794971307119,-0.0024473744506637255,0.1289486050605774,-0.06679011459151904
0.817373514175415,0,-30.435176849365234,0.0075082105232609645,-0.0036420994417534934,0.14698126117388408,-0.07657688433925311
1.2928974628448486,-0.26701870560646057,-30.316980361938477,0.010104444805118773,-0.004936923813074827,0.16456685264905294,-0.07880204021930695
1.5259521007537842,-1.6185975074768066,-30.158411026000977,0.013042979124519561,-0.006381236720416281,0.18805726567904155,-0.09451550866166751
1.2697656154632568,-0.2565416693687439,-30.05635643005371,0.016371413949463103,-0.008086713196502792,0.21135491331418355,-0.11014166846871376
0.43533533811569214,-0.5733806490898132,-30.02559471130371,0.020012405626475813,-0.009980041165318754,0.22556408792734145,-0.11705768778920174
0.8376009464263916,-0.39124444127082825,-29.978288650512695,0.023860205445024704,-0.011997990481969383,0.23617189029852548,-0.12509623020887375
0.8720219135284424,-0.9483749866485596,-29.90131950378418,0.02791512742638588,-0.014175956779056125,0.25041874746481574,-0.1362597254415353
1.0280519723892212,0.3753615915775299,-29.914630889892578,0.03222072279287709,-0.016486744799961647,0.2662526965141296,-0.14103483706712722
0.8349365592002869,-0.7807930707931519,-30.007043838500977,0.036787641938361856,-0.01886548038158152,0.28177760094404214,-0.1444134327272574
0.8234984874725342,-0.9626602530479431,-30.191478729248047,0.04159910438789262,-0.021393444074524776,0.295597892999649,-0.1589422104259332
1.148337483406067,0.6389845013618469,-30.365402221679688,0.046662668991420006,-0.024064958397712975,0.31202985942363737,-0.16163950835665067
0.2927694618701935,-2.2929205894470215,-30.45540428161621,0.05196324351968037,-0.026873806876440844,0.3240390839676062,-0.17542230909069378
-0.06759259849786758,0.2119443416595459,-30.465513229370117,0.057379532201319104,-0.029942024267382093,0.32591555782904225,-0.19276377782225607
1.3610975742340088,0,-30.40290641784668,0.06290128489956259,-0.033140035540693336,0.3366947659601768,-0.19099757497509318
-0.29985368251800537,-0.34598007798194885,-30.388587951660156,0.06858656182471248,-0.03634735485124919,0.34553846505781016,-0.19388074229160943
0.6457598209381104,0,-30.293907165527344,0.07436955750195516,-0.03960272695041365,0.34842101621131105,-0.19676390960812568
0.5245930552482605,0.315635085105896,-30.191862106323242,0.08025784894410107,-0.04286020634075006,0.35817395684619746,-0.1941336172322432
-0.6618210673332214,-1.16136634349823,-30.275117874145508,0.08621788516847624,-0.04615449796534247,0.3570303900788228,-0.20118137771884598
0.7283104658126831,-1.2103890180587769,-30.4487247467041,0.09217300898912881,-0.04967222616076469,0.357584468399485,-0.22094600573182105
0.8315255641937256,1.3020353317260742,-30.598278045654297,0.09824107207564844,-0.05334829526229037,0.37058310198287175,-0.22018228645126023
0.6519278883934021,-0.14294885098934174,-30.707895278930664,0.10452047470957042,-0.05693750791976021,0.3829452140877645,-0.21052323244512078
0.3006371259689331,-0.1153576448559761,-30.749494552612305,0.1109690452925861,-0.06046416641161259,0.39088325587411726,-0.2126757865771651
0.1786026656627655,0.15320678055286407,-30.71122169494629,0.11751704676490692,-0.06400613444236417,0.3948769208043814,-0.21236037711302436
0.09210263192653656,-0.4578140377998352,-30.604206085205078,0.12411712775731253,-0.06756662734266783,0.39713279828429227,-0.21489877092341578
0.16125856339931488,-0.33959171175956726,-30.51546859741211,0.13075360225617058,-0.07120364892399972,0.3992441415786744,-0.2215438188364108
0.18580885231494904,0,-30.513408660888672,0.13743177318635086,-0.07491962866236765,0.40213637004295993,-0.22437374976774052
0,-0.5893563628196716,-30.399938583374023,0.14414694941292205,-0.07870011868369246,0.4036847771455845,-0.2292850527912378
-0.14823535084724426,0.6114900708198547,-30.268619537353516,0.1508647349104285,-0.08251999916715752,0.4024494825551908,-0.2291006052245696
0.8017524480819702,-0.14918352663516998,-30.223310470581055,0.15761760941810077,-0.08630623796644307,0.4078954583654802,-0.22524805068969722
0.11998941004276276,-0.5752457976341248,-30.278156280517578,0.1644798769087841,-0.09011067973656783,0.41557664051651966,-0.23128496172527468
1.3457475900650024,1.824000358581543,-30.341873168945312,0.17150794154240023,-0.09387871003192329,0.4277911155174177,-0.22087867371737954
0.20510432124137878,-1.3138314485549927,-30.313411712646484,0.1787454915170868,-0.09752459286401666,0.4407148814449709,-0.21662726613382496
0,-0.5795310139656067,-30.126380920410156,0.1861049828968114,-0.10126653080392212,0.44242408412198236,-0.23240528665482996
0.47187939286231995,0.76136714220047,-29.917322158813477,0.1935114870344599,-0.10512732473926409,0.446356412395835,-0.2308899855862061
-0.8286297917366028,-1.0393292903900146,-29.848194122314453,0.2009259862411353,-0.10899479409265847,0.44338349240521596,-0.23320633682111896
0.06892403215169907,-0.2844015061855316,-29.98269271850586,0.20826295377013995,-0.11297349212277265,0.43705261107534177,-0.24423742679258184
1.1121455430984497,0.8368932008743286,-30.23070526123047,0.21562918267523246,-0.11700574842385118,0.4468948575357597,-0.23963332933684187
-0.6677031517028809,1.1231069564819336,-30.41170883178711,0.22310829435578647,-0.12086352612409325,0.45059854413072276,-0.22329999469220635
0.07949717342853546,-2.0981216430664062,-30.417266845703125,0.23057742245391835,-0.12465290205553171,0.4456968276451032,-0.23142511708041028
-1.043655276298523,-0.2135038822889328,-30.347797393798828,0.23793874749085966,-0.12867051689057712,0.4376621767878533,-0.2506886631250381
0.20426899194717407,0.33144351840019226,-30.251455307006836,0.24517482638979948,-0.1328404710234867,0.4306672910849254,-0.24970583282411096
1.6888110637664795,0.5564731359481812,-30.14261245727539,0.25248407846730614,-0.13694057402511436,0.44644295821587254,-0.24230652737120786
-2.749095916748047,-0.3881724774837494,-30.270214080810547,0.25985116354500254,-0.14096732860224112,0.43760725110769283,-0.24090402188400425
0.8459526300430298,0.297107458114624,-30.406654357910156,0.26701245500188736,-0.1449887195933196,0.42174772371848435,-0.24166289704541363
0.23872441053390503,0.32613086700439453,-30.538772583007812,0.2741169085250133,-0.1489731541048321,0.4307866990566255,-0.23646924433608849
0.43899303674697876,-0.5018759369850159,-30.593664169311523,0.28134375055424043,-0.15292651269584892,0.43643434445063284,-0.237933786585927
0.31387218832969666,-0.2074667066335678,-30.637496948242188,0.2886699386023813,-0.15694133571142121,0.4427082213262718,-0.24384497528274854
0,0.26313793659210205,-30.563180923461914,0.2960702056375643,-0.16100155257516435,0.44532382289568595,-0.24338104836642743
-0.3251783847808838,-0.43338149785995483,-30.41383171081543,0.30346968752021597,-0.16506972585080396,0.4426140030225119,-0.2447997447103262
0.3262113928794861,0.45393106341362,-30.336217880249023,0.3108466593072647,-0.1691482945428126,0.4426226114233336,-0.24462849833071232
-0.09337510168552399,0.1602918654680252,-30.209312438964844,0.3182398720178754,-0.17318278181159658,0.44456291384994995,-0.2395099739233653
-0.08313969522714615,-0.8654625415802002,-30.224424362182617,0.32563699594336676,-0.17722358489616044,0.443091957209011,-0.24538639622430009
-1.1174341440200806,-0.1585961878299713,-30.18620491027832,0.33293848871356924,-0.18138447335610783,0.4330871752152841,-0.2539202189693848
2.332695484161377,1.66225004196167,-30.184057235717773,0.34024100144911157,-0.18551205659906064,0.4432143530497949,-0.241389770184954
0.09088142961263657,0.3933660089969635,-30.195911407470703,0.3477962112856202,-0.18939246832082665,0.463410827331245,-0.2242596364269654
0.24052880704402924,-1.7757891416549683,-30.09967041015625,0.3555427396742421,-0.19322613053437732,0.4661725793033839,-0.23577982919911544
-0.20218390226364136,0.14227893948554993,-29.911827087402344,0.3555427396742421,-0.19322613053437732,0.4661725793033839,-0.23577982919911544
-0.685796856880188,0.0386953167617321,-29.805471420288086,0.3555427396742421,-0.19322613053437732,0.4661725793033839,-0.23577982919911544
-1.6083755493164062,-0.35503628849983215,-29.91867446899414,0.3555427396742421,-0.19322613053437732,0.4661725793033839,-0.23577982919911544
-2.129794120788574,2.4361462593078613,-30.47552490234375,0.3555427396742421,-0.19322613053437732,0.4661725793033839,-0.23577982919911544
-2.196160078048706,0.772038459777832,-31.377363204956055,0.3555427396742421,-0.19322613053437732,0.4661725793033839,-0.23577982919911544
-1.967322587966919,0.3662092387676239,-32.43855285644531,0.3555427396742421,-0.19322613053437732,0.4661725793033839,-0.23577982919911544
-2.8029944896698,0.42118340730667114,-33.61397171020508,0.3555427396742421,-0.19322613053437732,0.4661725793033839,-0.23577982919911544
-1.6184382438659668,0.07027150690555573,-35.03083419799805,0.3555427396742421,-0.19322613053437732,0.4661725793033839,-0.23577982919911544
-1.5598580837249756,0.651480495929718,-36.55706024169922,0.3555427396742421,-0.19322613053437732,0.4661725793033839,-0.23577982919911544
-2.0512096881866455,-0.4857579171657562,-38.051692962646484,0.3555427396742421,-0.19322613053437732,0.4661725793033839,-0.23577982919911544
-1.6016603708267212,2.1703925132751465,-39.57733917236328,0.3555427396742421,-0.19322613053437732,0.4661725793033839,-0.23577982919911544
-0.6814947724342346,-0.2822115421295166,-41.153343200683594,0.3555427396742421,-0.19322613053437732,0.4661725793033839,-0.23577982919911544
-1.2233840227127075,2.204228639602661,-42.779014587402344,0.3555427396742421,-0.19322613053437732,0.4661725793033839,-0.23577982919911544
-1.5458112955093384,-0.9999316930770874,-44.43779373168945,0.3555427396742421,-0.19322613053437732,0.4661725793033839,-0.23577982919911544
-0.8689799308776855,1.7744892835617065,-46.14836883544922,0.3555427396742421,-0.19322613053437732,0.4661725793033839,-0.23577982919911544
-0.8523581624031067,-0.3386056423187256,-47.91551208496094,0.3555427396742421,-0.19322613053437732,0.4661725793033839,-0.23577982919911544
0.05174577608704567,1.0377057790756226,-49.72460174560547,0.3555427396742421,-0.19322613053437732,0.4661725793033839,-0.23577982919911544
-1.38681960105896,1.002624273300171,-51.59159851074219,0.3555427396742421,-0.19322613053437732,0.4661725793033839,-0.23577982919911544
-0.8113397359848022,0.26214176416397095,-53.484161376953125,0.3555427396742421,-0.19322613053437732,0.4661725793033839,-0.23577982919911544
-1.2938039302825928,1.0489299297332764,-55.4727897644043,0.3555427396742421,-0.19322613053437732,0.4661725793033839,-0.23577982919911544
-1.3738371133804321,0.3749508559703827,-57.51692199707031,0.3555427396742421,-0.19322613053437732,0.4661725793033839,-0.23577982919911544
-0.3561761677265167,-0.09022250771522522,-59.68560028076172,0.3555427396742421,-0.19322613053437732,0.4661725793033839,-0.23577982919911544
-0.364042192697525,1.2928837537765503,-61.874698638916016,0.3555427396742421,-0.19322613053437732,0.4661725793033839,-0.23577982919911544
-1.0728524923324585,-0.6280460357666016,-64.10090637207031,0.3555427396742421,-0.19322613053437732,0.4661725793033839,-0.23577982919911544
-0.33148592710494995,1.5464508533477783,-66.34839630126953,0.3555427396742421,-0.19322613053437732,0.4661725793033839,-0.23577982919911544
-0.9410497546195984,0.6444545388221741,-68.63195037841797,0.3555427396742421,-0.19322613053437732,0.4661725793033839,-0.23577982919911544
-1.099181056022644,-0.715036153793335,-70.8880844116211,0.3555427396742421,-0.19322613053437732,0.4661725793033839,-0.23577982919911544
0.00023169911582954228,1.2004389762878418,-73.14116668701172,0.3555427396742421,-0.19322613053437732,0.4661725793033839,-0.23577982919911544
-0.9610546231269836,-0.18613457679748535,-75.41897583007812,0.3555427396742421,-0.19322613053437732,0.4661725793033839,-0.23577982919911544
-0.4928687512874603,0.8393415808677673,-77.83381652832031,0.3555427396742421,-0.19322613053437732,0.4661725793033839,-0.23577982919911544
-0.41435518860816956,0.6385541558265686,-80.23326110839844,0.3555427396742421,-0.19322613053437732,0.4661725793033839,-0.23577982919911544
-0.11983166635036469,1.0178333520889282,-82.70726013183594,0.3555427396742421,-0.19322613053437732,0.4661725793033839,-0.23577982919911544
-2.2650580406188965,-0.7616394758224487,-85.20651245117188,0.3555427396742421,-0.19322613053437732,0.4661725793033839,-0.23577982919911544
0.8944901823997498,0.7077836394309998,-87.70165252685547,0.3555427396742421,-0.19322613053437732,0.4661725793033839,-0.23577982919911544
-0.2905143201351166,0.30896204710006714,-90.22074127197266,0.3555427396742421,-0.19322613053437732,0.4661725793033839,-0.23577982919911544
-0.7521138191223145,0.2682526707649231,-92.70873260498047,0.3555427396742421,-0.19322613053437732,0.4661725793033839,-0.23577982919911544
0.24753671884536743,1.3005809783935547,-95.2468490600586,0.3555427396742421,-0.19322613053437732,0.4661725793033839,-0.23577982919911544
-1.0485879182815552,0.2023327797651291,-97.68588256835938,0.3555427396742421,-0.19322613053437732,0.4661725793033839,-0.23577982919911544
-1.6097044944763184,-0.16902747750282288,-100.19625091552734,0.3555427396742421,-0.19322613053437732,0.4661725793033839,-0.23577982919911544
0.9209626317024231,0.5623268485069275,-102.71733093261719,0.3555427396742421,-0.19322613053437732,0.4661725793033839,-0.23577982919911544
-0.1856864094734192,1.2243558168411255,-105.30026245117188,0.3555427396742421,-0.19322613053437732,0.4661725793033839,-0.23577982919911544
0.5208082795143127,0.5791405439376831,-107.93673706054688,0.3555427396742421,-0.19322613053437732,0.4661725793033839,-0.23577982919911544
-0.22211982309818268,0.23579393327236176,-110.61233520507812,0.3555427396742421,-0.19322613053437732,0.4661725793033839,-0.23577982919911544
-1.5736196041107178,-0.15714240074157715,-113.33665466308594,0.3555427396742421,-0.19322613053437732,0.4661725793033839,-0.23577982919911544
0.4044795632362366,0.9043563008308411,-116.11824798583984,0.3555427396742421,-0.19322613053437732,0.4661725793033839,-0.23577982919911544
1.464440941810608,0.6225976943969727,-118.96565246582031,0.3555427396742421,-0.19322613053437732,0.4661725793033839,-0.23577982919911544
-0.8691509962081909,0.5724039673805237,-121.85448455810547,0.3555427396742421,-0.19322613053437732,0.4661725793033839,-0.23577982919911544
-0.2609391212463379,0.31668734550476074,-124.7418212890625,0.3555427396742421,-0.19322613053437732,0.4661725793033839,-0.23577982919911544
0.34040603041648865,1.018398642539978,-127.57057189941406,0.3555427396742421,-0.19322613053437732,0.4661725793033839,-0.23577982919911544
0.3612455427646637,0.034510742872953415,-130.12811279296875,0.3555427396742421,-0.19322613053437732,0.4661725793033839,-0.23577982919911544
1.5211644172668457,-0.38558605313301086,-132.24127197265625,0.3555427396742421,-0.19322613053437732,0.4661725793033839,-0.23577982919911544
0.7772694826126099,-1.4293901920318604,-134.03089904785156,0.3555427396742421,-0.19322613053437732,0.4661725793033839,-0.23577982919911544
1.2512696981430054,-1.321684718132019,-135.47177124023438,0.3555427396742421,-0.19322613053437732,0.4661725793033839,-0.23577982919911544
0.35262662172317505,-1.0436643362045288,-136.50112915039062,0.3555427396742421,-0.19322613053437732,0.4661725793033839,-0.23577982919911544
0.8548176884651184,-1.0694056749343872,-137.1433563232422,0.3555427396742421,-0.19322613053437732,0.4661725793033839,-0.23577982919911544
0.813102662563324,-1.6822444200515747,-137.43272399902344,0.3555427396742421,-0.19322613053437732,0.4661725793033839,-0.23577982919911544
-0.468146413564682,-0.491362065076828,-137.36280822753906,0.3555427396742421,-0.19322613053437732,0.4661725793033839,-0.23577982919911544
-0.3108048737049103,-0.07220978289842606,-137.2550811767578,0.3555427396742421,-0.19322613053437732,0.4661725793033839,-0.23577982919911544
-0.9063748717308044,-0.06184985488653183,-137.26634216308594,0.3555427396742421,-0.19322613053437732,0.4661725793033839,-0.23577982919911544
-0.3275851905345917,-0.2976132333278656,-137.26576232910156,0.3555427396742421,-0.19322613053437732,0.4661725793033839,-0.23577982919911544
-0.3207710385322571,0.09109515696763992,-137.25418090820312,0.3555427396742421,-0.19322613053437732,0.4661725793033839,-0.23577982919911544
-0.0781736746430397,0.13904643058776855,-137.27806091308594,0.3555427396742421,-0.19322613053437732,0.4661725793033839,-0.23577982919911544
-0.06618326157331467,0.20418331027030945,-137.2678985595703,0.3555427396742421,-0.19322613053437732,0.4661725793033839,-0.23577982919911544
-0.00028890796238556504,0.24035057425498962,-137.26515197753906,0.3555427396742421,-0.19322613053437732,0.4661725793033839,-0.23577982919911544
-0.02543414756655693,0.27830755710601807,-137.2725372314453,0.3555427396742421,-0.19322613053437732,0.4661725793033839,-0.23577982919911544
-0.04831727594137192,0.19259627163410187,-137.26800537109375,0.3555427396742421,-0.19322613053437732,0.4661725793033839,-0.23577982919911544
-0.17490077018737793,0.10829427093267441,-137.26942443847656,0.3555427396742421,-0.19322613053437732,0.4661725793033839,-0.23577982919911544
-0.2139432430267334,0.04792759567499161,-137.2689208984375,0.3555427396742421,-0.19322613053437732,0.4661725793033839,-0.23577982919911544
-0.2121805101633072,0.0517159029841423,-137.26902770996094,0.3555427396742421,-0.19322613053437732,0.4661725793033839,-0.23577982919911544
-0.1626860797405243,0.12751337885856628,-137.26898193359375,0.3555427396742421,-0.19322613053437732,0.4661725793033839,-0.23577982919911544
-0.12133744359016418,0.14139945805072784,-137.2688446044922,0.3555427396742421,-0.19322613053437732,0.4661725793033839,-0.23577982919911544
-0.1274939477443695,0.14035820960998535,-137.2711639404297,0.3555427396742421,-0.19322613053437732,0.4661725793033839,-0.23577982919911544
-0.1480097770690918,0.12338138371706009,-137.27096557617188,0.3555427396742421,-0.19322613053437732,0.4661725793033839,-0.23577982919911544
-0.17699876427650452,0.08810056746006012,-137.2720947265625,0.3555427396742421,-0.19322613053437732,0.4661725793033839,-0.23577982919911544
-0.15884871780872345,0.10327296704053879,-137.27137756347656,0.3555427396742421,-0.19322613053437732,0.4661725793033839,-0.23577982919911544
-0.13675330579280853,0.1347097009420395,-137.27174377441406,0.3555427396742421,-0.19322613053437732,0.4661725793033839,-0.23577982919911544
-0.1279357373714447,0.1255798041820526,-137.2718963623047,0.3555427396742421,-0.19322613053437732,0.4661725793033839,-0.23577982919911544
-0.1521718055009842,0.12705332040786743,-137.2722625732422,0.3555427396742421,-0.19322613053437732,0.4661725793033839,-0.23577982919911544
-0.1692727655172348,0.11801069229841232,-137.2720947265625,0.3555427396742421,-0.19322613053437732,0.4661725793033839,-0.23577982919911544
-0.1736786812543869,0.11473353207111359,-137.27186584472656,0.3555427396742421,-0.19322613053437732,0.4661725793033839,-0.23577982919911544
-0.1470094472169876,0.1303044706583023,-137.27305603027344,0.3555427396742421,-0.19322613053437732,0.4661725793033839,-0.23577982919911544
-0.1410187929868698,0.1320209950208664,-137.27490234375,0.3555427396742421,-0.19322613053437732,0.4661725793033839,-0.23577982919911544
-0.1483895480632782,0.11104938387870789,-137.2753448486328,0.3555427396742421,-0.19322613053437732,0.4661725793033839,-0.23577982919911544
-0.15618206560611725,0.11268240958452225,-137.2767791748047,0.3555427396742421,-0.19322613053437732,0.4661725793033839,-0.23577982919911544
-0.15655460953712463,0.11014364659786224,-137.27645874023438,0.3555427396742421,-0.19322613053437732,0.4661725793033839,-0.23577982919911544
-0.14514760673046112,0.11693185567855835,-137.27679443359375,0.3555427396742421,-0.19322613053437732,0.4661725793033839,-0.23577982919911544
-0.14892733097076416,0.0994604155421257,-137.2777862548828,0.3555427396742421,-0.19322613053437732,0.4661725793033839,-0.23577982919911544
-0.15469323098659515,0.10294896364212036,-137.27786254882812,0.3555427396742421,-0.19322613053437732,0.4661725793033839,-0.23577982919911544
-0.15326882898807526,0.10394085198640823,-137.2774658203125,0.3555427396742421,-0.19322613053437732,0.4661725793033839,-0.23577982919911544
-0.15243716537952423,0.10102475434541702,-137.2771453857422,0.3555427396742421,-0.19322613053437732,0.4661725793033839,-0.23577982919911544
-0.15398934483528137,0.10584655404090881,-137.277099609375,0.3555427396742421,-0.19322613053437732,0.4661725793033839,-0.23577982919911544
-0.15116527676582336,0.11263091117143631,-137.2777862548828,0.3555427396742421,-0.19322613053437732,0.4661725793033839,-0.23577982919911544
-0.15747374296188354,0.11431245505809784,-137.27682495117188,0.3555427396742421,-0.19322613053437732,0.4661725793033839,-0.23577982919911544
-0.14537358283996582,0.11210574209690094,-137.27694702148438,0.3555427396742421,-0.19322613053437732,0.4661725793033839,-0.23577982919911544
-0.1354539841413498,0.1136845275759697,-137.27720642089844,0.3555427396742421,-0.19322613053437732,0.4661725793033839,-0.23577982919911544
-0.14228247106075287,0.11710044741630554,-137.2769012451172,0.3555427396742421,-0.19322613053437732,0.4661725793033839,-0.23577982919911544
-0.1341623067855835,0.10620269179344177,-137.27764892578125,0.3555427396742421,-0.19322613053437732,0.4661725793033839,-0.23577982919911544
-0.14395007491111755,0.10768802464008331,-137.2781219482422,0.3555427396742421,-0.19322613053437732,0.4661725793033839,-0.23577982919911544
-0.16305139660835266,0.10904369503259659,-137.27987670898438,0.3555427396742421,-0.19322613053437732,0.4661725793033839,-0.23577982919911544
-0.15069542825222015,0.11311192810535431,-137.2804718017578,0.3555427396742421,-0.19322613053437732,0.4661725793033839,-0.23577982919911544
-0.1394915133714676,0.11258039623498917,-137.2811279296875,0.3555427396742421,-0.19322613053437732,0.4661725793033839,-0.23577982919911544
-0.14985263347625732,0.10633206367492676,-137.28248596191406,0.3555427396742421,-0.19322613053437732,0.4661725793033839,-0.23577982919911544
-0.15050369501113892,0.1112746000289917,-137.28138732910156,0.3555427396742421,-0.19322613053437732,0.4661725793033839,-0.23577982919911544
-0.15542477369308472,0.11613675206899643,-137.28135681152344,0.3555427396742421,-0.19322613053437732,0.4661725793033839,-0.23577982919911544
-0.1577359288930893,0.09180278331041336,-137.28233337402344,0.3555427396742421,-0.19322613053437732,0.4661725793033839,-0.23577982919911544
-0.14989477396011353,0.12070603668689728,-137.28379821777344,0.3555427396742421,-0.19322613053437732,0.4661725793033839,-0.23577982919911544
-0.1473838984966278,0.10988298058509827,-137.2841339111328,0.3555427396742421,-0.19322613053437732,0.4661725793033839,-0.23577982919911544
-0.14544613659381866,0.1130450889468193,-137.28390502929688,0.3555427396742421,-0.19322613053437732,0.4661725793033839,-0.23577982919911544
-0.14646753668785095,0.11935298144817352,-137.28321838378906,0.3555427396742421,-0.19322613053437732,0.4661725793033839,-0.23577982919911544
-0.15311403572559357,0.11039745807647705,-137.28390502929688,0.3555427396742421,-0.19322613053437732,0.4661725793033839,-0.23577982919911544
-0.15099920332431793,0.11001846939325333,-137.28402709960938,0.3555427396742421,-0.19322613053437732,0.4661725793033839,-0.23577982919911544
-0.1375393569469452,0.10288478434085846,-137.28530883789062,0.3555427396742421,-0.19322613053437732,0.4661725793033839,-0.23577982919911544
-0.1678071916103363,0.11071004718542099,-137.28515625,0.3555427396742421,-0.19322613053437732,0.4661725793033839,-0.23577982919911544
-0.15425308048725128,0.10910157114267349,-137.2860870361328,0.3555427396742421,-0.19322613053437732,0.4661725793033839,-0.23577982919911544
-0.13913746178150177,0.102382130920887,-137.2855682373047,0.3555427396742421,-0.19322613053437732,0.4661725793033839,-0.23577982919911544
-0.14513805508613586,0.10726528614759445,-137.28543090820312,0.3555427396742421,-0.19322613053437732,0.4661725793033839,-0.23577982919911544
-0.15013432502746582,0.1154208853840828,-137.28546142578125,0.3555427396742421,-0.19322613053437732,0.4661725793033839,-0.23577982919911544
-0.14326311647891998,0.10673005133867264,-137.28497314453125,0.3555427396742421,-0.19322613053437732,0.4661725793033839,-0.23577982919911544
-0.14320595562458038,0.11094192415475845,-137.28477478027344,0.3555427396742421,-0.19322613053437732,0.4661725793033839,-0.23577982919911544
-0.14293172955513,0.10678727924823761,-137.28468322753906,0.3555427396742421,-0.19322613053437732,0.4661725793033839,-0.23577982919911544
-0.13565750420093536,0.097051240503788,-137.28517150878906,0.3555427396742421,-0.19322613053437732,0.4661725793033839,-0.23577982919911544
-0.15441790223121643,0.11162909120321274,-137.2853546142578,0.3555427396742421,-0.19322613053437732,0.4661725793033839,-0.23577982919911544
-0.16108115017414093,0.10178804397583008,-137.28453063964844,0.3555427396742421,-0.19322613053437732,0.4661725793033839,-0.23577982919911544
-0.1472102403640747,0.10433699935674667,-137.28517150878906,0.3555427396742421,-0.19322613053437732,0.4661725793033839,-0.23577982919911544
-0.1298896074295044,0.10322490334510803,-137.28317260742188,0.3555427396742421,-0.19322613053437732,0.4661725793033839,-0.23577982919911544
-0.14627370238304138,0.109773650765419,-137.28347778320312,0.3555427396742421,-0.19322613053437732,0.4661725793033839,-0.23577982919911544
-0.14021962881088257,0.10983423888683319,-137.28282165527344,0.3555427396742421,-0.19322613053437732,0.4661725793033839,-0.23577982919911544
-0.14804591238498688,0.10662422329187393,-137.28099060058594,0.3555427396742421,-0.19322613053437732,0.4661725793033839,-0.23577982919911544
-0.14780203998088837,0.10638318210840225,-137.28018188476562,0.3555427396742421,-0.19322613053437732,0.4661725793033839,-0.23577982919911544
-0.13731230795383453,0.11164956539869308,-137.28036499023438,0.3555427396742421,-0.19322613053437732,0.4661725793033839,-0.23577982919911544
-0.1471983641386032,0.10848723351955414,-137.28057861328125,0.3555427396742421,-0.19322613053437732,0.4661725793033839,-0.23577982919911544
-0.15201975405216217,0.09139595180749893,-137.28114318847656,0.3555427396742421,-0.19322613053437732,0.4661725793033839,-0.23577982919911544
-0.14202462136745453,0.11360427737236023,-137.28065490722656,0.3555427396742421,-0.19322613053437732,0.4661725793033839,-0.23577982919911544
-0.14591211080551147,0.1172787994146347,-137.28138732910156,0.3555427396742421,-0.19322613053437732,0.4661725793033839,-0.23577982919911544
-0.15327207744121552,0.11321372538805008,-137.28286743164062,0.3555427396742421,-0.19322613053437732,0.4661725793033839,-0.23577982919911544
-0.14410921931266785,0.11205312609672546,-137.28250122070312,0.3555427396742421,-0.19322613053437732,0.4661725793033839,-0.23577982919911544
-0.13674040138721466,0.10794935375452042,-137.28221130371094,0.3632927792167499,-0.1971405164043729,0.46383216579755154,-0.23394647520035505
-0.1396123617887497,0.11545249074697495,-137.28269958496094,0.3710041241492663,-0.20102411030739956,0.4615292261044185,-0.23208479316284258
-0.2580638527870178,-0.051202353090047836,-137.27166748046875,0.3786686615138833,-0.20488772837833186,0.4582152576496204,-0.23154937534903486
-1.6750972270965576,-1.0923357009887695,-137.24249267578125,0.38617133517749613,-0.2088262969990157,0.4421055819839239,-0.24107885913302501
-2.5848240852355957,-3.0445454120635986,-137.20631408691406,0.3932439336749829,-0.21313156139519476,0.4066062377144893,-0.27555286840846144
-2.2368993759155273,-1.0383195877075195,-137.25453186035156,0.3996858623965333,-0.21800764149365323,0.36642520887156327,-0.3095767434065541
-0.37391912937164307,-0.792024552822113,-137.29808044433594,0.4056116423704144,-0.2232943611157437,0.3446683879941702,-0.32482961124430104
-0.6704086065292358,-1.1390101909637451,-137.2001495361328,0.411283592744213,-0.2288422876048005,0.3359656568616629,-0.3409215674425165
-0.9384232759475708,-1.0267236232757568,-137.08428955078125,0.41677129592229095,-0.23467471191038686,0.3225587245076895,-0.3589693492278457
-2.371753692626953,-1.5429580211639404,-136.98255920410156,0.4219174012634903,-0.2408359845117148,0.29497391643623516,-0.3803833629315098
-0.8867079019546509,-0.9090379476547241,-136.91775512695312,0.42660735114891496,-0.2473459847250746,0.2678200698147218,-0.4008166626716654
-0.6177864074707031,0.050945788621902466,-136.88011169433594,0.43096654020767244,-0.2540858521695352,0.2552826172361772,-0.4079674306636056
-1.2695672512054443,-0.32773032784461975,-136.8883056640625,0.4350901842686451,-0.26090453049581913,0.23955467008054263,-0.41027396849046155
-0.9695294499397278,-0.8352683782577515,-136.91847229003906,0.4389272692768524,-0.26782319376969504,0.22089553090433287,-0.41996562437464796
-0.8229478597640991,-0.7133180499076843,-137.00430297851562,0.4424843838676396,-0.274930161566784,0.2059582199901343,-0.4328705112760266
-1.4626438617706299,0.23893477022647858,-137.20603942871094,0.44575829922014637,-0.2821776133713623,0.18691162231067823,-0.43682370527337
0.2042890042066574,-0.723667562007904,-137.29652404785156,0.44878610717132683,-0.28949167045868107,0.17642533183097847,-0.4408631452048819
-0.7230244278907776,-0.8706010580062866,-137.38275146484375,0.4516905060751984,-0.2969501026440412,0.1721025366336108,-0.4541487170383335
-0.8247392177581787,-0.455849826335907,-137.4501495361328,0.45445139809925517,-0.3046113625727594,0.15920450625320284,-0.4652024744078518
-0.6907356381416321,0,-137.42254638671875,0.45699956522737106,-0.3123963933841636,0.14657554912070442,-0.469001222960651
-1.1266963481903076,-0.7571946382522583,-137.43751525878906,0.4593162804914431,-0.3202656633944975,0.13143028256793826,-0.4753111782794198
0.37697187066078186,0.09914518892765045,-137.4214630126953,0.46145472100108026,-0.3282332142442465,0.12518257858852555,-0.48079492369045823
-0.7510667443275452,-0.3198609948158264,-137.4460906982422,0.4635151185002177,-0.33626179045894083,0.12206512130796919,-0.4826342220728597
-0.5398548245429993,0.4826577305793762,-137.3582763671875,0.4654598898575123,-0.3442943888312827,0.11130744156738132,-0.48127758260816345
-0.6114985942840576,0.4733411967754364,-137.2718963623047,0.4672350587851057,-0.35224929306035246,0.10171282974382251,-0.47331092488020665
0.13121867179870605,-1.5219742059707642,-137.2687225341797,0.46889691984177456,-0.36021063021177224,0.09771049705644458,-0.4820495332901677
-0.6315345168113708,0.1289132833480835,-137.280517578125,0.470490683970145,-0.3683415294417905,0.0935411983480057,-0.49365837431202336
-0.9123201370239258,-0.6074804663658142,-137.25198364257812,0.4719424918138732,-0.37660240284581153,0.08067574289937823,-0.49764643417050447
0.30393946170806885,-0.7686786651611328,-137.27117919921875,0.4732448388708548,-0.3849920766883426,0.07560590393841277,-0.5091144269332291
-0.6509069204330444,0.1460554301738739,-137.27622985839844,0.4744808423074169,-0.39352055486188164,0.07271450844903797,-0.5143029538914562
-0.4622420370578766,-0.26310887932777405,-137.1848602294922,0.47561544877063067,-0.40210039947181936,0.06343826713661363,-0.515278399301072
0,-0.12494287639856339,-137.10968017578125,0.4766406530814452,-0.410715320832096,0.059586250161131324,-0.5185121639321248
-0.8901265263557434,0.08438915014266968,-137.0787353515625,0.4775719429086894,-0.41936000646195476,0.05216852910816679,-0.518850111650924
0.09985290467739105,-0.4948500394821167,-137.0253143310547,0.4783865382812089,-0.42803601255122986,0.045582915594180526,-0.522270619062086
-0.7028855681419373,1.2799196243286133,-137.08277893066406,0.47910437627281577,-0.4366860041477614,0.04055764339864264,-0.5157283725216986
-0.46250852942466736,0.3517787754535675,-137.23321533203125,0.47969940685046214,-0.44516816463424924,0.03084602591892093,-0.5021308858568471
-1.1574920415878296,-0.976511538028717,-137.31536865234375,0.48010100724279053,-0.4535803969514866,0.017346021160483456,-0.50733699221164
0.9546816945075989,-0.8764587044715881,-137.30245971679688,0.48037602354358466,-0.4621646919774098,0.015655934934814868,-0.5227784108991426
-0.05640525370836258,-1.0742285251617432,-137.16546630859375,0.48069933610088705,-0.47101312988334226,0.02314157194147517,-0.5390341378127537
-0.3805060088634491,0.6926267743110657,-137.13299560546875,0.4810546879066775,-0.48002353230180833,0.019500644753376737,-0.5422141524031759
-0.42388057708740234,0.25246158242225647,-137.18539428710938,0.4813238384729872,-0.48899480370597703,0.01279742320378631,-0.5343384160970649
-0.9263789653778076,0.16855181753635406,-137.29466247558594,0.4814433608359347,-0.4978712069325977,0.0015452603499095593,-0.5308299710974098
0.42588678002357483,0,-137.47584533691406,0.4814343587733391,-0.5067066681302256,-0.002625507861375714,-0.5294253726179402
0.09927023202180862,0.1470417082309723,-137.53175354003906,0.48142706954593045,-0.5155202131107863,0.0017508005723358153,-0.5282000250493488
-0.9533608555793762,1.0222316980361938,-137.6734619140625,0.48139693770661124,-0.5242423473195069,-0.0053666212906439146,-0.5184560799971224
1.0807712078094482,-0.8844342827796936,-137.79632568359375,0.4813163419595609,-0.5328737127211772,-0.0043048683553933145,-0.5173077682033183
-1.0518451929092407,-0.28689396381378174,-137.71510314941406,0.4812466029046724,-0.541576851097246,-0.004063818231224919,-0.5270688369249306
-0.40727484226226807,0.4669296145439148,-137.63446044921875,0.48107754482059845,-0.5503488292369163,-0.016223151857654158,-0.5255685398355128
-0.7600070238113403,0.6740389466285706,-137.58653259277344,0.48072609771560465,-0.5590290709729823,-0.025950500741600893,-0.5160604684924087
-0.18507100641727448,0.32250547409057617,-137.6734619140625,0.48022795895114545,-0.567560874307528,-0.03382615099350601,-0.5077559316530825
0.6300234794616699,-0.5586584806442261,-137.7747344970703,0.4796950892452151,-0.5760398726827567,-0.030118213718136052,-0.509723873374363
-0.23198604583740234,0.6213657855987549,-137.7717742919922,0.4796950892452151,-0.5760398726827567,-0.030118213718136052,-0.509723873374363
1.2247880697250366,-0.5933730602264404,-137.7138214111328,0.4796950892452151,-0.5760398726827567,-0.030118213718136052,-0.509723873374363
-1.5744696855545044,0.13881641626358032,-137.6444549560547,0.4796950892452151,-0.5760398726827567,-0.030118213718136052,-0.509723873374363
0.04709015041589737,0.285841166973114,-137.500732421875,0.4796950892452151,-0.5760398726827567,-0.030118213718136052,-0.509723873374363
0.925338089466095,1.0586894750595093,-137.4928436279297,0.4796950892452151,-0.5760398726827567,-0.030118213718136052,-0.509723873374363
2.062866687774658,1.9458861351013184,-137.8719940185547,0.4796950892452151,-0.5760398726827567,-0.030118213718136052,-0.509723873374363
1.1018105745315552,2.8708221912384033,-138.65037536621094,0.4796950892452151,-0.5760398726827567,-0.030118213718136052,-0.509723873374363
0.3866115212440491,1.3698303699493408,-139.49346923828125,0.4796950892452151,-0.5760398726827567,-0.030118213718136052,-0.509723873374363
1.4001226425170898,2.159034013748169,-140.58815002441406,0.4796950892452151,-0.5760398726827567,-0.030118213718136052,-0.509723873374363
-0.5629745125770569,0.8518257737159729,-141.8202667236328,0.4796950892452151,-0.5760398726827567,-0.030118213718136052,-0.509723873374363
1.0073339939117432,1.7263271808624268,-143.26541137695312,0.4796950892452151,-0.5760398726827567,-0.030118213718136052,-0.509723873374363
1.6695926189422607,2.4070310592651367,-144.72048950195312,0.4796950892452151,-0.5760398726827567,-0.030118213718136052,-0.509723873374363
-0.618267297744751,1.8736236095428467,-146.1945037841797,0.4796950892452151,-0.5760398726827567,-0.030118213718136052,-0.509723873374363
1.12728750705719,0.9820057153701782,-147.69009399414062,0.4796950892452151,-0.5760398726827567,-0.030118213718136052,-0.509723873374363
0.8143407702445984,0.9336460828781128,-149.18008422851562,0.4796950892452151,-0.5760398726827567,-0.030118213718136052,-0.509723873374363
0.5084414482116699,0.2552941143512726,-150.6370086669922,0.4796950892452151,-0.5760398726827567,-0.030118213718136052,-0.509723873374363
0.2891733646392822,1.6247022151947021,-152.07896423339844,0.4796950892452151,-0.5760398726827567,-0.030118213718136052,-0.509723873374363
1.3604741096496582,0.43193429708480835,-153.58033752441406,0.4796950892452151,-0.5760398726827567,-0.030118213718136052,-0.509723873374363
0.450330525636673,1.417998194694519,-155.1297149658203,0.4796950892452151,-0.5760398726827567,-0.030118213718136052,-0.509723873374363
0.4132727384567261,0.06461292505264282,-156.6947479248047,0.4796950892452151,-0.5760398726827567,-0.030118213718136052,-0.509723873374363
0.48652535676956177,0.5473531484603882,-158.3656463623047,0.4796950892452151,-0.5760398726827567,-0.030118213718136052,-0.509723873374363
0.17298099398612976,1.5043761730194092,-160.1643524169922,0.4796950892452151,-0.5760398726827567,-0.030118213718136052,-0.509723873374363
2.653580904006958,-0.2446364164352417,-162.06033325195312,0.4796950892452151,-0.5760398726827567,-0.030118213718136052,-0.509723873374363
-0.41332000494003296,1.6173534393310547,-164.053955078125,0.4796950892452151,-0.5760398726827567,-0.030118213718136052,-0.509723873374363
0.9328028559684753,0.7018068432807922,-166.1024627685547,0.4796950892452151,-0.5760398726827567,-0.030118213718136052,-0.509723873374363
-0.23354285955429077,1.3864364624023438,-168.21051025390625,0.4796950892452151,-0.5760398726827567,-0.030118213718136052,-0.509723873374363
2.394023895263672,-1.7698752880096436,-170.31944274902344,0.4796950892452151,-0.5760398726827567,-0.030118213718136052,-0.509723873374363
0.21753482520580292,2.360581636428833,-172.5060272216797,0.4796950892452151,-0.5760398726827567,-0.030118213718136052,-0.509723873374363
0.6753084659576416,-1.1352918148040771,-174.70419311523438,0.4796950892452151,-0.5760398726827567,-0.030118213718136052,-0.509723873374363
1.1396827697753906,0.48473450541496277,-176.9532012939453,0.4796950892452151,-0.5760398726827567,-0.030118213718136052,-0.509723873374363
-0.18352064490318298,1.1977825164794922,-179.2098846435547,0.4796950892452151,-0.5760398726827567,-0.030118213718136052,-0.509723873374363
0.9979230165481567,0.4658603072166443,178.5269317626953,0.4796950892452151,-0.5760398726827567,-0.030118213718136052,-0.509723873374363
-0.004173867870122194,-0.06916949152946472,176.2162628173828,0.4796950892452151,-0.5760398726827567,-0.030118213718136052,-0.509723873374363
0.7711938619613647,-0.44408202171325684,173.860595703125,0.4796950892452151,-0.5760398726827567,-0.030118213718136052,-0.509723873374363
-0.7068003416061401,1.5007524490356445,171.4912109375,0.4796950892452151,-0.5760398726827567,-0.030118213718136052,-0.509723873374363
0.9144711494445801,0.45191994309425354,169.12709045410156,0.4796950892452151,-0.5760398726827567,-0.030118213718136052,-0.509723873374363
-0.3534744381904602,0.7698972821235657,166.7583465576172,0.4796950892452151,-0.5760398726827567,-0.030118213718136052,-0.509723873374363
1.4101827144622803,-0.8387364149093628,164.4040985107422,0.4796950892452151,-0.5760398726827567,-0.030118213718136052,-0.509723873374363
-0.24178236722946167,1.8465198278427124,162.0913543701172,0.4796950892452151,-0.5760398726827567,-0.030118213718136052,-0.509723873374363
0.26454219222068787,-0.7817756533622742,159.7425994873047,0.4796950892452151,-0.5760398726827567,-0.030118213718136052,-0.509723873374363
0.9554951786994934,0.46500715613365173,157.3871612548828,0.4796950892452151,-0.5760398726827567,-0.030118213718136052,-0.509723873374363
-0.021056953817605972,1.8295804262161255,155.05130004882812,0.4796950892452151,-0.5760398726827567,-0.030118213718136052,-0.509723873374363
1.0068598985671997,-0.8381072282791138,152.62448120117188,0.4796950892452151,-0.5760398726827567,-0.030118213718136052,-0.509723873374363
0.24489369988441467,1.430122971534729,150.13458251953125,0.4796950892452151,-0.5760398726827567,-0.030118213718136052,-0.509723873374363
0.030462294816970825,-0.3609023988246918,147.54946899414062,0.4796950892452151,-0.5760398726827567,-0.030118213718136052,-0.509723873374363
-0.4255916178226471,-1.8817318677902222,145.1253204345703,0.4796950892452151,-0.5760398726827567,-0.030118213718136052,-0.509723873374363
0.19520260393619537,0.9467443227767944,143.0850372314453,0.4796950892452151,-0.5760398726827567,-0.030118213718136052,-0.509723873374363
-0.1752709001302719,-1.4070465564727783,141.5004425048828,0.4796950892452151,-0.5760398726827567,-0.030118213718136052,-0.509723873374363
-1.6914273500442505,-0.6945958733558655,140.4109344482422,0.4796950892452151,-0.5760398726827567,-0.030118213718136052,-0.509723873374363
-1.5718355178833008,-0.30765002965927124,139.57655334472656,0.4796950892452151,-0.5760398726827567,-0.030118213718136052,-0.509723873374363
-1.156819224357605,-0.514462411403656,139.09156799316406,0.4796950892452151,-0.5760398726827567,-0.030118213718136052,-0.509723873374363
-1.425967812538147,-0.033506639301776886,138.94760131835938,0.4796950892452151,-0.5760398726827567,-0.030118213718136052,-0.509723873374363
-0.7049577832221985,0.20721489191055298,139.00820922851562,0.4796950892452151,-0.5760398726827567,-0.030118213718136052,-0.509723873374363
0.9257303476333618,0.10675486922264099,139.02066040039062,0.4796950892452151,-0.5760398726827567,-0.030118213718136052,-0.509723873374363
0.1423817127943039,-0.3416629731655121,138.97616577148438,0.4796950892452151,-0.5760398726827567,-0.030118213718136052,-0.509723873374363
0.37151432037353516,0.224200040102005,139.01333618164062,0.4796950892452151,-0.5760398726827567,-0.030118213718136052,-0.509723873374363
-0.23144890367984772,0.15086480975151062,139.0208282470703,0.4796950892452151,-0.5760398726827567,-0.030118213718136052,-0.509723873374363
-0.2008318454027176,0.4734242558479309,139.0222930908203,0.4796950892452151,-0.5760398726827567,-0.030118213718136052,-0.509723873374363
-0.13770028948783875,0.2991527020931244,139.02633666992188,0.4796950892452151,-0.5760398726827567,-0.030118213718136052,-0.509723873374363
0.029764298349618912,0.09072411060333252,139.02249145507812,0.4796950892452151,-0.5760398726827567,-0.030118213718136052,-0.509723873374363
0.17748193442821503,0.15457625687122345,139.0178985595703,0.4796950892452151,-0.5760398726827567,-0.030118213718136052,-0.509723873374363
0.006272409111261368,0.13123075664043427,139.02398681640625,0.4796950892452151,-0.5760398726827567,-0.030118213718136052,-0.509723873374363
-0.056869588792324066,0.2768329679965973,139.0216827392578,0.4796950892452151,-0.5760398726827567,-0.030118213718136052,-0.509723873374363
-0.05976217985153198,0.2455819845199585,139.02288818359375,0.4796950892452151,-0.5760398726827567,-0.030118213718136052,-0.509723873374363
0.0368039645254612,0.1800338476896286,139.02294921875,0.4796950892452151,-0.5760398726827567,-0.030118213718136052,-0.509723873374363
0.05948705971240997,0.14619341492652893,139.0200958251953,0.4796950892452151,-0.5760398726827567,-0.030118213718136052,-0.509723873374363
0.0027696345932781696,0.1993577927350998,139.0210723876953,0.4796950892452151,-0.5760398726827567,-0.030118213718136052,-0.509723873374363
-0.05440665781497955,0.21728000044822693,139.02059936523438,0.4796950892452151,-0.5760398726827567,-0.030118213718136052,-0.509723873374363
-0.0023849408607929945,0.20108547806739807,139.02073669433594,0.4796950892452151,-0.5760398726827567,-0.030118213718136052,-0.509723873374363
0.023947350680828094,0.16138069331645966,139.0204315185547,0.4796950892452151,-0.5760398726827567,-0.030118213718136052,-0.509723873374363
0.022106371819972992,0.18582820892333984,139.0199432373047,0.4796950892452151,-0.5760398726827567,-0.030118213718136052,-0.509723873374363
-0.025982730090618134,0.21322999894618988,139.0206298828125,0.4796950892452151,-0.5760398726827567,-0.030118213718136052,-0.509723873374363
-0.015297914855182171,0.21082764863967896,139.0223388671875,0.4796950892452151,-0.5760398726827567,-0.030118213718136052,-0.509723873374363
0.0245048850774765,0.20136143267154694,139.02268981933594,0.4796950892452151,-0.5760398726827567,-0.030118213718136052,-0.509723873374363
0.019832568243145943,0.17544116079807281,139.02301025390625,0.4796950892452151,-0.5760398726827567,-0.030118213718136052,-0.509723873374363
-0.010088140144944191,0.19804708659648895,139.0236358642578,0.4796950892452151,-0.5760398726827567,-0.030118213718136052,-0.509723873374363
-0.01374717615544796,0.2000499814748764,139.02218627929688,0.4796950892452151,-0.5760398726827567,-0.030118213718136052,-0.509723873374363
0.005481421016156673,0.19565458595752716,139.02305603027344,0.4796950892452151,-0.5760398726827567,-0.030118213718136052,-0.509723873374363
0.007533947937190533,0.1894640177488327,139.02284240722656,0.4796950892452151,-0.5760398726827567,-0.030118213718136052,-0.509723873374363
0.016362274065613747,0.20156902074813843,139.02285766601562,0.4796950892452151,-0.5760398726827567,-0.030118213718136052,-0.509723873374363
-0.004364411812275648,0.2036527842283249,139.02301025390625,0.4796950892452151,-0.5760398726827567,-0.030118213718136052,-0.509723873374363
-0.0009559910977259278,0.19964000582695007,139.0222930908203,0.4796950892452151,-0.5760398726827567,-0.030118213718136052,-0.509723873374363
0.010990049690008163,0.17620140314102173,139.0228271484375,0.4796950892452151,-0.5760398726827567,-0.030118213718136052,-0.509723873374363
0.01546916551887989,0.19708408415317535,139.02220153808594,0.4796950892452151,-0.5760398726827567,-0.030118213718136052,-0.509723873374363
-0.0014331982238218188,0.18513000011444092,139.02317810058594,0.4796950892452151,-0.5760398726827567,-0.030118213718136052,-0.509723873374363
-0.0009660142823122442,0.18725928664207458,139.02357482910156,0.4796950892452151,-0.5760398726827567,-0.030118213718136052,-0.509723873374363
0.006473143119364977,0.1919081062078476,139.024658203125,0.4796950892452151,-0.5760398726827567,-0.030118213718136052,-0.509723873374363
0.006625641603022814,0.18174780905246735,139.02516174316406,0.4796950892452151,-0.5760398726827567,-0.030118213718136052,-0.509723873374363
0.012600760906934738,0.18465498089790344,139.0247802734375,0.4796950892452151,-0.5760398726827567,-0.030118213718136052,-0.509723873374363
-0.002901180647313595,0.19003678858280182,139.0247802734375,0.4796950892452151,-0.5760398726827567,-0.030118213718136052,-0.509723873374363
0.009571858681738377,0.1993185132741928,139.02378845214844,0.4796950892452151,-0.5760398726827567,-0.030118213718136052,-0.509723873374363
0.0038765843492001295,0.1822747439146042,139.02345275878906,0.4796950892452151,-0.5760398726827567,-0.030118213718136052,-0.509723873374363
0.007875208742916584,0.1929188370704651,139.02337646484375,0.4796950892452151,-0.5760398726827567,-0.030118213718136052,-0.509723873374363
0.004432993475347757,0.1915651261806488,139.0225372314453,0.4796950892452151,-0.5760398726827567,-0.030118213718136052,-0.509723873374363
3.652341547422111e-05,0.19815455377101898,139.0224609375,0.4796950892452151,-0.5760398726827567,-0.030118213718136052,-0.509723873374363
0.010717116296291351,0.1810452938079834,139.0222930908203,0.4796950892452151,-0.5760398726827567,-0.030118213718136052,-0.509723873374363
0.009473467245697975,0.18979878723621368,139.02235412597656,0.4796950892452151,-0.5760398726827567,-0.030118213718136052,-0.509723873374363
0.009898988530039787,0.1946420669555664,139.02272033691406,0.4796950892452151,-0.5760398726827567,-0.030118213718136052,-0.509723873374363
0.0157655980437994,0.18660469353199005,139.02230834960938,0.4796950892452151,-0.5760398726827567,-0.030118213718136052,-0.509723873374363
0.01686945930123329,0.2003786414861679,139.022216796875,0.4796950892452151,-0.5760398726827567,-0.030118213718136052,-0.509723873374363
0.011349182575941086,0.1952172815799713,139.02127075195312,0.4796950892452151,-0.5760398726827567,-0.030118213718136052,-0.509723873374363
0.006214800290763378,0.18765072524547577,139.02114868164062,0.4796950892452151,-0.5760398726827567,-0.030118213718136052,-0.509723873374363
0.016803359612822533,0.1948508769273758,139.0213623046875,0.4796950892452151,-0.5760398726827567,-0.030118213718136052,-0.509723873374363
0.01016584224998951,0.19216091930866241,139.02183532714844,0.4796950892452151,-0.5760398726827567,-0.030118213718136052,-0.509723873374363
0.0027377682272344828,0.1834484189748764,139.02110290527344,0.4796950892452151,-0.5760398726827567,-0.030118213718136052,-0.509723873374363
0.011552955023944378,0.19992943108081818,139.02096557617188,0.4796950892452151,-0.5760398726827567,-0.030118213718136052,-0.509723873374363
0.013467904180288315,0.17653051018714905,139.02108764648438,0.4796950892452151,-0.5760398726827567,-0.030118213718136052,-0.509723873374363
0.012719030492007732,0.18767891824245453,139.0217742919922,0.4796950892452151,-0.5760398726827567,-0.030118213718136052,-0.509723873374363
0.0035303207114338875,0.17439328134059906,139.02220153808594,0.4796950892452151,-0.5760398726827567,-0.030118213718136052,-0.509723873374363
0.015464208088815212,0.1856822967529297,139.02308654785156,0.4796950892452151,-0.5760398726827567,-0.030118213718136052,-0.509723873374363
0.00951402261853218,0.17592281103134155,139.02194213867188,0.4796950892452151,-0.5760398726827567,-0.030118213718136052,-0.509723873374363
0.016828635707497597,0.1732589155435562,139.0209197998047,0.4796950892452151,-0.5760398726827567,-0.030118213718136052,-0.509723873374363
0.012531247921288013,0.1773328185081482,139.0201873779297,0.4796950892452151,-0.5760398726827567,-0.030118213718136052,-0.509723873374363
0.019948424771428108,0.18445630371570587,139.02117919921875,0.4796950892452151,-0.5760398726827567,-0.030118213718136052,-0.509723873374363
0.013162821531295776,0.18007208406925201,139.02137756347656,0.4796950892452151,-0.5760398726827567,-0.030118213718136052,-0.509723873374363
0.025892741978168488,0.18300054967403412,139.02088928222656,0.4796950892452151,-0.5760398726827567,-0.030118213718136052,-0.509723873374363
0.02966686710715294,0.19593217968940735,139.02171325683594,0.4796950892452151,-0.5760398726827567,-0.030118213718136052,-0.509723873374363
0.02609523944556713,0.18958652019500732,139.0210418701172,0.4796950892452151,-0.5760398726827567,-0.030118213718136052,-0.509723873374363
0.025889534503221512,0.17398039996623993,139.0210418701172,0.4796950892452151,-0.5760398726827567,-0.030118213718136052,-0.509723873374363
0.02759106457233429,0.17830921709537506,139.02037048339844,0.4796950892452151,-0.5760398726827567,-0.030118213718136052,-0.509723873374363
0.023245347663760185,0.16604968905448914,139.02090454101562,0.4796950892452151,-0.5760398726827567,-0.030118213718136052,-0.509723873374363
0.02659318968653679,0.19421669840812683,139.02056884765625,0.4796950892452151,-0.5760398726827567,-0.030118213718136052,-0.509723873374363
0.02623654343187809,0.1774674355983734,139.02041625976562,0.4796950892452151,-0.5760398726827567,-0.030118213718136052,-0.509723873374363
0.032543133944272995,0.17811110615730286,139.02166748046875,0.4796950892452151,-0.5760398726827567,-0.030118213718136052,-0.509723873374363
0.015553610399365425,0.17812104523181915,139.02186584472656,0.4796950892452151,-0.5760398726827567,-0.030118213718136052,-0.509723873374363
0.0014050495810806751,0.17110081017017365,139.02149963378906,0.4796950892452151,-0.5760398726827567,-0.030118213718136052,-0.509723873374363
0.0209434125572443,0.17341074347496033,139.02243041992188,0.4796950892452151,-0.5760398726827567,-0.030118213718136052,-0.509723873374363
0.01443649921566248,0.17005030810832977,139.02328491210938,0.4796950892452151,-0.5760398726827567,-0.030118213718136052,-0.509723873374363
0.021226368844509125,0.1820112019777298,139.0238800048828,0.4796950892452151,-0.5760398726827567,-0.030118213718136052,-0.509723873374363
0.028482796624302864,0.18091124296188354,139.0230712890625,0.4796950892452151,-0.5760398726827567,-0.030118213718136052,-0.509723873374363
0.016011755913496017,0.1847933530807495,139.02272033691406,0.4796950892452151,-0.5760398726827567,-0.030118213718136052,-0.509723873374363
0.014965973794460297,0.18243423104286194,139.02218627929688,0.4796950892452151,-0.5760398726827567,-0.030118213718136052,-0.509723873374363
-0.001989151816815138,0.17408622801303864,139.02239990234375,0.4796950892452151,-0.5760398726827567,-0.030118213718136052,-0.509723873374363
0,0.1859998255968094,139.0223388671875,0.4791929808810367,-0.5845102645963843,-0.030134789983276178,-0.5067231562609475
0,0.21656373143196106,139.01898193359375,0.47869073438131543,-0.5929276947314953,-0.030134789983276178,-0.5033684599523744
-0.5042023062705994,0.6276742815971375,138.99951171875,0.4781534738325476,-0.6012585414242412,-0.034336475868864506,-0.49633314317713195
-1.6982876062393188,1.4364632368087769,139.00331115722656,0.47742824854636445,-0.6093874175939707,-0.052690558473113824,-0.479131997190416
-2.051374912261963,2.2017018795013428,139.26467895507812,0.47628967934136107,-0.6171203005251784,-0.08393774612729117,-0.44881395455449835
-2.6779284477233887,1.3292137384414673,139.21246337890625,0.4745622930614628,-0.6243553306276185,-0.12334860746050244,-0.4193896577383083
-0.885542094707489,2.061983346939087,139.11097717285156,0.47225901970500783,-0.6311096584589945,-0.15304419531409308,-0.39112968202680365
-0.10762288421392441,0,139.10011291503906,0.46963931332623676,-0.6374852932047926,-0.1613205701384382,-0.3739464874689779
-0.9504722952842712,0.7397106885910034,138.93231201171875,0.4668771583253532,-0.6436663658647901,-0.17013802996758984,-0.36778223173071956
-1.2861332893371582,1.788011908531189,138.8678436279297,0.4638862046602947,-0.649620533435502,-0.18877640983943508,-0.3467178767547013
-1.163988471031189,2.2019481658935547,139.01498413085938,0.4605697838185007,-0.6551220841540231,-0.20919409117583798,-0.31346820946782844
-0.623282253742218,0,138.93377685546875,0.45695909960968306,-0.6601936412447442,-0.22408801388228303,-0.29511864141871547
-0.3477533161640167,0.8074692487716675,138.8854522705078,0.45315686635262376,-0.6650562110150026,-0.23217997696483497,-0.2883897310122849
-2.264843225479126,-0.13485510647296906,139.0490264892578,0.44910576975448463,-0.6698159972164366,-0.2539516148118612,-0.28278461315979575
0.7753743529319763,1.6521663665771484,139.1491241455078,0.44476980750258227,-0.6744237052649259,-0.26636385541642077,-0.2701403526589276
-1.5530444383621216,0.5721141695976257,139.2689971923828,0.44027640504526483,-0.6787715805497848,-0.272844439461672,-0.25160468152413784
-0.8440259695053101,0.48356515169143677,139.36578369140625,0.43556253449813503,-0.682891680844542,-0.2928200261939006,-0.242807353846729
-0.701140820980072,1.503109097480774,139.41650390625,0.43057489747889743,-0.686800506585795,-0.30569641611461207,-0.22625173510362723
-0.589651346206665,0.16113531589508057,139.4468231201172,0.42539031886537704,-0.6904557963088154,-0.3164530175078349,-0.21238303165882844
-0.6492675542831421,0.23660053312778473,139.4180908203125,0.4200300658721569,-0.6939678929580582,-0.3267773416785833,-0.20906856625030457
-0.5844520330429077,0.4047863185405731,139.4349822998047,0.4144981018728384,-0.6974078283086418,-0.3370583382396337,-0.2037236758197349
0.3881717622280121,0.3655658960342407,139.35842895507812,0.40886683232781573,-0.7007497262240697,-0.33869400716309117,-0.19730407403161146
-0.8983126878738403,0.7541964054107666,139.25979614257812,0.40318650575526105,-0.7039603661869962,-0.3429451815434731,-0.18797272151956973
-1.6474844217300415,0.9274824261665344,139.1229248046875,0.3972939612635918,-0.7069764616267962,-0.3641601574568388,-0.17395873125642555
-0.8718076348304749,0.15197311341762543,139.1527862548828,0.39104967446871663,-0.7098008116241543,-0.3851542579281764,-0.16496326842655756
0.9815094470977783,0.10137070715427399,139.2581787109375,0.3846380550179878,-0.7125326061103906,-0.38424007615928224,-0.16285206992179174
0,0.9259553551673889,139.4423370361328,0.3783022141269371,-0.7151754651880926,-0.37606083076680075,-0.15429101940244455
-0.9448480606079102,-0.5062119960784912,139.42259216308594,0.3719689191655038,-0.7177178333337522,-0.3839345646052,-0.15079315807670374
1.174558401107788,0.1924726963043213,139.300537109375,0.3655859618623963,-0.7202528400864038,-0.382020311767701,-0.15340765224148847
-0.9049434661865234,1.7380502223968506,139.28355407714844,0.3592376799256375,-0.7226755701988521,-0.3797735206433571,-0.13731996125231205
-0.16366475820541382,0,139.2261505126953,0.35283391234377653,-0.724843538287613,-0.3886785891799566,-0.12283620939900497
0.2024228721857071,0.3764507472515106,139.19212341308594,0.346358627393137,-0.7268646660312595,-0.3883556048967875,-0.11969911983857572
0.5667413473129272,1.5402501821517944,139.2406463623047,0.3399394481601002,-0.728726547130694,-0.3819459030676322,-0.10372661209354817
-0.7480901479721069,-0.4811822175979614,139.30422973632812,0.33356108944226054,-0.7303817776124925,-0.3834571430731254,-0.09490104572226622
-0.2702416777610779,0.3254135847091675,139.3427276611328,0.3270994195698103,-0.7319742789740364,-0.39194324162090194,-0.09619911766300618
-0.9675629138946533,0.2809893786907196,139.35543823242188,0.32048107355726363,-0.7335354862848504,-0.4022582798846997,-0.09114575963467379
0.4875045120716095,0.32477816939353943,139.27394104003906,0.31374343150350315,-0.7350125150879225,-0.4062587665665584,-0.08609769673397163
0.5331516265869141,0.1473589837551117,139.00430297851562,0.30704333095924513,-0.7364146893978534,-0.397753298744404,-0.08216322045773287
-0.9769745469093323,0.13248790800571442,138.65431213378906,0.30038328827737154,-0.7377646425935545,-0.40145182308042415,-0.07983116302639266
0.8597137331962585,1.0274611711502075,138.52560424804688,0.2936842814473011,-0.7390146099579419,-0.4024289965280331,-0.07016492070009331
-0.847527801990509,-0.09975794702768326,138.54307556152344,0.2869779777503898,-0.7401196014679349,-0.4023274471013185,-0.06243406049907227
-0.08692353218793869,0.29189056158065796,138.59120178222656,0.28020762784493874,-0.7411468266002421,-0.4101145415528056,-0.06083295537779748
0.2052399069070816,0.1709182858467102,138.68557739257812,0.27338060190063634,-0.7421285696865785,-0.4091285717634794,-0.05697621498256941
-0.8883370757102966,-0.11001807451248169,138.7766876220703,0.2665143550678559,-0.7430739440882786,-0.41482104817017285,-0.05646871322145084
0.5754234790802002,-0.36969324946403503,138.75222778320312,0.2595789408208093,-0.7440484025950235,-0.4174286614754236,-0.06046630758792181
0.09057751297950745,0.3459393084049225,138.67356872558594,0.2526680465317786,-0.7450578239673957,-0.4118786532082594,-0.06066425709674775
0.09665202349424362,-0.05547729507088661,138.57418823242188,0.24581640436278496,-0.74604872394586,-0.4103184070709781,-0.058243740318964114
-0.9670044183731079,1.673946499824524,138.5227508544922,0.23891732310640207,-0.7469070592564014,-0.4175713436949686,-0.04475649694601714
-1.4716317653656006,-0.21402570605278015,138.5909423828125,0.23178845097650408,-0.747551617483712,-0.4378933118927912,-0.03259049033125261
0.7147301435470581,-0.3878367245197296,138.81423950195312,0.22443766649899793,-0.7481365883246893,-0.4442008254079457,-0.037606010586023524
-0.31981658935546875,0.7562522292137146,139.03488159179688,0.21706174396123992,-0.7487377707577415,-0.44090987912301577,-0.034535881380240316
-0.3886529803276062,-0.4439040720462799,139.0742645263672,0.2096640467001839,-0.7492916779364978,-0.44681379220370804,-0.03193298007051169
2.4595909118652344,0.2129216194152832,138.9492645263672,0.20236096529758998,-0.7498399347191057,-0.42955597610756113,-0.033857833842436666
-0.7773696780204773,0.8130349516868591,138.8416290283203,0.19531851994814764,-0.7503329849657087,-0.4155374658255215,-0.025308195749918813
0.3185604214668274,-0.056012384593486786,138.86053466796875,0.18836103376379495,-0.7507022172166036,-0.4193608762968019,-0.018999674357474045
-0.414198100566864,1.3612589836120605,138.91400146484375,0.18136504432002187,-0.750928236330963,-0.42015785695596886,-0.008122619365652596
0.09796188771724701,-0.3058139979839325,138.95654296875,0.17434045252264116,-0.7509903185297219,-0.4227931587297157,0.0006727555145818048
0.3809264004230499,-0.2372811883687973,138.95152282714844,0.16732715600826675,-0.7510168208813088,-0.4188024229952132,-0.003853037705024277
-0.7916542887687683,-0.4221849739551544,139.00729370117188,0.1603185928549892,-0.751126834437665,-0.4222251553980942,-0.009348589057723875
1.1904370784759521,0.18460379540920258,138.91456604003906,0.15330920018097285,-0.7512991429482484,-0.41890196548386766,-0.011328432212273474
-0.4103464186191559,0.982092022895813,138.58169555664062,0.1463816737187318,-0.7514069296088485,-0.412401209985061,-0.0016059670597316777
-0.3807315230369568,-0.5274003744125366,138.36875915527344,0.13945338425081022,-0.7514021199175882,-0.41899352616552865,0.002183130010962292
0.5592467784881592,0.796414852142334,138.40380859375,0.13248255570745773,-0.7513470528564521,-0.41750589903676866,0.00442491732537727
0.47281673550605774,-0.2745465934276581,138.43557739257812,0.12559579513420563,-0.7512370633830628,-0.4089053697534835,0.008773819481332903
-0.10080954432487488,0.35501477122306824,138.44265747070312,0.11880653947103516,-0.7510852449904715,-0.40580530982697366,0.009444387629627987
-0.4534604549407959,0.31113457679748535,138.51919555664062,0.11880653947103516,-0.7510852449904715,-0.40580530982697366,0.009444387629627987
0.3277655243873596,-0.6495987176895142,138.50384521484375,0.11880653947103516,-0.7510852449904715,-0.40580530982697366,0.009444387629627987
0.9107498526573181,-0.8337264657020569,138.36988830566406,0.11880653947103516,-0.7510852449904715,-0.40580530982697366,0.009444387629627987
2.7694997787475586,-1.338660717010498,137.81649780273438,0.11880653947103516,-0.7510852449904715,-0.40580530982697366,0.009444387629627987
1.796129584312439,-1.2429232597351074,137.07469177246094,0.11880653947103516,-0.7510852449904715,-0.40580530982697366,0.009444387629627987
1.587106466293335,-1.2411354780197144,136.07949829101562,0.11880653947103516,-0.7510852449904715,-0.40580530982697366,0.009444387629627987
2.171539068222046,-0.11953126639127731,134.82691955566406,0.11880653947103516,-0.7510852449904715,-0.40580530982697366,0.009444387629627987
1.8436495065689087,-1.3924611806869507,133.3403778076172,0.11880653947103516,-0.7510852449904715,-0.40580530982697366,0.009444387629627987
1.5650010108947754,0.3518890142440796,131.76296997070312,0.11880653947103516,-0.7510852449904715,-0.40580530982697366,0.009444387629627987
1.4615389108657837,-1.3406641483306885,130.156005859375,0.11880653947103516,-0.7510852449904715,-0.40580530982697366,0.009444387629627987
1.2147372961044312,-0.27350255846977234,128.482177734375,0.11880653947103516,-0.7510852449904715,-0.40580530982697366,0.009444387629627987
1.2330607175827026,-0.9270855188369751,126.69147491455078,0.11880653947103516,-0.7510852449904715,-0.40580530982697366,0.009444387629627987
1.9091660976409912,0.12089062482118607,124.85538482666016,0.11880653947103516,-0.7510852449904715,-0.40580530982697366,0.009444387629627987
-0.11982966959476471,-0.8587020635604858,122.9541015625,0.11880653947103516,-0.7510852449904715,-0.40580530982697366,0.009444387629627987
1.945316195487976,0.143027201294899,120.95366668701172,0.11880653947103516,-0.7510852449904715,-0.40580530982697366,0.009444387629627987
0.7708516120910645,-0.94171541929245,118.83149719238281,0.11880653947103516,-0.7510852449904715,-0.40580530982697366,0.009444387629627987
0.442697674036026,-2.0601701736450195,116.67676544189453,0.11880653947103516,-0.7510852449904715,-0.40580530982697366,0.009444387629627987
1.631399393081665,0.8880554437637329,114.59598541259766,0.11880653947103516,-0.7510852449904715,-0.40580530982697366,0.009444387629627987
0.7989841103553772,-1.2116540670394897,112.51875305175781,0.11880653947103516,-0.7510852449904715,-0.40580530982697366,0.009444387629627987
0.4296692907810211,0.12065771222114563,110.32975769042969,0.11880653947103516,-0.7510852449904715,-0.40580530982697366,0.009444387629627987
0.7750151753425598,-0.1569138616323471,108.06842803955078,0.11880653947103516,-0.7510852449904715,-0.40580530982697366,0.009444387629627987
0.36625224351882935,-1.0203922986984253,105.7125244140625,0.11880653947103516,-0.7510852449904715,-0.40580530982697366,0.009444387629627987
0.221665620803833,-1.0934031009674072,103.33057403564453,0.11880653947103516,-0.7510852449904715,-0.40580530982697366,0.009444387629627987
1.5319572687149048,0.010883132927119732,100.88482666015625,0.11880653947103516,-0.7510852449904715,-0.40580530982697366,0.009444387629627987
0.41623908281326294,-0.08184374123811722,98.48705291748047,0.11880653947103516,-0.7510852449904715,-0.40580530982697366,0.009444387629627987
0.8271960020065308,0.3384755849838257,96.04525756835938,0.11880653947103516,-0.7510852449904715,-0.40580530982697366,0.009444387629627987
0.6735177636146545,-1.124200463294983,93.57853698730469,0.11880653947103516,-0.7510852449904715,-0.40580530982697366,0.009444387629627987
0.04461926221847534,-1.451083779335022,91.10210418701172,0.11880653947103516,-0.7510852449904715,-0.40580530982697366,0.009444387629627987
1.7127103805541992,0.975638210773468,88.762451171875,0.11880653947103516,-0.7510852449904715,-0.40580530982697366,0.009444387629627987
0.6795613765716553,-0.7500499486923218,86.304443359375,0.11880653947103516,-0.7510852449904715,-0.40580530982697366,0.009444387629627987
-0.5563721656799316,-0.6092209219932556,83.80946350097656,0.11880653947103516,-0.7510852449904715,-0.40580530982697366,0.009444387629627987
0.6413334012031555,-0.7501850128173828,81.24861145019531,0.11880653947103516,-0.7510852449904715,-0.40580530982697366,0.009444387629627987
0.14704561233520508,-0.38783085346221924,78.61316680908203,0.11880653947103516,-0.7510852449904715,-0.40580530982697366,0.009444387629627987
0.6657844185829163,0.1517629623413086,76.03248596191406,0.11880653947103516,-0.7510852449904715,-0.40580530982697366,0.009444387629627987
1.0850605964660645,-1.0028283596038818,73.37000274658203,0.11880653947103516,-0.7510852449904715,-0.40580530982697366,0.009444387629627987
-0.3853481411933899,-0.28339219093322754,70.71812438964844,0.11880653947103516,-0.7510852449904715,-0.40580530982697366,0.009444387629627987
0.5910884737968445,-1.1548700332641602,68.09039306640625,0.11880653947103516,-0.7510852449904715,-0.40580530982697366,0.009444387629627987
-1.307106614112854,-0.044129159301519394,65.45358276367188,0.11880653947103516,-0.7510852449904715,-0.40580530982697366,0.009444387629627987
0.9177965521812439,-0.4025770127773285,62.79533386230469,0.11880653947103516,-0.7510852449904715,-0.40580530982697366,0.009444387629627987
-0.07357423007488251,0.009250253438949585,60.18962097167969,0.11880653947103516,-0.7510852449904715,-0.40580530982697366,0.009444387629627987
-1.430457592010498,-0.031029392033815384,57.90848159790039,0.11880653947103516,-0.7510852449904715,-0.40580530982697366,0.009444387629627987
1.7827274799346924,0.018447138369083405,56.149436950683594,0.11880653947103516,-0.7510852449904715,-0.40580530982697366,0.009444387629627987
-1.5131739377975464,0.5364459753036499,54.894840240478516,0.11880653947103516,-0.7510852449904715,-0.40580530982697366,0.009444387629627987
-0.6841019988059998,1.6557685136795044,53.97572326660156,0.11880653947103516,-0.7510852449904715,-0.40580530982697366,0.009444387629627987
-1.0163105726242065,1.1210323572158813,53.40670394897461,0.11880653947103516,-0.7510852449904715,-0.40580530982697366,0.009444387629627987
-0.721687376499176,1.069453239440918,53.239200592041016,0.11880653947103516,-0.7510852449904715,-0.40580530982697366,0.009444387629627987
-0.04523305594921112,0.9743143320083618,53.36365509033203,0.11880653947103516,-0.7510852449904715,-0.40580530982697366,0.009444387629627987
0.5316203832626343,0.028423776850104332,53.528568267822266,0.11880653947103516,-0.7510852449904715,-0.40580530982697366,0.009444387629627987
0.6013414859771729,-0.646003782749176,53.5734748840332,0.11880653947103516,-0.7510852449904715,-0.40580530982697366,0.009444387629627987
-0.261965811252594,0.34270530939102173,53.52154541015625,0.11880653947103516,-0.7510852449904715,-0.40580530982697366,0.009444387629627987
0.35590487718582153,-0.42828574776649475,53.55995178222656,0.11880653947103516,-0.7510852449904715,-0.40580530982697366,0.009444387629627987
-0.03918125480413437,0.16650259494781494,53.54501724243164,0.11880653947103516,-0.7510852449904715,-0.40580530982697366,0.009444387629627987
0.24089567363262177,-0.11026530712842941,53.54424285888672,0.11880653947103516,-0.7510852449904715,-0.40580530982697366,0.009444387629627987
0.20424672961235046,0.18314611911773682,53.54969024658203,0.11880653947103516,-0.7510852449904715,-0.40580530982697366,0.009444387629627987
0.18975678086280823,0.06533896923065186,53.541893005371094,0.11880653947103516,-0.7510852449904715,-0.40580530982697366,0.009444387629627987
0.2164296954870224,-0.030459584668278694,53.54685974121094,0.11880653947103516,-0.7510852449904715,-0.40580530982697366,0.009444387629627987
0.04748447984457016,0.024949418380856514,53.54607391357422,0.11880653947103516,-0.7510852449904715,-0.40580530982697366,0.009444387629627987
0.20446403324604034,-0.05681367591023445,53.54145431518555,0.11880653947103516,-0.7510852449904715,-0.40580530982697366,0.009444387629627987
0.15070274472236633,0.1087283194065094,53.5450325012207,0.11880653947103516,-0.7510852449904715,-0.40580530982697366,0.009444387629627987
0.22429415583610535,0.012317477725446224,53.54056930541992,0.11880653947103516,-0.7510852449904715,-0.40580530982697366,0.009444387629627987
0.13293029367923737,0.03753850236535072,53.54322814941406,0.11880653947103516,-0.7510852449904715,-0.40580530982697366,0.009444387629627987
0.15262694656848907,-0.007162188179790974,53.5406379699707,0.11880653947103516,-0.7510852449904715,-0.40580530982697366,0.009444387629627987
0.15485253930091858,0.009225128218531609,53.53959274291992,0.11880653947103516,-0.7510852449904715,-0.40580530982697366,0.009444387629627987
0.1854926347732544,0.03516107425093651,53.5401496887207,0.11880653947103516,-0.7510852449904715,-0.40580530982697366,0.009444387629627987
0.1580721139907837,0.03545429930090904,53.53898620605469,0.11880653947103516,-0.7510852449904715,-0.40580530982697366,0.009444387629627987
0.16181069612503052,0.003545906860381365,53.54041290283203,0.11880653947103516,-0.7510852449904715,-0.40580530982697366,0.009444387629627987
0.1640552133321762,0.015102798119187355,53.537986755371094,0.11880653947103516,-0.7510852449904715,-0.40580530982697366,0.009444387629627987
0.16983021795749664,0.019575614482164383,53.538089752197266,0.11880653947103516,-0.7510852449904715,-0.40580530982697366,0.009444387629627987
0.16159994900226593,0.03527632728219032,53.53801345825195,0.11880653947103516,-0.7510852449904715,-0.40580530982697366,0.009444387629627987
0.1832234114408493,0.023352202028036118,53.537864685058594,0.11880653947103516,-0.7510852449904715,-0.40580530982697366,0.009444387629627987
0.16258661448955536,0.02325429581105709,53.537879943847656,0.11880653947103516,-0.7510852449904715,-0.40580530982697366,0.009444387629627987
0.16667090356349945,0.01709776744246483,53.53844451904297,0.11880653947103516,-0.7510852449904715,-0.40580530982697366,0.009444387629627987
0.1773688942193985,0.027929648756980896,53.53823471069336,0.11880653947103516,-0.7510852449904715,-0.40580530982697366,0.009444387629627987
0.17204523086547852,0.023453883826732635,53.53805923461914,0.11880653947103516,-0.7510852449904715,-0.40580530982697366,0.009444387629627987
0.1781177818775177,0.020224101841449738,53.53843688964844,0.11880653947103516,-0.7510852449904715,-0.40580530982697366,0.009444387629627987
0.15568526089191437,0.00589250773191452,53.53902816772461,0.11880653947103516,-0.7510852449904715,-0.40580530982697366,0.009444387629627987
0.17954544723033905,0.019442575052380562,53.537715911865234,0.11880653947103516,-0.7510852449904715,-0.40580530982697366,0.009444387629627987
0.15858960151672363,0.013501540757715702,53.53791427612305,0.11880653947103516,-0.7510852449904715,-0.40580530982697366,0.009444387629627987
0.15972407162189484,0.014189095236361027,53.538246154785156,0.11880653947103516,-0.7510852449904715,-0.40580530982697366,0.009444387629627987
0.16685612499713898,0.012970518320798874,53.53904724121094,0.11880653947103516,-0.7510852449904715,-0.40580530982697366,0.009444387629627987
0.15071021020412445,0.003378445515409112,53.538028717041016,0.11880653947103516,-0.7510852449904715,-0.40580530982697366,0.009444387629627987
0.16557960212230682,0.007775481324642897,53.53778076171875,0.11880653947103516,-0.7510852449904715,-0.40580530982697366,0.009444387629627987
0.15598294138908386,0.008247497491538525,53.53755187988281,0.11880653947103516,-0.7510852449904715,-0.40580530982697366,0.009444387629627987
0.1613074541091919,0.021633338183164597,53.536861419677734,0.11880653947103516,-0.7510852449904715,-0.40580530982697366,0.009444387629627987
0.15934579074382782,0.02796134166419506,53.5369758605957,0.11880653947103516,-0.7510852449904715,-0.40580530982697366,0.009444387629627987
0.16782400012016296,0.007621695753186941,53.53749084472656,0.11880653947103516,-0.7510852449904715,-0.40580530982697366,0.009444387629627987
0.16037531197071075,0.014867233112454414,53.537845611572266,0.11880653947103516,-0.7510852449904715,-0.40580530982697366,0.009444387629627987
0.15394866466522217,0.006008146796375513,53.53673553466797,0.11880653947103516,-0.7510852449904715,-0.40580530982697366,0.009444387629627987
0.17454862594604492,0.019418729469180107,53.536766052246094,0.11880653947103516,-0.7510852449904715,-0.40580530982697366,0.009444387629627987
0.15339618921279907,0.006314509082585573,53.53739929199219,0.11880653947103516,-0.7510852449904715,-0.40580530982697366,0.009444387629627987
0.14617371559143066,0.004606607370078564,53.53715896606445,0.11880653947103516,-0.7510852449904715,-0.40580530982697366,0.009444387629627987
0.15925490856170654,0.003362760180607438,53.536865234375,0.11880653947103516,-0.7510852449904715,-0.40580530982697366,0.009444387629627987
0.17224667966365814,0.010391670279204845,53.536922454833984,0.11880653947103516,-0.7510852449904715,-0.40580530982697366,0.009444387629627987
0.15826740860939026,0.008164560422301292,53.53725051879883,0.11880653947103516,-0.7510852449904715,-0.40580530982697366,0.009444387629627987
0.1640017330646515,0.008616145700216293,53.53757095336914,0.11880653947103516,-0.7510852449904715,-0.40580530982697366,0.009444387629627987
0.15981511771678925,0.0168413408100605,53.53953170776367,0.11880653947103516,-0.7510852449904715,-0.40580530982697366,0.009444387629627987
0.16298486292362213,0.01854618638753891,53.53963851928711,0.11880653947103516,-0.7510852449904715,-0.40580530982697366,0.009444387629627987
0.1729114055633545,-0.004925190936774015,53.5405158996582,0.11880653947103516,-0.7510852449904715,-0.40580530982697366,0.009444387629627987
0.16585084795951843,0.010015305131673813,53.53986358642578,0.11880653947103516,-0.7510852449904715,-0.40580530982697366,0.009444387629627987
0.17371638119220734,0.01977466233074665,53.53950119018555,0.11880653947103516,-0.7510852449904715,-0.40580530982697366,0.009444387629627987
0.16018477082252502,0.01340857520699501,53.54133987426758,0.11880653947103516,-0.7510852449904715,-0.40580530982697366,0.009444387629627987
0.1444648951292038,0.00013518867490347475,53.541255950927734,0.11880653947103516,-0.7510852449904715,-0.40580530982697366,0.009444387629627987
0.14592933654785156,0.008014063350856304,53.541908264160156,0.11880653947103516,-0.7510852449904715,-0.40580530982697366,0.009444387629627987
0.15865826606750488,-0.00044144070125184953,53.541866302490234,0.11880653947103516,-0.7510852449904715,-0.40580530982697366,0.009444387629627987
0.15282554924488068,0.004546291194856167,53.5405387878418,0.11880653947103516,-0.7510852449904715,-0.40580530982697366,0.009444387629627987
0.15681470930576324,0.006048229057341814,53.54103469848633,0.11880653947103516,-0.7510852449904715,-0.40580530982697366,0.009444387629627987
0.16331061720848083,-0.006560454610735178,53.54155349731445,0.11880653947103516,-0.7510852449904715,-0.40580530982697366,0.009444387629627987
0.15283085405826569,0.025768522173166275,53.5404167175293,0.11880653947103516,-0.7510852449904715,-0.40580530982697366,0.009444387629627987
0.17194493114948273,0.016358012333512306,53.539039611816406,0.11880653947103516,-0.7510852449904715,-0.40580530982697366,0.009444387629627987
0.16268225014209747,0.01237005926668644,53.53938674926758,0.11880653947103516,-0.7510852449904715,-0.40580530982697366,0.009444387629627987
0.16660968959331512,0.006938501261174679,53.541072845458984,0.11880653947103516,-0.7510852449904715,-0.40580530982697366,0.009444387629627987
0.17178010940551758,-0.0017218171851709485,53.54059600830078,0.11880653947103516,-0.7510852449904715,-0.40580530982697366,0.009444387629627987
0.16577152907848358,0.007829584181308746,53.53873062133789,0.11880653947103516,-0.7510852449904715,-0.40580530982697366,0.009444387629627987
0.16871464252471924,0.015214932151138783,53.53833770751953,0.11880653947103516,-0.7510852449904715,-0.40580530982697366,0.009444387629627987
0.1585274487733841,-0.001580051495693624,53.53778076171875,0.11880653947103516,-0.7510852449904715,-0.40580530982697366,0.009444387629627987
0.15760968625545502,0.014938157983124256,53.53744125366211,0.11880653947103516,-0.7510852449904715,-0.40580530982697366,0.009444387629627987
0.15565501153469086,0.009119272232055664,53.53703308105469,0.11880653947103516,-0.7510852449904715,-0.40580530982697366,0.009444387629627987
0.16160757839679718,0.007837394252419472,53.537109375,0.11880653947103516,-0.7510852449904715,-0.40580530982697366,0.009444387629627987
0.16334332525730133,-0.0022451430559158325,53.537261962890625,0.11880653947103516,-0.7510852449904715,-0.40580530982697366,0.009444387629627987
0.14912253618240356,0.0056721922010183334,53.537940979003906,0.11880653947103516,-0.7510852449904715,-0.40580530982697366,0.009444387629627987
0.15736748278141022,-0.006821855437010527,53.538490295410156,0.11880653947103516,-0.7510852449904715,-0.40580530982697366,0.009444387629627987
0.1721630096435547,0.0019121647346764803,53.53961181640625,0.11880653947103516,-0.7510852449904715,-0.40580530982697366,0.009444387629627987
0.1612928956747055,0.009198698215186596,53.539649963378906,0.11880653947103516,-0.7510852449904715,-0.40580530982697366,0.009444387629627987
0.1507217139005661,0.0010193203343078494,53.539520263671875,0.11880653947103516,-0.7510852449904715,-0.40580530982697366,0.009444387629627987
0.1465444415807724,0.002660502679646015,53.539390563964844,0.11880653947103516,-0.7510852449904715,-0.40580530982697366,0.009444387629627987
0.15784554183483124,-0.005941808223724365,53.53913879394531,0.11880653947103516,-0.7510852449904715,-0.40580530982697366,0.009444387629627987
0.14405666291713715,0.018485520035028458,53.53931427001953,0.11880653947103516,-0.7510852449904715,-0.40580530982697366,0.009444387629627987
0.15347187221050262,0.006740042008459568,53.53875732421875,0.11880653947103516,-0.7510852449904715,-0.40580530982697366,0.009444387629627987
0.1676429659128189,0,53.53904342651367,0.11206541728212194,-0.7509273704715048,-0.40312935284261264,0.00950055464636515
0.35012495517730713,0.21045701205730438,53.52510070800781,0.10538255084037632,-0.7507544128237836,-0.3988146201668616,0.01125436308017602
0.6548957228660583,0.9590318202972412,53.533260345458984,0.09880543360690386,-0.7504856256035338,-0.39043944784983353,0.021000103349797232
1.9711380004882812,2.149855852127075,53.64636993408203,0.09248047292908401,-0.7499197289037856,-0.36855583348854737,0.04690750061999987
0.9903259873390198,2.293346643447876,53.76372146606445,0.08654353292565178,-0.7488293814979262,-0.34387696692331987,0.08393418808312446
1.263493537902832,0.9025716185569763,53.78049850463867,0.08096876538840492,-0.7472085395950127,-0.3250951375463044,0.11056684026649823
0.6727580428123474,0.8504965305328369,53.83199691772461,0.07568497501129395,-0.7452440180802176,-0.30895970770701126,0.12517574150891334
1.1320966482162476,1.4932740926742554,53.86164855957031,0.07066098368083186,-0.7429949938729018,-0.29391925194843965,0.14470716336897244
1.969584345817566,1.401741862297058,53.9635009765625,0.06597772399516577,-0.7403821650421015,-0.2680719103314912,0.1688322963270667
0.6953409910202026,1.0033658742904663,54.02646255493164,0.06169492308247687,-0.7374012720660541,-0.24586419919117647,0.18887486079862942
0.27331051230430603,1.3635920286178589,54.10964584350586,0.057664453894799246,-0.7340889856428194,-0.2377921033301389,0.20859950998953214
0.3359648585319519,1.1049513816833496,54.06877899169922,0.053743562962271674,-0.7304409005172785,-0.2327148085731701,0.22917070507537554
1.394272804260254,0.4372585117816925,53.97122573852539,0.049985138212634964,-0.7265142908567538,-0.21829616138323504,0.24202245418758422
0,-0.10567805916070938,53.93488693237305,0.04644369335654357,-0.7224575568666398,-0.20667722134773292,0.2447856246260924
1.0996770858764648,0.7872663736343384,53.8234748840332,0.043075439465044996,-0.7183304639343665,-0.1975132456320957,0.250465527246706
0.43518203496932983,1.0038635730743408,53.82660675048828,0.03989013947679103,-0.7140316544561778,-0.18472275295838075,0.265391610135945
0.5981848239898682,0.7135570645332336,53.78786849975586,0.0368831885149124,-0.709489195631856,-0.1761113624670541,0.2797034487826748
1.3590075969696045,0.5915449261665344,53.7944221496582,0.034083915280805906,-0.7047368394027905,-0.15980142562572516,0.29057929870517285
0.26360219717025757,-0.10246312618255615,53.784873962402344,0.03153323942274798,-0.6998598870771499,-0.14627967734122632,0.294654980371706
1.1343533992767334,1.14335298538208,53.78700256347656,0.02919232505014747,-0.6948766867196214,-0.13463004737083473,0.30332906253170205
0.18142543733119965,0.656152606010437,53.827728271484375,0.02703986445762022,-0.6896962366780242,-0.12366522373243528,0.318324942459973
0.32184186577796936,0.43091097474098206,53.82023620605469,0.025013726513684435,-0.6843153304439169,-0.11947132953985888,0.3273838056329015
0.22478801012039185,0.9669212102890015,53.86650085449219,0.023060498096068617,-0.6787618620038526,-0.11491608057403921,0.33903240717481803
0.4663369357585907,1.1470459699630737,53.89197540283203,0.02119322487440956,-0.6729645186078659,-0.10915670602504769,0.3566488003435853
0,0,53.880218505859375,0.019406330950086443,-0.6669407159653364,-0.1052705648937261,0.3662075167599443
0.05061822384595871,-0.2511301338672638,53.835201263427734,0.017655336689624754,-0.6608546969453004,-0.10484874636167645,0.3641147656443838
0.5789836049079895,-0.454128623008728,53.68806838989258,0.01595157993281584,-0.6548350938204548,-0.09960206445539355,0.3582376093370838
1.2509194612503052,0.8787767887115479,53.53076171875,0.014418622127042495,-0.6488349775422185,-0.08435287223740776,0.36177634405127396
0.28150004148483276,0.8280407190322876,53.59657287597656,0.013119158944108972,-0.6426868428144373,-0.07158270971461494,0.3759998232824726
-0.5835958123207092,1.4546878337860107,53.745216369628906,0.01190513490922401,-0.6362616562768949,-0.07410017447158058,0.3950225612226251
1.5237345695495605,-0.8381584882736206,53.85617446899414,0.010735419415060782,-0.6296351323853017,-0.06626568482800682,0.40016030576856165
0.5638914108276367,0.14770889282226562,53.92635726928711,0.009775965361009085,-0.6230137418443986,-0.04886880165819685,0.3944065591398004
-1.6953104734420776,-0.44532355666160583,54.00438690185547,0.008882914565135357,-0.6164609668770574,-0.05829729384665052,0.3919264369411392
0.4129509925842285,0.5044289231300354,54.039066314697266,0.007822240259298275,-0.609924755055367,-0.06898362285379926,0.39241898166170947
0.8020402193069458,0.12413539737462997,54.04312515258789,0.006756887601449619,-0.6033407883943035,-0.058858696088039474,0.397657017665915
0.16569453477859497,1.4458268880844116,53.99677658081055,0.005843113135682679,-0.5966041462744924,-0.0507942398039933,0.410740036711407
1.3819266557693481,0,53.88602828979492,0.005104016166070842,-0.5896580743509631,-0.03789739654942711,0.42278859411211045
0.5967547297477722,-0.7936248183250427,53.89590835571289,0.004609801319796858,-0.5826667106170338,-0.021408385003451106,0.41617505395940174
0.5810204744338989,0.33153703808784485,53.8627815246582,0.004334784847807511,-0.5757625491468936,-0.011593591635270514,0.4123243224574251
-0.47435009479522705,-0.3782299757003784,53.83518600463867,0.004148965985805688,-0.5688937196710485,-0.010704671804948248,0.41193521464398736
0,0.7702582478523254,53.7826042175293,0.0039376138102513265,-0.5620009085747493,-0.014657589261575139,0.41520211691192027
0,-0.09972484409809113,53.689964294433594,0.003693320655891741,-0.5550343084731788,-0.014657589261575139,0.4207898952765389
0.6617486476898193,0.21381811797618866,53.615699768066406,0.0034949822687328374,-0.5480132204078838,-0.00914301719749331,0.42174067255885633
0.18261060118675232,0.13776716589927673,53.52992248535156,0.0034012347077243773,-0.5409597935538559,-0.002106690123521879,0.4246705499244852
0,-0.5889178514480591,53.48835754394531,0.0033788044974147596,-0.5339132809638332,-0.0005849351136322763,0.42091096087824537
1.0815593004226685,0.6979582905769348,53.49149703979492,0.003444163863605796,-0.5268905260298118,0.008428059056556629,0.4218196312043193
-0.2774704098701477,0.4692811667919159,53.61002731323242,0.003640471020836776,-0.5197791405474225,0.015128799811160968,0.4315466266823931
0.1828758269548416,0.2830629348754883,53.703826904296875,0.0038860486160981183,-0.5125344506512113,0.014340511620200084,0.4378161608629548
-0.11582667380571365,0.901004433631897,53.71055603027344,0.004129713334292365,-0.505155287736238,0.014899254563109483,0.4476833889338496
0.34578368067741394,-1.1232322454452515,53.621315002441406,0.004394003480265835,-0.4977093304076053,0.016815562953706984,0.44583149050207166
0.8102243542671204,-0.41524216532707214,53.50086212158203,0.004754541198587656,-0.4903856440666522,0.026448963244911437,0.4330108704123023
-0.7088246941566467,-0.14179494976997375,53.30344009399414,0.00520239889573274,-0.48320747935944003,0.02729396041249872,0.42836889445316023
0.5528404712677002,0.12907350063323975,53.25853729248047,0.005646465998240431,-0.4760688812191885,0.025994091888424165,0.42826288237702076
0.3300361633300781,1.2688411474227905,53.42768096923828,0.006141011740450124,-0.4688340891067898,0.03335139717673898,0.43991217111082104
0.5485081076622009,-0.3474856913089752,53.561363220214844,0.006757878378881348,-0.46143823657049043,0.04067259943500798,0.44759013324510283
-0.9032847881317139,-0.6168889403343201,53.686588287353516,0.007411117766654432,-0.4540453714769362,0.03771612709776204,0.4395536779814087
0.08627603948116302,0,53.71807861328125,0.007982983166294177,-0.44676231635365815,0.030907720859007448,0.43441293681195603
0,0,53.642032623291016,0.00850410323890827,-0.43952210074012554,0.0316266878546838,0.43441293681195603
0.6288412809371948,0.10756746679544449,53.47694778442383,0.009074884236551417,-0.43227441516362103,0.03686703186249376,0.4353093323685847
0.454509973526001,0.6679715514183044,53.35371398925781,0.009764567493597368,-0.42496540274787975,0.04589495898302039,0.44177215752036597
1.0404424667358398,-0.4726160168647766,53.32839584350586,0.010633299618332558,-0.41758896709930743,0.058352895985202394,0.44340012030831205
0.30463653802871704,-0.3108716309070587,53.323551177978516,0.011699256148972359,-0.4102533739585975,0.0695618876915737,0.4368710565768801
0.33043602108955383,-0.6761059761047363,53.27314376831055,0.0129027232048818,-0.4030407297939142,0.07485415901755929,0.42864624318511513
-0.9016615748405457,0.5785699486732483,53.25020217895508,0.014110624080608414,-0.39590339907606725,0.07009394606963436,0.42783344295651937
-0.308106005191803,0.626785159111023,53.13911437988281,0.015194844877600075,-0.38868913647764025,0.06001254956936479,0.43787806885472164
1.0906323194503784,-0.11796558648347855,53.07114028930664,0.016249396142246332,-0.3813558339708513,0.06653360218818626,0.44211823195995115
0.16473007202148438,-0.18413449823856354,53.04001998901367,0.01744546745590165,-0.37400817594406893,0.07699495545045178,0.4396007312539341
-0.24039214849472046,-0.795481264591217,53.0222282409668,0.01872346240254298,-0.3667495259622554,0.07636443814650815,0.431437266563686
1.2984108924865723,0.3072202205657959,53.03187561035156,0.02006967656220644,-0.35959281186980685,0.08518126101310691,0.4273684245301408
-0.1637107878923416,0.07281772047281265,53.079193115234375,0.02006967656220644,-0.35959281186980685,0.08518126101310691,0.4273684245301408
0.25689569115638733,0.19759339094161987,53.12441635131836,0.02006967656220644,-0.35959281186980685,0.08518126101310691,0.4273684245301408
-0.6838199496269226,0.3185926377773285,53.09270095825195,0.02006967656220644,-0.35959281186980685,0.08518126101310691,0.4273684245301408
-0.08212559670209885,-1.4756364822387695,52.91170883178711,0.02006967656220644,-0.35959281186980685,0.08518126101310691,0.4273684245301408
-2.0576658248901367,-2.301051616668701,52.337772369384766,0.02006967656220644,-0.35959281186980685,0.08518126101310691,0.4273684245301408
-2.3538355827331543,-3.085658311843872,51.506187438964844,0.02006967656220644,-0.35959281186980685,0.08518126101310691,0.4273684245301408
0.3490331768989563,-1.831908106803894,50.38818359375,0.02006967656220644,-0.35959281186980685,0.08518126101310691,0.4273684245301408
-1.1744210720062256,-2.100335121154785,49.05950927734375,0.02006967656220644,-0.35959281186980685,0.08518126101310691,0.4273684245301408
-0.5010362267494202,-1.5196948051452637,47.50668716430664,0.02006967656220644,-0.35959281186980685,0.08518126101310691,0.4273684245301408
-0.13841034471988678,-1.3344568014144897,45.808143615722656,0.02006967656220644,-0.35959281186980685,0.08518126101310691,0.4273684245301408
-1.4499125480651855,-1.8918869495391846,43.96718978881836,0.02006967656220644,-0.35959281186980685,0.08518126101310691,0.4273684245301408
-0.355826735496521,-2.0895793437957764,41.979591369628906,0.02006967656220644,-0.35959281186980685,0.08518126101310691,0.4273684245301408
-1.2214086055755615,-1.147943377494812,39.92156219482422,0.02006967656220644,-0.35959281186980685,0.08518126101310691,0.4273684245301408
-0.39497220516204834,-0.8874413967132568,37.79948425292969,0.02006967656220644,-0.35959281186980685,0.08518126101310691,0.4273684245301408
-0.9371644258499146,-1.0215692520141602,35.5632438659668,0.02006967656220644,-0.35959281186980685,0.08518126101310691,0.4273684245301408
0.041174523532390594,-0.8606889843940735,33.22800064086914,0.02006967656220644,-0.35959281186980685,0.08518126101310691,0.4273684245301408
-0.05259253829717636,-0.995819628238678,30.857433319091797,0.02006967656220644,-0.35959281186980685,0.08518126101310691,0.4273684245301408
-1.5927274227142334,-0.9358289837837219,28.482465744018555,0.02006967656220644,-0.35959281186980685,0.08518126101310691,0.4273684245301408
0.5126945972442627,-1.526749610900879,26.09959602355957,0.02006967656220644,-0.35959281186980685,0.08518126101310691,0.4273684245301408
-1.027980923652649,-1.124497413635254,23.78936195373535,0.02006967656220644,-0.35959281186980685,0.08518126101310691,0.4273684245301408
0.07224800437688828,-0.08500627428293228,21.445674896240234,0.02006967656220644,-0.35959281186980685,0.08518126101310691,0.4273684245301408
-0.5344424247741699,-0.20761100947856903,19.04889488220215,0.02006967656220644,-0.35959281186980685,0.08518126101310691,0.4273684245301408
0.0424991101026535,-1.1269011497497559,16.604887008666992,0.02006967656220644,-0.35959281186980685,0.08518126101310691,0.4273684245301408
-0.8253646492958069,-0.716864287853241,14.099801063537598,0.02006967656220644,-0.35959281186980685,0.08518126101310691,0.4273684245301408
-0.6538466215133667,-0.691940426826477,11.602980613708496,0.02006967656220644,-0.35959281186980685,0.08518126101310691,0.4273684245301408
-0.294138640165329,-0.30890390276908875,9.068769454956055,0.02006967656220644,-0.35959281186980685,0.08518126101310691,0.4273684245301408
-0.6181946396827698,-0.28795039653778076,6.512271881103516,0.02006967656220644,-0.35959281186980685,0.08518126101310691,0.4273684245301408
0.520677924156189,-1.7228556871414185,3.966355800628662,0.02006967656220644,-0.35959281186980685,0.08518126101310691,0.4273684245301408
-0.4186360836029053,0.5471268892288208,1.4158666133880615,0.02006967656220644,-0.35959281186980685,0.08518126101310691,0.4273684245301408
-0.6015049815177917,-1.3871265649795532,-1.1066426038742065,0.02006967656220644,-0.35959281186980685,0.08518126101310691,0.4273684245301408
-0.591462254524231,-0.15189236402511597,-3.6215665340423584,0.02006967656220644,-0.35959281186980685,0.08518126101310691,0.4273684245301408
-0.7906208038330078,-0.0906037837266922,-6.100322246551514,0.02006967656220644,-0.35959281186980685,0.08518126101310691,0.4273684245301408
-0.38123366236686707,-0.838791012763977,-8.467482566833496,0.02006967656220644,-0.35959281186980685,0.08518126101310691,0.4273684245301408
-0.08673546463251114,-0.17666903138160706,-10.8197603225708,0.02006967656220644,-0.35959281186980685,0.08518126101310691,0.4273684245301408
0.2552233934402466,0.1056709736585617,-13.141578674316406,0.02006967656220644,-0.35959281186980685,0.08518126101310691,0.4273684245301408
-0.7459442019462585,0.15086719393730164,-15.474448204040527,0.02006967656220644,-0.35959281186980685,0.08518126101310691,0.4273684245301408
0.11755166947841644,-1.7037715911865234,-17.67963218688965,0.02006967656220644,-0.35959281186980685,0.08518126101310691,0.4273684245301408
-0.5487329363822937,0.8768972754478455,-19.857595443725586,0.02006967656220644,-0.35959281186980685,0.08518126101310691,0.4273684245301408
0.6032588481903076,-1.3390371799468994,-22.03289222717285,0.02006967656220644,-0.35959281186980685,0.08518126101310691,0.4273684245301408
-0.4614501893520355,0.4268612563610077,-24.147417068481445,0.02006967656220644,-0.35959281186980685,0.08518126101310691,0.4273684245301408
0.1995801478624344,-0.5832685232162476,-26.267255783081055,0.02006967656220644,-0.35959281186980685,0.08518126101310691,0.4273684245301408
-0.9348053932189941,0.8838958144187927,-28.228408813476562,0.02006967656220644,-0.35959281186980685,0.08518126101310691,0.4273684245301408
0.959744393825531,0.33270034193992615,-29.869108200073242,0.02006967656220644,-0.35959281186980685,0.08518126101310691,0.4273684245301408
-0.12336945533752441,0.04132731631398201,-31.200332641601562,0.02006967656220644,-0.35959281186980685,0.08518126101310691,0.4273684245301408
0.6185895800590515,1.619386911392212,-32.28042984008789,0.02006967656220644,-0.35959281186980685,0.08518126101310691,0.4273684245301408
1.3944597244262695,1.199601173400879,-32.879913330078125,0.02006967656220644,-0.35959281186980685,0.08518126101310691,0.4273684245301408
1.1218717098236084,1.2775226831436157,-32.99148941040039,0.02006967656220644,-0.35959281186980685,0.08518126101310691,0.4273684245301408
0.9871587157249451,-0.9135778546333313,-32.86590576171875,0.02006967656220644,-0.35959281186980685,0.08518126101310691,0.4273684245301408
0.22221723198890686,-0.7550133466720581,-32.835205078125,0.02006967656220644,-0.35959281186980685,0.08518126101310691,0.4273684245301408
0.7170538902282715,0.21435007452964783,-32.84989547729492,0.02006967656220644,-0.35959281186980685,0.08518126101310691,0.4273684245301408
-0.48026710748672485,-0.49563026428222656,-32.84423065185547,0.02006967656220644,-0.35959281186980685,0.08518126101310691,0.4273684245301408
-0.044391267001628876,0.23723112046718597,-32.844810485839844,0.02006967656220644,-0.35959281186980685,0.08518126101310691,0.4273684245301408
-0.19963018596172333,-0.23686620593070984,-32.86095428466797,0.02006967656220644,-0.35959281186980685,0.08518126101310691,0.4273684245301408
0.3062327802181244,-0.10637470334768295,-32.85587692260742,0.02006967656220644,-0.35959281186980685,0.08518126101310691,0.4273684245301408
0.1289943903684616,-0.3289393186569214,-32.87083053588867,0.02006967656220644,-0.35959281186980685,0.08518126101310691,0.4273684245301408
-0.0019521027570590377,-0.0660896822810173,-32.86833190917969,0.02006967656220644,-0.35959281186980685,0.08518126101310691,0.4273684245301408
-0.13264580070972443,-0.09655079245567322,-32.8760871887207,0.02006967656220644,-0.35959281186980685,0.08518126101310691,0.4273684245301408
0.08805413544178009,-0.15857569873332977,-32.88766860961914,0.02006967656220644,-0.35959281186980685,0.08518126101310691,0.4273684245301408
0.15442955493927002,-0.23058636486530304,-32.88517379760742,0.02006967656220644,-0.35959281186980685,0.08518126101310691,0.4273684245301408
0.06298454850912094,-0.14182381331920624,-32.8862419128418,0.02006967656220644,-0.35959281186980685,0.08518126101310691,0.4273684245301408
-0.0639394223690033,-0.11618741601705551,-32.88514709472656,0.02006967656220644,-0.35959281186980685,0.08518126101310691,0.4273684245301408
0.02856072224676609,-0.13859140872955322,-32.89104461669922,0.02006967656220644,-0.35959281186980685,0.08518126101310691,0.4273684245301408
0.10733857750892639,-0.2091953009366989,-32.889488220214844,0.02006967656220644,-0.35959281186980685,0.08518126101310691,0.4273684245301408
0.07398492097854614,-0.15948273241519928,-32.90104293823242,0.02006967656220644,-0.35959281186980685,0.08518126101310691,0.4273684245301408
-0.011402899399399757,-0.13202142715454102,-32.901283264160156,0.02006967656220644,-0.35959281186980685,0.08518126101310691,0.4273684245301408
0.021375639364123344,-0.14276090264320374,-32.900814056396484,0.02006967656220644,-0.35959281186980685,0.08518126101310691,0.4273684245301408
0.07197798788547516,-0.18142232298851013,-32.90445327758789,0.02006967656220644,-0.35959281186980685,0.08518126101310691,0.4273684245301408
0.0604090578854084,-0.16962163150310516,-32.91593551635742,0.02006967656220644,-0.35959281186980685,0.08518126101310691,0.4273684245301408
0.011182424612343311,-0.14655297994613647,-32.91412353515625,0.02006967656220644,-0.35959281186980685,0.08518126101310691,0.4273684245301408
0.016733210533857346,-0.15046262741088867,-32.91765213012695,0.02006967656220644,-0.35959281186980685,0.08518126101310691,0.4273684245301408
0.067654550075531,-0.1595342457294464,-32.92368698120117,0.02006967656220644,-0.35959281186980685,0.08518126101310691,0.4273684245301408
0.07081294804811478,-0.1725657433271408,-32.93403625488281,0.02006967656220644,-0.35959281186980685,0.08518126101310691,0.4273684245301408
0.022572852671146393,-0.14278295636177063,-32.93312072753906,0.02006967656220644,-0.35959281186980685,0.08518126101310691,0.4273684245301408
0.02756880782544613,-0.13768918812274933,-32.93479537963867,0.02006967656220644,-0.35959281186980685,0.08518126101310691,0.4273684245301408
0.05730712413787842,-0.1480991542339325,-32.939762115478516,0.02006967656220644,-0.35959281186980685,0.08518126101310691,0.4273684245301408
0.05724046006798744,-0.16159096360206604,-32.94770431518555,0.02006967656220644,-0.35959281186980685,0.08518126101310691,0.4273684245301408
0.030739013105630875,-0.15831421315670013,-32.94662857055664,0.02006967656220644,-0.35959281186980685,0.08518126101310691,0.4273684245301408
0.015296601690351963,-0.1356116533279419,-32.94624710083008,0.02006967656220644,-0.35959281186980685,0.08518126101310691,0.4273684245301408
0.03816980496048927,-0.16073204576969147,-32.94466018676758,0.02006967656220644,-0.35959281186980685,0.08518126101310691,0.4273684245301408
0.05147501826286316,-0.17267712950706482,-32.945457458496094,0.02006967656220644,-0.35959281186980685,0.08518126101310691,0.4273684245301408
0.040177375078201294,-0.1697711944580078,-32.94510269165039,0.02006967656220644,-0.35959281186980685,0.08518126101310691,0.4273684245301408
0.0274367593228817,-0.15664994716644287,-32.94867706298828,0.02006967656220644,-0.35959281186980685,0.08518126101310691,0.4273684245301408
0.03790995851159096,-0.1592743992805481,-32.948299407958984,0.02006967656220644,-0.35959281186980685,0.08518126101310691,0.4273684245301408
0.03541630879044533,-0.16494515538215637,-32.95731735229492,0.02006967656220644,-0.35959281186980685,0.08518126101310691,0.4273684245301408
0.03264506533741951,-0.15300054848194122,-32.95751190185547,0.02006967656220644,-0.35959281186980685,0.08518126101310691,0.4273684245301408
0.035106927156448364,-0.15164543688297272,-32.95833969116211,0.02006967656220644,-0.35959281186980685,0.08518126101310691,0.4273684245301408
0.02518486976623535,-0.15380020439624786,-32.957462310791016,0.02006967656220644,-0.35959281186980685,0.08518126101310691,0.4273684245301408
0.04448142275214195,-0.16655458509922028,-32.9568977355957,0.02006967656220644,-0.35959281186980685,0.08518126101310691,0.4273684245301408
0.047340426594018936,-0.16032063961029053,-32.95588684082031,0.02006967656220644,-0.35959281186980685,0.08518126101310691,0.4273684245301408
0.029821643605828285,-0.16336409747600555,-32.95598602294922,0.02006967656220644,-0.35959281186980685,0.08518126101310691,0.4273684245301408
0.031551893800497055,-0.15385422110557556,-32.959388732910156,0.02006967656220644,-0.35959281186980685,0.08518126101310691,0.4273684245301408
0.040579866617918015,-0.15228193998336792,-32.966575622558594,0.02006967656220644,-0.35959281186980685,0.08518126101310691,0.4273684245301408
0.046383172273635864,-0.15793298184871674,-32.96586608886719,0.02006967656220644,-0.35959281186980685,0.08518126101310691,0.4273684245301408
0.04071461781859398,-0.14300428330898285,-32.96894454956055,0.02006967656220644,-0.35959281186980685,0.08518126101310691,0.4273684245301408
0.038114726543426514,-0.14101043343544006,-32.977821350097656,0.02006967656220644,-0.35959281186980685,0.08518126101310691,0.4273684245301408
0.0388413742184639,-0.15801642835140228,-32.98210525512695,0.02006967656220644,-0.35959281186980685,0.08518126101310691,0.4273684245301408
0.0418836884200573,-0.15734100341796875,-32.98688888549805,0.02006967656220644,-0.35959281186980685,0.08518126101310691,0.4273684245301408
0.0333099327981472,-0.16037964820861816,-32.99027633666992,0.02006967656220644,-0.35959281186980685,0.08518126101310691,0.4273684245301408
0.02532206103205681,-0.14290696382522583,-32.991722106933594,0.02006967656220644,-0.35959281186980685,0.08518126101310691,0.4273684245301408
0.04170795530080795,-0.16086876392364502,-32.99290084838867,0.02006967656220644,-0.35959281186980685,0.08518126101310691,0.4273684245301408
0.03273555263876915,-0.1646152287721634,-32.99701690673828,0.02006967656220644,-0.35959281186980685,0.08518126101310691,0.4273684245301408
0.03327194228768349,-0.16004015505313873,-32.996246337890625,0.02006967656220644,-0.35959281186980685,0.08518126101310691,0.4273684245301408
0.01628824509680271,-0.1501510590314865,-33.00023651123047,0.02006967656220644,-0.35959281186980685,0.08518126101310691,0.4273684245301408
0.02109128050506115,-0.16060051321983337,-33.00022506713867,0.02006967656220644,-0.35959281186980685,0.08518126101310691,0.4273684245301408
0.03571989759802818,-0.15822558104991913,-33.00407409667969,0.02006967656220644,-0.35959281186980685,0.08518126101310691,0.4273684245301408
0.029569773003458977,-0.1613193303346634,-33.00321960449219,0.02006967656220644,-0.35959281186980685,0.08518126101310691,0.4273684245301408
0.03439878299832344,-0.16482774913311005,-33.005287170410156,0.02006967656220644,-0.35959281186980685,0.08518126101310691,0.4273684245301408
0.026488495990633965,-0.15907226502895355,-33.00514221191406,0.02006967656220644,-0.35959281186980685,0.08518126101310691,0.4273684245301408
0.03044896386563778,-0.1565706431865692,-33.00749588012695,0.02006967656220644,-0.35959281186980685,0.08518126101310691,0.4273684245301408
0.029262224212288857,-0.14159540832042694,-33.00695037841797,0.02006967656220644,-0.35959281186980685,0.08518126101310691,0.4273684245301408
0.03732369840145111,-0.16234904527664185,-33.01088333129883,0.02006967656220644,-0.35959281186980685,0.08518126101310691,0.4273684245301408
0.04012607783079147,-0.1649254858493805,-33.01076889038086,0.02006967656220644,-0.35959281186980685,0.08518126101310691,0.4273684245301408
0.03668656572699547,-0.16586804389953613,-33.01088333129883,0.02006967656220644,-0.35959281186980685,0.08518126101310691,0.4273684245301408
0.03511454537510872,-0.15807856619358063,-33.0130729675293,0.02006967656220644,-0.35959281186980685,0.08518126101310691,0.4273684245301408
0.04657866805791855,-0.15421032905578613,-33.012237548828125,0.02006967656220644,-0.35959281186980685,0.08518126101310691,0.4273684245301408
0.027962369844317436,-0.14498917758464813,-33.01174545288086,0.02006967656220644,-0.35959281186980685,0.08518126101310691,0.4273684245301408
0.04655536636710167,-0.14797534048557281,-33.010284423828125,0.02006967656220644,-0.35959281186980685,0.08518126101310691,0.4273684245301408
0.02426905557513237,-0.1597772091627121,-33.013526916503906,0.02006967656220644,-0.35959281186980685,0.08518126101310691,0.4273684245301408
0.03627016767859459,-0.15346968173980713,-33.0173454284668,0.02006967656220644,-0.35959281186980685,0.08518126101310691,0.4273684245301408
0.03464152663946152,-0.1553851068019867,-33.014564514160156,0.02006967656220644,-0.35959281186980685,0.08518126101310691,0.4273684245301408
0.0429234504699707,-0.15670865774154663,-33.014320373535156,0.02006967656220644,-0.35959281186980685,0.08518126101310691,0.4273684245301408
0.04055333137512207,-0.1545708179473877,-33.01438903808594,0.02006967656220644,-0.35959281186980685,0.08518126101310691,0.4273684245301408
0.029850749298930168,-0.14440496265888214,-33.01616287231445,0.02006967656220644,-0.35959281186980685,0.08518126101310691,0.4273684245301408
0.018408149480819702,-0.15882815420627594,-33.01628112792969,0.02006967656220644,-0.35959281186980685,0.08518126101310691,0.4273684245301408
0.026430752128362656,-0.1515764594078064,-33.0195426940918,0.02006967656220644,-0.35959281186980685,0.08518126101310691,0.4273684245301408
0.03568218648433685,-0.1739351451396942,-33.019405364990234,0.02006967656220644,-0.35959281186980685,0.08518126101310691,0.4273684245301408
0.04085419699549675,-0.1473737210035324,-33.01975631713867,0.02006967656220644,-0.35959281186980685,0.08518126101310691,0.4273684245301408
0.02300942875444889,-0.14795459806919098,-33.01994705200195,0.02006967656220644,-0.35959281186980685,0.08518126101310691,0.4273684245301408
0.039048872888088226,-0.1604728400707245,-33.02634811401367,0.02006967656220644,-0.35959281186980685,0.08518126101310691,0.4273684245301408
0,-0.14545652270317078,-33.02716064453125,0.021492075973042115,-0.3524912498889416,0.08550666828717432,0.42481901317369164
0.6674991846084595,-0.37755486369132996,-33.004520416259766,0.02296354122120394,-0.34544725323787967,0.09106916149224481,0.42046058495373745
1.3184905052185059,-1.0951639413833618,-32.91885757446289,0.02461927653009045,-0.33854184896122536,0.10761907557413619,0.4081879282447817
1.4760234355926514,-0.5751637816429138,-32.797882080078125,0.026606991257771273,-0.33185471180457804,0.1309066917475625,0.39426853055289607
1.1410003900527954,-1.3805992603302002,-32.7385139465332,0.028970507219233804,-0.32541938650661123,0.15271522362794124,0.37797050520312014
2.3256278038024902,-1.985857605934143,-32.85095977783203,0.03175649901538389,-0.31935365981338315,0.18160379191006862,0.3499166979842506
1.2233619689941406,-0.3862834572792053,-32.8021125793457,0.035029686503662574,-0.3136864468652577,0.21117870668337388,0.33014885579080605
1.872140884399414,-0.14154236018657684,-32.64337921142578,0.038764297090982246,-0.3082206205060683,0.23697456379498683,0.32575030731192456
0.4736097455024719,-1.5279488563537598,-32.51250457763672,0.042876772503530766,-0.30290738560757374,0.25652248571083586,0.3118378805074217
1.3649983406066895,-1.1551823616027832,-32.32110595703125,0.04727982838246894,-0.2978964161559193,0.27184421976174555,0.2894784536911172
0.5522838234901428,-0.056146200746297836,-32.31365966796875,0.05194370997322698,-0.2931558953001193,0.28782157112921913,0.27938404900487485
1.1167972087860107,-1.5727355480194092,-32.287330627441406,0.05685664456373315,-0.28861261127148014,0.3017305797315204,0.26581003443182727
1.3653233051300049,0.2150336354970932,-32.17759704589844,0.06205785703939155,-0.28427672888598593,0.3224149173474872,0.25449585182747464
0.07347419857978821,-1.7064669132232666,-32.245628356933594,0.06753135548849618,-0.28013870311092565,0.3344048965450688,0.24206724117975653
1.3619285821914673,0.39587685465812683,-32.317569732666016,0.07320445117957866,-0.2761952622897745,0.34636658638482926,0.23114565735838036
1.047662377357483,-1.2636672258377075,-32.39872741699219,0.07914456032485005,-0.2724030978873556,0.3664465110477372,0.22391407093188384
0.254459947347641,-0.5994547605514526,-32.50518035888672,0.08534242733708353,-0.2688005801764346,0.37729753042027986,0.20838805437864083
2.060403823852539,0,-32.53898239135742,0.09179147393931042,-0.26536907473960664,0.396588061846948,0.20339259804071205
-0.284622460603714,-0.7663783431053162,-32.66081237792969,0.0985245931203185,-0.26203241882386596,0.41138623987402156,0.19700611184816774
0.4352668523788452,-0.4761933386325836,-32.82163619995117,0.10539149186764768,-0.2588352733265172,0.412641609805481,0.18665134783368525
0.8218117952346802,-0.607017993927002,-32.86117935180664,0.11235614915937886,-0.25579964053849463,0.42311726520226034,0.17762458672902204
0.5142969489097595,-0.23462937772274017,-32.77314376831055,0.119500888908871,-0.25289767849381994,0.43425150473679736,0.17061085863194086
0.7342426776885986,-0.8663190603256226,-32.68255615234375,0.12682511812855363,-0.25013061893592986,0.444656001625117,0.16143628831487117
0.40879127383232117,0.4686618149280548,-32.6405029296875,0.13431542884671674,-0.24746762921716794,0.454181284554458,0.1581224779365581
0.25534990429878235,-0.532717227935791,-32.740299224853516,0.14193123783777237,-0.24483670287746195,0.4597157943722172,0.1575886828281603
-0.06690651923418045,-1.7020342350006104,-32.821510314941406,0.14960625409016104,-0.24236541590414099,0.46128615591442224,0.13896575397035696
-1.1816834211349487,-0.24468879401683807,-32.90901184082031,0.15720764905398688,-0.24018450910387235,0.4508812397446795,0.12274306206187822
2.029123067855835,0.8477516770362854,-33.056114196777344,0.1647811863585316,-0.2380969120359647,0.4579432368006869,0.12776858608704028
0.18723303079605103,-0.7502115964889526,-33.032432556152344,0.17256748725650498,-0.23596066198447602,0.4764128709561193,0.1285814200916014
0.4211110770702362,-0.39435431361198425,-32.80812454223633,0.18054994789104212,-0.23389712206003968,0.48148240518833835,0.11904337084076025
0.544715940952301,0.574079155921936,-32.69691848754883,0.1886417259648771,-0.23190058498753327,0.4895309636718595,0.12054107786000985
-0.31876757740974426,-1.3864011764526367,-32.71901321411133,0.19681626621798745,-0.22994797827462551,0.4914138667013808,0.11377172768892067
0.5404626727104187,0,-32.70198059082031,0.20502189282240635,-0.2281480606726194,0.49326132582888643,0.10221838455181537
0.5437717437744141,0.08047984540462494,-32.631046295166016,0.21331820897625478,-0.22643883205193605,0.5022966126329267,0.10288904993018724
0.2146497666835785,0,-32.66412353515625,0.22174248734725202,-0.2247184256749465,0.5086167918867432,0.10355971530855912
0.1708497405052185,-0.9922112226486206,-32.76838302612305,0.23024620467780807,-0.2230613339769322,0.5118292877799833,0.09529128845315395
0,-0.18255259096622467,-32.82906723022461,0.2387885573727873,-0.22155472665643622,0.5132530356175268,0.08550159000636356
-0.71479731798172,1.4055593013763428,-32.88331985473633,0.2472931359304418,-0.2200447691347739,0.5072963913010125,0.09569331259311455
0.7209963798522949,-1.8084499835968018,-32.843814849853516,0.25574850627586637,-0.21847785911115394,0.5073480501499339,0.09233589024127739
0.39119598269462585,-0.1258278638124466,-32.67718505859375,0.26428154269243104,-0.2170732524576472,0.5166163198378249,0.07621690817953365
-0.3449399769306183,-0.2340015172958374,-32.56611633300781,0.2728950269123506,-0.21582795880612082,0.5170017865525249,0.07321833000363129
0.5281042456626892,-0.39928582310676575,-32.5917854309082,0.2815244430957769,-0.21465163159358827,0.5185281554586255,0.06794093550027626
0.27311593294143677,-0.27358612418174744,-32.68163299560547,0.29022221931026815,-0.21356600988714536,0.5252049902803265,0.06233366927287198
0.7133180499076843,-0.25936219096183777,-32.80986404418945,0.2990441381748603,-0.2125641256989269,0.5334252734707359,0.05789243331334211
-0.26555994153022766,-0.44393566250801086,-32.961204528808594,0.3079656537124543,-0.2116480919390844,0.537156591040548,0.05203161786776004
0.18612927198410034,0.19761784374713898,-33.14527893066406,0.3169127475444116,-0.2107980037120357,0.5364946687943303,0.04997896937808611
0.07613787055015564,-0.13491909205913544,-33.21463394165039,0.32587253835365976,-0.20996066680908926,0.538680228315449,0.050501458975486135
-0.2572890520095825,-0.7625783681869507,-33.09486770629883,0.33483796221576034,-0.20918130203868157,0.5371706351366204,0.043022313473435415
0.41430389881134033,0.12287820130586624,-32.953514099121094,0.34380170994350967,-0.20850868710349105,0.5384790921933018,0.037691478749426376
-0.2394353747367859,0.4828481674194336,-33.06282424926758,0.3527885051275699,-0.20783843145983913,0.5399363298939232,0.04273919848880387
0.19246207177639008,-1.3760992288589478,-33.20191192626953,0.36178418192420747,-0.20718814280873682,0.5395448857025865,0.035295439643474584
0.316424161195755,0.0582432821393013,-33.285160064697266,0.37081193600765144,-0.20669140325542332,0.5437856043106877,0.0243133067541442
0.294973224401474,0.7349194288253784,-33.29657745361328,0.37991748756460714,-0.20623110073237058,0.548880582523998,0.030922996012183197
-0.2735457122325897,-0.7854182720184326,-33.17509078979492,0.3890669852950188,-0.20571922432961148,0.5490591451254053,0.030502172318907745
0.2562948763370514,0.7036319971084595,-33.04355239868164,0.39821677307239395,-0.20521653439338733,0.5489153881596092,0.029820620027991303
-0.6211276054382324,-1.1903640031814575,-33.024681091308594,0.39821677307239395,-0.20521653439338733,0.5489153881596092,0.029820620027991303
0.1199619472026825,0.007392387371510267,-33.01328659057617,0.39821677307239395,-0.20521653439338733,0.5489153881596092,0.029820620027991303
0.05903119593858719,0.6298549175262451,-32.9728889465332,0.39821677307239395,-0.20521653439338733,0.5489153881596092,0.029820620027991303
-0.7566439509391785,0.5154259204864502,-33.0797233581543,0.39821677307239395,-0.20521653439338733,0.5489153881596092,0.029820620027991303
-3.3705763816833496,1.7789981365203857,-33.59194564819336,0.39821677307239395,-0.20521653439338733,0.5489153881596092,0.029820620027991303
-1.6540617942810059,-0.2353505641222,-34.45012664794922,0.39821677307239395,-0.20521653439338733,0.5489153881596092,0.029820620027991303
-1.895336389541626,1.6451148986816406,-35.505130767822266,0.39821677307239395,-0.20521653439338733,0.5489153881596092,0.029820620027991303
-2.0339720249176025,-1.6040467023849487,-36.74267578125,0.39821677307239395,-0.20521653439338733,0.5489153881596092,0.029820620027991303
-1.8913484811782837,1.3361037969589233,-38.2576789855957,0.39821677307239395,-0.20521653439338733,0.5489153881596092,0.029820620027991303
-2.0949151515960693,1.4450229406356812,-39.927040100097656,0.39821677307239395,-0.20521653439338733,0.5489153881596092,0.029820620027991303
-1.6362924575805664,0.06931933015584946,-41.69280242919922,0.39821677307239395,-0.20521653439338733,0.5489153881596092,0.029820620027991303
-1.1228151321411133,1.6372159719467163,-43.47843551635742,0.39821677307239395,-0.20521653439338733,0.5489153881596092,0.029820620027991303
-1.8444349765777588,0.2675357460975647,-45.36817932128906,0.39821677307239395,-0.20521653439338733,0.5489153881596092,0.029820620027991303
-0.5019257068634033,-0.43996262550354004,-47.32240676879883,0.39821677307239395,-0.20521653439338733,0.5489153881596092,0.029820620027991303
-0.9802218675613403,0.3034922778606415,-49.36750411987305,0.39821677307239395,-0.20521653439338733,0.5489153881596092,0.029820620027991303
-1.5793713331222534,0.7893176674842834,-51.53787612915039,0.39821677307239395,-0.20521653439338733,0.5489153881596092,0.029820620027991303
-0.48645710945129395,0.8810184597969055,-53.78453063964844,0.39821677307239395,-0.20521653439338733,0.5489153881596092,0.029820620027991303
-1.3411061763763428,0.5056911110877991,-56.10657501220703,0.39821677307239395,-0.20521653439338733,0.5489153881596092,0.029820620027991303
-0.9186644554138184,0.987913966178894,-58.490379333496094,0.39821677307239395,-0.20521653439338733,0.5489153881596092,0.029820620027991303
-0.9323791265487671,-0.34911414980888367,-60.877044677734375,0.39821677307239395,-0.20521653439338733,0.5489153881596092,0.029820620027991303
-0.42238959670066833,-0.04200908914208412,-63.294620513916016,0.39821677307239395,-0.20521653439338733,0.5489153881596092,0.029820620027991303
-1.1054898500442505,-0.09578017890453339,-65.70282745361328,0.39821677307239395,-0.20521653439338733,0.5489153881596092,0.029820620027991303
-0.01862354949116707,1.323697805404663,-68.07803344726562,0.39821677307239395,-0.20521653439338733,0.5489153881596092,0.029820620027991303
-0.8776282072067261,-0.3685983717441559,-70.3972396850586,0.39821677307239395,-0.20521653439338733,0.5489153881596092,0.029820620027991303
-1.1018415689468384,-0.3170400857925415,-72.71839141845703,0.39821677307239395,-0.20521653439338733,0.5489153881596092,0.029820620027991303
-0.7070748209953308,0.4399997293949127,-75.08194732666016,0.39821677307239395,-0.20521653439338733,0.5489153881596092,0.029820620027991303
-0.9270739555358887,0.3964788615703583,-77.48877716064453,0.39821677307239395,-0.20521653439338733,0.5489153881596092,0.029820620027991303
-0.5073800683021545,0.43252673745155334,-80.0136489868164,0.39821677307239395,-0.20521653439338733,0.5489153881596092,0.029820620027991303
-1.2885609865188599,-0.40520796179771423,-82.52216339111328,0.39821677307239395,-0.20521653439338733,0.5489153881596092,0.029820620027991303
-0.08429349958896637,1.0997493267059326,-85.06356048583984,0.39821677307239395,-0.20521653439338733,0.5489153881596092,0.029820620027991303
