faccX,faccY,yaw,posX,posY,velX,velY
0,0,-87.04817962646484,0.0,0.0,0.0,0.0
0,0,-87.0479507446289,0.0,0.0,0.0,0.0
0,0,-87.04885864257812,0.0,0.0,0.0,0.0
0.06049605831503868,-0.24642792344093323,-87.05520629882812,4.201115160766575e-06,-1.7113050238953697e-05,0.000504133819291989,-0.0020535660286744436
-0.0808791071176529,-0.8886055946350098,-87.00609588623047,1.1187855982118182e-05,-0.00013016092280546826,0.0003342750792702039,-0.011512178679307303
0.89701247215271,-2.81070876121521,-86.88848876953125,7.343503543072276e-05,-0.0005789273977279664,0.007135386454562347,-0.042339798311392465
-0.39912015199661255,-2.9487431049346924,-86.6880111694336,0.00022693399857315753,-0.0016845526380671392,0.011284489122529825,-0.09033523052930831
0,-1.7036532163619995,-86.65335083007812,0.00038729214006000094,-0.0035132228914234367,0.007958487855891387,-0.1291051998734474
-0.4437686502933502,-0.5175948143005371,-86.63898468017578,0.0004891163369433747,-0.005819229558110236,0.0042604157701134696,-0.14761560012896854
0.7721983790397644,-1.578227162361145,-86.66358947753906,0.0005829308864971002,-0.00842503275308344,0.006997330176333588,-0.1650807832678159
-0.5126762986183167,-1.41851007938385,-86.67484283447266,0.0007175754227985939,-0.01138448589377933,0.009160014179845653,-0.19005359361569085
-0.44996291399002075,-1.3320515155792236,-86.61160278320312,0.000803392380475998,-0.014743057009246613,0.0011380207414428412,-0.21297494024038313
1.0187735557556152,-1.2227076292037964,-86.60846710205078,0.0008618601318448783,-0.018470053176085154,0.005878109422822795,-0.23426459978024164
-0.4610134959220886,-0.5324341654777527,-86.63491821289062,0.0009985619597136976,-0.0224963480192754,0.010526109921435517,-0.24889078140258789
0.09550939500331879,-1.489270806312561,-86.67682647705078,0.001148614895840486,-0.02678492388791508,0.007480242413779101,-0.2657383228341738
-0.14188864827156067,-1.6692132949829102,-86.66106414794922,0.0012700648212598431,-0.03143323510885238,0.007093748636543752,-0.2920590236783027
0.31371089816093445,-0.45776984095573425,-86.6856460571289,0.0014002260658890011,-0.036448592665708726,0.0085256007189552,-0.3097838831444581
0.07336771488189697,-0.47643283009529114,-86.70700073242188,0.0015691998704440067,-0.04167653257027268,0.011751255827645461,-0.31756890540321664
0,-0.5504463315010071,-86.6197509765625,0.0017701491144382295,-0.04704065871321492,0.012362653451661269,-0.32612623174985245
0.8503544330596924,-0.9893093705177307,-86.5119400024414,0.002035245729817285,-0.05258302338835265,0.019448940393825373,-0.3389575292666753
0.6751566529273987,-1.405610203742981,-86.5344467163086,0.002465333006241256,-0.0583986294021209,0.03216153277705113,-0.35891519238551456
-2.0229249000549316,-0.7971141338348389,-86.53245544433594,0.002907763535363807,-0.06453351624310016,0.020930130717655024,-0.3772712285319964
0.09881587326526642,-1.0013436079025269,-86.50785064697266,0.003122980364908775,-0.07094626295069853,0.0048958888277411475,-0.39225837637980776
0.4400859773159027,0.5887649655342102,-86.57919311523438,0.0032420022516614867,-0.07751255385163756,0.009386737582584223,-0.39569653173287705
-0.5770610570907593,-0.34794291853904724,-86.67381286621094,0.003388935719720192,-0.08409077229392196,0.00824527858446042,-0.3936896813412507
-0.33186691999435425,0.23153097927570343,-86.75086212158203,0.0034632370310525105,-0.09066035114539166,0.000670878775417807,-0.3946597808351119
1.2511470317840576,-2.303171396255493,-86.66709899902344,0.0035382572406282035,-0.09738187807715601,0.008331546373665335,-0.41192345097661015
0.7798144817352295,-0.20559287071228027,-86.5462417602539,0.003818155340850354,-0.10442148866752783,0.02525622565299273,-0.4328298198680083
-0.636409342288971,0.3028843402862549,-86.42462158203125,0.003818155340850354,-0.10442148866752783,0.02525622565299273,-0.4328298198680083
-0.12707389891147614,-0.28895092010498047,-86.32998657226562,0.003818155340850354,-0.10442148866752783,0.02525622565299273,-0.4328298198680083
0.007878469303250313,-0.4043906629085541,-86.3182144165039,0.003818155340850354,-0.10442148866752783,0.02525622565299273,-0.4328298198680083
-0.6434365510940552,-0.13430023193359375,-86.36520385742188,0.003818155340850354,-0.10442148866752783,0.02525622565299273,-0.4328298198680083
-0.28693971037864685,-1.058591604232788,-86.43436431884766,0.003818155340850354,-0.10442148866752783,0.02525622565299273,-0.4328298198680083
0.7222690582275391,-0.5343406796455383,-86.49252319335938,0.003818155340850354,-0.10442148866752783,0.02525622565299273,-0.4328298198680083
0.056050073355436325,0.4755711555480957,-86.4384994506836,0.003818155340850354,-0.10442148866752783,0.02525622565299273,-0.4328298198680083
0.12919069826602936,-0.29598212242126465,-86.35079193115234,0.003818155340850354,-0.10442148866752783,0.02525622565299273,-0.4328298198680083
-0.46445220708847046,0.19506686925888062,-86.26444244384766,0.003818155340850354,-0.10442148866752783,0.02525622565299273,-0.4328298198680083
0.030171113088726997,-0.2864421308040619,-86.1685791015625,0.003818155340850354,-0.10442148866752783,0.02525622565299273,-0.4328298198680083
0.8216978907585144,-0.6912749409675598,-86.01210021972656,0.003818155340850354,-0.10442148866752783,0.02525622565299273,-0.4328298198680083
-0.9047932624816895,0.8568136096000671,-86.03684997558594,0.003818155340850354,-0.10442148866752783,0.02525622565299273,-0.4328298198680083
0.28928592801094055,-0.5364500880241394,-86.13448333740234,0.003818155340850354,-0.10442148866752783,0.02525622565299273,-0.4328298198680083
0.12910768389701843,-0.2588549554347992,-86.15143585205078,0.003818155340850354,-0.10442148866752783,0.02525622565299273,-0.4328298198680083
0.06847687065601349,-0.45950910449028015,-86.00777435302734,0.003818155340850354,-0.10442148866752783,0.02525622565299273,-0.4328298198680083
-0.2581838369369507,-0.5188738107681274,-85.95246887207031,0.003818155340850354,-0.10442148866752783,0.02525622565299273,-0.4328298198680083
0.87421715259552,0.9228575229644775,-85.97055053710938,0.003818155340850354,-0.10442148866752783,0.02525622565299273,-0.4328298198680083
-0.1919991672039032,-0.1599074900150299,-85.94401550292969,0.003818155340850354,-0.10442148866752783,0.02525622565299273,-0.4328298198680083
0.7612860798835754,-0.10903255641460419,-85.84400177001953,0.003818155340850354,-0.10442148866752783,0.02525622565299273,-0.4328298198680083
1.059237003326416,0.13667131960391998,-85.87604522705078,0.003818155340850354,-0.10442148866752783,0.02525622565299273,-0.4328298198680083
-0.8400148749351501,3.5172171592712402,-85.63106536865234,0.003818155340850354,-0.10442148866752783,0.02525622565299273,-0.4328298198680083
-0.46226966381073,2.1102957725524902,-84.97432708740234,0.003818155340850354,-0.10442148866752783,0.02525622565299273,-0.4328298198680083
0.46528705954551697,1.1162914037704468,-83.99252319335938,0.003818155340850354,-0.10442148866752783,0.02525622565299273,-0.4328298198680083
0.03465398773550987,1.710144281387329,-82.74990844726562,0.003818155340850354,-0.10442148866752783,0.02525622565299273,-0.4328298198680083
0.29136136174201965,1.0651172399520874,-81.32848358154297,0.003818155340850354,-0.10442148866752783,0.02525622565299273,-0.4328298198680083
0.4541814923286438,1.4180152416229248,-79.77069854736328,0.003818155340850354,-0.10442148866752783,0.02525622565299273,-0.4328298198680083
0.12521381676197052,1.5246713161468506,-78.06690216064453,0.003818155340850354,-0.10442148866752783,0.02525622565299273,-0.4328298198680083
0.993543803691864,0.3479956090450287,-76.33826446533203,0.003818155340850354,-0.10442148866752783,0.02525622565299273,-0.4328298198680083
1.6131598949432373,0.7213630676269531,-74.5694580078125,0.003818155340850354,-0.10442148866752783,0.02525622565299273,-0.4328298198680083
-0.00826147198677063,1.1778476238250732,-72.7440414428711,0.003818155340850354,-0.10442148866752783,0.02525622565299273,-0.4328298198680083
1.5228052139282227,0.9502632021903992,-70.88538360595703,0.003818155340850354,-0.10442148866752783,0.02525622565299273,-0.4328298198680083
-0.9589840173721313,1.9817447662353516,-69.0357437133789,0.003818155340850354,-0.10442148866752783,0.02525622565299273,-0.4328298198680083
0.20019620656967163,0.24328552186489105,-67.20155334472656,0.003818155340850354,-0.10442148866752783,0.02525622565299273,-0.4328298198680083
0.7336676716804504,0.6901498436927795,-65.35687255859375,0.003818155340850354,-0.10442148866752783,0.02525622565299273,-0.4328298198680083
-0.14505524933338165,0.7247918844223022,-63.47772216796875,0.003818155340850354,-0.10442148866752783,0.02525622565299273,-0.4328298198680083
-0.880009114742279,0.08134648948907852,-61.62269973754883,0.003818155340850354,-0.10442148866752783,0.02525622565299273,-0.4328298198680083
-0.2266017198562622,1.274208903312683,-59.69157791137695,0.003818155340850354,-0.10442148866752783,0.02525622565299273,-0.4328298198680083
0.9998065233230591,0.6253757476806641,-57.7264518737793,0.003818155340850354,-0.10442148866752783,0.02525622565299273,-0.4328298198680083
-0.0988953486084938,0.648535430431366,-55.72097396850586,0.003818155340850354,-0.10442148866752783,0.02525622565299273,-0.4328298198680083
1.6496437788009644,0.16353023052215576,-53.674068450927734,0.003818155340850354,-0.10442148866752783,0.02525622565299273,-0.4328298198680083
0.35645201802253723,0.3428152799606323,-51.59119415283203,0.003818155340850354,-0.10442148866752783,0.02525622565299273,-0.4328298198680083
-1.3481770753860474,1.9389286041259766,-49.50271987915039,0.003818155340850354,-0.10442148866752783,0.02525622565299273,-0.4328298198680083
0.8204969763755798,-0.12391551584005356,-47.37709045410156,0.003818155340850354,-0.10442148866752783,0.02525622565299273,-0.4328298198680083
-0.12085118889808655,1.1118556261062622,-45.19618225097656,0.003818155340850354,-0.10442148866752783,0.02525622565299273,-0.4328298198680083
0.8537873029708862,0.4112050533294678,-42.9564323425293,0.003818155340850354,-0.10442148866752783,0.02525622565299273,-0.4328298198680083
0.8761762976646423,1.3465687036514282,-40.69062805175781,0.003818155340850354,-0.10442148866752783,0.02525622565299273,-0.4328298198680083
-1.7297974824905396,0.057137250900268555,-38.40251922607422,0.003818155340850354,-0.10442148866752783,0.02525622565299273,-0.4328298198680083
1.8094886541366577,0.31027019023895264,-36.051212310791016,0.003818155340850354,-0.10442148866752783,0.02525622565299273,-0.4328298198680083
-0.2201739400625229,1.2399166822433472,-33.785736083984375,0.003818155340850354,-0.10442148866752783,0.02525622565299273,-0.4328298198680083
1.1626051664352417,0.5962311625480652,-31.55504035949707,0.003818155340850354,-0.10442148866752783,0.02525622565299273,-0.4328298198680083
-0.15340274572372437,0.45152023434638977,-29.346656799316406,0.003818155340850354,-0.10442148866752783,0.02525622565299273,-0.4328298198680083
-1.8876854181289673,1.0940886735916138,-27.107263565063477,0.003818155340850354,-0.10442148866752783,0.02525622565299273,-0.4328298198680083
0.623588502407074,0.1612594872713089,-24.87714958190918,0.003818155340850354,-0.10442148866752783,0.02525622565299273,-0.4328298198680083
-0.2519150674343109,1.0764050483703613,-22.588560104370117,0.003818155340850354,-0.10442148866752783,0.02525622565299273,-0.4328298198680083
-0.534084677696228,-0.99078768491745,-20.325660705566406,0.003818155340850354,-0.10442148866752783,0.02525622565299273,-0.4328298198680083
0.34209880232810974,1.7233442068099976,-17.985122680664062,0.003818155340850354,-0.10442148866752783,0.02525622565299273,-0.4328298198680083
-0.3247978687286377,-0.05961350351572037,-15.72414779663086,0.003818155340850354,-0.10442148866752783,0.02525622565299273,-0.4328298198680083
0.13194392621517181,0.17219600081443787,-13.444093704223633,0.003818155340850354,-0.10442148866752783,0.02525622565299273,-0.4328298198680083
0.3862021863460541,0.3173315227031708,-11.150419235229492,0.003818155340850354,-0.10442148866752783,0.02525622565299273,-0.4328298198680083
-0.6480634212493896,0.4170948266983032,-8.804688453674316,0.003818155340850354,-0.10442148866752783,0.02525622565299273,-0.4328298198680083
0.2264237254858017,0.6177411079406738,-6.405472755432129,0.003818155340850354,-0.10442148866752783,0.02525622565299273,-0.4328298198680083
-0.8375108242034912,0.15005910396575928,-3.9741315841674805,0.003818155340850354,-0.10442148866752783,0.02525622565299273,-0.4328298198680083
0.22812941670417786,1.0670862197875977,-1.5347025394439697,0.003818155340850354,-0.10442148866752783,0.02525622565299273,-0.4328298198680083
0.568996012210846,0.2670833468437195,1.046160101890564,0.003818155340850354,-0.10442148866752783,0.02525622565299273,-0.4328298198680083
-0.517857015132904,1.3534952402114868,3.5943410396575928,0.003818155340850354,-0.10442148866752783,0.02525622565299273,-0.4328298198680083
-1.1118932962417603,-0.07914891093969345,6.160233974456787,0.003818155340850354,-0.10442148866752783,0.02525622565299273,-0.4328298198680083
0.7681334614753723,0.7005256414413452,8.7523193359375,0.003818155340850354,-0.10442148866752783,0.02525622565299273,-0.4328298198680083
-0.7404688596725464,0.36905837059020996,11.407443046569824,0.003818155340850354,-0.10442148866752783,0.02525622565299273,-0.4328298198680083
-0.24994657933712006,0.25630849599838257,14.183154106140137,0.003818155340850354,-0.10442148866752783,0.02525622565299273,-0.4328298198680083
-0.37457162141799927,-0.08205689489841461,16.988201141357422,0.003818155340850354,-0.10442148866752783,0.02525622565299273,-0.4328298198680083
-0.3254116475582123,-0.40870848298072815,19.7943172454834,0.003818155340850354,-0.10442148866752783,0.02525622565299273,-0.4328298198680083
0.5832777619361877,1.3032948970794678,22.669296264648438,0.003818155340850354,-0.10442148866752783,0.02525622565299273,-0.4328298198680083
-0.8634882569313049,-0.22126267850399017,25.57807731628418,0.003818155340850354,-0.10442148866752783,0.02525622565299273,-0.4328298198680083
-0.747103750705719,0.0835062712430954,28.465417861938477,0.003818155340850354,-0.10442148866752783,0.02525622565299273,-0.4328298198680083
-0.39667797088623047,0.05133458971977234,31.408689498901367,0.003818155340850354,-0.10442148866752783,0.02525622565299273,-0.4328298198680083
0.8418147563934326,2.5399255752563477,34.01592254638672,0.003818155340850354,-0.10442148866752783,0.02525622565299273,-0.4328298198680083
0.536424458026886,0.33073779940605164,36.31973648071289,0.003818155340850354,-0.10442148866752783,0.02525622565299273,-0.4328298198680083
1.0640569925308228,-2.6022562980651855,38.250606536865234,0.003818155340850354,-0.10442148866752783,0.02525622565299273,-0.4328298198680083
1.4974126815795898,-0.9239943027496338,39.78748321533203,0.003818155340850354,-0.10442148866752783,0.02525622565299273,-0.4328298198680083
0.007672281935811043,-1.3907201290130615,40.92955780029297,0.003818155340850354,-0.10442148866752783,0.02525622565299273,-0.4328298198680083
-0.24891863763332367,-1.4008538722991943,41.43407440185547,0.003818155340850354,-0.10442148866752783,0.02525622565299273,-0.4328298198680083
-0.2006969004869461,-1.5658661127090454,41.660614013671875,0.003818155340850354,-0.10442148866752783,0.02525622565299273,-0.4328298198680083
-1.0778523683547974,-1.994014024734497,41.81731414794922,0.003818155340850354,-0.10442148866752783,0.02525622565299273,-0.4328298198680083
-1.348034143447876,-1.076413631439209,41.887725830078125,0.003818155340850354,-0.10442148866752783,0.02525622565299273,-0.4328298198680083
-0.5193994641304016,-0.11625310033559799,41.885643005371094,0.003818155340850354,-0.10442148866752783,0.02525622565299273,-0.4328298198680083
0.5454419255256653,0.17871952056884766,41.91779708862305,0.003818155340850354,-0.10442148866752783,0.02525622565299273,-0.4328298198680083
0.6101545691490173,1.028201937675476,41.92837142944336,0.003818155340850354,-0.10442148866752783,0.02525622565299273,-0.4328298198680083
0.7654939293861389,0.13783471286296844,41.92664337158203,0.003818155340850354,-0.10442148866752783,0.02525622565299273,-0.4328298198680083
-0.38388505578041077,-0.1006532609462738,41.93103790283203,0.003818155340850354,-0.10442148866752783,0.02525622565299273,-0.4328298198680083
-0.0825454369187355,-0.26702508330345154,41.92533874511719,0.003818155340850354,-0.10442148866752783,0.02525622565299273,-0.4328298198680083
0.3536628782749176,0.313581258058548,41.92393493652344,0.003818155340850354,-0.10442148866752783,0.02525622565299273,-0.4328298198680083
0.36543864011764526,0.30175548791885376,41.927860260009766,0.003818155340850354,-0.10442148866752783,0.02525622565299273,-0.4328298198680083
0.13603651523590088,0.12128060311079025,41.92289733886719,0.003818155340850354,-0.10442148866752783,0.02525622565299273,-0.4328298198680083
0.04148625582456589,-0.04526977613568306,41.9272346496582,0.003818155340850354,-0.10442148866752783,0.02525622565299273,-0.4328298198680083
0.0954664871096611,0.09324467182159424,41.92767333984375,0.003818155340850354,-0.10442148866752783,0.02525622565299273,-0.4328298198680083
0.2912093698978424,0.18817880749702454,41.92882537841797,0.004265944925136865,-0.1116157757014864,0.028478524461388592,-0.4304846242070198
0.22796615958213806,0.20155107975006104,41.92717742919922,0.004776640855707229,-0.11876345486276679,0.032804987207055096,-0.4272368751466274
0.20107890665531158,0.06865675747394562,41.92142105102539,0.005353185438757971,-0.12586530501540336,0.03638036275903384,-0.42498514316976066
0.5968565940856934,1.1920719146728516,41.94533920288086,0.00601493700562666,-0.13286084013266694,0.04302982526520888,-0.4144790709018707
1.5483757257461548,1.7441693544387817,42.08080291748047,0.0068810752267017975,-0.1395649190040098,0.06090676126380762,-0.39001039365927376
1.9293421506881714,1.3775405883789062,42.14875793457031,0.00813769610029542,-0.14584830681896868,0.089887743567427,-0.363996144135793
2.750732898712158,1.2637039422988892,42.07345199584961,0.009960830371516448,-0.15173148946215706,0.12888836897909642,-0.3419857730468114
1.3147345781326294,1.9362766742706299,42.155242919921875,0.012391293984837832,-0.15720903147011991,0.16276726461946966,-0.31531926790873205
0.701681911945343,1.185263991355896,42.29376220703125,0.015244110651417741,-0.16224757894459693,0.17957073537011944,-0.289306429028511
0.7920922636985779,1.0986653566360474,42.36186599731445,0.01834069055867278,-0.16691074655701713,0.19201885350048545,-0.27027368446191147
1.6906641721725464,0.1700754165649414,42.49163055419922,0.02171341842506081,-0.1713272009665767,0.21270849046607815,-0.2597008446852366
0.44539424777030945,1.4085053205490112,42.546630859375,0.02540689732310259,-0.17554592471569772,0.23050897729893527,-0.24654600520928696
1.417026400566101,0.6435689926147461,42.57746505737305,0.029378048378663764,-0.1795125196418828,0.24602914936840536,-0.22944538593292232
1.7827024459838867,1.0147744417190552,42.60409927368164,0.033700737593592045,-0.1832214466689361,0.2726935564229886,-0.21562585731347397
0.06278521567583084,-0.4058054983615875,42.58549118041992,0.03837378906603489,-0.18677292144753863,0.2880726202701529,-0.2105511161188284
1.7754143476486206,1.1709747314453125,42.61601638793945,0.04330265215132386,-0.19022896996388827,0.3033909499645233,-0.2041747058431307
0.3446906805038452,0.47964778542518616,42.67865753173828,0.048506397499909835,-0.19351725516426888,0.3210584918657939,-0.19041951820254321
0.05021398141980171,1.5839745998382568,42.69426727294922,0.05388479629919554,-0.1965476066908902,0.32434936404849096,-0.17322266499201452
0.617808997631073,1.4317777156829834,42.65717315673828,0.05388479629919554,-0.1965476066908902,0.32434936404849096,-0.17322266499201452
1.368208408355713,-1.2916988134384155,42.63070297241211,0.05388479629919554,-0.1965476066908902,0.32434936404849096,-0.17322266499201452
0.5265344381332397,0.522143542766571,42.65626525878906,0.05388479629919554,-0.1965476066908902,0.32434936404849096,-0.17322266499201452
-0.2721106708049774,0.39676907658576965,42.63327407836914,0.05388479629919554,-0.1965476066908902,0.32434936404849096,-0.17322266499201452
-0.3452748954296112,-0.6434943675994873,42.41279602050781,0.05388479629919554,-0.1965476066908902,0.32434936404849096,-0.17322266499201452
-2.138716697692871,-2.2440996170043945,41.70866775512695,0.05388479629919554,-0.1965476066908902,0.32434936404849096,-0.17322266499201452
-1.3387657403945923,-1.513247013092041,40.74656677246094,0.05388479629919554,-0.1965476066908902,0.32434936404849096,-0.17322266499201452
-1.0591652393341064,-1.4286991357803345,39.65974044799805,0.05388479629919554,-0.1965476066908902,0.32434936404849096,-0.17322266499201452
0.5770457983016968,0.09385944902896881,38.4262809753418,0.05388479629919554,-0.1965476066908902,0.32434936404849096,-0.17322266499201452
-1.0131374597549438,-1.117628574371338,37.03468704223633,0.05388479629919554,-0.1965476066908902,0.32434936404849096,-0.17322266499201452
-1.9146090745925903,-1.4084653854370117,35.50442886352539,0.05388479629919554,-0.1965476066908902,0.32434936404849096,-0.17322266499201452
0.28333279490470886,-1.4881621599197388,33.88917541503906,0.05388479629919554,-0.1965476066908902,0.32434936404849096,-0.17322266499201452
-0.3348497748374939,-0.23700162768363953,32.20779800415039,0.05388479629919554,-0.1965476066908902,0.32434936404849096,-0.17322266499201452
0.4000450670719147,-0.9507966041564941,30.397729873657227,0.05388479629919554,-0.1965476066908902,0.32434936404849096,-0.17322266499201452
-1.6120266914367676,-0.5132131576538086,28.42001724243164,0.05388479629919554,-0.1965476066908902,0.32434936404849096,-0.17322266499201452
-0.4977441430091858,-1.093177318572998,26.322179794311523,0.05388479629919554,-0.1965476066908902,0.32434936404849096,-0.17322266499201452
-1.157392144203186,-0.8747957348823547,24.097448348999023,0.05388479629919554,-0.1965476066908902,0.32434936404849096,-0.17322266499201452
-0.05669932812452316,-1.0634186267852783,21.808584213256836,0.05388479629919554,-0.1965476066908902,0.32434936404849096,-0.17322266499201452
-0.983554482460022,-0.430046021938324,19.44920539855957,0.05388479629919554,-0.1965476066908902,0.32434936404849096,-0.17322266499201452
-0.09994296729564667,-0.7015990018844604,17.06691551208496,0.05388479629919554,-0.1965476066908902,0.32434936404849096,-0.17322266499201452
-0.3364286720752716,-0.2312236875295639,14.670997619628906,0.05388479629919554,-0.1965476066908902,0.32434936404849096,-0.17322266499201452
-0.20270191133022308,-0.3150649666786194,12.209939956665039,0.05388479629919554,-0.1965476066908902,0.32434936404849096,-0.17322266499201452
-0.7856345772743225,-0.43474113941192627,9.67192554473877,0.05388479629919554,-0.1965476066908902,0.32434936404849096,-0.17322266499201452
-0.3803561329841614,-0.42150336503982544,7.091278553009033,0.05388479629919554,-0.1965476066908902,0.32434936404849096,-0.17322266499201452
-0.7053064107894897,-1.511104702949524,4.519862174987793,0.05388479629919554,-0.1965476066908902,0.32434936404849096,-0.17322266499201452
-0.4933004677295685,0.3263365626335144,1.974308729171753,0.05388479629919554,-0.1965476066908902,0.32434936404849096,-0.17322266499201452
0.057491131126880646,0.6245231628417969,-0.582390308380127,0.05388479629919554,-0.1965476066908902,0.32434936404849096,-0.17322266499201452
-0.6103861927986145,-0.798132598400116,-3.1672744750976562,0.05388479629919554,-0.1965476066908902,0.32434936404849096,-0.17322266499201452
-0.8609095215797424,-0.14969207346439362,-5.734361171722412,0.05388479629919554,-0.1965476066908902,0.32434936404849096,-0.17322266499201452
-0.6805070638656616,1.0260268449783325,-37.27858352661133,0.05388479629919554,-0.1965476066908902,0.32434936404849096,-0.17322266499201452
0.506254255771637,-1.0238313674926758,-43.47975540161133,0.05388479629919554,-0.1965476066908902,0.32434936404849096,-0.17322266499201452
0.7096032500267029,0.6602479815483093,-59.259090423583984,0.05388479629919554,-0.1965476066908902,0.32434936404849096,-0.17322266499201452
-0.9054269790649414,-0.7393744587898254,-62.5032958984375,0.05388479629919554,-0.1965476066908902,0.32434936404849096,-0.17322266499201452
0.09558457881212234,0.879875898361206,-65.77875518798828,0.05388479629919554,-0.1965476066908902,0.32434936404849096,-0.17322266499201452
-0.1701732724905014,0.09159868210554123,-69.00426483154297,0.05388479629919554,-0.1965476066908902,0.32434936404849096,-0.17322266499201452
0.15703798830509186,-0.09083893150091171,-72.34553527832031,0.05388479629919554,-0.1965476066908902,0.32434936404849096,-0.17322266499201452
0.1707574427127838,0.7341376543045044,-75.65251159667969,0.05388479629919554,-0.1965476066908902,0.32434936404849096,-0.17322266499201452
-0.5888926982879639,1.128352403640747,-78.86589813232422,0.05388479629919554,-0.1965476066908902,0.32434936404849096,-0.17322266499201452
0.3012946844100952,1.01571786403656,-82.02779388427734,0.05388479629919554,-0.1965476066908902,0.32434936404849096,-0.17322266499201452
0.49697011709213257,0.456547349691391,-85.15254974365234,0.05388479629919554,-0.1965476066908902,0.32434936404849096,-0.17322266499201452
0.3171170651912689,0.8031731247901917,-88.2635269165039,0.05388479629919554,-0.1965476066908902,0.32434936404849096,-0.17322266499201452
0.40866804122924805,0.19638501107692719,-91.35575866699219,0.05388479629919554,-0.1965476066908902,0.32434936404849096,-0.17322266499201452
0.04700944572687149,0.5736842155456543,-94.28133392333984,0.05388479629919554,-0.1965476066908902,0.32434936404849096,-0.17322266499201452
0.9781930446624756,0.9175538420677185,-97.10293579101562,0.05388479629919554,-0.1965476066908902,0.32434936404849096,-0.17322266499201452
-1.0320552587509155,0.0309485774487257,-99.7818603515625,0.05388479629919554,-0.1965476066908902,0.32434936404849096,-0.17322266499201452
0.46435901522636414,0.44322288036346436,-102.4600601196289,0.05388479629919554,-0.1965476066908902,0.32434936404849096,-0.17322266499201452
0.7222854495048523,-0.192574143409729,-105.2205581665039,0.05388479629919554,-0.1965476066908902,0.32434936404849096,-0.17322266499201452
0.45896750688552856,0.1413547396659851,-110.69277954101562,0.05388479629919554,-0.1965476066908902,0.32434936404849096,-0.17322266499201452
-0.6473064422607422,0.34273257851600647,-113.38118743896484,0.05388479629919554,-0.1965476066908902,0.32434936404849096,-0.17322266499201452
0.9156894087791443,-1.3394602537155151,-118.8460693359375,0.05388479629919554,-0.1965476066908902,0.32434936404849096,-0.17322266499201452
-0.6864825487136841,1.043928861618042,-121.62232208251953,0.05388479629919554,-0.1965476066908902,0.32434936404849096,-0.17322266499201452
-0.6325046420097351,-0.19633451104164124,-135.52017211914062,0.05388479629919554,-0.1965476066908902,0.32434936404849096,-0.17322266499201452
1.2399641275405884,1.522714376449585,-138.42002868652344,0.05388479629919554,-0.1965476066908902,0.32434936404849096,-0.17322266499201452
0.18550661206245422,0.39243778586387634,-141.1588592529297,0.05388479629919554,-0.1965476066908902,0.32434936404849096,-0.17322266499201452
0.1313382089138031,0.5477167963981628,-143.85171508789062,0.05388479629919554,-0.1965476066908902,0.32434936404849096,-0.17322266499201452
0.30994370579719543,-0.4307459592819214,-149.2421417236328,0.05388479629919554,-0.1965476066908902,0.32434936404849096,-0.17322266499201452
1.2596083879470825,0.7603960037231445,-152.07798767089844,0.05388479629919554,-0.1965476066908902,0.32434936404849096,-0.17322266499201452
-0.5579447746276855,-0.19819293916225433,-154.908203125,0.05388479629919554,-0.1965476066908902,0.32434936404849096,-0.17322266499201452
0.13664460182189941,0.37510398030281067,-160.80894470214844,0.05388479629919554,-0.1965476066908902,0.32434936404849096,-0.17322266499201452
0.8434348702430725,0.49168702960014343,-163.80027770996094,0.05388479629919554,-0.1965476066908902,0.32434936404849096,-0.17322266499201452
1.1105947494506836,-0.3373035490512848,-166.85736083984375,0.05388479629919554,-0.1965476066908902,0.32434936404849096,-0.17322266499201452
0.17678508162498474,0.312801331281662,-169.87274169921875,0.05388479629919554,-0.1965476066908902,0.32434936404849096,-0.17322266499201452
0.8860011100769043,0.7691017389297485,168.21646118164062,0.05388479629919554,-0.1965476066908902,0.32434936404849096,-0.17322266499201452
0.505000114440918,0.8464900851249695,149.39784240722656,0.05388479629919554,-0.1965476066908902,0.32434936404849096,-0.17322266499201452
-0.654058575630188,1.1586062908172607,146.3559112548828,0.05388479629919554,-0.1965476066908902,0.32434936404849096,-0.17322266499201452
-1.038524866104126,0.5351598262786865,140.07627868652344,0.05388479629919554,-0.1965476066908902,0.32434936404849096,-0.17322266499201452
0.7237695455551147,-2.1061174869537354,136.98851013183594,0.05388479629919554,-0.1965476066908902,0.32434936404849096,-0.17322266499201452
1.0928401947021484,1.0981581211090088,133.89686584472656,0.05388479629919554,-0.1965476066908902,0.32434936404849096,-0.17322266499201452
-1.3329739570617676,-0.21435260772705078,130.86705017089844,0.05388479629919554,-0.1965476066908902,0.32434936404849096,-0.17322266499201452
1.0495679378509521,0.10302045941352844,127.83487701416016,0.05388479629919554,-0.1965476066908902,0.32434936404849096,-0.17322266499201452
0.7839070558547974,0.013044429011642933,121.7912368774414,0.05388479629919554,-0.1965476066908902,0.32434936404849096,-0.17322266499201452
0.6239535808563232,0.796825110912323,115.73451232910156,0.05388479629919554,-0.1965476066908902,0.32434936404849096,-0.17322266499201452
-0.5088616609573364,-1.5151771306991577,112.68075561523438,0.05388479629919554,-0.1965476066908902,0.32434936404849096,-0.17322266499201452
-0.06371820718050003,-0.7624408006668091,106.65540313720703,0.05388479629919554,-0.1965476066908902,0.32434936404849096,-0.17322266499201452
-0.3532836139202118,-1.4681618213653564,100.541015625,0.05388479629919554,-0.1965476066908902,0.32434936404849096,-0.17322266499201452
0.6018129587173462,0.9716213345527649,97.4724349975586,0.05388479629919554,-0.1965476066908902,0.32434936404849096,-0.17322266499201452
0.6470845937728882,0.13370861113071442,88.40699005126953,0.05388479629919554,-0.1965476066908902,0.32434936404849096,-0.17322266499201452
-0.2825026512145996,-0.9977554678916931,85.40198516845703,0.05388479629919554,-0.1965476066908902,0.32434936404849096,-0.17322266499201452
-0.5947575569152832,-0.7447974681854248,73.52840423583984,0.05388479629919554,-0.1965476066908902,0.32434936404849096,-0.17322266499201452
0.05930623039603233,0.10241364687681198,70.50238800048828,0.05388479629919554,-0.1965476066908902,0.32434936404849096,-0.17322266499201452
-2.4066169261932373,-0.9202451109886169,67.47245788574219,0.05388479629919554,-0.1965476066908902,0.32434936404849096,-0.17322266499201452
-0.586254358291626,0.5178825259208679,64.58251190185547,0.05388479629919554,-0.1965476066908902,0.32434936404849096,-0.17322266499201452
1.242748737335205,-0.36422622203826904,61.797515869140625,0.05388479629919554,-0.1965476066908902,0.32434936404849096,-0.17322266499201452
2.9561171531677246,0.6767880916595459,58.955360412597656,0.05388479629919554,-0.1965476066908902,0.32434936404849096,-0.17322266499201452
-2.566617012023926,-1.440539002418518,55.97684860229492,0.05388479629919554,-0.1965476066908902,0.32434936404849096,-0.17322266499201452
-0.004015597049146891,-0.41072651743888855,53.10263442993164,0.05388479629919554,-0.1965476066908902,0.32434936404849096,-0.17322266499201452
0.3402518332004547,0.14412027597427368,47.086761474609375,0.05388479629919554,-0.1965476066908902,0.32434936404849096,-0.17322266499201452
0.30480483174324036,-1.102065920829773,43.953487396240234,0.05388479629919554,-0.1965476066908902,0.32434936404849096,-0.17322266499201452
-0.44574058055877686,0.47156596183776855,40.75334167480469,0.05388479629919554,-0.1965476066908902,0.32434936404849096,-0.17322266499201452
0.00815359503030777,-0.42610132694244385,37.55821228027344,0.05388479629919554,-0.1965476066908902,0.32434936404849096,-0.17322266499201452
-1.213582992553711,-0.8560425639152527,34.43921661376953,0.05388479629919554,-0.1965476066908902,0.32434936404849096,-0.17322266499201452
0.1580011248588562,-0.5664073824882507,31.29814338684082,0.05388479629919554,-0.1965476066908902,0.32434936404849096,-0.17322266499201452
-0.8880509734153748,-0.06902799755334854,28.176822662353516,0.05388479629919554,-0.1965476066908902,0.32434936404849096,-0.17322266499201452
0.05977053567767143,-0.30961835384368896,25.087465286254883,0.05388479629919554,-0.1965476066908902,0.32434936404849096,-0.17322266499201452
-1.19101881980896,1.1390783786773682,21.837434768676758,0.05388479629919554,-0.1965476066908902,0.32434936404849096,-0.17322266499201452
-0.5929940342903137,-0.6887285113334656,18.57353973388672,0.05388479629919554,-0.1965476066908902,0.32434936404849096,-0.17322266499201452
0.28236281871795654,-0.08071677386760712,15.362717628479004,0.05388479629919554,-0.1965476066908902,0.32434936404849096,-0.17322266499201452
-1.5565872192382812,-0.34025540947914124,12.092106819152832,0.05388479629919554,-0.1965476066908902,0.32434936404849096,-0.17322266499201452
0.6776415109634399,-0.7112826108932495,8.770755767822266,0.05388479629919554,-0.1965476066908902,0.32434936404849096,-0.17322266499201452
0.3979577124118805,1.3135251998901367,-23.819080352783203,0.05388479629919554,-0.1965476066908902,0.32434936404849096,-0.17322266499201452
-0.5566803216934204,1.587917447090149,-27.067665100097656,0.05388479629919554,-0.1965476066908902,0.32434936404849096,-0.17322266499201452
-1.3300179243087769,0.900912880897522,-30.14149284362793,0.05388479629919554,-0.1965476066908902,0.32434936404849096,-0.17322266499201452
-1.1712223291397095,-1.0759310722351074,-53.3134880065918,0.05388479629919554,-0.1965476066908902,0.32434936404849096,-0.17322266499201452
0.5005031824111938,1.5297868251800537,-56.77635192871094,0.05388479629919554,-0.1965476066908902,0.32434936404849096,-0.17322266499201452
-0.8691853880882263,-0.6648421883583069,-60.205665588378906,0.05388479629919554,-0.1965476066908902,0.32434936404849096,-0.17322266499201452
-0.3874628245830536,0.500411331653595,-63.64872360229492,0.05388479629919554,-0.1965476066908902,0.32434936404849096,-0.17322266499201452
0.45368167757987976,1.0010178089141846,-67.11456298828125,0.05388479629919554,-0.1965476066908902,0.32434936404849096,-0.17322266499201452
0.6210315823554993,1.2114542722702026,-70.60201263427734,0.05388479629919554,-0.1965476066908902,0.32434936404849096,-0.17322266499201452
-0.7765060067176819,0.06849749386310577,-73.88258361816406,0.05388479629919554,-0.1965476066908902,0.32434936404849096,-0.17322266499201452
0.9384135603904724,1.4089795351028442,-77.12890625,0.05388479629919554,-0.1965476066908902,0.32434936404849096,-0.17322266499201452
-0.10575353354215622,-0.5223740935325623,-80.41645050048828,0.05388479629919554,-0.1965476066908902,0.32434936404849096,-0.17322266499201452
0.9872786402702332,1.825466513633728,-83.72054290771484,0.05388479629919554,-0.1965476066908902,0.32434936404849096,-0.17322266499201452
-0.8370387554168701,-1.0612008571624756,-86.86096954345703,0.05388479629919554,-0.1965476066908902,0.32434936404849096,-0.17322266499201452
0.8889376521110535,1.069907546043396,-90.06304168701172,0.05388479629919554,-0.1965476066908902,0.32434936404849096,-0.17322266499201452
-0.1855497509241104,0.16353699564933777,-93.1830062866211,0.05388479629919554,-0.1965476066908902,0.32434936404849096,-0.17322266499201452
1.0920063257217407,0.958007276058197,-96.13037109375,0.05388479629919554,-0.1965476066908902,0.32434936404849096,-0.17322266499201452
0.09391192346811295,0.7522591948509216,-104.9189682006836,0.05388479629919554,-0.1965476066908902,0.32434936404849096,-0.17322266499201452
0.2119266390800476,0.4641246199607849,-107.79527282714844,0.05388479629919554,-0.1965476066908902,0.32434936404849096,-0.17322266499201452
1.7164641618728638,0.4883025586605072,-110.67644500732422,0.05388479629919554,-0.1965476066908902,0.32434936404849096,-0.17322266499201452
-1.0933421850204468,-0.4788249731063843,-113.52587890625,0.05388479629919554,-0.1965476066908902,0.32434936404849096,-0.17322266499201452
-1.6160359382629395,-0.3553183376789093,-119.42718505859375,0.05388479629919554,-0.1965476066908902,0.32434936404849096,-0.17322266499201452
2.4454569816589355,1.2637633085250854,-122.31915283203125,0.05388479629919554,-0.1965476066908902,0.32434936404849096,-0.17322266499201452
0.9211937785148621,0.15646500885486603,-136.81024169921875,0.05388479629919554,-0.1965476066908902,0.32434936404849096,-0.17322266499201452
-0.6968529224395752,1.1053136587142944,-139.83248901367188,0.05388479629919554,-0.1965476066908902,0.32434936404849096,-0.17322266499201452
1.6847513914108276,0.2250257432460785,-142.91204833984375,0.05388479629919554,-0.1965476066908902,0.32434936404849096,-0.17322266499201452
0.6155678629875183,0.7017711400985718,-146.0475616455078,0.05388479629919554,-0.1965476066908902,0.32434936404849096,-0.17322266499201452
-1.5074501037597656,0.7429987192153931,-152.44058227539062,0.05388479629919554,-0.1965476066908902,0.32434936404849096,-0.17322266499201452
1.1367813348770142,0.5231941938400269,-155.60061645507812,0.05388479629919554,-0.1965476066908902,0.32434936404849096,-0.17322266499201452
0.036968693137168884,-0.1946689486503601,-164.74600219726562,0.05388479629919554,-0.1965476066908902,0.32434936404849096,-0.17322266499201452
-0.26403170824050903,0.44253140687942505,-167.8065948486328,0.05388479629919554,-0.1965476066908902,0.32434936404849096,-0.17322266499201452
0.8578742146492004,-0.49901267886161804,-170.85423278808594,0.05388479629919554,-0.1965476066908902,0.32434936404849096,-0.17322266499201452
0.8679764866828918,0.19176556169986725,-173.74539184570312,0.05388479629919554,-0.1965476066908902,0.32434936404849096,-0.17322266499201452
0.43628576397895813,0.24162691831588745,-176.66058349609375,0.05388479629919554,-0.1965476066908902,0.32434936404849096,-0.17322266499201452
0.8636206984519958,-0.5590225458145142,-179.60255432128906,0.05388479629919554,-0.1965476066908902,0.32434936404849096,-0.17322266499201452
0.1983354091644287,0.18442383408546448,174.7405548095703,0.05388479629919554,-0.1965476066908902,0.32434936404849096,-0.17322266499201452
-0.1596764326095581,-2.2077219486236572,166.1621856689453,0.05388479629919554,-0.1965476066908902,0.32434936404849096,-0.17322266499201452
1.0696357488632202,1.7292073965072632,159.96861267089844,0.05388479629919554,-0.1965476066908902,0.32434936404849096,-0.17322266499201452
0.8158227205276489,-0.5560372471809387,156.88499450683594,0.05388479629919554,-0.1965476066908902,0.32434936404849096,-0.17322266499201452
-0.6128692626953125,0.5730975866317749,153.8494110107422,0.05388479629919554,-0.1965476066908902,0.32434936404849096,-0.17322266499201452
0.6858996748924255,-0.5067142844200134,150.81976318359375,0.05388479629919554,-0.1965476066908902,0.32434936404849096,-0.17322266499201452
0.7605488300323486,-0.47979027032852173,147.83433532714844,0.05388479629919554,-0.1965476066908902,0.32434936404849096,-0.17322266499201452
0.8756313920021057,0.1514153778553009,141.77174377441406,0.05388479629919554,-0.1965476066908902,0.32434936404849096,-0.17322266499201452
-0.18126626312732697,0.060597896575927734,138.81423950195312,0.05388479629919554,-0.1965476066908902,0.32434936404849096,-0.17322266499201452
-0.04579927399754524,-0.19928410649299622,135.79855346679688,0.05388479629919554,-0.1965476066908902,0.32434936404849096,-0.17322266499201452
0.9217454791069031,-0.22018277645111084,132.8690185546875,0.05388479629919554,-0.1965476066908902,0.32434936404849096,-0.17322266499201452
0.38432615995407104,0.27076542377471924,129.93707275390625,0.05388479629919554,-0.1965476066908902,0.32434936404849096,-0.17322266499201452
0.6946771740913391,0.5586882829666138,126.93524169921875,0.05388479629919554,-0.1965476066908902,0.32434936404849096,-0.17322266499201452
0.4258436858654022,-1.3129968643188477,123.93736267089844,0.05388479629919554,-0.1965476066908902,0.32434936404849096,-0.17322266499201452
-0.9038968682289124,-1.2074415683746338,120.96587371826172,0.05388479629919554,-0.1965476066908902,0.32434936404849096,-0.17322266499201452
0.5416479706764221,0.03404044732451439,118.04200744628906,0.05388479629919554,-0.1965476066908902,0.32434936404849096,-0.17322266499201452
0.5060414671897888,0.3820675015449524,115.1595458984375,0.05388479629919554,-0.1965476066908902,0.32434936404849096,-0.17322266499201452
-0.11714880168437958,-1.5688705444335938,112.2271499633789,0.05388479629919554,-0.1965476066908902,0.32434936404849096,-0.17322266499201452
0.32900145649909973,0.36291685700416565,109.31041717529297,0.05388479629919554,-0.1965476066908902,0.32434936404849096,-0.17322266499201452
0.08111675083637238,-1.0829963684082031,106.36793518066406,0.05388479629919554,-0.1965476066908902,0.32434936404849096,-0.17322266499201452
-0.1371249556541443,-0.517917811870575,103.41444396972656,0.05388479629919554,-0.1965476066908902,0.32434936404849096,-0.17322266499201452
0.19706818461418152,0.5905295610427856,100.69462585449219,0.05388479629919554,-0.1965476066908902,0.32434936404849096,-0.17322266499201452
-0.9483973383903503,0.9275239109992981,98.4156265258789,0.05388479629919554,-0.1965476066908902,0.32434936404849096,-0.17322266499201452
-2.5290462970733643,2.4296319484710693,96.71979522705078,0.05388479629919554,-0.1965476066908902,0.32434936404849096,-0.17322266499201452
-2.5575759410858154,0.27913349866867065,95.55171203613281,0.05388479629919554,-0.1965476066908902,0.32434936404849096,-0.17322266499201452
-0.9053213000297546,0.39670321345329285,94.85897827148438,0.05388479629919554,-0.1965476066908902,0.32434936404849096,-0.17322266499201452
-0.8941700458526611,0.06444837152957916,94.49981689453125,0.05388479629919554,-0.1965476066908902,0.32434936404849096,-0.17322266499201452
-0.5742884874343872,-1.3197095394134521,94.2701187133789,0.05388479629919554,-0.1965476066908902,0.32434936404849096,-0.17322266499201452
0.14047054946422577,-0.8182039260864258,94.0438232421875,0.05388479629919554,-0.1965476066908902,0.32434936404849096,-0.17322266499201452
0.44594982266426086,-1.780327320098877,93.8936996459961,0.05388479629919554,-0.1965476066908902,0.32434936404849096,-0.17322266499201452
-0.5801187753677368,-1.0676738023757935,93.87397003173828,0.05928130174495487,-0.19963242896315117,0.3232312894426287,-0.19695600767930344
0.2253710776567459,-0.41156867146492004,93.93751525878906,0.06464385464554653,-0.20301775426293406,0.3202750586283704,-0.2092830282946427
0.07845617830753326,0.16962453722953796,93.99189758300781,0.07000287140435023,-0.2065226064105,0.3228069524280727,-0.2112992294132709
-0.06004827097058296,0.7473422288894653,94.07441711425781,0.07538426560504984,-0.20998058198640734,0.32296035165588066,-0.20365783969561255
0.35365453362464905,0.8413500189781189,94.07105255126953,0.08078732745644326,-0.21326455346412118,0.3254070705113312,-0.19041873763004935
-0.23865480720996857,0.5554167032241821,94.05233764648438,0.08621876472374425,-0.21634120140224686,0.3263654015647869,-0.17877901494503018
0.3529210090637207,-0.11481240391731262,94.05269622802734,0.09166612323606388,-0.21929025413054548,0.32731761991356817,-0.17510731245080627
-0.11288933455944061,-0.37054944038391113,94.02901458740234,0.09713808576757503,-0.22224241502169095,0.3293178838677705,-0.1791519944866498
0.13725580275058746,-0.19103717803955078,94.03401947021484,0.10262840928121782,-0.22526728066719232,0.32952093776936336,-0.183831882973512
0.05064575746655464,0.19663360714912415,94.04364776611328,0.10813347363016673,-0.22833075674250713,0.3310867841045062,-0.18378524606426555
0,0.3722345232963562,94.04783630371094,0.1136551037650659,-0.23135433944563064,0.33150883208339416,-0.1790446783105532
0.15831810235977173,0.24833451211452484,94.04376220703125,0.11919124527911969,-0.23429532234556966,0.3328281496030589,-0.1738732696821292
-0.09115438908338547,0.4446670413017273,94.04522705078125,0.12474304525259264,-0.237145085065729,0.33338784721369547,-0.16809825673699377
0.39481833577156067,1.4302328824996948,94.01791381835938,0.13032059714689648,-0.2398165212944149,0.3359183801027636,-0.15247409070531526
-0.17917875945568085,3.5175881385803223,93.99240112304688,0.13593421178585335,-0.24201415745748406,0.3377153765720626,-0.11124224886298179
-0.5636635422706604,3.1745619773864746,94.1109619140625,0.14151121512443451,-0.24340346229159163,0.3315250240576764,-0.05547433122992514
0.6418834328651428,0.7943220138549805,94.03919982910156,0.1470420641289093,-0.24405241753492082,0.3321768564792971,-0.022400297969579687
0.7986646890640259,1.101758360862732,94.02257537841797,0.1470420641289093,-0.24405241753492082,0.3321768564792971,-0.022400297969579687
-1.6298065185546875,1.5415489673614502,94.05426788330078,0.1470420641289093,-0.24405241753492082,0.3321768564792971,-0.022400297969579687
-0.07291772961616516,1.9552444219589233,94.10423278808594,0.1470420641289093,-0.24405241753492082,0.3321768564792971,-0.022400297969579687
0.9417924284934998,0.7256872057914734,94.16809844970703,0.1470420641289093,-0.24405241753492082,0.3321768564792971,-0.022400297969579687
-1.3452785015106201,1.1047731637954712,94.09917449951172,0.1470420641289093,-0.24405241753492082,0.3321768564792971,-0.022400297969579687
0.9372148513793945,2.346888542175293,94.20193481445312,0.1470420641289093,-0.24405241753492082,0.3321768564792971,-0.022400297969579687
-0.41877326369285583,0.3074309825897217,94.3850326538086,0.1470420641289093,-0.24405241753492082,0.3321768564792971,-0.022400297969579687
1.0488306283950806,-0.6302228569984436,94.38806915283203,0.1470420641289093,-0.24405241753492082,0.3321768564792971,-0.022400297969579687
0.17168685793876648,-0.3742896318435669,93.96478271484375,0.1470420641289093,-0.24405241753492082,0.3321768564792971,-0.022400297969579687
-0.018920229747891426,-0.9112750887870789,93.72859191894531,0.1470420641289093,-0.24405241753492082,0.3321768564792971,-0.022400297969579687
-0.5136886239051819,-1.2252694368362427,93.71990966796875,0.1470420641289093,-0.24405241753492082,0.3321768564792971,-0.022400297969579687
0.6361870169639587,-3.519845485687256,93.68693542480469,0.1470420641289093,-0.24405241753492082,0.3321768564792971,-0.022400297969579687
0.009270260110497475,-1.5452178716659546,93.56047058105469,0.1470420641289093,-0.24405241753492082,0.3321768564792971,-0.022400297969579687
0.35389038920402527,-0.4932197332382202,93.52813720703125,0.1470420641289093,-0.24405241753492082,0.3321768564792971,-0.022400297969579687
-0.00918839406222105,-1.5499244928359985,93.5765609741211,0.1470420641289093,-0.24405241753492082,0.3321768564792971,-0.022400297969579687
-0.12067177891731262,-0.488190621137619,93.55528259277344,0.1470420641289093,-0.24405241753492082,0.3321768564792971,-0.022400297969579687
0.139770969748497,-0.5158354640007019,93.57472229003906,0.1470420641289093,-0.24405241753492082,0.3321768564792971,-0.022400297969579687
0.049197208136320114,-1.1703376770019531,93.61768341064453,0.1470420641289093,-0.24405241753492082,0.3321768564792971,-0.022400297969579687
0.08025211095809937,-1.3864550590515137,93.54356384277344,0.1470420641289093,-0.24405241753492082,0.3321768564792971,-0.022400297969579687
0.12867575883865356,-1.284459114074707,93.49777221679688,0.1470420641289093,-0.24405241753492082,0.3321768564792971,-0.022400297969579687
0.10837234556674957,-0.8001368045806885,93.49040985107422,0.1470420641289093,-0.24405241753492082,0.3321768564792971,-0.022400297969579687
0.03086712583899498,-0.24269072711467743,93.52729034423828,0.1470420641289093,-0.24405241753492082,0.3321768564792971,-0.022400297969579687
0.10089390724897385,-0.4482310116291046,93.5286865234375,0.1470420641289093,-0.24405241753492082,0.3321768564792971,-0.022400297969579687
-0.017221810296177864,0.08883374184370041,93.51950073242188,0.1470420641289093,-0.24405241753492082,0.3321768564792971,-0.022400297969579687
0.16413910686969757,0.1470785140991211,93.53193664550781,0.1470420641289093,-0.24405241753492082,0.3321768564792971,-0.022400297969579687
-0.11115074157714844,0.2653343975543976,93.53424835205078,0.1470420641289093,-0.24405241753492082,0.3321768564792971,-0.022400297969579687
0.1376286745071411,0.20057909190654755,93.53035736083984,0.1470420641289093,-0.24405241753492082,0.3321768564792971,-0.022400297969579687
0.03592875599861145,0.19674044847488403,93.53750610351562,0.1470420641289093,-0.24405241753492082,0.3321768564792971,-0.022400297969579687
0.03154776245355606,0.010697019286453724,93.53759002685547,0.1470420641289093,-0.24405241753492082,0.3321768564792971,-0.022400297969579687
0.08190583437681198,-0.012865880504250526,93.5355453491211,0.1470420641289093,-0.24405241753492082,0.3321768564792971,-0.022400297969579687
0.06307213753461838,0.002973644295707345,93.53887176513672,0.1470420641289093,-0.24405241753492082,0.3321768564792971,-0.022400297969579687
0.04054304212331772,0.050847820937633514,93.53787994384766,0.1470420641289093,-0.24405241753492082,0.3321768564792971,-0.022400297969579687
0.06811539828777313,0.11487346142530441,93.539306640625,0.15258589079525947,-0.2444142474120275,0.33308234348272286,-0.02101928728322187
0,0.12058102339506149,93.54022979736328,0.15814199342263038,-0.24474821786085757,0.3336499718017876,-0.01905716657638549
0,0.0880083367228508,93.54002380371094,0.1637028262859935,-0.2450513519315669,0.3336499718017876,-0.01731892190873622
-0.0846567377448082,0.39082568883895874,93.55397033691406,0.16925778020923546,-0.24530674826715962,0.33294449898724754,-0.013328638362387808
-0.3917373716831207,2.617056369781494,93.66062927246094,0.17477377226809043,-0.24532001154135077,0.32897454807534815,0.0117370454594493
-0.47166576981544495,3.2791340351104736,93.8614273071289,0.18019672285118662,-0.24471493645002024,0.3217795218961934,0.060871965500215695
1.342905879020691,1.9719051122665405,93.85139465332031,0.18562021766815132,-0.24333574819533768,0.3290398561395705,0.10463062506169081
0.15965230762958527,1.7119263410568237,93.73710632324219,0.19120855958899488,-0.24133608281560648,0.3415611743616561,0.13532922050605217
-1.2829965353012085,1.2611949443817139,93.65049743652344,0.1968232358125453,-0.23887412905123903,0.3321999724643926,0.16010523121804
0.9413328766822815,1.429844617843628,93.61843872070312,0.2023361753773255,-0.23601883078356162,0.32935277530923485,0.18253056090325118
-0.15470974147319794,0.6787229776382446,93.59737396240234,0.20788001490575783,-0.23283022646326562,0.3359079681026439,0.20010195753226678
-0.24770960211753845,1.575642704963684,93.37188720703125,0.21345053525305255,-0.22933864066532494,0.3325544735727211,0.21888833822061618
0.42244288325309753,2.3754327297210693,93.3728256225586,0.21900524406823232,-0.22541612145646156,0.3340105842488508,0.2518139668429891
-0.607388973236084,1.0402687788009644,93.54093933105469,0.22455924366057547,-0.22098202051543103,0.33246936683232586,0.28027814608067275
0.5759243965148926,-0.978797197341919,93.77218627929688,0.23009821473439748,-0.21630644922092962,0.33220716202631595,0.2807904092594981
-0.8245298266410828,2.1500589847564697,94.00312042236328,0.23561773650218842,-0.21154527144247864,0.3301354501085977,0.29055092415461936
0.577673077583313,0.5928313136100769,94.17947387695312,0.24110285117420271,-0.20651227754695953,0.32807831053311626,0.3134083433076739
0.3590346872806549,1.7386243343353271,94.31297302246094,0.24110285117420271,-0.20651227754695953,0.32807831053311626,0.3134083433076739
-0.9712581038475037,0.7820191383361816,94.34114837646484,0.24110285117420271,-0.20651227754695953,0.32807831053311626,0.3134083433076739
-0.5642406940460205,-0.9733705520629883,94.30207824707031,0.24110285117420271,-0.20651227754695953,0.32807831053311626,0.3134083433076739
0.7447807788848877,1.5296980142593384,94.2947006225586,0.24110285117420271,-0.20651227754695953,0.32807831053311626,0.3134083433076739
-0.06654413789510727,1.0459927320480347,94.3103256225586,0.24110285117420271,-0.20651227754695953,0.32807831053311626,0.3134083433076739
-0.6125091314315796,1.058692455291748,94.2964859008789,0.24110285117420271,-0.20651227754695953,0.32807831053311626,0.3134083433076739
0.19781675934791565,0.520119309425354,94.23320007324219,0.24110285117420271,-0.20651227754695953,0.32807831053311626,0.3134083433076739
0.9548051953315735,0.20672981441020966,94.18685150146484,0.24110285117420271,-0.20651227754695953,0.32807831053311626,0.3134083433076739
0.6952896118164062,0.706092357635498,94.16168212890625,0.24110285117420271,-0.20651227754695953,0.32807831053311626,0.3134083433076739
-0.5689224004745483,0.7348334789276123,94.27835083007812,0.24110285117420271,-0.20651227754695953,0.32807831053311626,0.3134083433076739
-0.028147483244538307,0.3157198131084442,94.41683197021484,0.24110285117420271,-0.20651227754695953,0.32807831053311626,0.3134083433076739
-0.8893686532974243,0.8153469562530518,94.25899505615234,0.24110285117420271,-0.20651227754695953,0.32807831053311626,0.3134083433076739
0.8613216876983643,-0.09799457341432571,94.1209945678711,0.24110285117420271,-0.20651227754695953,0.32807831053311626,0.3134083433076739
-0.3313935101032257,0.1929464489221573,94.07850646972656,0.24110285117420271,-0.20651227754695953,0.32807831053311626,0.3134083433076739
0.8528087735176086,-0.9118079543113708,94.05219268798828,0.24110285117420271,-0.20651227754695953,0.32807831053311626,0.3134083433076739
0.254097580909729,0.797736406326294,94.04542541503906,0.24110285117420271,-0.20651227754695953,0.32807831053311626,0.3134083433076739
0.6429216265678406,-2.1235034465789795,92.67100524902344,0.24110285117420271,-0.20651227754695953,0.32807831053311626,0.3134083433076739
0.3161694407463074,-1.8250987529754639,85.96747589111328,0.24110285117420271,-0.20651227754695953,0.32807831053311626,0.3134083433076739
-0.33252954483032227,-1.6492578983306885,76.18208312988281,0.24110285117420271,-0.20651227754695953,0.32807831053311626,0.3134083433076739
-0.9077675342559814,-1.218341588973999,72.10710144042969,0.24110285117420271,-0.20651227754695953,0.32807831053311626,0.3134083433076739
-0.4320107102394104,-0.6993962526321411,67.7708740234375,0.24110285117420271,-0.20651227754695953,0.32807831053311626,0.3134083433076739
1.0399384498596191,-1.0672621726989746,65.45491790771484,0.24110285117420271,-0.20651227754695953,0.32807831053311626,0.3134083433076739
0.728003740310669,-0.4168245494365692,58.28251647949219,0.24110285117420271,-0.20651227754695953,0.32807831053311626,0.3134083433076739
-0.566290557384491,-1.1125946044921875,55.82637023925781,0.24110285117420271,-0.20651227754695953,0.32807831053311626,0.3134083433076739
0.8949792385101318,-0.06534361839294434,53.3258056640625,0.24110285117420271,-0.20651227754695953,0.32807831053311626,0.3134083433076739
-0.4558669328689575,-2.2307095527648926,50.836578369140625,0.24110285117420271,-0.20651227754695953,0.32807831053311626,0.3134083433076739
-0.43773290514945984,0.6284781694412231,48.397518157958984,0.24110285117420271,-0.20651227754695953,0.32807831053311626,0.3134083433076739
0.06303627043962479,-1.2082916498184204,45.937950134277344,0.24110285117420271,-0.20651227754695953,0.32807831053311626,0.3134083433076739
-0.9732027053833008,0.2457483857870102,43.51605987548828,0.24110285117420271,-0.20651227754695953,0.32807831053311626,0.3134083433076739
1.176929235458374,-1.1033493280410767,41.037109375,0.24110285117420271,-0.20651227754695953,0.32807831053311626,0.3134083433076739
-0.3088573217391968,-0.5683743357658386,38.52677917480469,0.24110285117420271,-0.20651227754695953,0.32807831053311626,0.3134083433076739
0.07874370366334915,-1.4258984327316284,36.085350036621094,0.24110285117420271,-0.20651227754695953,0.32807831053311626,0.3134083433076739
-2.1433053016662598,-0.1326322853565216,33.54134750366211,0.24110285117420271,-0.20651227754695953,0.32807831053311626,0.3134083433076739
0.6740158200263977,-0.44380709528923035,30.929262161254883,0.24110285117420271,-0.20651227754695953,0.32807831053311626,0.3134083433076739
-1.586777687072754,-0.26302850246429443,28.094520568847656,0.24110285117420271,-0.20651227754695953,0.32807831053311626,0.3134083433076739
1.4423813819885254,-1.3461167812347412,25.282012939453125,0.24110285117420271,-0.20651227754695953,0.32807831053311626,0.3134083433076739
0.35902220010757446,-1.2114756107330322,22.387144088745117,0.24110285117420271,-0.20651227754695953,0.32807831053311626,0.3134083433076739
-0.06061806157231331,-1.0865801572799683,19.41135597229004,0.24110285117420271,-0.20651227754695953,0.32807831053311626,0.3134083433076739
-1.2713357210159302,-0.3870583772659302,16.452409744262695,0.24110285117420271,-0.20651227754695953,0.32807831053311626,0.3134083433076739
0.35335642099380493,-0.5530906319618225,13.51919937133789,0.24110285117420271,-0.20651227754695953,0.32807831053311626,0.3134083433076739
-1.1807165145874023,-0.3381907343864441,10.610170364379883,0.24110285117420271,-0.20651227754695953,0.32807831053311626,0.3134083433076739
-0.5575432181358337,-0.1800219565629959,7.695728778839111,0.24110285117420271,-0.20651227754695953,0.32807831053311626,0.3134083433076739
-0.051991455256938934,-0.5001137852668762,4.72774076461792,0.24110285117420271,-0.20651227754695953,0.32807831053311626,0.3134083433076739
-0.5394817590713501,-0.010804361663758755,1.743318796157837,0.24110285117420271,-0.20651227754695953,0.32807831053311626,0.3134083433076739
-0.8670088052749634,0.07885152846574783,-1.1830239295959473,0.24110285117420271,-0.20651227754695953,0.32807831053311626,0.3134083433076739
-0.8314605355262756,0.6952708959579468,-4.2128729820251465,0.24110285117420271,-0.20651227754695953,0.32807831053311626,0.3134083433076739
0.39441677927970886,0.05515008792281151,-7.2862467765808105,0.24110285117420271,-0.20651227754695953,0.32807831053311626,0.3134083433076739
-1.5045630931854248,-0.003771955845877528,-10.431447982788086,0.24110285117420271,-0.20651227754695953,0.32807831053311626,0.3134083433076739
-0.03074231743812561,-0.5798543095588684,-13.42838191986084,0.24110285117420271,-0.20651227754695953,0.32807831053311626,0.3134083433076739
-1.183264136314392,0.6927360892295837,-16.490068435668945,0.24110285117420271,-0.20651227754695953,0.32807831053311626,0.3134083433076739
0.3821318447589874,-0.5016268491744995,-19.58432388305664,0.24110285117420271,-0.20651227754695953,0.32807831053311626,0.3134083433076739
-1.1004807949066162,0.7468412518501282,-22.813026428222656,0.24110285117420271,-0.20651227754695953,0.32807831053311626,0.3134083433076739
-0.8453314304351807,-0.3014802634716034,-26.020509719848633,0.24110285117420271,-0.20651227754695953,0.32807831053311626,0.3134083433076739
0.16681207716464996,-0.10129868984222412,-29.283220291137695,0.24110285117420271,-0.20651227754695953,0.32807831053311626,0.3134083433076739
-0.11218750476837158,0.8418521881103516,-32.6276741027832,0.24110285117420271,-0.20651227754695953,0.32807831053311626,0.3134083433076739
-0.7341873645782471,-0.7069068551063538,-35.92842102050781,0.24110285117420271,-0.20651227754695953,0.32807831053311626,0.3134083433076739
-0.9055421352386475,0.673891007900238,-39.1817512512207,0.24110285117420271,-0.20651227754695953,0.32807831053311626,0.3134083433076739
-0.39286184310913086,0.7525312304496765,-42.4145393371582,0.24110285117420271,-0.20651227754695953,0.32807831053311626,0.3134083433076739
0.6097044348716736,0.4477756917476654,-45.63808822631836,0.24110285117420271,-0.20651227754695953,0.32807831053311626,0.3134083433076739
-0.7562845349311829,-1.084162950515747,-48.95964431762695,0.24110285117420271,-0.20651227754695953,0.32807831053311626,0.3134083433076739
-1.8658469915390015,-1.293434500694275,-52.319488525390625,0.24110285117420271,-0.20651227754695953,0.32807831053311626,0.3134083433076739
1.2333852052688599,2.5309624671936035,-55.614349365234375,0.24110285117420271,-0.20651227754695953,0.32807831053311626,0.3134083433076739
-0.31849467754364014,0.0751725435256958,-58.86899185180664,0.24110285117420271,-0.20651227754695953,0.32807831053311626,0.3134083433076739
-0.0007228880422189832,-0.5292576551437378,-61.948211669921875,0.24110285117420271,-0.20651227754695953,0.32807831053311626,0.3134083433076739
2.313838481903076,-1.8007516860961914,-64.57460021972656,0.24110285117420271,-0.20651227754695953,0.32807831053311626,0.3134083433076739
2.4450912475585938,-1.4412975311279297,-66.88492584228516,0.24110285117420271,-0.20651227754695953,0.32807831053311626,0.3134083433076739
1.7574018239974976,-1.5638267993927002,-68.84867858886719,0.24110285117420271,-0.20651227754695953,0.32807831053311626,0.3134083433076739
1.088577151298523,0.20149634778499603,-70.47955322265625,0.24110285117420271,-0.20651227754695953,0.32807831053311626,0.3134083433076739
1.093572735786438,0.5731462836265564,-71.66797637939453,0.24110285117420271,-0.20651227754695953,0.32807831053311626,0.3134083433076739
0.8803102970123291,1.2386447191238403,-72.45993041992188,0.24110285117420271,-0.20651227754695953,0.32807831053311626,0.3134083433076739
0.6212465763092041,1.1369421482086182,-72.98253631591797,0.24110285117420271,-0.20651227754695953,0.32807831053311626,0.3134083433076739
-0.2655313014984131,0.932294487953186,-73.39969635009766,0.24110285117420271,-0.20651227754695953,0.32807831053311626,0.3134083433076739
0.04058237746357918,1.3597685098648071,-73.61975860595703,0.24110285117420271,-0.20651227754695953,0.32807831053311626,0.3134083433076739
0.15819403529167175,0.566614031791687,-73.70398712158203,0.24110285117420271,-0.20651227754695953,0.32807831053311626,0.3134083433076739
-0.29490581154823303,0.9197220206260681,-73.79278564453125,0.24656132914307016,-0.2011855873770804,0.32693904573097826,0.3257944770778219
-0.32357144355773926,0.7025498747825623,-73.7835464477539,0.2519673634292041,-0.19564302165526887,0.32178506860509515,0.33931340953956046
-0.22193223237991333,0,-73.76331329345703,0.2572925657062378,-0.18993900997719407,0.31723920463894806,0.34516799182941516
0,-0.533302366733551,-73.7763442993164,0.26256447382297166,-0.1842232449999492,0.31538976936911545,0.3407238054399689
0.15336115658283234,-0.9660930633544922,-73.78634643554688,0.26783162005944183,-0.17864863959192803,0.3166677790073057,0.32822884352256854
0,-0.28806427121162415,-73.78711700439453,0.2731200664565485,-0.17326525312589675,0.31794578864549594,0.3177775324011842
-0.2129061222076416,0.2900204062461853,-73.79293060302734,0.27840437778659793,-0.1679688250764996,0.31617157096043225,0.3177938335264722
-0.17904333770275116,0.11097565293312073,-73.79048156738281,0.28364668525677805,-0.16264441423583761,0.312905325461179,0.32113546735296644
-0.06574920564889908,-0.28964829444885254,-73.78314971923828,0.2888447745322872,-0.15730456426894898,0.3108653875999152,0.31964652867366866
0,-0.4528595507144928,-73.78553009033203,0.29402129840856017,-0.15202868516919085,0.31031747755284106,0.31345896329730744
-0.10707240551710129,-0.22867226600646973,-73.78832244873047,0.2991858207840577,-0.14685169771261913,0.3094252075068652,0.30777953149129944
-0.14400745928287506,0.05964939296245575,-73.79008483886719,0.30432547147411654,-0.14173377655394775,0.3073328753001987,0.306371007549266
0,-0.716126561164856,-73.79308319091797,0.30943768554444745,-0.13667318178702959,0.3061328131395081,0.3009003644809127
0.08286319673061371,-1.8087948560714722,-73.77068328857422,0.31454565348543445,-0.13183351747743358,0.30682333977892984,0.27985935267060996
1.6645245552062988,-2.538590908050537,-73.60513305664062,0.3197807221867456,-0.12747109672209855,0.3213849043784041,0.2436311379695932
0.9379969239234924,-2.704674005508423,-73.27252960205078,0.3253178679179919,-0.12377469337493582,0.3430725833711524,0.1999372636899352
-0.4889359176158905,-0.5765072107315063,-73.03594970703125,0.33106692909961577,-0.12067026545345357,0.34681475842371573,0.1725940868879358
                                                                                                                                                                                                                                                                                                                                                                                                                                                                                                                                                                                                                                                                                                                                                                                                                                                                                                                                                                                                                                                                                                                                                                                                                                                                                                                                           