faccX,faccY,yaw,posX,posY,velX,velY
0,0,-100.37850189208984,0.0,0.0,0.0,0.0
0,0,-100.3798828125,0.0,0.0,0.0,0.0
0,0,-100.38013458251953,0.0,0.0,0.0,0.0
0,-0.28388214111328125,-100.39185333251953,0.0,-1.9714037577311198e-05,0.0,-0.0023656845092773437
-0.39719855785369873,-0.7706971168518066,-100.38143920898438,-2.7583233184284632e-05,-0.0001323767834239536,-0.003309987982114156,-0.011153844992319743
-0.19051270186901093,-2.41949725151062,-100.39225006103516,-0.00012356298147804206,-0.0005398154755433401,-0.008207581813136737,-0.03773879806200663
-0.07830730080604553,-1.7915596961975098,-100.42610168457031,-0.000279024067438311,-0.0014612299535009597,-0.01044774850209554,-0.07283093929290771
-0.37719666957855225,-1.2166868448257446,-100.42491912841797,-0.00048478542930550044,-0.0028839849515093696,-0.014243614921967188,-0.0978996604681015
-0.8009137511253357,-0.6704978346824646,-100.51846313476562,-0.0008039922349982792,-0.004646700450943576,-0.024061201761166252,-0.11362619946400325
0,-1.0046995878219604,-100.65987396240234,-0.0012606312748458652,-0.006656803596350881,-0.03073548302054405,-0.12758617798487346
0.24030408263206482,-0.8317108154296875,-100.77242279052734,-0.0017562015416721505,-0.00891076839632458,-0.028732948998610175,-0.14288959801197051
-0.5086824297904968,-1.347940444946289,-100.81492614746094,-0.002253721410201656,-0.011443626367383532,-0.030969435224930442,-0.16105335851510366
0.13899119198322296,-1.2049399614334106,-100.82472229003906,-0.0027955516665760017,-0.014305132370856071,-0.03405019553999106,-0.18232736190160115
-0.4709513485431671,-0.9347059726715088,-100.8032455444336,-0.0033861077142258488,-0.017492508259084487,-0.036816530177990595,-0.20015774468580882
-0.23993143439292908,-0.4732217490673065,-100.720703125,-0.00404908341045181,-0.02092624342896872,-0.04274055336912473,-0.21189047570029895
0.9225425124168396,-0.7354354858398438,-100.78025817871094,-0.004714022419518895,-0.02454168588750892,-0.03705212771892548,-0.2219626193245252
-0.6210347414016724,-0.7592499852180481,-100.8677978515625,-0.005310619841847155,-0.028344860478407806,-0.03453956296046575,-0.23441833158334097
0.887430727481842,-1.5835299491882324,-100.79063415527344,-0.0058677795032660175,-0.03241452572246392,-0.032319596409797674,-0.2539414977033933
-0.7592476606369019,0,-100.80689239501953,-0.00639753784156508,-0.03675685137510299,-0.03125140418608984,-0.26713758061329523
-0.3733486235141754,-0.7252540588378906,-100.86710357666016,-0.006997047097732624,-0.04125950925052165,-0.040689706554015485,-0.2731813644369443
-0.727427065372467,-0.8919941186904907,-100.93727111816406,-0.007751651629805566,-0.045924840892354636,-0.049862837294737505,-0.28665843258301416
0.216199591755867,-1.0906076431274414,-100.95506286621094,-0.008618200825941233,-0.0508401621133089,-0.054123066241542506,-0.3031801139314969
-0.1888522505760193,-1.0425440073013306,-100.99319458007812,-0.009518352809051674,-0.05604129954344696,-0.05389517173171044,-0.32095637768507
-0.21129082143306732,0.6178888082504272,-101.00415802001953,-0.010444393384580811,-0.06142006244924333,-0.057229697331786164,-0.3244951710104942
0.12488177418708801,-1.0354938507080078,-101.05075073242188,-0.011404222301724885,-0.0668573156495889,-0.05794977272550266,-0.32797521303097404
0.1862853616476059,-0.8651829361915588,-101.05174255371094,-0.01234844301827252,-0.07245556064363982,-0.05535671326021355,-0.3438141862551371
-0.36776483058929443,0.7522080540657043,-100.99491119384766,-0.013283657646841474,-0.07819364255915084,-0.05686904216806095,-0.3447556436061859
0.14350886642932892,-1.0065333843231201,-100.90899658203125,-0.014247048347153598,-0.08395723143385515,-0.05873784186939399,-0.34687502135833104
-0.4315962493419647,-1.248901128768921,-100.89234161376953,-0.015246018446567986,-0.08989510918656984,-0.061138570060332624,-0.36567030896743136
1.1009265184402466,-0.47187647223472595,-100.94609069824219,-0.016218513345552816,-0.09610911278054117,-0.05556081781784694,-0.3800101223091284
-0.25310376286506653,0.9121803641319275,-101.09471893310547,-0.01708565039560199,-0.10241203815986712,-0.04849562818805377,-0.376340923209985
-0.1721418797969818,-0.2931498885154724,-101.27577209472656,-0.01708565039560199,-0.10241203815986712,-0.04849562818805377,-0.376340923209985
-0.44649556279182434,0.07614380866289139,-101.44291687011719,-0.017936871798915996,-0.10869945674668996,-0.05365094020962716,-0.37814930720875656
-0.6912302374839783,0.8485020995140076,-101.4229736328125,-0.01891006287187338,-0.11493773367876806,-0.06313198854525884,-0.3704439246406157
1.291048526763916,1.119671106338501,-101.38573455810547,-0.019920608633094364,-0.12097512039459411,-0.058133502801259354,-0.35404248125851145
0.307817667722702,-0.08326037228107452,-101.3248291015625,-0.02077846797183156,-0.12680385544792644,-0.044809617847204206,-0.34540572514136625
-1.570635199546814,-0.2928648293018341,-101.3432846069336,-0.021612990597883863,-0.13258673733928136,-0.055333097279071805,-0.3485401018212238
0.37486428022384644,-0.6440216302871704,-101.36497497558594,-0.0226182485330436,-0.13846080059599544,-0.06529785494009653,-0.3563474889844655
1.024341106414795,-0.9558024406433105,-101.36808013916016,-0.023609379074639746,-0.14451102430621782,-0.053637810051441186,-0.3696793562422195
-1.089461326599121,-0.7340362071990967,-101.3052749633789,-0.0245078648130099,-0.15078969681635498,-0.05418047855297724,-0.3837613449742395
-0.22687125205993652,0.1931580752134323,-101.27875518798828,-0.025502284773521955,-0.15722328021398022,-0.06514991670846938,-0.38826866274078675
0.24051044881343842,-0.294039249420166,-101.4544448852539,-0.026587169552221894,-0.163701430230091,-0.06503625673552353,-0.3891093391925095
0,0.13837553560733795,-101.63178253173828,-0.027654405049979687,-0.1701973958634254,-0.06303200299541155,-0.3904065368076164
0.23764710128307343,-0.2053694874048233,-101.70354461669922,-0.028688435162314112,-0.17670882383464936,-0.06105161048471927,-0.3909648197392621
-0.4537898004055023,-0.5006110072135925,-101.75283813476562,-0.02972097191338738,-0.18327393058687447,-0.06285279964407285,-0.39684799052774894
-0.7772268652915955,-0.47838836908340454,-101.7572250366211,-0.030854005842573112,-0.18995604983013537,-0.07311127185821534,-0.40500631866355724
0.2566329836845398,-0.7580360174179077,-101.7585220336914,-0.032108679393099415,-0.1967920179458128,-0.0774495542049408,-0.41530985521773484
-0.512205183506012,0.5837473273277283,-101.87002563476562,-0.03341725336594714,-0.20372595224736464,-0.0795793225367864,-0.41676226096848634
-0.27656278014183044,0.4489232897758484,-101.9102554321289,-0.03341725336594714,-0.20372595224736464,-0.0795793225367864,-0.41676226096848634
1.3119964599609375,-0.12196908891201019,-101.88985443115234,-0.03467167029157281,-0.210649284777335,-0.07095070853829384,-0.41403764262795434
0.2759781777858734,-0.22035641968250275,-101.95066833496094,-0.03574390608403418,-0.21757368475923108,-0.05771758655707042,-0.4168903551995753
-0.2558422386646271,0.6870170831680298,-102.09017944335938,-0.03670446753087971,-0.22448945035537085,-0.057549787064393364,-0.4130015163371959
-0.5642644762992859,-0.3140196204185486,-102.22003173828125,-0.03772058250382543,-0.23134690635941096,-0.06438400968909264,-0.4098932041476169
0.20937539637088776,0.264215886592865,-102.24202728271484,-0.038818294406972,-0.23818191835449803,-0.06734141868849595,-0.4103082352628309
-0.21203143894672394,-1.325200080871582,-102.31427764892578,-0.0399408358325147,-0.2450940684001479,-0.06736355237662792,-0.41914977021515354
-0.4955262243747711,-0.48707038164138794,-102.34970092773438,-0.04111269765430026,-0.2522057500191861,-0.07325986623764037,-0.4342520240694283
0.0669177696108818,-0.30947598814964294,-102.292724609375,-0.042363459900952874,-0.25949859947380094,-0.07683160336067278,-0.44088991048435355
0.14307722449302673,0.6060096025466919,-102.234619140625,-0.043629403637929096,-0.2668261720364293,-0.07508164507647354,-0.4384187970310448
-0.08905883878469467,0.3510999381542206,-102.16996765136719,-0.04487701311241835,-0.2740666860466202,-0.07463149186223744,-0.43044288419187055
0.22764264047145844,-0.21566404402256012,-102.2420654296875,-0.04611124743500517,-0.2812313288460589,-0.07347662684818108,-0.42931425174077337
0.5533965826034546,0.2136068344116211,-102.5722885131836,-0.0472816190475391,-0.28838670923685034,-0.06696796665589014,-0.4293313951541979
0.4347819983959198,-0.2816048860549927,-102.81578063964844,-0.048329128312567866,-0.29554695457634,-0.05873314514756202,-0.4298980455845593
-0.6834021806716919,-1.232454776763916,-102.85663604736328,-0.04932527935546305,-0.30281706503488953,-0.06080497999986012,-0.44251520944138356
-0.5293329954147339,0.08144833147525787,-102.73170471191406,-0.04932527935546305,-0.30281706503488953,-0.06080497999986012,-0.44251520944138356
0,-0.29890477657318115,-102.60379028320312,-0.05037545492458674,-0.31020741966759996,-0.0652160882949829,-0.44432734648386624
-0.34861791133880615,0.8113181591033936,-102.50951385498047,-0.051486599306679426,-0.31757729117965533,-0.06812123755613962,-0.44005723496278115
0.724107027053833,2.929903745651245,-102.52249908447266,-0.05259587763291265,-0.32465177135231593,-0.06499216159184773,-0.4088803857564925
0.23654848337173462,1.704513430595398,-102.66844940185547,-0.05361236813788612,-0.33114460992212924,-0.056986699004968,-0.3702602426211038
-0.47324103116989136,-0.32761502265930176,-102.72705841064453,-0.05457858343712157,-0.33721999602081876,-0.05895913690328597,-0.35878608922163635
1.090279221534729,-1.1534501314163208,-102.80181884765625,-0.05551838584451211,-0.3433026159213235,-0.05381715198357899,-0.3711282988389332
-1.0659139156341553,-1.1212496757507324,-102.91114807128906,-0.056413646342439776,-0.34964605283302563,-0.05361410776774087,-0.3900841305653253
0.1519058495759964,-0.5651148557662964,-102.97262573242188,-0.057370687587600604,-0.3562645636571364,-0.061230841651558864,-0.4041371683279672
0,-0.4832818806171417,-103.10315704345703,-0.058380652597794916,-0.3630729884581847,-0.059964959571758895,-0.4128738077978292
-0.7838035225868225,0.06617295742034912,-103.14781188964844,-0.059434499390837205,-0.36998318448559275,-0.06649665559331575,-0.41634971549113575
-0.3849940001964569,0.3420600891113281,-103.09913635253906,-0.06062394347869686,-0.37689399689332476,-0.07623663494984308,-0.41294777343670513
0.09156209975481033,-0.30915725231170654,-103.18525695800781,-0.061914931276502695,-0.3837741748647143,-0.0786819007868568,-0.4126735831300416
0.0770314484834671,0.5583412051200867,-103.31591796875,-0.06321458840432265,-0.3906347634757144,-0.07727695455153782,-0.4105970501899718
0.1728338599205017,0.48994922637939453,-103.35739135742188,-0.06448518588932023,-0.3974052496989154,-0.07519474364817141,-0.40186129659414277
0.3513426184654236,-0.7458550930023193,-103.29690551757812,-0.0657020304724574,-0.4041207092162221,-0.0708266063282887,-0.40399384548266715
0.030179763212800026,0.5333675146102905,-103.2701187133789,-0.0657020304724574,-0.4041207092162221,-0.0708266063282887,-0.40399384548266715
-0.6272823214530945,-0.6472463607788086,-103.28739929199219,-0.06692393936669556,-0.41086184822747274,-0.07580246098029116,-0.4049428358674048
0.26778125762939453,-0.5239280462265015,-103.2556381225586,-0.0682122790680215,-0.41769222704797154,-0.07879830317882199,-0.41470262259244906
0.6343979239463806,0.44752946496009827,-103.21334075927734,-0.069462932788948,-0.4246092428815447,-0.07128014333235719,-0.41533927743633575
0,1.3763290643692017,-103.2014389038086,-0.07060687976643545,-0.4314049073298358,-0.06599349396613735,-0.4001404563585916
0.6793044209480286,0.5643361806869507,-103.21734619140625,-0.07165959741441635,-0.43793914651601673,-0.06033262379157045,-0.3839682459831236
-0.9774557948112488,0.2542397379875183,-103.19395446777344,-0.07268584610079414,-0.44428177173249417,-0.06281721857376395,-0.37714677999416973
-0.3771154284477234,-0.086448073387146,-103.28860473632812,-0.07382686718974985,-0.45055589920013306,-0.07410531210092206,-0.3757485161225
0.0683215856552124,-1.101045846939087,-103.35799407958984,-0.0750833997416258,-0.4569008393244196,-0.07667859412419298,-0.3856442987918853
1.2519179582595825,-0.8086568713188171,-103.55651092529297,-0.0762696930087016,-0.4634608625486078,-0.06567659792490302,-0.40155848811070116
0.4707914888858795,0.5576525926589966,-103.6977767944336,-0.07724467037362043,-0.4701709348698042,-0.0513206858653575,-0.4036501904328663
-1.220679521560669,-1.5364936590194702,-103.69072723388672,-0.07815209069586769,-0.47696641311773813,-0.057569752804314075,-0.4118071993192036
-0.22463643550872803,0.4295065701007843,-103.48462677001953,-0.07921195573962497,-0.483906740543122,-0.06961405244655905,-0.42103209172685935
-0.5668303966522217,0.29952555894851685,-103.336181640625,-0.08042715292152325,-0.490873314840719,-0.07620960938123363,-0.41495682398478184
0.08834701776504517,0,-103.23921966552734,-0.08173054109029987,-0.49776846152109394,-0.0801969708719601,-0.4124607776602109
0.43353426456451416,0.2590188682079315,-103.19866180419922,-0.08303091551578187,-0.5046248203940275,-0.07584796018588043,-0.41030228709181144
0.33038294315338135,0.4836266040802002,-103.27426147460938,-0.08303091551578187,-0.5046248203940275,-0.07584796018588043,-0.41030228709181144
-0.4527997672557831,-0.46997779607772827,-103.42272186279297,-0.08303091551578187,-0.5046248203940275,-0.07584796018588043,-0.41030228709181144
-0.02623245306313038,0.04305727034807205,-103.54557800292969,-0.08303091551578187,-0.5046248203940275,-0.07584796018588043,-0.41030228709181144
1.1447887420654297,0.4976799786090851,-103.62633514404297,-0.08303091551578187,-0.5046248203940275,-0.07584796018588043,-0.41030228709181144
-0.6230816841125488,2.5238990783691406,-103.86154174804688,-0.08303091551578187,-0.5046248203940275,-0.07584796018588043,-0.41030228709181144
0.7533851861953735,2.824037790298462,-104.35045623779297,-0.08303091551578187,-0.5046248203940275,-0.07584796018588043,-0.41030228709181144
-0.17707611620426178,1.7709612846374512,-105.01033020019531,-0.08303091551578187,-0.5046248203940275,-0.07584796018588043,-0.41030228709181144
-0.8799351453781128,1.3431591987609863,-105.98439025878906,-0.08303091551578187,-0.5046248203940275,-0.07584796018588043,-0.41030228709181144
0.2908041179180145,2.6324005126953125,-107.34706115722656,-0.08303091551578187,-0.5046248203940275,-0.07584796018588043,-0.41030228709181144
0.0831567794084549,1.3888574838638306,-108.87860870361328,-0.08303091551578187,-0.5046248203940275,-0.07584796018588043,-0.41030228709181144
0.5943695306777954,1.5327203273773193,-110.4108657836914,-0.08303091551578187,-0.5046248203940275,-0.07584796018588043,-0.41030228709181144
-0.49389082193374634,1.2659132480621338,-111.98958587646484,-0.08303091551578187,-0.5046248203940275,-0.07584796018588043,-0.41030228709181144
0.6562762260437012,1.6389561891555786,-113.59899139404297,-0.08303091551578187,-0.5046248203940275,-0.07584796018588043,-0.41030228709181144
-1.5322242975234985,1.0076733827590942,-115.2354965209961,-0.08303091551578187,-0.5046248203940275,-0.07584796018588043,-0.41030228709181144
-1.1961684226989746,0.7595766186714172,-116.8507308959961,-0.08303091551578187,-0.5046248203940275,-0.07584796018588043,-0.41030228709181144
-0.2110666185617447,0.5454179644584656,-118.52531433105469,-0.08303091551578187,-0.5046248203940275,-0.07584796018588043,-0.41030228709181144
-0.6652044057846069,1.341469407081604,-120.19414520263672,-0.08303091551578187,-0.5046248203940275,-0.07584796018588043,-0.41030228709181144
-0.31519410014152527,1.257577896118164,-121.87918090820312,-0.08303091551578187,-0.5046248203940275,-0.07584796018588043,-0.41030228709181144
-0.6986487507820129,1.1296042203903198,-123.56981658935547,-0.08303091551578187,-0.5046248203940275,-0.07584796018588043,-0.41030228709181144
-0.21218253672122955,0.8159322738647461,-125.22661590576172,-0.08303091551578187,-0.5046248203940275,-0.07584796018588043,-0.41030228709181144
0.8270877599716187,0.9644593000411987,-126.89131164550781,-0.08303091551578187,-0.5046248203940275,-0.07584796018588043,-0.41030228709181144
-0.9506712555885315,0.9498912692070007,-128.60841369628906,-0.08303091551578187,-0.5046248203940275,-0.07584796018588043,-0.41030228709181144
0.47220295667648315,-0.10101672261953354,-130.31478881835938,-0.08303091551578187,-0.5046248203940275,-0.07584796018588043,-0.41030228709181144
-0.4989663064479828,-0.5565769672393799,-132.10984802246094,-0.08303091551578187,-0.5046248203940275,-0.07584796018588043,-0.41030228709181144
-0.02581026591360569,0.4800061881542206,-133.90521240234375,-0.08303091551578187,-0.5046248203940275,-0.07584796018588043,-0.41030228709181144
0.19453004002571106,0.39274999499320984,-135.68312072753906,-0.08303091551578187,-0.5046248203940275,-0.07584796018588043,-0.41030228709181144
1.083653211593628,0.35850661993026733,-137.35101318359375,-0.08303091551578187,-0.5046248203940275,-0.07584796018588043,-0.41030228709181144
-0.41904765367507935,0.765690803527832,-139.153076171875,-0.08303091551578187,-0.5046248203940275,-0.07584796018588043,-0.41030228709181144
1.055294394493103,0.29784315824508667,-141.03831481933594,-0.08303091551578187,-0.5046248203940275,-0.07584796018588043,-0.41030228709181144
-0.09625463932752609,0.8220334053039551,-142.97705078125,-0.08303091551578187,-0.5046248203940275,-0.07584796018588043,-0.41030228709181144
0.18432050943374634,0.9607925415039062,-144.91856384277344,-0.08303091551578187,-0.5046248203940275,-0.07584796018588043,-0.41030228709181144
0.023889025673270226,0.6189454793930054,-146.8998565673828,-0.08303091551578187,-0.5046248203940275,-0.07584796018588043,-0.41030228709181144
-0.026967637240886688,0.7223615050315857,-148.9208984375,-0.08303091551578187,-0.5046248203940275,-0.07584796018588043,-0.41030228709181144
0.274163156747818,0.7973922491073608,-150.9481658935547,-0.08303091551578187,-0.5046248203940275,-0.07584796018588043,-0.41030228709181144
-0.15005531907081604,0.6703410744667053,-152.9901580810547,-0.08303091551578187,-0.5046248203940275,-0.07584796018588043,-0.41030228709181144
0.3165443241596222,0.4038679897785187,-155.02723693847656,-0.08303091551578187,-0.5046248203940275,-0.07584796018588043,-0.41030228709181144
4.582699775695801,-2.7325711250305176,-156.97811889648438,-0.08303091551578187,-0.5046248203940275,-0.07584796018588043,-0.41030228709181144
-3.1908328533172607,1.245774745941162,-158.5967559814453,-0.08303091551578187,-0.5046248203940275,-0.07584796018588043,-0.41030228709181144
0.6531829833984375,-2.5804924964904785,-160.09486389160156,-0.08303091551578187,-0.5046248203940275,-0.07584796018588043,-0.41030228709181144
-1.1350327730178833,3.330404281616211,-161.67262268066406,-0.08303091551578187,-0.5046248203940275,-0.07584796018588043,-0.41030228709181144
2.7606141567230225,-2.7774901390075684,-163.41400146484375,-0.08303091551578187,-0.5046248203940275,-0.07584796018588043,-0.41030228709181144
-0.01871585100889206,2.9165613651275635,-165.14308166503906,-0.08303091551578187,-0.5046248203940275,-0.07584796018588043,-0.41030228709181144
0.4563724994659424,-1.8302206993103027,-166.77320861816406,-0.08303091551578187,-0.5046248203940275,-0.07584796018588043,-0.41030228709181144
0.5020267963409424,0.6318931579589844,-168.50851440429688,-0.08303091551578187,-0.5046248203940275,-0.07584796018588043,-0.41030228709181144
0.16500118374824524,-0.1242060512304306,-170.2662353515625,-0.08303091551578187,-0.5046248203940275,-0.07584796018588043,-0.41030228709181144
-0.24415569007396698,1.9267617464065552,-172.05442810058594,-0.08303091551578187,-0.5046248203940275,-0.07584796018588043,-0.41030228709181144
0.5890816450119019,0.6148727536201477,-173.97378540039062,-0.08303091551578187,-0.5046248203940275,-0.07584796018588043,-0.41030228709181144
-0.012389631941914558,0.5783160328865051,-175.95217895507812,-0.08303091551578187,-0.5046248203940275,-0.07584796018588043,-0.41030228709181144
-0.22128108143806458,1.6174819469451904,-177.96575927734375,-0.08303091551578187,-0.5046248203940275,-0.07584796018588043,-0.41030228709181144
-0.3841855823993683,0.5787404775619507,179.97232055664062,-0.08303091551578187,-0.5046248203940275,-0.07584796018588043,-0.41030228709181144
-0.26568204164505005,0.7393458485603333,177.9285888671875,-0.08303091551578187,-0.5046248203940275,-0.07584796018588043,-0.41030228709181144
0.2730770707130432,0.9796060919761658,175.8413543701172,-0.08303091551578187,-0.5046248203940275,-0.07584796018588043,-0.41030228709181144
0.19816459715366364,-0.7222590446472168,173.71620178222656,-0.08303091551578187,-0.5046248203940275,-0.07584796018588043,-0.41030228709181144
0.5184676647186279,0.6622442007064819,171.60226440429688,-0.08303091551578187,-0.5046248203940275,-0.07584796018588043,-0.41030228709181144
1.0052564144134521,0.21834102272987366,169.59677124023438,-0.08303091551578187,-0.5046248203940275,-0.07584796018588043,-0.41030228709181144
0.2352573275566101,-0.6717969179153442,167.94183349609375,-0.08303091551578187,-0.5046248203940275,-0.07584796018588043,-0.41030228709181144
-0.22286434471607208,-0.792736291885376,166.65809631347656,-0.08303091551578187,-0.5046248203940275,-0.07584796018588043,-0.41030228709181144
-0.6983776688575745,-1.5158363580703735,165.69403076171875,-0.08303091551578187,-0.5046248203940275,-0.07584796018588043,-0.41030228709181144
-0.8218134045600891,-0.7112159132957458,165.123779296875,-0.08303091551578187,-0.5046248203940275,-0.07584796018588043,-0.41030228709181144
-0.14120078086853027,-0.4673587679862976,164.94839477539062,-0.08303091551578187,-0.5046248203940275,-0.07584796018588043,-0.41030228709181144
0.48220136761665344,-0.7576704025268555,164.94342041015625,-0.08303091551578187,-0.5046248203940275,-0.07584796018588043,-0.41030228709181144
1.0971407890319824,0.6249794960021973,164.95152282714844,-0.08303091551578187,-0.5046248203940275,-0.07584796018588043,-0.41030228709181144
1.0547678470611572,-0.49463245272636414,164.9500274658203,-0.08303091551578187,-0.5046248203940275,-0.07584796018588043,-0.41030228709181144
1.0378702878952026,0.17665612697601318,164.94265747070312,-0.08303091551578187,-0.5046248203940275,-0.07584796018588043,-0.41030228709181144
0.03371297940611839,0.13053105771541595,164.96664428710938,-0.08303091551578187,-0.5046248203940275,-0.07584796018588043,-0.41030228709181144
-0.3356979489326477,0.1751517504453659,164.98435974121094,-0.08303091551578187,-0.5046248203940275,-0.07584796018588043,-0.41030228709181144
-0.31774088740348816,0.3954530954360962,164.98330688476562,-0.08303091551578187,-0.5046248203940275,-0.07584796018588043,-0.41030228709181144
-0.4371417164802551,0.38956576585769653,164.99815368652344,-0.08303091551578187,-0.5046248203940275,-0.07584796018588043,-0.41030228709181144
0.06814085692167282,0.05277283117175102,164.99024963378906,-0.08303091551578187,-0.5046248203940275,-0.07584796018588043,-0.41030228709181144
0.3152919411659241,0.19930624961853027,164.97450256347656,-0.08303091551578187,-0.5046248203940275,-0.07584796018588043,-0.41030228709181144
0.27705106139183044,0.145120769739151,164.98394775390625,-0.08303091551578187,-0.5046248203940275,-0.07584796018588043,-0.41030228709181144
-0.014342272654175758,0.12293419241905212,164.98251342773438,-0.08303091551578187,-0.5046248203940275,-0.07584796018588043,-0.41030228709181144
-0.13646593689918518,0.2767629325389862,164.9815673828125,-0.08303091551578187,-0.5046248203940275,-0.07584796018588043,-0.41030228709181144
-0.033292870968580246,0.1787613481283188,164.9828643798828,-0.08303091551578187,-0.5046248203940275,-0.07584796018588043,-0.41030228709181144
0.15327471494674683,0.16450850665569305,164.97970581054688,-0.08303091551578187,-0.5046248203940275,-0.07584796018588043,-0.41030228709181144
0.16279110312461853,0.18100576102733612,164.9792022705078,-0.08303091551578187,-0.5046248203940275,-0.07584796018588043,-0.41030228709181144
0.021342270076274872,0.1831929236650467,164.98033142089844,-0.08303091551578187,-0.5046248203940275,-0.07584796018588043,-0.41030228709181144
-0.04293300583958626,0.19584928452968597,164.9799041748047,-0.08303091551578187,-0.5046248203940275,-0.07584796018588043,-0.41030228709181144
0.041088443249464035,0.1979338526725769,164.98023986816406,-0.08303091551578187,-0.5046248203940275,-0.07584796018588043,-0.41030228709181144
0.11254744976758957,0.16007038950920105,164.9816436767578,-0.08303091551578187,-0.5046248203940275,-0.07584796018588043,-0.41030228709181144
0.08585096895694733,0.17822304368019104,164.9811553955078,-0.08303091551578187,-0.5046248203940275,-0.07584796018588043,-0.41030228709181144
0.011489071883261204,0.204472616314888,164.98057556152344,-0.08303091551578187,-0.5046248203940275,-0.07584796018588043,-0.41030228709181144
0.005669077392667532,0.1794724464416504,164.97967529296875,-0.08303091551578187,-0.5046248203940275,-0.07584796018588043,-0.41030228709181144
0.07150313258171082,0.1841248869895935,164.97830200195312,-0.08303091551578187,-0.5046248203940275,-0.07584796018588043,-0.41030228709181144
0.08958051353693008,0.1799963265657425,164.97726440429688,-0.08303091551578187,-0.5046248203940275,-0.07584796018588043,-0.41030228709181144
0.05153489485383034,0.1919124722480774,164.97633361816406,-0.08303091551578187,-0.5046248203940275,-0.07584796018588043,-0.41030228709181144
0.039156608283519745,0.18978796899318695,164.97694396972656,-0.08303091551578187,-0.5046248203940275,-0.07584796018588043,-0.41030228709181144
0.05168721824884415,0.1720547080039978,164.97726440429688,-0.08303091551578187,-0.5046248203940275,-0.07584796018588043,-0.41030228709181144
0.07588627934455872,0.17969730496406555,164.97581481933594,-0.08303091551578187,-0.5046248203940275,-0.07584796018588043,-0.41030228709181144
0.05521067604422569,0.17031273245811462,164.97540283203125,-0.08303091551578187,-0.5046248203940275,-0.07584796018588043,-0.41030228709181144
0.0331103652715683,0.182366743683815,164.97506713867188,-0.08303091551578187,-0.5046248203940275,-0.07584796018588043,-0.41030228709181144
0.024196350947022438,0.18253709375858307,164.97552490234375,-0.08303091551578187,-0.5046248203940275,-0.07584796018588043,-0.41030228709181144
0.056149739772081375,0.17512951791286469,164.9755096435547,-0.08303091551578187,-0.5046248203940275,-0.07584796018588043,-0.41030228709181144
0.05844269320368767,0.17480221390724182,164.9771270751953,-0.08303091551578187,-0.5046248203940275,-0.07584796018588043,-0.41030228709181144
0.044419873505830765,0.19948384165763855,164.97622680664062,-0.08303091551578187,-0.5046248203940275,-0.07584796018588043,-0.41030228709181144
0.04304076358675957,0.17584769427776337,164.97618103027344,-0.08303091551578187,-0.5046248203940275,-0.07584796018588043,-0.41030228709181144
0.049844589084386826,0.1654191017150879,164.97659301757812,-0.08303091551578187,-0.5046248203940275,-0.07584796018588043,-0.41030228709181144
0.05000295490026474,0.17824885249137878,164.97665405273438,-0.08303091551578187,-0.5046248203940275,-0.07584796018588043,-0.41030228709181144
0.0469970703125,0.20023606717586517,164.97628784179688,-0.08303091551578187,-0.5046248203940275,-0.07584796018588043,-0.41030228709181144
0.054104939103126526,0.1794264167547226,164.97555541992188,-0.08303091551578187,-0.5046248203940275,-0.07584796018588043,-0.41030228709181144
0.03579351305961609,0.18302719295024872,164.9752655029297,-0.08303091551578187,-0.5046248203940275,-0.07584796018588043,-0.41030228709181144
0.05311896279454231,0.1761566400527954,164.9746551513672,-0.08303091551578187,-0.5046248203940275,-0.07584796018588043,-0.41030228709181144
0.05099118500947952,0.16302590072155,164.97381591796875,-0.08303091551578187,-0.5046248203940275,-0.07584796018588043,-0.41030228709181144
0.034932706505060196,0.18064221739768982,164.97348022460938,-0.08303091551578187,-0.5046248203940275,-0.07584796018588043,-0.41030228709181144
0.03265707939863205,0.17123521864414215,164.97259521484375,-0.08303091551578187,-0.5046248203940275,-0.07584796018588043,-0.41030228709181144
0.044013798236846924,0.17203275859355927,164.97219848632812,-0.08303091551578187,-0.5046248203940275,-0.07584796018588043,-0.41030228709181144
0.052095189690589905,0.16630269587039948,164.97315979003906,-0.08303091551578187,-0.5046248203940275,-0.07584796018588043,-0.41030228709181144
0.05240746587514877,0.1771668940782547,164.97360229492188,-0.08303091551578187,-0.5046248203940275,-0.07584796018588043,-0.41030228709181144
0.02996688149869442,0.17656458914279938,164.9730987548828,-0.08303091551578187,-0.5046248203940275,-0.07584796018588043,-0.41030228709181144
0.05678534135222435,0.18906402587890625,164.97251892089844,-0.08303091551578187,-0.5046248203940275,-0.07584796018588043,-0.41030228709181144
0.0427483431994915,0.18280915915966034,164.97137451171875,-0.08303091551578187,-0.5046248203940275,-0.07584796018588043,-0.41030228709181144
0.0474485345184803,0.17814850807189941,164.97073364257812,-0.08303091551578187,-0.5046248203940275,-0.07584796018588043,-0.41030228709181144
0.05676882341504097,0.1774505376815796,164.9717254638672,-0.08303091551578187,-0.5046248203940275,-0.07584796018588043,-0.41030228709181144
0,0.18539774417877197,164.972412109375,-0.08429110590614272,-0.5114379940482062,-0.07537488665742176,-0.40727855140964186
0,0.1709892600774765,164.9717559814453,-0.08554735401709974,-0.5182012208075157,-0.07537488665742176,-0.40430865970750646
-0.16731570661067963,0.17604570090770721,164.97425842285156,-0.08681522127434918,-0.5249155988192391,-0.07676918421251075,-0.4014167016992966
-0.3600022792816162,0.43914687633514404,164.97671508789062,-0.08813132698246688,-0.5315631554741411,-0.08116350076161322,-0.3962900968889395
-1.7982628345489502,0.6508436799049377,164.91734313964844,-0.08963393151695423,-0.5380922966336623,-0.09914904337686793,-0.3872068422536055
-3.48551344871521,0.9423564076423645,164.8652801513672,-0.09165334448179538,-0.5444351051095871,-0.14318051240406926,-0.373930174857378
-1.5411632061004639,0.12790560722351074,164.86228942871094,-0.09438876112289207,-0.5505929509395111,-0.18506948452753322,-0.36501132473349573
-0.9114401936531067,0.643155038356781,164.8327178955078,-0.09764357221222274,-0.5566229271402374,-0.2055078461921463,-0.35858581935365996
-0.7515795826911926,0.8651228547096252,164.8563995361328,-0.1011841904665602,-0.5624946159424465,-0.21936634432834878,-0.3460168369114399
-0.9246433973312378,0,164.81387329101562,-0.10495670057897868,-0.5682014852482824,-0.23333486916186905,-0.3388074797888597
-1.0410441160202026,0.9875300526618958,164.7582244873047,-0.1089821211423259,-0.5737796981022174,-0.2497155984397977,-0.33057806268334394
-1.193056344985962,0.9833516478538513,164.84286499023438,-0.11329919364833685,-0.5791524656955152,-0.26833310228151575,-0.3141540485123794
-1.6057416200637817,-0.628063976764679,164.91140747070312,-0.11796577298949057,-0.584363693749118,-0.29165641865693026,-0.3111933179199696
-0.08062329888343811,0.653756320476532,164.93692016601562,-0.1229438219753663,-0.5895484648572487,-0.3057094596481571,-0.3109792150557042
-0.4970490038394928,0,164.98974609375,-0.12807909576830245,-0.5946860520303662,-0.3105233955041815,-0.30553124571839974
-0.7780594825744629,0.5747770667076111,165.0253448486328,-0.12807909576830245,-0.5946860520303662,-0.3105233955041815,-0.30553124571839974
-1.6589490175247192,0.27426353096961975,165.0594940185547,-0.13342372239476794,-0.5997192783063897,-0.3308317996716747,-0.2984559074044228
0.5273643732070923,0.2540355622768402,165.122314453125,-0.13901616798959568,-0.6046568559927658,-0.3402616717076549,-0.2940534149607023
1.8471821546554565,0.09218350797891617,165.13140869140625,-0.14452229678695502,-0.6095337032511208,-0.320473783975467,-0.2911682560419043
0.9433199763298035,0.23605552315711975,164.9409942626953,-0.14966974164967217,-0.6143637131413237,-0.29721959955058985,-0.28843293078243737
0.18365350365638733,0.11182335764169693,164.85369873046875,-0.15454513959496075,-0.6191467703987532,-0.28782815388403826,-0.28553394010911387
-0.82323157787323,-0.26266953349113464,164.7861328125,-0.1593866906370709,-0.6239161448294502,-0.29315797116917863,-0.28679099157452587
-1.8433464765548706,0.586650013923645,164.77410888671875,-0.16445783585478138,-0.6286734960445511,-0.31537945495607944,-0.2840911542375883
-1.4794442653656006,0.5309098958969116,164.74795532226562,-0.16994490946112717,-0.6333307402881068,-0.3430693778054167,-0.27477815498908364
-0.49384796619415283,-0.29596689343452454,164.6903076171875,-0.17579976660729799,-0.6378940607183093,-0.3595134797350813,-0.27282029663523044
0,0.4736008644104004,164.64976501464844,-0.18182595293386838,-0.6424287299698009,-0.3636288794533659,-0.2713400135437648
-0.3856075704097748,0.9099222421646118,164.63929748535156,-0.18791321256159182,-0.6468549855353515,-0.36684227587344737,-0.2598106543223064
-0.9626854062080383,0.8840790390968323,164.661376953125,-0.1941208819495255,-0.6510605796850801,-0.3780780506785958,-0.2448606436451277
-0.550294041633606,-0.4343760013580322,164.7157440185547,-0.20052725081138,-0.6551103610348782,-0.39068621274394283,-0.2411131183306377
-1.124131441116333,1.3212021589279175,164.7379150390625,-0.20715496723785892,-0.6590673278572242,-0.4046397584335257,-0.23372290035088866
-0.06139251962304115,-0.41777685284614563,164.8583526611328,-0.20715496723785892,-0.6590673278572242,-0.4046397584335257,-0.23372290035088866
0.6108227372169495,0.444102942943573,164.92074584960938,-0.21386080833552923,-0.6629608813290379,-0.40006117328690977,-0.23350351626674343
0.8525075912475586,0.6424716114997864,164.81185913085938,-0.2204268743952788,-0.6667771500338695,-0.3878667538830389,-0.22444872831304877
1.187206506729126,-1.1054985523223877,164.602294921875,-0.22674967348096997,-0.6705501168210886,-0.3708691363998998,-0.22830728615323712
-0.37787356972694397,-0.6777300238609314,164.55886840820312,-0.23287462207812093,-0.6744790735747663,-0.36412469525821495,-0.2431675242880981
-0.5973672270774841,0.1728234589099884,164.4672088623047,-0.2390110920544248,-0.678566928602134,-0.37225170189825185,-0.24737507899602262
-0.706337034702301,1.4224200248718262,164.40809631347656,-0.24530582210424148,-0.6825790657879162,-0.38311590407975005,-0.23408138329784084
-1.7486332654953003,-0.31707414984703064,164.34632873535156,-0.25186157122086217,-0.6864036620460034,-0.40357398991473004,-0.2248701676726342
-0.6394057869911194,0.7880905866622925,164.31448364257812,-0.25875364043141924,-0.6901187886991018,-0.4234743153521169,-0.2209450306991737
0.7377691864967346,1.5153461694717407,164.2083282470703,-0.26580471489565555,-0.6936412449915788,-0.42265462035623674,-0.20174972439805677
0.2909718453884125,0,164.13563537597656,-0.272777518218823,-0.696898508025333,-0.4140817784238605,-0.18912183965245893
0,-0.332731157541275,164.1765594482422,-0.27965867481440204,-0.7000736450165922,-0.41165701304562374,-0.19189459929863623
-0.6564546227455139,-0.8391631841659546,164.10223388671875,-0.28656521215840863,-0.7033532698897436,-0.4171274682351697,-0.2016603854795298
-0.37800124287605286,0.8198575377464294,163.9539794921875,-0.2935891738418852,-0.7067156169842926,-0.4257479337820161,-0.20182126586635918
-0.6217480897903442,0.8149171471595764,163.84194946289062,-0.3007543997752429,-0.7099657787289468,-0.43407917822090275,-0.18819814349214248
0.4903929531574249,0.09772709757089615,163.7604217529297,-0.3007543997752429,-0.7099657787289468,-0.43407917822090275,-0.18819814349214248
0.12058418989181519,0.3425031304359436,163.7056427001953,-0.30794662377732396,-0.7130718429102043,-0.42898770202882575,-0.18452955825875214
-0.3767331838607788,0.7912366390228271,163.74404907226562,-0.3151142069357189,-0.7160686036194155,-0.4311222769785671,-0.17508172684659573
-0.07719524949789047,-0.9173066020011902,163.9134063720703,-0.32233110102656715,-0.7189953872587322,-0.43490501392322267,-0.17613230987141543
2.777728319168091,0.7884235382080078,163.99447631835938,-0.3293919809065604,-0.7219398759693526,-0.412400571675971,-0.17720633540302527
0.5615913271903992,-0.5051972270011902,163.76905822753906,-0.33603342657016283,-0.7248736463989025,-0.38457290795631693,-0.17484611614296847
0.16201546788215637,0.32339900732040405,163.58702087402344,-0.34239272456422143,-0.7278003732109853,-0.3785428513307123,-0.17636110130697502
-0.6692971587181091,-0.47484976053237915,163.46255493164062,-0.3487369999815969,-0.7307502423128525,-0.38277019875434526,-0.17762319091707482
-1.3526711463928223,0.4432668089866638,163.35899353027344,-0.355256917759802,-0.7337128220886611,-0.3996199346302697,-0.17788638217995578
-0.07077609747648239,0.2527552545070648,163.3614501953125,-0.3620161005066863,-0.7366292602594733,-0.4114819949958472,-0.17208619831750804
-0.051367830485105515,0.264676958322525,163.40521240234375,-0.36888261597383665,-0.7394614307722075,-0.4124998610621938,-0.1677742632105948
-0.09342652559280396,0.3463487923145294,163.3943328857422,-0.37576766882182305,-0.7422152361485899,-0.4137064806961763,-0.162682381955286
-0.6474090218544006,0.9558898210525513,163.3755340576172,-0.38271422374644315,-0.7448361759441385,-0.41988011025823635,-0.15183039351056032
-0.394912451505661,-0.3174186944961548,163.39833068847656,-0.38978460901973044,-0.7473223442299703,-0.4285661225362369,-0.14650980078925702
-0.0655914768576622,0.5736726522445679,163.38003540039062,-0.3969593571681374,-0.7497463788293921,-0.4324036552725979,-0.14437435114135358
0.5575030446052551,0.918716311454773,163.40541076660156,-0.3969593571681374,-0.7497463788293921,-0.4324036552725979,-0.14437435114135358
0,0,163.3753204345703,-0.4041273692668053,-0.7520888182712303,-0.4277577965675541,-0.13671838187923047
-0.1703149974346161,-1.0435521602630615,163.2888641357422,-0.41126849330664195,-0.7544399268692358,-0.42917708821284256,-0.14541464988142264
0.7438886761665344,-0.6105892062187195,163.24635314941406,-0.4183816132713885,-0.7569783752954874,-0.42439730755674326,-0.15919916126877082
1.2088338136672974,-0.47439977526664734,163.22080993652344,-0.42531929600220686,-0.7597070411070145,-0.40812462014146134,-0.1682407361144822
0.2507866621017456,0.8676590323448181,163.2367401123047,-0.43202001047152505,-0.7624837437049587,-0.3959611161767193,-0.16496357563883077
0.11087257415056229,1.1810429096221924,163.2891845703125,-0.43859424718306395,-0.7650908656640805,-0.3929472892079501,-0.14789105945577236
-0.729431688785553,0.33391159772872925,163.25735473632812,-0.445186324163935,-0.7674505114808884,-0.398101948496575,-0.13526643856118134
-1.5894157886505127,0.28062209486961365,163.17967224121094,-0.45198238771369986,-0.7696622761726999,-0.41742567747520887,-0.13014532445619514
1.1235008239746094,0.9556084275245667,163.12709045410156,-0.4589718375441669,-0.7717455155718036,-0.4213083021808414,-0.11984340343624364
0,-0.8364471197128296,163.1310272216797,-0.4659156216899605,-0.7737346305382541,-0.41194579531438635,-0.1188503925378125
-0.5969500541687012,0.19634810090065002,163.06103515625,-0.47282283981007306,-0.7757599217346351,-0.41692037909912555,-0.124184551027914
0,-0.2310398817062378,162.9745635986328,-0.4798129676599313,-0.7778320734032119,-0.42189496288386474,-0.12447364920129389
0.12144210189580917,0.16266490519046783,162.87454223632812,-0.48683611689536405,-0.7799113824854915,-0.4208829453680663,-0.12504344067225864
0.053527284413576126,1.0098857879638672,162.8076629638672,-0.49383868199967146,-0.7819140126985601,-0.41942486714882143,-0.11527218489597252
-0.06205582246184349,0.9378726482391357,162.8170928955078,-0.49383868199967146,-0.7819140126985601,-0.41942486714882143,-0.11527218489597252
0.5628980398178101,-0.1780884712934494,162.92987060546875,-0.49383868199967146,-0.7819140126985601,-0.41942486714882143,-0.11527218489597252
0.58136385679245,-0.0805361196398735,163.0299835205078,-0.49383868199967146,-0.7819140126985601,-0.41942486714882143,-0.11527218489597252
2.2154688835144043,-0.6616162657737732,162.9154510498047,-0.49383868199967146,-0.7819140126985601,-0.41942486714882143,-0.11527218489597252
1.3788352012634277,-0.7787555456161499,162.61790466308594,-0.49383868199967146,-0.7819140126985601,-0.41942486714882143,-0.11527218489597252
2.2093281745910645,0.3014739453792572,162.10853576660156,-0.49383868199967146,-0.7819140126985601,-0.41942486714882143,-0.11527218489597252
2.5942041873931885,-0.46459728479385376,161.1680145263672,-0.49383868199967146,-0.7819140126985601,-0.41942486714882143,-0.11527218489597252
1.976742148399353,-0.3203046917915344,159.85292053222656,-0.49383868199967146,-0.7819140126985601,-0.41942486714882143,-0.11527218489597252
1.7754944562911987,-1.2543604373931885,158.31228637695312,-0.49383868199967146,-0.7819140126985601,-0.41942486714882143,-0.11527218489597252
1.7646050453186035,-0.9367984533309937,156.614990234375,-0.49383868199967146,-0.7819140126985601,-0.41942486714882143,-0.11527218489597252
1.1802151203155518,0.6712534427642822,154.8380889892578,-0.49383868199967146,-0.7819140126985601,-0.41942486714882143,-0.11527218489597252
-0.126092329621315,-0.8740957975387573,153.06967163085938,-0.49383868199967146,-0.7819140126985601,-0.41942486714882143,-0.11527218489597252
0.9904491901397705,-0.4819996654987335,151.38002014160156,-0.49383868199967146,-0.7819140126985601,-0.41942486714882143,-0.11527218489597252
0.7107724547386169,0.06435731798410416,149.66891479492188,-0.49383868199967146,-0.7819140126985601,-0.41942486714882143,-0.11527218489597252
0.4104852080345154,-0.6483175158500671,147.90301513671875,-0.49383868199967146,-0.7819140126985601,-0.41942486714882143,-0.11527218489597252
0.4146987497806549,-0.44045376777648926,146.1151885986328,-0.49383868199967146,-0.7819140126985601,-0.41942486714882143,-0.11527218489597252
-0.29130804538726807,1.4221994876861572,144.3994903564453,-0.49383868199967146,-0.7819140126985601,-0.41942486714882143,-0.11527218489597252
-0.692529559135437,-0.11430662870407104,142.74139404296875,-0.49383868199967146,-0.7819140126985601,-0.41942486714882143,-0.11527218489597252
1.2293956279754639,-0.2151247262954712,141.06610107421875,-0.49383868199967146,-0.7819140126985601,-0.41942486714882143,-0.11527218489597252
0.5818707942962646,0.814659595489502,139.37791442871094,-0.49383868199967146,-0.7819140126985601,-0.41942486714882143,-0.11527218489597252
-0.032575614750385284,-0.01209742296487093,137.67108154296875,-0.49383868199967146,-0.7819140126985601,-0.41942486714882143,-0.11527218489597252
1.3022381067276,0.28312012553215027,135.89402770996094,-0.49383868199967146,-0.7819140126985601,-0.41942486714882143,-0.11527218489597252
0.559745192527771,-0.318731427192688,134.02772521972656,-0.49383868199967146,-0.7819140126985601,-0.41942486714882143,-0.11527218489597252
0.8967024683952332,0.034923940896987915,132.1438751220703,-0.49383868199967146,-0.7819140126985601,-0.41942486714882143,-0.11527218489597252
0.830912172794342,0.5073757171630859,130.28018188476562,-0.49383868199967146,-0.7819140126985601,-0.41942486714882143,-0.11527218489597252
0.10105439275503159,0.06837201863527298,128.43301391601562,-0.49383868199967146,-0.7819140126985601,-0.41942486714882143,-0.11527218489597252
1.214848279953003,0.19020074605941772,126.55036163330078,-0.49383868199967146,-0.7819140126985601,-0.41942486714882143,-0.11527218489597252
0.5036067366600037,-0.2910654544830322,124.69548797607422,-0.49383868199967146,-0.7819140126985601,-0.41942486714882143,-0.11527218489597252
-0.15626446902751923,0.056636981666088104,122.90858459472656,-0.49383868199967146,-0.7819140126985601,-0.41942486714882143,-0.11527218489597252
0.506629228591919,-0.12272963672876358,121.10873413085938,-0.49383868199967146,-0.7819140126985601,-0.41942486714882143,-0.11527218489597252
-0.050442200154066086,-0.9466080069541931,119.37333679199219,-0.49383868199967146,-0.7819140126985601,-0.41942486714882143,-0.11527218489597252
1.3989431858062744,0.5350552201271057,117.62796020507812,-0.49383868199967146,-0.7819140126985601,-0.41942486714882143,-0.11527218489597252
-0.1503867506980896,-0.02663210779428482,115.88955688476562,-0.49383868199967146,-0.7819140126985601,-0.41942486714882143,-0.11527218489597252
0.7118712663650513,1.2640599012374878,114.12867736816406,-0.49383868199967146,-0.7819140126985601,-0.41942486714882143,-0.11527218489597252
1.297789454460144,0.12595662474632263,112.2906265258789,-0.49383868199967146,-0.7819140126985601,-0.41942486714882143,-0.11527218489597252
1.5189895629882812,1.178393840789795,110.47765350341797,-0.49383868199967146,-0.7819140126985601,-0.41942486714882143,-0.11527218489597252
0.349599689245224,0.28964585065841675,108.6358871459961,-0.49383868199967146,-0.7819140126985601,-0.41942486714882143,-0.11527218489597252
0.9868618845939636,-0.7155393362045288,106.73685455322266,-0.49383868199967146,-0.7819140126985601,-0.41942486714882143,-0.11527218489597252
0.9309036135673523,0.3647649586200714,104.82000732421875,-0.49383868199967146,-0.7819140126985601,-0.41942486714882143,-0.11527218489597252
1.2363380193710327,0.0654168352484703,102.89224243164062,-0.49383868199967146,-0.7819140126985601,-0.41942486714882143,-0.11527218489597252
0.6904163360595703,0.9138069748878479,100.96231079101562,-0.49383868199967146,-0.7819140126985601,-0.41942486714882143,-0.11527218489597252
0.40598705410957336,-1.1028881072998047,98.987060546875,-0.49383868199967146,-0.7819140126985601,-0.41942486714882143,-0.11527218489597252
1.8820010423660278,0.27756693959236145,96.98444366455078,-0.49383868199967146,-0.7819140126985601,-0.41942486714882143,-0.11527218489597252
-0.4189663529396057,0.025212310254573822,95.00018310546875,-0.49383868199967146,-0.7819140126985601,-0.41942486714882143,-0.11527218489597252
1.5169661045074463,0.08916318416595459,93.0196304321289,-0.49383868199967146,-0.7819140126985601,-0.41942486714882143,-0.11527218489597252
-0.8328222632408142,-0.8474787473678589,91.03218841552734,-0.49383868199967146,-0.7819140126985601,-0.41942486714882143,-0.11527218489597252
0.5535969138145447,0.0040948218666017056,88.99748992919922,-0.49383868199967146,-0.7819140126985601,-0.41942486714882143,-0.11527218489597252
-0.8732923269271851,0.009316555224359035,87.02144622802734,-0.49383868199967146,-0.7819140126985601,-0.41942486714882143,-0.11527218489597252
1.5554461479187012,-0.20367851853370667,85.08641815185547,-0.49383868199967146,-0.7819140126985601,-0.41942486714882143,-0.11527218489597252
-1.0365235805511475,-0.07870637625455856,83.17301177978516,-0.49383868199967146,-0.7819140126985601,-0.41942486714882143,-0.11527218489597252
0.6825889945030212,0.43215641379356384,81.33808135986328,-0.49383868199967146,-0.7819140126985601,-0.41942486714882143,-0.11527218489597252
-0.34642624855041504,0.4057140648365021,79.83251953125,-0.49383868199967146,-0.7819140126985601,-0.41942486714882143,-0.11527218489597252
-0.7611765265464783,1.2031278610229492,78.68120574951172,-0.49383868199967146,-0.7819140126985601,-0.41942486714882143,-0.11527218489597252
-0.5961463451385498,1.1183369159698486,77.82975769042969,-0.49383868199967146,-0.7819140126985601,-0.41942486714882143,-0.11527218489597252
-0.6803348064422607,0.587645947933197,77.25141906738281,-0.49383868199967146,-0.7819140126985601,-0.41942486714882143,-0.11527218489597252
-0.6893710494041443,0.3124236464500427,77.00582122802734,-0.49383868199967146,-0.7819140126985601,-0.41942486714882143,-0.11527218489597252
                                                                                                                                                                                                                                                                                                                                                                                                                                                                                                                                                                                                                                                                                                                                                                                                                                                                                                                                                                                                                                                                                                                                                                                                                                                                                                                                                                                                                                                                                                                                                                                                                                