faccX,faccY,yaw,posX,posY,velX,velY
0,0,-101.22834777832031,0.0,0.0,0.0,0.0
0,0,-101.22976684570312,0.0,0.0,0.0,0.0
0,0,-101.2294921875,0.0,0.0,0.0,0.0
0,0,-101.23954010009766,0.0,0.0,0.0,0.0
-0.6245571374893188,-1.1321251392364502,-101.24658966064453,-4.3372023436758255e-05,-7.86198013358646e-05,-0.005204642812410991,-0.00943437616030375
0.10776011645793915,-2.5588414669036865,-101.27058410644531,-0.0001660047523263428,-0.0004921765294339922,-0.009511284654339154,-0.040192431211471556
-0.84893399477005,-1.339421272277832,-101.1926498413086,-0.00037599657144811417,-0.001432763073179457,-0.015687733640273413,-0.07267795403798422
-0.4560070037841797,-3.3426332473754883,-101.24578857421875,-0.0007280797014633815,-0.0029692049821217854,-0.02656224196155866,-0.11169507503509521
-0.5448932647705078,-0.7048876285552979,-101.30316925048828,-0.0012402906972501012,-0.005111867404646343,-0.03490307753284772,-0.14542441566785175
-0.2111474573612213,-0.9008429646492004,-101.272216796875,-0.001874511484056711,-0.007647116734749741,-0.041203416883945465,-0.1588055039445559
0.09872044622898102,-1.1912448406219482,-101.28571319580078,-0.0025690425301177636,-0.010439159009191724,-0.0421403086433808,-0.17623956898848214
-0.6318843960762024,-1.273858904838562,-101.32658386230469,-0.0033084062818023894,-0.013547672919101184,-0.04658334155877431,-0.19678210020065307
-0.38352200388908386,-1.5196027755737305,-101.36215209960938,-0.004155309641112884,-0.017021364983585145,-0.05504506155848503,-0.22006094753742217
0,-1.193173885345459,-101.552001953125,-0.005099360806246599,-0.020877434710661568,-0.058241078257560724,-0.24266741971174874
-1.111350655555725,-0.7204711437225342,-101.67276000976562,-0.006147222572730647,-0.02505478372176488,-0.0675023337205251,-0.25861446162064866
0.5015150904655457,-1.4497987031936646,-101.6380615234375,-0.007314611160092883,-0.02951573793258932,-0.07258429676294326,-0.27670004367828366
0.26008546352386475,-1.7829703092575073,-101.4422378540039,-0.008471460512114894,-0.034351903175314266,-0.06623762547969816,-0.30363978544871006
0.44763365387916565,0.181529238820076,-101.32910919189453,-0.009526273775845764,-0.03952377745157314,-0.06033996616800624,-0.3169851277023553
-0.23896048963069916,-0.7047279477119446,-101.29414367675781,-0.01051744868668417,-0.04484319615695211,-0.058601023132602355,-0.3213451169431209
-0.7706069350242615,-1.2978819608688354,-101.19834899902344,-0.011564241254495247,-0.05033801823854446,-0.06701408500472703,-0.3380335328479607
-0.2212611883878708,-0.8379519581794739,-101.15191650390625,-0.012750022402033207,-0.05612023225261105,-0.07527965269982813,-0.35583214884002995
-0.5956009030342102,0.05132777988910675,-101.20208740234375,-0.014061409814490208,-0.06210539474565949,-0.08208683679501214,-0.362387350325783
-0.46011024713516235,-0.3563076853752136,-101.40727996826172,-0.015502837035391062,-0.06816636307785907,-0.09088442971309024,-0.36492884953816723
-0.24917887151241302,-1.3295294046401978,-101.52586364746094,-0.017066833719404203,-0.07436558259030182,-0.0967951723684867,-0.37897749195496233
0.9182001948356628,0.17314063012599945,-101.56657409667969,-0.018633626778092643,-0.08076217889889245,-0.09121999467412628,-0.388614065075914
-0.900555431842804,-0.7792689800262451,-101.4139633178711,-0.02015273469189802,-0.08728117223001186,-0.09107295498251912,-0.39366513465841607
0,-0.16687792539596558,-101.36782836914062,-0.021733155846595756,-0.093907962453862,-0.09857758358120915,-0.40154969220360115
-0.36816176772117615,-0.7807737588882446,-101.42450714111328,-0.02340168236237432,-0.10066626646866397,-0.10164559831221895,-0.40944678957263625
0.9222040176391602,-0.12238312512636185,-101.34394073486328,-0.02340168236237432,-0.10066626646866397,-0.10164559831221895,-0.40944678957263625
-0.09258944541215897,-0.05829823389649391,-101.2121353149414,-0.02503816354450665,-0.10750292694480672,-0.09473214354366061,-0.4109524675644934
0,0,-101.19712829589844,-0.026623462426165728,-0.1143561832260133,-0.0955037222554286,-0.4114382861802975
-0.5696115493774414,1.3405674695968628,-101.24475860595703,-0.028254747488018525,-0.12112039303251848,-0.10025048516690727,-0.4002668906003236
-0.3001392185688019,1.742460012435913,-101.39414978027344,-0.029985988266352136,-0.1275774087451605,-0.10749840823312595,-0.37457499491671714
1.1381241083145142,-0.6050229668617249,-101.40311431884766,-0.031719435008449676,-0.13374133664338536,-0.10051520081857836,-0.3650963528702656
-0.12040088325738907,-1.645319938659668,-101.30935668945312,-0.03332401313146368,-0.13998254967077323,-0.09203417394310232,-0.3838492104162772
-0.08913066983222961,-1.3073296546936035,-101.41354370117188,-0.034872466832813274,-0.14658508162169404,-0.09378027021884913,-0.4084546236942211
0,0.48379993438720703,-101.44747924804688,-0.03644166096631022,-0.15344984824717456,-0.09452302580078438,-0.41531737136344105
0,-0.800613284111023,-101.33525085449219,-0.03801704472965663,-0.1603938053636294,-0.09452302580078438,-0.4179574826111395
-0.7416307330131531,0.584776759147644,-101.19436645507812,-0.03964393062724006,-0.1673747520547153,-0.10070328190922732,-0.4197561203191677
0.5520430207252502,-0.7296566367149353,-101.10270690917969,-0.04133548447241384,-0.17438074849597693,-0.10228317951162652,-0.42096345263222845
1.3736456632614136,-0.7924197316169739,-101.19854736328125,-0.042906475750108544,-0.18150250578764823,-0.08623577381173765,-0.4336474223683277
-1.7623382806777954,0.6714646220207214,-101.39956665039062,-0.044370731189846975,-0.188738362487509,-0.08947487895687417,-0.43465538161496314
-1.2650421857833862,0,-101.47919464111328,-0.0460722139270769,-0.19593598936011805,-0.11470304951071736,-0.4290598430981238
0.13354067504405975,-0.6411390900611877,-101.51020812988281,-0.04806250791272353,-0.2031315102930077,-0.1241322287668784,-0.43440266884863366
0.15884312987327576,-0.449043333530426,-101.57062530517578,-0.04806250791272353,-0.2031315102930077,-0.1241322287668784,-0.43440266884863366
1.1442972421646118,-1.432934284210205,-101.42024230957031,-0.05004088253300221,-0.21050224766393913,-0.11327272566656267,-0.45008581566313893
0.5415012240409851,1.0844898223876953,-101.25164031982422,-0.05181169195618064,-0.21802787545706245,-0.09922440511484937,-0.45298951951165983
-0.884522020816803,0.9732825756072998,-101.2350082397461,-0.05348925293009312,-0.2254347999212849,-0.10208291175464786,-0.43584141619503486
0,1.394607424736023,-101.2878646850586,-0.05525205993300509,-0.23253438671895607,-0.10945392859478788,-0.4161089995255072
0.4060545265674591,0.6925200819969177,-101.47969055175781,-0.05704809384523993,-0.23932459730085806,-0.10607014087339238,-0.39871627030273266
0.15258264541625977,-0.9844216704368591,-101.61688995361328,-0.05877713527840871,-0.24599013941621192,-0.10141483110686139,-0.40114878353973216
-0.8364550471305847,-0.9340826869010925,-101.61892700195312,-0.060514873602531,-0.25280918194446705,-0.1071137677878141,-0.41713631985088173
-0.6996361613273621,-0.3804613947868347,-101.53005981445312,-0.062406776066248594,-0.2598527417254323,-0.119914527858297,-0.4280908538649478
-0.14621897041797638,-0.41454851627349854,-101.4113998413086,-0.06446409147025808,-0.26704279831144956,-0.1269633206228415,-0.4347159364571172
1.203730583190918,-0.5550763010978699,-101.42242431640625,-0.06650670850752954,-0.27435539897583006,-0.11815072384973364,-0.4427961432685453
-0.15667852759361267,0.6735469102859497,-101.35833740234375,-0.06840317529005308,-0.2817271075713344,-0.10942529005308943,-0.44180888819197794
0.5751417279243469,-0.5002064108848572,-101.25536346435547,-0.07019787017980382,-0.28907855150652007,-0.10593809671699998,-0.44036438403030215
-0.2530529797077179,-0.0721249207854271,-101.19183349609375,-0.07194113785090545,-0.2964577031383911,-0.10325402381519475,-0.4451338117942212
-0.5336285829544067,1.0526173114776611,-101.25554656982422,-0.07371666891189911,-0.3038085102522745,-0.10980970350404579,-0.4369630418717859
0.31373918056488037,-0.8476313948631287,-101.26090240478516,-0.07371666891189911,-0.3038085102522745,-0.10980970350404579,-0.4369630418717859
0.4141722023487091,-1.5246052742004395,-101.22590637207031,-0.07549628123537531,-0.3112559662743781,-0.10374377531309921,-0.45673168078064896
-0.47218671441078186,2.6545684337615967,-101.21614074707031,-0.07722937294282017,-0.3187896912901972,-0.10422722958028315,-0.44731532111763933
0.5844681859016418,-0.4102936387062073,-101.20504760742188,-0.0789586961114158,-0.32608909422583454,-0.10329155065119265,-0.4286130311588444
0.37480786442756653,2.952770233154297,-101.29810333251953,-0.08061360556321838,-0.33305608387053415,-0.09529758356511592,-0.40742572620511036
-0.7215540409088135,0.8738062977790833,-101.38526916503906,-0.08222597821822596,-0.3395807781593045,-0.09818713503579297,-0.3755375884473322
0.08790825307369232,-1.1347696781158447,-101.30238342285156,-0.08390643364853329,-0.34585786042372785,-0.10346751660108565,-0.3777122832834719
1.3067759275436401,-1.9074188470840454,-101.35197448730469,-0.08553403919045295,-0.3523643282371468,-0.09184514842927455,-0.4030638543268043
-0.5388368964195251,0.5935677886009216,-101.57378387451172,-0.08701146256489058,-0.35917329879943266,-0.08544565650324026,-0.414012613147497
-1.9711285829544067,-0.5226985216140747,-101.74423217773438,-0.08860985999823444,-0.36606858754168353,-0.10636203549802303,-0.4134220359226066
-0.15361279249191284,0,-101.82586669921875,-0.09053011207427415,-0.37299525331550576,-0.12406821362674236,-0.41777785693605723
0.22128115594387054,-0.9267650246620178,-101.90636444091797,-0.09259321644281347,-0.3800225762800416,-0.12350431059797605,-0.4255008988082407
1.0613677501678467,-0.7431886196136475,-101.76158905029297,-0.0945625487787442,-0.3872302269299203,-0.11281556971371173,-0.4394171791772046
0.5734680891036987,0.6535486578941345,-101.55288696289062,-0.09632927800735665,-0.39456007158021533,-0.09919193771978219,-0.4401641788582005
-0.6342481374740601,0.09277854114770889,-101.5221939086914,-0.09798669780604541,-0.4018443129501408,-0.09969843812286854,-0.4339447855328518
-0.5589118599891663,0.17961618304252625,-101.51602935791016,-0.09798669780604541,-0.4018443129501408,-0.09969843812286854,-0.4339447855328518
0.37578633427619934,0.6287112236022949,-101.64217376708984,-0.09966105549182329,-0.4090205921946713,-0.1012244841704766,-0.42720872381081165
0.8718692660331726,-0.6092987656593323,-101.85595703125,-0.10126148747797642,-0.416139389504161,-0.0908273541678985,-0.4270469533279536
0.1356002390384674,3.0862505435943604,-101.95317077636719,-0.10270531355403364,-0.4230848281861592,-0.08243177495896817,-0.4064056885118284
-0.7260667681694031,0.4743831753730774,-101.94413757324219,-0.10412018109009498,-0.42961099009753917,-0.08735232936839263,-0.37673374085376643
-1.1212036609649658,0.13067680597305298,-101.8347396850586,-0.10570433591492474,-0.4358478677241751,-0.10274624961117904,-0.3716915743425487
1.5913511514663696,-2.091224193572998,-101.84379577636719,-0.10738412427715957,-0.4421788764206898,-0.09882835385700067,-0.3880294692392149
-0.5760586857795715,-0.1843762993812561,-101.86690521240234,-0.10896075708688133,-0.4488040620533541,-0.09036758330961069,-0.4069928066805003
0,-0.42939096689224243,-101.76725769042969,-0.1105068875507762,-0.45562989822485367,-0.09516807235777378,-0.41210753389944615
0,0.10264609009027481,-101.63111877441406,-0.11209302209007244,-0.4625210477396223,-0.09516807235777378,-0.4148304078727959
0.17119690775871277,0.46305814385414124,-101.63993835449219,-0.11366726795521875,-0.4693956028545895,-0.0937414314597845,-0.4101162059232591
-0.38658735156059265,-0.5519734621047974,-101.66990661621094,-0.11524458281592363,-0.47623704762818897,-0.09553635182480016,-0.41085716690868124
0.2037133127450943,-0.8582615256309509,-101.64823913574219,-0.11684955493236582,-0.4831826000619264,-0.09706030214826265,-0.42260912513981247
-0.6302697062492371,-0.20508965849876404,-101.62114715576172,-0.11849684860660799,-0.4902999293131545,-0.10061493876079718,-0.4314703850075601
1.1715705394744873,0.5254278779029846,-101.60250854492188,-0.12013617391698063,-0.497468856686933,-0.0961040984839201,-0.42880089984585823
0,0,-101.5704574584961,-0.12165654982647135,-0.5045790503039541,-0.08634101065496604,-0.4244223341966667
-1.0620571374893188,0.48090213537216187,-101.51580810546875,-0.12165654982647135,-0.5045790503039541,-0.08634101065496604,-0.4244223341966667
0.5901293754577637,-0.5730664730072021,-101.4417724609375,-0.12312833943197297,-0.5116591561751233,-0.090273742005229,-0.4251903703436254
1.5423866510391235,-0.4803659915924072,-101.42609405517578,-0.12448481040799785,-0.5188188173797809,-0.07250277511775494,-0.4339689742152888
-0.6556246280670166,4.306317329406738,-101.75340270996094,-0.12563160929725403,-0.5257859425515763,-0.06511309159298738,-0.4020860464001694
-0.5343540906906128,0.8335728645324707,-102.16285705566406,-0.12679946490149532,-0.5321304398392223,-0.07502958091596762,-0.3592536281173426
-0.9160194993019104,-0.36192113161087036,-102.23030090332031,-0.12815067830495538,-0.5380852467152807,-0.08711602749923865,-0.35532319700966264
0.46622434258461,-1.6144424676895142,-102.09941101074219,-0.1296338478713814,-0.5441445474709486,-0.09086432047188282,-0.37179289367049917
0.45947057008743286,-1.5974668264389038,-102.02507019042969,-0.1310839688436439,-0.550564144955327,-0.0831501961996158,-0.39855880445490266
0.20683632791042328,0.3969077467918396,-101.95014190673828,-0.13242353413460986,-0.5572901638545509,-0.07759763871630034,-0.40856346345196154
0.4118261933326721,-0.3888665437698364,-101.81591796875,-0.13367386543812854,-0.564098996495207,-0.07244211770594121,-0.4084964534267782
-0.6418157815933228,0.3351204991340637,-101.75582122802734,-0.13489720556574566,-0.5709110030831974,-0.0743586976081133,-0.4089443371320763
-0.6938202977180481,0.26928967237472534,-101.81370544433594,-0.1362292696980553,-0.5776847691068216,-0.08548899826904138,-0.40390758570283636
0.2684709131717682,-0.4289282262325287,-102.04403686523438,-0.13768362448757726,-0.5844276482125534,-0.08903357647359371,-0.40523790698498474
-0.3039758503437042,-0.1628468781709671,-102.17501068115234,-0.13916998304944075,-0.5912227088223312,-0.0893294509500265,-0.4101693661883472
0,0.13858361542224884,-102.13130187988281,-0.14067991666599283,-0.5980605498742723,-0.09186258303622404,-0.4103715600445865
0.40963152050971985,-0.6783702373504639,-102.02918243408203,-0.14218251308322782,-0.6049375610570937,-0.08844898703197637,-0.4148697818939883
-0.3676234185695648,0.8466885685920715,-101.95397186279297,-0.14218251308322782,-0.6049375610570937,-0.08844898703197637,-0.4148697818939883
0.5638359785079956,-1.1142693758010864,-101.90904998779297,-0.14364303699487616,-0.6118706394224942,-0.08681388236582278,-0.41709962195406347
-0.45477527379989624,0.36337581276893616,-101.85029602050781,-0.14508236137425737,-0.6188744451747169,-0.08590504315992195,-0.42335706831266473
0.5417616963386536,1.720971703529358,-101.769287109375,-0.14650807136980198,-0.6257856499579628,-0.08518015630543231,-0.4059875056768456
-0.2889257073402405,2.5998752117156982,-101.82474517822266,-0.14791018258676764,-0.6322520495723516,-0.08307318973044553,-0.36998044804980346
0.4033632278442383,-0.06971461325883865,-101.88272094726562,-0.14928678869890674,-0.6382426847760666,-0.08211954372624555,-0.3488957763959963
0.09109262377023697,-1.3414130210876465,-101.76526641845703,-0.15062111054909316,-0.6441556093572739,-0.07799907829612493,-0.36065517334888364
-0.10918871313333511,-1.2032408714294434,-101.69856262207031,-0.15192235186023434,-0.6503432409889579,-0.07814987904081741,-0.38186062245319274
1.6961263418197632,-1.6593255996704102,-101.71587371826172,-0.15311464584225584,-0.6569063740347819,-0.06492539880176385,-0.4057153430456915
-1.4029403924942017,1.2853959798812866,-101.50516510009766,-0.15417637568691542,-0.6636942637535843,-0.062482182557384164,-0.4088314232106009
0,-0.9930778741836548,-101.2957534790039,-0.15531517181235058,-0.6704878209386431,-0.07417335249483584,-0.406395438996454
0,0.9656211137771606,-101.20645141601562,-0.15655139435393117,-0.6772629849747234,-0.07417335249483584,-0.40662424533317476
1.001314401626587,-0.09356211870908737,-101.1259994506836,-0.1577180811731766,-0.683979496077841,-0.06582906581461428,-0.3993570870409408
0.2754034698009491,-0.3116883635520935,-101.25080108642578,-0.15872657130679324,-0.6906635899231248,-0.05518975021938482,-0.4027341743931173
-1.4177194833755493,0,-101.52750396728516,-0.159725727978059,-0.6973974711882568,-0.06470905033250648,-0.4053315774227181
-1.5937961339950562,-0.7286722660064697,-101.72695922851562,-0.1610133451792515,-0.7042035997193303,-0.08980501381059486,-0.4114038463061053
0.33137014508247375,-0.40466147661209106,-101.79520416259766,-0.1610133451792515,-0.7042035997193303,-0.08980501381059486,-0.4114038463061053
1.7974027395248413,-0.2579299509525299,-101.69371032714844,-0.16236226395910813,-0.7111063437846796,-0.07206523977220057,-0.4169254415358105
-0.5892534852027893,1.0716668367385864,-101.52200317382812,-0.16347945203487244,-0.7179985916376525,-0.061997329319516806,-0.41014430082092673
0.8619514107704163,2.267683506011963,-101.5482177734375,-0.1644938035009222,-0.7246024306553103,-0.05972484660645325,-0.3823163812980055
0.7164815068244934,2.476038932800293,-101.79185485839844,-0.16537960421397455,-0.7306449451742484,-0.046571238959829,-0.34278536097457
-1.6407219171524048,-0.37142086029052734,-101.90534973144531,-0.16621997489180002,-0.7362118804910114,-0.054273242379228266,-0.3252468770369886
-0.2517774999141693,-0.23490312695503235,-102.01024627685547,-0.16725595250208344,-0.7416747676074088,-0.07004407085478305,-0.3302995769307016
1.1502197980880737,-1.4010287523269653,-102.13923645019531,-0.1683609618567344,-0.7472933669367595,-0.06255705170333385,-0.34393234259138494
0.07566506415605545,-1.7612236738204956,-102.36924743652344,-0.1693184484919119,-0.7532451735095428,-0.05234134451796611,-0.3702844461426138
-1.4538600444793701,0.4592289924621582,-102.43344116210938,-0.17028651221862268,-0.7595069972425695,-0.06382630268732707,-0.38113440182059993
-0.6002632975578308,-0.11441156268119812,-102.3572769165039,-0.17149293138438626,-0.765835291618067,-0.08094399720430374,-0.37826092323909194
0.32486310601234436,-0.33956000208854675,-102.24846649169922,-0.17286112301775977,-0.7721711661418275,-0.08323899880051613,-0.38204401961217316
0.2831170856952667,0.398682177066803,-102.18778991699219,-0.17420621881778867,-0.7785344607621013,-0.0781724972029527,-0.3815513348206877
-0.12145378440618515,0,-102.07254028320312,-0.17549786715302615,-0.7848659634134831,-0.07682530302554369,-0.378228983345131
-0.19245509803295135,0.8294200301170349,-102.01580810546875,-0.17680008809806572,-0.7911121811893661,-0.07944121037920317,-0.37131714976082236
0.4956952929496765,-1.034266710281372,-102.02059936523438,-0.17810304992418322,-0.7973150258159468,-0.07691420875489713,-0.3730242054288585
0.0623326301574707,0.31535065174102783,-102.0164566040039,-0.17934620146432684,-0.8035820206327153,-0.07226397606233757,-0.37901517258336137
-0.28503766655921936,-1.1670048236846924,-101.93669128417969,-0.17934620146432684,-0.8035820206327153,-0.07226397606233757,-0.37901517258336137
0.9643733501434326,-0.3461524248123169,-101.91490173339844,-0.17934620146432684,-0.8035820206327153,-0.07226397606233757,-0.37901517258336137
0.4729086458683014,1.6554372310638428,-101.8594741821289,-0.17934620146432684,-0.8035820206327153,-0.07226397606233757,-0.37901517258336137
0.9617771506309509,2.133476972579956,-101.67880249023438,-0.17934620146432684,-0.8035820206327153,-0.07226397606233757,-0.37901517258336137
-0.35432082414627075,3.943934440612793,-101.20012664794922,-0.17934620146432684,-0.8035820206327153,-0.07226397606233757,-0.37901517258336137
0.18435122072696686,1.2049554586410522,-100.47445678710938,-0.17934620146432684,-0.8035820206327153,-0.07226397606233757,-0.37901517258336137
0.7067840099334717,0.9320722818374634,-99.64827728271484,-0.17934620146432684,-0.8035820206327153,-0.07226397606233757,-0.37901517258336137
0.4985108971595764,-0.0628090351819992,-98.69892883300781,-0.17934620146432684,-0.8035820206327153,-0.07226397606233757,-0.37901517258336137
0.5341207981109619,0.8875252604484558,-97.54857635498047,-0.17934620146432684,-0.8035820206327153,-0.07226397606233757,-0.37901517258336137
1.1097320318222046,1.6411314010620117,-96.21663665771484,-0.17934620146432684,-0.8035820206327153,-0.07226397606233757,-0.37901517258336137
0.00491735665127635,1.6422145366668701,-94.79237365722656,-0.17934620146432684,-0.8035820206327153,-0.07226397606233757,-0.37901517258336137
1.2279911041259766,0.30915534496307373,-93.3001937866211,-0.17934620146432684,-0.8035820206327153,-0.07226397606233757,-0.37901517258336137
-0.4324948489665985,2.2663843631744385,-91.76538848876953,-0.17934620146432684,-0.8035820206327153,-0.07226397606233757,-0.37901517258336137
1.6329383850097656,-0.4517062306404114,-90.1615982055664,-0.17934620146432684,-0.8035820206327153,-0.07226397606233757,-0.37901517258336137
-0.5577588081359863,1.3944966793060303,-88.58253479003906,-0.17934620146432684,-0.8035820206327153,-0.07226397606233757,-0.37901517258336137
0.2757242023944855,0.20546241104602814,-86.96086120605469,-0.17934620146432684,-0.8035820206327153,-0.07226397606233757,-0.37901517258336137
-0.3143462538719177,1.5040309429168701,-85.37249755859375,-0.17934620146432684,-0.8035820206327153,-0.07226397606233757,-0.37901517258336137
2.1129941940307617,-0.7326434850692749,-83.82644653320312,-0.17934620146432684,-0.8035820206327153,-0.07226397606233757,-0.37901517258336137
0.3275661766529083,0.3136829137802124,-82.3645248413086,-0.17934620146432684,-0.8035820206327153,-0.07226397606233757,-0.37901517258336137
-0.41050294041633606,0.7215762734413147,-81.02906036376953,-0.17934620146432684,-0.8035820206327153,-0.07226397606233757,-0.37901517258336137
0.6449131965637207,1.4306633472442627,-79.69168853759766,-0.17934620146432684,-0.8035820206327153,-0.07226397606233757,-0.37901517258336137
1.2193211317062378,-0.6984692215919495,-78.45665740966797,-0.17934620146432684,-0.8035820206327153,-0.07226397606233757,-0.37901517258336137
-0.6775917410850525,1.3845065832138062,-77.2873764038086,-0.17934620146432684,-0.8035820206327153,-0.07226397606233757,-0.37901517258336137
-0.2301739603281021,0.31957554817199707,-76.12442779541016,-0.17934620146432684,-0.8035820206327153,-0.07226397606233757,-0.37901517258336137
0.2083093225955963,0.42292049527168274,-75.01272583007812,-0.17934620146432684,-0.8035820206327153,-0.07226397606233757,-0.37901517258336137
-0.022242305800318718,0.3747243285179138,-74.01000213623047,-0.17934620146432684,-0.8035820206327153,-0.07226397606233757,-0.37901517258336137
0.2467334121465683,0.7156813740730286,-73.01069641113281,-0.17934620146432684,-0.8035820206327153,-0.07226397606233757,-0.37901517258336137
0.948890745639801,-0.4737972915172577,-71.98331451416016,-0.17934620146432684,-0.8035820206327153,-0.07226397606233757,-0.37901517258336137
-0.6293657422065735,0.5658864974975586,-71.0506820678711,-0.17934620146432684,-0.8035820206327153,-0.07226397606233757,-0.37901517258336137
0.897748589515686,0.17812828719615936,-70.14275360107422,-0.17934620146432684,-0.8035820206327153,-0.07226397606233757,-0.37901517258336137
-0.2706953287124634,0.2960126996040344,-69.09966278076172,-0.17934620146432684,-0.8035820206327153,-0.07226397606233757,-0.37901517258336137
-0.7402946352958679,0.7352696061134338,-67.93477630615234,-0.17934620146432684,-0.8035820206327153,-0.07226397606233757,-0.37901517258336137
1.3316770792007446,-0.583061158657074,-66.69283294677734,-0.17934620146432684,-0.8035820206327153,-0.07226397606233757,-0.37901517258336137
-0.741438627243042,0.3286634683609009,-65.38411712646484,-0.17934620146432684,-0.8035820206327153,-0.07226397606233757,-0.37901517258336137
2.001434087753296,0.009953243657946587,-63.86595916748047,-0.17934620146432684,-0.8035820206327153,-0.07226397606233757,-0.37901517258336137
1.6026827096939087,0.40069419145584106,-62.35244369506836,-0.17934620146432684,-0.8035820206327153,-0.07226397606233757,-0.37901517258336137
-2.064802646636963,0.5431525111198425,-60.82295227050781,-0.17934620146432684,-0.8035820206327153,-0.07226397606233757,-0.37901517258336137
1.4520989656448364,0.03799009695649147,-59.23296356201172,-0.17934620146432684,-0.8035820206327153,-0.07226397606233757,-0.37901517258336137
0.9899394512176514,0.024903174489736557,-57.631649017333984,-0.17934620146432684,-0.8035820206327153,-0.07226397606233757,-0.37901517258336137
-0.3019450902938843,1.042014241218567,-55.98587417602539,-0.17934620146432684,-0.8035820206327153,-0.07226397606233757,-0.37901517258336137
-1.0417429208755493,0.6696730256080627,-54.392791748046875,-0.17934620146432684,-0.8035820206327153,-0.07226397606233757,-0.37901517258336137
1.3830454349517822,0.3934049606323242,-52.7116584777832,-0.17934620146432684,-0.8035820206327153,-0.07226397606233757,-0.37901517258336137
0.5204043388366699,0.33014050126075745,-51.044395446777344,-0.17934620146432684,-0.8035820206327153,-0.07226397606233757,-0.37901517258336137
0.029685670509934425,1.1301612854003906,-49.34556198120117,-0.17934620146432684,-0.8035820206327153,-0.07226397606233757,-0.37901517258336137
0.010249347425997257,0.7528066039085388,-47.663238525390625,-0.17934620146432684,-0.8035820206327153,-0.07226397606233757,-0.37901517258336137
0.421284556388855,-0.39499592781066895,-45.88884353637695,-0.17934620146432684,-0.8035820206327153,-0.07226397606233757,-0.37901517258336137
-0.9281003475189209,0.5569084286689758,-44.083194732666016,-0.17934620146432684,-0.8035820206327153,-0.07226397606233757,-0.37901517258336137
1.6964092254638672,0.4958699643611908,-42.254058837890625,-0.17934620146432684,-0.8035820206327153,-0.07226397606233757,-0.37901517258336137
-0.3479010760784149,-0.05697770044207573,-40.38811111450195,-0.17934620146432684,-0.8035820206327153,-0.07226397606233757,-0.37901517258336137
-0.8949459195137024,0.03643710911273956,-38.474666595458984,-0.17934620146432684,-0.8035820206327153,-0.07226397606233757,-0.37901517258336137
0.21572934091091156,0.6373429894447327,-36.43928909301758,-0.17934620146432684,-0.8035820206327153,-0.07226397606233757,-0.37901517258336137
0.32168465852737427,0.5255321264266968,-34.4739990234375,-0.17934620146432684,-0.8035820206327153,-0.07226397606233757,-0.37901517258336137
0.6136650443077087,0.04201596975326538,-32.581790924072266,-0.17934620146432684,-0.8035820206327153,-0.07226397606233757,-0.37901517258336137
-1.5942105054855347,0.07242721319198608,-30.673696517944336,-0.17934620146432684,-0.8035820206327153,-0.07226397606233757,-0.37901517258336137
0.9252808094024658,0.6392378211021423,-28.865793228149414,-0.17934620146432684,-0.8035820206327153,-0.07226397606233757,-0.37901517258336137
-1.3963773250579834,-0.737867534160614,-27.09065055847168,-0.17934620146432684,-0.8035820206327153,-0.07226397606233757,-0.37901517258336137
0.4128390848636627,0.8999592065811157,-25.27665901184082,-0.17934620146432684,-0.8035820206327153,-0.07226397606233757,-0.37901517258336137
0.06747611612081528,0.39656519889831543,-23.409183502197266,-0.17934620146432684,-0.8035820206327153,-0.07226397606233757,-0.37901517258336137
-0.14552471041679382,0.9364686608314514,-21.60457420349121,-0.17934620146432684,-0.8035820206327153,-0.07226397606233757,-0.37901517258336137
-0.028988750651478767,-0.27627238631248474,-19.7772159576416,-0.17934620146432684,-0.8035820206327153,-0.07226397606233757,-0.37901517258336137
-0.07561937719583511,0.8351140022277832,-17.974882125854492,-0.17934620146432684,-0.8035820206327153,-0.07226397606233757,-0.37901517258336137
0.05394701287150383,-0.5056252479553223,-16.06494903564453,-0.17934620146432684,-0.8035820206327153,-0.07226397606233757,-0.37901517258336137
0.07886908948421478,0.8769956827163696,-14.06142520904541,-0.17934620146432684,-0.8035820206327153,-0.07226397606233757,-0.37901517258336137
0.06543546169996262,0.13699142634868622,-12.051600456237793,-0.17934620146432684,-0.8035820206327153,-0.07226397606233757,-0.37901517258336137
0.614488959312439,0.6863998174667358,-10.075078010559082,-0.17934620146432684,-0.8035820206327153,-0.07226397606233757,-0.37901517258336137
-1.2558785676956177,-2.253187417984009,-8.43413257598877,-0.17934620146432684,-0.8035820206327153,-0.07226397606233757,-0.37901517258336137
-0.21217992901802063,-0.9786049723625183,-7.170765399932861,-0.17934620146432684,-0.8035820206327153,-0.07226397606233757,-0.37901517258336137
-0.6356073617935181,-1.6412649154663086,-6.473135948181152,-0.17934620146432684,-0.8035820206327153,-0.07226397606233757,-0.37901517258336137
-0.36984091997146606,-1.6158336400985718,-6.295078277587891,-0.17934620146432684,-0.8035820206327153,-0.07226397606233757,-0.37901517258336137
0.05399464815855026,0.17865365743637085,-6.417616367340088,-0.17934620146432684,-0.8035820206327153,-0.07226397606233757,-0.37901517258336137
-0.5695139169692993,0.6421405673027039,-6.434917449951172,-0.17934620146432684,-0.8035820206327153,-0.07226397606233757,-0.37901517258336137
-0.6963976621627808,-0.6909922957420349,-6.406886100769043,-0.17934620146432684,-0.8035820206327153,-0.07226397606233757,-0.37901517258336137
0.3782733380794525,0.6698527336120605,-6.424495220184326,-0.17934620146432684,-0.8035820206327153,-0.07226397606233757,-0.37901517258336137
0.40022140741348267,-0.31051942706108093,-6.421273708343506,-0.17934620146432684,-0.8035820206327153,-0.07226397606233757,-0.37901517258336137
0.5739415287971497,0.012566694989800453,-6.420047283172607,-0.17934620146432684,-0.8035820206327153,-0.07226397606233757,-0.37901517258336137
0.31555503606796265,0.04704096168279648,-6.414140224456787,-0.17934620146432684,-0.8035820206327153,-0.07226397606233757,-0.37901517258336137
-0.10562149435281754,0.025491848587989807,-6.417530536651611,-0.17934620146432684,-0.8035820206327153,-0.07226397606233757,-0.37901517258336137
0.0422961451113224,0.08545175194740295,-6.4177632331848145,-0.17934620146432684,-0.8035820206327153,-0.07226397606233757,-0.37901517258336137
0.16130106151103973,-0.050970081239938736,-6.421609401702881,-0.17934620146432684,-0.8035820206327153,-0.07226397606233757,-0.37901517258336137
0.37848034501075745,0.061784528195858,-6.417979717254639,-0.17934620146432684,-0.8035820206327153,-0.07226397606233757,-0.37901517258336137
0.22906948626041412,-0.0083268778398633,-6.4175944328308105,-0.17934620146432684,-0.8035820206327153,-0.07226397606233757,-0.37901517258336137
0.06536612659692764,0.04797551780939102,-6.415058612823486,-0.17934620146432684,-0.8035820206327153,-0.07226397606233757,-0.37901517258336137
0.07760512083768845,0.03171202540397644,-6.414729118347168,-0.17934620146432684,-0.8035820206327153,-0.07226397606233757,-0.37901517258336137
0.21674838662147522,0.025482220575213432,-6.417263507843018,-0.17934620146432684,-0.8035820206327153,-0.07226397606233757,-0.37901517258336137
0.2571766972541809,-0.0016870618565008044,-6.415189743041992,-0.17934620146432684,-0.8035820206327153,-0.07226397606233757,-0.37901517258336137
0.19184057414531708,0.039065245538949966,-6.4153337478637695,-0.17934620146432684,-0.8035820206327153,-0.07226397606233757,-0.37901517258336137
0.10235778242349625,0.019368760287761688,-6.414954662322998,-0.17934620146432684,-0.8035820206327153,-0.07226397606233757,-0.37901517258336137
0.1178453341126442,0.021327385678887367,-6.4140119552612305,-0.17934620146432684,-0.8035820206327153,-0.07226397606233757,-0.37901517258336137
0.19299714267253876,0.01844910904765129,-6.413878917694092,-0.17934620146432684,-0.8035820206327153,-0.07226397606233757,-0.37901517258336137
0.22241894900798798,0.030907489359378815,-6.413438320159912,-0.17934620146432684,-0.8035820206327153,-0.07226397606233757,-0.37901517258336137
0.1824369877576828,0.019226444885134697,-6.412570953369141,-0.17934620146432684,-0.8035820206327153,-0.07226397606233757,-0.37901517258336137
0.1327146738767624,0.020475763827562332,-6.412539958953857,-0.17934620146432684,-0.8035820206327153,-0.07226397606233757,-0.37901517258336137
0.15780340135097504,0.022127116098999977,-6.411858558654785,-0.17934620146432684,-0.8035820206327153,-0.07226397606233757,-0.37901517258336137
0.19520141184329987,0,-6.413434028625488,-0.18052608684222732,-0.8098974035704867,-0.06932226928571862,-0.37883077994920306
0.2187003791332245,0,-6.41540002822876,-0.18165271481706036,-0.8162112499029734,-0.06587308769424759,-0.37883077994920306
0.5174615979194641,-0.12180288136005402,-6.416240692138672,-0.18269947725244692,-0.8225335547688879,-0.05973840455214185,-0.37984580396053685
2.0767061710357666,-0.48236656188964844,-6.481635093688965,-0.18351496678880516,-0.828906274379567,-0.03812033981084826,-0.38488054932095106
3.279524087905884,-0.5948896408081055,-6.456491470336914,-0.1837783453510039,-0.8353957596601035,0.006514912346998823,-0.3938576843434323
2.789900302886963,0.6374372839927673,-6.336666107177734,-0.18324827567363774,-0.8419570997017173,0.05709344893693921,-0.3935031206502268
1.6021794080734253,0.5163386464118958,-6.368605613708496,-0.18199171265587205,-0.8484353617173874,0.09369411319494245,-0.38388832123018796
0.5963577032089233,-1.7463737726211548,-6.408848285675049,-0.18027746791433952,-0.854918919510544,0.11201525578896201,-0.39413861394859845
1.8055858612060547,0.4877682030200958,-6.367208957672119,-0.17824374534810578,-0.861575299574243,0.13203145215908682,-0.40462699369527394
2.5947585105895996,0.43433111906051636,-6.377150535583496,-0.17573764167519074,-0.868255048127353,0.16870098859071728,-0.3969428326779355
0.35298657417297363,-1.3486937284469604,-6.429862976074219,-0.17272125401223692,-0.8749342594087482,0.19326553096373872,-0.4045625210894892
1.0277137756347656,0.3286256790161133,-6.498412609100342,-0.1694042798607713,-0.8817478061525613,0.20477136721213654,-0.4130630881680796
1.7841074466705322,-0.2179657518863678,-6.560226917266846,-0.16579615837790895,-0.8886245062382009,0.22820321073134736,-0.41214092210866504
0.659516453742981,0.11934337019920349,-6.488704204559326,-0.1618230754281911,-0.8955003703831846,0.2485667432347933,-0.4129627752893914
1.2591675519943237,0.15947102010250092,-6.494642734527588,-0.157547054429435,-0.9023637211942369,0.2645557766159375,-0.4106393220368772
1.2973655462265015,-0.17442020773887634,-6.533114910125732,-0.157547054429435,-0.9023637211942369,0.2645557766159375,-0.4106393220368772
0.9475119709968567,-0.5095791220664978,-6.496895790100098,-0.15298189721380664,-0.9092552098483102,0.2832630892594655,-0.41633931645192196
-1.062689185142517,0.38193589448928833,-6.414672374725342,-0.1482688441437979,-0.9162030625688684,0.282303279141585,-0.41740301001506536
-0.661977231502533,-1.0767115354537964,-6.387238025665283,-0.14368355799259405,-0.9232080277108532,0.2679310590028762,-0.4231928070231029
-2.025249719619751,0.5040947198867798,-6.580376148223877,-0.13940465332526294,-0.9303010062178748,0.24553750107685718,-0.42796461381949474
1.698823094367981,0.6628265380859375,-6.599749565124512,-0.13533503015629114,-0.9373527135830627,0.2428172791997591,-0.4182402700030554
3.0487911701202393,-0.6419198513031006,-6.4962029457092285,-0.13095838006792793,-0.9443219328965315,0.2823807314038276,-0.41806604761319843
0.8888040781021118,0.5840763449668884,-6.565131187438965,-0.12597859043007092,-0.9512937172669138,0.31519402513901384,-0.41854807683266687
0.09318339079618454,-1.5132917165756226,-6.578002452850342,-0.12065716310352498,-0.9583340473927089,0.32337725404649964,-0.42629153826273963
1.5138579607009888,0.07920307666063309,-6.5374674797058105,-0.11515594210889601,-0.9655384958526375,0.3367692653089761,-0.4382422769286979
0.7456153035163879,1.4662301540374756,-6.5543317794799805,-0.10938621315484243,-0.9727352120493173,0.3555982091774542,-0.42536366667288034
0.665614902973175,0,-6.4710493087768555,-0.1033615742375453,-0.9797227849553906,0.36735846089820057,-0.4131450820559014
0.17276017367839813,-0.5863150358200073,-6.316646575927734,-0.09718071273114115,-0.9866492526449209,0.374344919870297,-0.4180310406877348
1.2407941818237305,0.19024255871772766,-6.263656139373779,-0.09718071273114115,-0.9866492526449209,0.374344919870297,-0.4180310406877348
0.6540013551712036,0.2791435122489929,-6.2942023277282715,-0.09081004770990045,-0.9935838404014549,0.3901348826785881,-0.41411949009634547
0.059611786156892776,-0.47530823945999146,-6.300268650054932,-0.08425824319710953,-1.0004994544535615,0.39608165885632224,-0.4157541961564371
-1.0288587808609009,-0.07670365273952484,-6.311862945556641,-0.0777241910352475,-1.0074670252153493,0.38800460056712216,-0.42035429525809975
-0.5273252725601196,0,-6.417792797088623,-0.07136551602950525,-1.014478256778869,0.375036400121947,-0.4209934923642625
-0.14879417419433594,-0.4708973169326782,-6.514265537261963,-0.06516186210016409,-1.0215275161875048,0.3694020713989932,-0.4249176366720348
0.2450563609600067,1.3311775922775269,-6.4958014488220215,-0.058998476036099916,-1.0285497351129176,0.3702042562887071,-0.4177486343774944
2.124134063720703,1.5745837688446045,-6.4911346435546875,-0.052663877985129746,-1.0353104233691313,0.38994750982771303,-0.39353395636814326
0.3357183635234833,-0.5345525741577148,-6.551670551300049,-0.04599392973610924,-1.0417970982534137,0.4104462800547479,-0.3848670297457525
1.5731127262115479,-2.6166598796844482,-6.49894380569458,-0.039020600687298505,-1.0484303829473598,0.4263532058025398,-0.4111271335277705
0.15400482714176178,-0.20683653652668,-6.457447528839111,-0.03179477520493997,-1.055478577979504,0.44074585208048406,-0.4346562703295299
0.12196478992700577,0.5091936588287354,-6.453218460083008,-0.024429846446857684,-1.0627018521292806,0.44304559888939044,-0.43213662764367944
-0.46057069301605225,-0.8686251044273376,-6.39938497543335,-0.024429846446857684,-1.0627018521292806,0.44304559888939044,-0.43213662764367944
-0.10020358115434647,0.8722984790802002,-6.271922588348389,-0.01708469578996301,-1.0699038741612132,0.43837247993797046,-0.4321060161882389
1.271597981452942,1.37546968460083,-6.2288408279418945,-0.009697140957642764,-1.0769495460863172,0.4481340999404588,-0.4133746148242303
-2.4582719802856445,-1.2218645811080933,-6.406970977783203,-0.002310647208554055,-1.0838284559789786,0.43824514995018626,-0.4120945722951242
-0.3527968227863312,0.9539763331413269,-6.534848690032959,0.0047982255126246065,-1.0907153022011173,0.4148195765912531,-0.4143269743615139
0.05568487569689751,0.058271728456020355,-6.49354362487793,0.011691252348375392,-1.0975504567695316,0.4123436436988412,-0.4058915738482027
1.6250101327896118,0,-6.460949420928955,0.018680361341167642,-1.1043112696858588,0.4263494354362288,-0.40540597611106916
1.2994239330291748,-0.4342425763607025,-6.493690013885498,0.025989270964119984,-1.111098191688846,0.450719719318052,-0.40902466424740835
0.25922155380249023,-1.437462568283081,-6.50912618637085,0.033609505556006385,-1.1180452489502364,0.4637084317083159,-0.4246222071194399
-0.16018888354301453,-0.6620213389396667,-6.534368991851807,0.04134485668657967,-1.1252680832291175,0.46453370396047816,-0.4421179063462961
1.1376221179962158,1.9602980613708496,-6.58219575881958,0.04915496239386911,-1.1325465568958315,0.47267898091425486,-0.4312989336593696
-0.3678494691848755,-0.3073127567768097,-6.606966018676758,0.04915496239386911,-1.1325465568958315,0.47267898091425486,-0.4312989336593696
0.09798842668533325,0.1795428991317749,-6.512291431427002,0.04915496239386911,-1.1325465568958315,0.47267898091425486,-0.4312989336593696
-0.4651021361351013,-0.10373873263597488,-6.365130424499512,0.04915496239386911,-1.1325465568958315,0.47267898091425486,-0.4312989336593696
-2.5146238803863525,0.1914430856704712,-6.057746887207031,0.04915496239386911,-1.1325465568958315,0.47267898091425486,-0.4312989336593696
-2.8190436363220215,0.4318082332611084,-5.557302951812744,0.04915496239386911,-1.1325465568958315,0.47267898091425486,-0.4312989336593696
-1.6708953380584717,1.3060977458953857,-4.832417964935303,0.04915496239386911,-1.1325465568958315,0.47267898091425486,-0.4312989336593696
-1.6175700426101685,1.642875075340271,-3.9187135696411133,0.04915496239386911,-1.1325465568958315,0.47267898091425486,-0.4312989336593696
-0.8426883816719055,0.21654033660888672,-2.7482268810272217,0.04915496239386911,-1.1325465568958315,0.47267898091425486,-0.4312989336593696
0.06286948919296265,0.963312029838562,-1.3784353733062744,0.04915496239386911,-1.1325465568958315,0.47267898091425486,-0.4312989336593696
-0.6871336698532104,0.41472890973091125,0.09681452065706253,0.04915496239386911,-1.1325465568958315,0.47267898091425486,-0.4312989336593696
-0.8149863481521606,0.3902621865272522,1.4720267057418823,0.04915496239386911,-1.1325465568958315,0.47267898091425486,-0.4312989336593696
-1.4930819272994995,0.17444556951522827,2.8551347255706787,0.04915496239386911,-1.1325465568958315,0.47267898091425486,-0.4312989336593696
0.37109822034835815,1.3081269264221191,4.273916244506836,0.04915496239386911,-1.1325465568958315,0.47267898091425486,-0.4312989336593696
-0.7000815272331238,0.22752979397773743,5.703721523284912,0.04915496239386911,-1.1325465568958315,0.47267898091425486,-0.4312989336593696
0.35856083035469055,0.8261996507644653,7.173481464385986,0.04915496239386911,-1.1325465568958315,0.47267898091425486,-0.4312989336593696
-1.2898427248001099,0.8438113927841187,8.655805587768555,0.04915496239386911,-1.1325465568958315,0.47267898091425486,-0.4312989336593696
-0.059178903698921204,0.026908637955784798,10.185359001159668,0.04915496239386911,-1.1325465568958315,0.47267898091425486,-0.4312989336593696
-1.313399314880371,-1.0810317993164062,11.78281307220459,0.04915496239386911,-1.1325465568958315,0.47267898091425486,-0.4312989336593696
0.28613290190696716,1.3846454620361328,13.316720008850098,0.04915496239386911,-1.1325465568958315,0.47267898091425486,-0.4312989336593696
-1.437266230583191,-1.4862415790557861,14.887030601501465,0.04915496239386911,-1.1325465568958315,0.47267898091425486,-0.4312989336593696
-0.08386553078889847,0.5041670799255371,16.322635650634766,0.04915496239386911,-1.1325465568958315,0.47267898091425486,-0.4312989336593696
-0.8106351494789124,-0.8038249015808105,17.746829986572266,0.04915496239386911,-1.1325465568958315,0.47267898091425486,-0.4312989336593696
0.5729129910469055,1.7561759948730469,19.246158599853516,0.04915496239386911,-1.1325465568958315,0.47267898091425486,-0.4312989336593696
-0.891588568687439,-0.33559104800224304,20.86960792541504,0.04915496239386911,-1.1325465568958315,0.47267898091425486,-0.4312989336593696
0.21728038787841797,1.15385901927948,22.52487564086914,0.04915496239386911,-1.1325465568958315,0.47267898091425486,-0.4312989336593696
-0.5750332474708557,-0.9238842725753784,24.266252517700195,0.04915496239386911,-1.1325465568958315,0.47267898091425486,-0.4312989336593696
-0.7178141474723816,0.7765952944755554,26.018190383911133,0.04915496239386911,-1.1325465568958315,0.47267898091425486,-0.4312989336593696
0.15259942412376404,-0.17152121663093567,27.768964767456055,0.04915496239386911,-1.1325465568958315,0.47267898091425486,-0.4312989336593696
-0.5910264253616333,0.36962616443634033,29.5313720703125,0.04915496239386911,-1.1325465568958315,0.47267898091425486,-0.4312989336593696
-0.01007004827260971,0.6179793477058411,31.378931045532227,0.04915496239386911,-1.1325465568958315,0.47267898091425486,-0.4312989336593696
-0.9977153539657593,0.7304328083992004,33.24322509765625,0.04915496239386911,-1.1325465568958315,0.47267898091425486,-0.4312989336593696
-0.07433503121137619,0.27765074372291565,35.11036682128906,0.04915496239386911,-1.1325465568958315,0.47267898091425486,-0.4312989336593696
-0.24201948940753937,0.11213968694210052,37.03898620605469,0.04915496239386911,-1.1325465568958315,0.47267898091425486,-0.4312989336593696
-0.09587566554546356,0.4868582785129547,38.9447021484375,0.04915496239386911,-1.1325465568958315,0.47267898091425486,-0.4312989336593696
-1.1707353591918945,0.34000954031944275,40.890228271484375,0.04915496239386911,-1.1325465568958315,0.47267898091425486,-0.4312989336593696
0.2391713261604309,-0.6982879638671875,42.923343658447266,0.04915496239386911,-1.1325465568958315,0.47267898091425486,-0.4312989336593696
-0.5034356117248535,-0.44888973236083984,45.056175231933594,0.04915496239386911,-1.1325465568958315,0.47267898091425486,-0.4312989336593696
-0.18212538957595825,1.1238452196121216,47.23193359375,0.04915496239386911,-1.1325465568958315,0.47267898091425486,-0.4312989336593696
-0.30018359422683716,-0.17630326747894287,49.33979415893555,0.04915496239386911,-1.1325465568958315,0.47267898091425486,-0.4312989336593696
0.3098083436489105,-0.6899827718734741,51.47062301635742,0.04915496239386911,-1.1325465568958315,0.47267898091425486,-0.4312989336593696
-1.122871994972229,0.6493622660636902,53.705810546875,0.04915496239386911,-1.1325465568958315,0.47267898091425486,-0.4312989336593696
-0.13603350520133972,1.1370558738708496,55.83408737182617,0.04915496239386911,-1.1325465568958315,0.47267898091425486,-0.4312989336593696
0.3875676393508911,-1.950026273727417,58.06764602661133,0.04915496239386911,-1.1325465568958315,0.47267898091425486,-0.4312989336593696
-0.5021437406539917,1.240553617477417,60.41072082519531,0.04915496239386911,-1.1325465568958315,0.47267898091425486,-0.4312989336593696
0.08547413349151611,-0.3608499765396118,62.838077545166016,0.04915496239386911,-1.1325465568958315,0.47267898091425486,-0.4312989336593696
-0.6475885510444641,0.8612488508224487,65.17707061767578,0.04915496239386911,-1.1325465568958315,0.47267898091425486,-0.4312989336593696
0.8866257667541504,0.5135793685913086,67.53040313720703,0.04915496239386911,-1.1325465568958315,0.47267898091425486,-0.4312989336593696
-0.19720421731472015,0.578894317150116,69.97447967529297,0.04915496239386911,-1.1325465568958315,0.47267898091425486,-0.4312989336593696
-0.5242388844490051,0.45398151874542236,72.44610595703125,0.04915496239386911,-1.1325465568958315,0.47267898091425486,-0.4312989336593696
0.6742412447929382,-2.4580111503601074,74.81021881103516,0.04915496239386911,-1.1325465568958315,0.47267898091425486,-0.4312989336593696
-1.0750468969345093,2.372251272201538,77.19102478027344,0.04915496239386911,-1.1325465568958315,0.47267898091425486,-0.4312989336593696
-0.8404760956764221,-0.046615343540906906,79.6354751586914,0.04915496239386911,-1.1325465568958315,0.47267898091425486,-0.4312989336593696
2.5146498680114746,-0.8130365610122681,81.97142028808594,0.04915496239386911,-1.1325465568958315,0.47267898091425486,-0.4312989336593696
-0.5268940329551697,0.45957595109939575,83.88543701171875,0.04915496239386911,-1.1325465568958315,0.47267898091425486,-0.4312989336593696
2.8169405460357666,-1.227384328842163,85.29554748535156,0.04915496239386911,-1.1325465568958315,0.47267898091425486,-0.4312989336593696
1.4001710414886475,-1.302600383758545,86.18232727050781,0.04915496239386911,-1.1325465568958315,0.47267898091425486,-0.4312989336593696
1.239524245262146,0.20563222467899323,86.57927703857422,0.04915496239386911,-1.1325465568958315,0.47267898091425486,-0.4312989336593696
1.4901562929153442,-0.35480475425720215,86.73121643066406,0.04915496239386911,-1.1325465568958315,0.47267898091425486,-0.4312989336593696
-0.2894143760204315,-1.391575813293457,86.76181030273438,0.04915496239386911,-1.1325465568958315,0.47267898091425486,-0.4312989336593696
0.21596620976924896,-1.4314634799957275,86.76799774169922,0.04915496239386911,-1.1325465568958315,0.47267898091425486,-0.4312989336593696
0.08705520629882812,-1.7468754053115845,86.76016235351562,0.04915496239386911,-1.1325465568958315,0.47267898091425486,-0.4312989336593696
0.06379584968090057,0.6121342778205872,86.73570251464844,0.04915496239386911,-1.1325465568958315,0.47267898091425486,-0.4312989336593696
0.23949776589870453,1.2207772731781006,86.73230743408203,0.04915496239386911,-1.1325465568958315,0.47267898091425486,-0.4312989336593696
0.2421448826789856,0.7795018553733826,86.75519561767578,0.04915496239386911,-1.1325465568958315,0.47267898091425486,-0.4312989336593696
0.06283155083656311,-0.18420541286468506,86.75037384033203,0.04915496239386911,-1.1325465568958315,0.47267898091425486,-0.4312989336593696
0.16176049411296844,-0.3585641086101532,86.75244903564453,0.04915496239386911,-1.1325465568958315,0.47267898091425486,-0.4312989336593696
0.1391046941280365,0.15189938247203827,86.74560546875,0.04915496239386911,-1.1325465568958315,0.47267898091425486,-0.4312989336593696
0.14002935588359833,0.4926341772079468,86.74647521972656,0.04915496239386911,-1.1325465568958315,0.47267898091425486,-0.4312989336593696
0.18640106916427612,0.3238134980201721,86.74828338623047,0.04915496239386911,-1.1325465568958315,0.47267898091425486,-0.4312989336593696
0.1257227212190628,-0.08750263601541519,86.75386047363281,0.04915496239386911,-1.1325465568958315,0.47267898091425486,-0.4312989336593696
0.12722356617450714,0.030502889305353165,86.75,0.04915496239386911,-1.1325465568958315,0.47267898091425486,-0.4312989336593696
0.17285919189453125,0.28503188490867615,86.74796295166016,0.04915496239386911,-1.1325465568958315,0.47267898091425486,-0.4312989336593696
0.12093903124332428,0.2925698459148407,86.75064086914062,0.04915496239386911,-1.1325465568958315,0.47267898091425486,-0.4312989336593696
0.1575613021850586,0.09813126921653748,86.7507553100586,0.04915496239386911,-1.1325465568958315,0.47267898091425486,-0.4312989336593696
0.12262515723705292,0.04072028025984764,86.75206756591797,0.04915496239386911,-1.1325465568958315,0.47267898091425486,-0.4312989336593696
0.1492285579442978,0.19913029670715332,86.75053405761719,0.04915496239386911,-1.1325465568958315,0.47267898091425486,-0.4312989336593696
0.12255652248859406,0.23683740198612213,86.75079345703125,0.04915496239386911,-1.1325465568958315,0.47267898091425486,-0.4312989336593696
0.1375904679298401,0.14851033687591553,86.75047302246094,0.04915496239386911,-1.1325465568958315,0.47267898091425486,-0.4312989336593696
0.12930895388126373,0.09949839115142822,86.75037384033203,0.04915496239386911,-1.1325465568958315,0.47267898091425486,-0.4312989336593696
0.13702741265296936,0.1820293813943863,86.75010681152344,0.05705144099011601,-1.1397153219170608,0.47489845063537345,-0.4289528688881545
0.14590677618980408,0.4600917100906372,86.73750305175781,0.06498606337493076,-1.1468199446560658,0.47725623554239655,-0.42360185979244597
0.09139484912157059,1.3862112760543823,86.75772857666016,0.07295681324683956,-1.1537517601674576,0.479233749086658,-0.40821600157457083
0.09221573173999786,2.258164167404175,86.88455200195312,0.08095679313306592,-1.1603022785656825,0.4807638372605044,-0.3778462062124162
0.27627044916152954,2.6228790283203125,86.79503631591797,0.08899511307219249,-1.166260754002853,0.48383455543468384,-0.3371708462480455
1.1870321035385132,2.5706207752227783,86.68758392333984,0.09716064056226362,-1.1715196083984076,0.4960287433738509,-0.2938916812185197
-0.7106960415840149,1.8508244752883911,86.775146484375,0.10546086517835242,-1.1761107582763197,0.49999821055680505,-0.25704630413092666
0.711341381072998,1.6090106964111328,86.81959533691406,0.11379421350287479,-1.1801545970138005,0.5000035883858799,-0.22821434436676397
0.40659964084625244,0.936173677444458,86.85338592529297,0.12220524143582828,-1.1837814205050623,0.5093197635685403,-0.20700447458463406
0,1.4385048151016235,86.84833526611328,0.1307221402481405,-1.1870665868528238,0.5127080939089257,-0.18721548714675004
0.06483864039182663,2.154496192932129,86.83555603027344,0.13927177782998312,-1.1899373310130452,0.513248415912191,-0.1572738120798021
0.7785918116569519,0.8046326637268066,86.8072280883789,0.13927177782998312,-1.1899373310130452,0.513248415912191,-0.1572738120798021
-0.15022584795951843,1.0965790748596191,86.86212921142578,0.14786955462044307,-1.1924265326214178,0.5184847989430029,-0.14143038092491522
-1.1764805316925049,-0.7920820116996765,86.85441589355469,0.15641883554868397,-1.194762560007447,0.5074289124459027,-0.13889290539858237
0.8161440491676331,-1.1575291156768799,86.7496566772461,0.164850960722607,-1.1972128314257133,0.5044261084248621,-0.155139664793387
-0.2999814450740814,-0.27465298771858215,86.67206573486328,0.1732939071549723,-1.1998979495961166,0.508727463458975,-0.16707451565501585
0.4297506511211395,2.94431471824646,86.7370834350586,0.18178170996304183,-1.2024971316813025,0.5098088735093672,-0.14482733456728353
1.594096064567566,0.5382257699966431,86.73342895507812,0.190419069432343,-1.2046690775012958,0.5266742628067731,-0.11580616383192434
0.1259704977273941,1.1780580282211304,86.47435760498047,0.19931642287928192,-1.2064799938569517,0.5410081508258978,-0.10150379884677622
0.2030586451292038,-0.13969561457633972,86.27628326416016,0.2083560746390786,-1.2080996153367838,0.5437500603497027,-0.09285077873306964
-0.7661992907524109,2.1435670852661133,86.3939437866211,0.21737946865562757,-1.209507970574648,0.539057221636176,-0.07615184981065487
-0.06965945661067963,0.8149290680885315,86.59107971191406,0.22630570993655252,-1.2105717169497316,0.5320917320748169,-0.05149771519936616
1.3292042016983032,0.6716846823692322,86.8142318725586,0.23526137385620832,-1.2113267751370504,0.5425879382838804,-0.0391092672788848
0.20015953481197357,0.8934491276741028,86.9024887084961,0.2444107119759751,-1.2118699064104455,0.5553326360881328,-0.026066485528523677
-0.8071662187576294,0.3452964425086975,86.91090393066406,0.2444107119759751,-1.2118699064104455,0.5553326360881328,-0.026066485528523677
-0.1824733018875122,0.27254718542099,86.9540023803711,0.25359753094406584,-1.2122614420284257,0.5470856400827566,-0.020917788629109615
0.7529708743095398,1.028398871421814,86.96194458007812,0.26275524283241886,-1.2125197283627411,0.5518397865196069,-0.010076571488752916
0.8404431343078613,-0.5607473254203796,86.98970031738281,0.27206322635834407,-1.2126551954190814,0.5651182365914186,-0.006179475272074297
0,-0.532457172870636,87.05272674560547,0.28154022774141685,-1.212834103652664,0.5721219293773174,-0.01528951275783276
-1.2191884517669678,-0.7110723853111267,87.05377960205078,0.29099092736633275,-1.2131752850846127,0.5619620256125927,-0.025652259076014115
0.9330132007598877,1.830679178237915,87.11843872070312,0.30033708784522267,-1.2135250722641486,0.5595772318542004,-0.01632220246829088
1.2530007362365723,1.3395763635635376,87.2743911743164,0.3098151815661952,-1.213576952337106,0.5777940146625042,0.010096593713387891
-0.9731689095497131,1.786421537399292,87.380859375,0.3194645145763124,-1.2131915925876493,0.5801259465515614,0.03614657622141147
-0.2379092574119568,0.3214668929576874,87.36400604248047,0.32904917770168834,-1.2124427685096288,0.5700336284935474,0.053712313141052966
0.969903826713562,-0.505786657333374,87.35291290283203,0.3386005711327823,-1.2115603632742484,0.5761335832377275,0.05217631510458891
0.535510241985321,-0.1364212930202484,87.30131530761719,0.3483073401637374,-1.2107353557968354,0.5886787004768849,0.046824582184975386
-0.24944260716438293,-0.09568145126104355,87.31446838378906,0.3483073401637374,-1.2107353557968354,0.5886787004768849,0.046824582184975386
-1.1765164136886597,1.1082737445831299,87.29508972167969,0.3580196269063484,-1.209884627184494,0.5767957086364428,0.055262851295992774
-0.3249557614326477,0.5424414277076721,87.2276382446289,0.36752861981590573,-1.2088489466648185,0.5642834405104319,0.06901881106508279
1.3154515027999878,0,87.21783447265625,0.3770021282508968,-1.2076609636034763,0.5725375716884931,0.07353915629598005
0.549523115158081,-1.9908446073532104,87.069580078125,0.38667393323861876,-1.2065735640962763,0.5880790268381436,0.056948784568036634
-0.5497000813484192,0.9956823587417603,86.9411392211914,0.39647523806326906,-1.2056935261762958,0.5880775521198908,0.048655765829607886
1.2648011445999146,1.2890065908432007,86.90692901611328,0.4063261903946597,-1.20472393779097,0.5940367276469866,0.06769484040948257
0.10812641680240631,0.11417906731367111,86.85029602050781,0.4163221447138736,-1.2034982470023288,0.6054777906586726,0.0793880542274565
0.2753585875034332,0.9547179341316223,86.8746566772461,0.4264400721279282,-1.2021008838067708,0.6086734990278879,0.08829552923950061
-0.9862831234931946,0.7331752181053162,86.87916564941406,0.43653526068561593,-1.2005120768505404,0.6027491278946399,0.10236130550814176
-0.23449961841106415,0.43388354778289795,86.80476379394531,0.44649630290456105,-1.1987250093444402,0.592575938378771,0.11208679522387688
0.9763981103897095,0.8104956746101379,86.72864532470703,0.45642408927281686,-1.1967704808669315,0.5987584258119264,0.12245662207715217
0.3015885651111603,0.26509007811546326,86.65504455566406,0.45642408927281686,-1.1967704808669315,0.5987584258119264,0.12245662207715217
-0.10819398611783981,-0.5017687082290649,86.65644073486328,0.45642408927281686,-1.1967704808669315,0.5987584258119264,0.12245662207715217
0.20207177102565765,0.004051863681524992,86.87267303466797,0.45642408927281686,-1.1967704808669315,0.5987584258119264,0.12245662207715217
0.615673840045929,-1.4250173568725586,86.96880340576172,0.45642408927281686,-1.1967704808669315,0.5987584258119264,0.12245662207715217
0.19853045046329498,-4.55302619934082,87.0214614868164,0.45642408927281686,-1.1967704808669315,0.5987584258119264,0.12245662207715217
-1.3671964406967163,-1.525156021118164,87.33341979980469,0.45642408927281686,-1.1967704808669315,0.5987584258119264,0.12245662207715217
-0.797940731048584,-0.6478721499443054,87.9871597290039,0.45642408927281686,-1.1967704808669315,0.5987584258119264,0.12245662207715217
-1.475836992263794,1.106601357460022,89.0157699584961,0.45642408927281686,-1.1967704808669315,0.5987584258119264,0.12245662207715217
-0.7991819977760315,-1.6950691938400269,90.15812683105469,0.45642408927281686,-1.1967704808669315,0.5987584258119264,0.12245662207715217
0.32480669021606445,-0.9446638822555542,91.40058135986328,0.45642408927281686,-1.1967704808669315,0.5987584258119264,0.12245662207715217
-1.1125857830047607,-0.7851897478103638,92.63949584960938,0.45642408927281686,-1.1967704808669315,0.5987584258119264,0.12245662207715217
0.6099486947059631,-1.7781105041503906,93.97583770751953,0.45642408927281686,-1.1967704808669315,0.5987584258119264,0.12245662207715217
-1.067739725112915,0.7313186526298523,95.46558380126953,0.45642408927281686,-1.1967704808669315,0.5987584258119264,0.12245662207715217
-0.09873494505882263,-1.3822097778320312,96.99136352539062,0.45642408927281686,-1.1967704808669315,0.5987584258119264,0.12245662207715217
-0.9118533730506897,-0.6017078757286072,98.5527114868164,0.45642408927281686,-1.1967704808669315,0.5987584258119264,0.12245662207715217
0.07390989363193512,-0.5798066854476929,100.07862854003906,0.45642408927281686,-1.1967704808669315,0.5987584258119264,0.12245662207715217
0.15429098904132843,-0.8942705392837524,101.71002960205078,0.45642408927281686,-1.1967704808669315,0.5987584258119264,0.12245662207715217
-0.9439314007759094,-0.7650524377822876,103.2894515991211,0.45642408927281686,-1.1967704808669315,0.5987584258119264,0.12245662207715217
0.6257481575012207,0.1559433937072754,104.98137664794922,0.45642408927281686,-1.1967704808669315,0.5987584258119264,0.12245662207715217
-0.9931628108024597,-0.2556573748588562,106.7529067993164,0.45642408927281686,-1.1967704808669315,0.5987584258119264,0.12245662207715217
-0.9449869394302368,-0.32521119713783264,108.54300689697266,0.45642408927281686,-1.1967704808669315,0.5987584258119264,0.12245662207715217
-0.629756510257721,-0.2520520091056824,110.29656219482422,0.45642408927281686,-1.1967704808669315,0.5987584258119264,0.12245662207715217
-0.0447174534201622,-0.4032197892665863,112.02732849121094,0.45642408927281686,-1.1967704808669315,0.5987584258119264,0.12245662207715217
-0.6676095128059387,0.2367684543132782,113.81990051269531,0.45642408927281686,-1.1967704808669315,0.5987584258119264,0.12245662207715217
0.30233657360076904,-0.5678808689117432,115.63285064697266,0.45642408927281686,-1.1967704808669315,0.5987584258119264,0.12245662207715217
0.2429346889257431,-0.4774034321308136,117.37240600585938,0.45642408927281686,-1.1967704808669315,0.5987584258119264,0.12245662207715217
0.30437085032463074,-0.022055042907595634,119.06478881835938,0.45642408927281686,-1.1967704808669315,0.5987584258119264,0.12245662207715217
-0.07913494110107422,0.258012056350708,120.73387908935547,0.45642408927281686,-1.1967704808669315,0.5987584258119264,0.12245662207715217
0.30153122544288635,-0.6041004061698914,122.35718536376953,0.45642408927281686,-1.1967704808669315,0.5987584258119264,0.12245662207715217
-0.1098606139421463,-0.04425870254635811,124.0631103515625,0.45642408927281686,-1.1967704808669315,0.5987584258119264,0.12245662207715217
-0.022616317495703697,-0.5804073810577393,125.75614929199219,0.45642408927281686,-1.1967704808669315,0.5987584258119264,0.12245662207715217
-0.12040061503648758,-0.06146020442247391,127.37837219238281,0.45642408927281686,-1.1967704808669315,0.5987584258119264,0.12245662207715217
-0.8994743227958679,-0.16875241696834564,129.02133178710938,0.45642408927281686,-1.1967704808669315,0.5987584258119264,0.12245662207715217
-0.040071479976177216,-0.10153593868017197,130.6218719482422,0.45642408927281686,-1.1967704808669315,0.5987584258119264,0.12245662207715217
1.7637161016464233,-1.1349834203720093,132.17449951171875,0.45642408927281686,-1.1967704808669315,0.5987584258119264,0.12245662207715217
-0.7148267030715942,0.44284942746162415,133.71875,0.45642408927281686,-1.1967704808669315,0.5987584258119264,0.12245662207715217
0.684432327747345,-0.03745978698134422,135.2705535888672,0.45642408927281686,-1.1967704808669315,0.5987584258119264,0.12245662207715217
-0.4919686019420624,-0.17553754150867462,136.7483673095703,0.45642408927281686,-1.1967704808669315,0.5987584258119264,0.12245662207715217
0.34139084815979004,0.011223109439015388,138.29776000976562,0.45642408927281686,-1.1967704808669315,0.5987584258119264,0.12245662207715217
-0.757163405418396,-0.4150000810623169,139.8561553955078,0.45642408927281686,-1.1967704808669315,0.5987584258119264,0.12245662207715217
0.7011154890060425,0.08988949656486511,141.37701416015625,0.45642408927281686,-1.1967704808669315,0.5987584258119264,0.12245662207715217
-0.2505100965499878,0.3472038209438324,143.02334594726562,0.45642408927281686,-1.1967704808669315,0.5987584258119264,0.12245662207715217
-0.5872687697410583,-0.48775869607925415,144.75320434570312,0.45642408927281686,-1.1967704808669315,0.5987584258119264,0.12245662207715217
0.4994857907295227,-0.11327001452445984,146.33154296875,0.45642408927281686,-1.1967704808669315,0.5987584258119264,0.12245662207715217
0.9444313049316406,-0.010371175594627857,147.93621826171875,0.45642408927281686,-1.1967704808669315,0.5987584258119264,0.12245662207715217
-0.10716686397790909,-0.44668370485305786,149.68734741210938,0.45642408927281686,-1.1967704808669315,0.5987584258119264,0.12245662207715217
0.5883909463882446,0.384182870388031,151.35719299316406,0.45642408927281686,-1.1967704808669315,0.5987584258119264,0.12245662207715217
0.1596967726945877,-0.3941727578639984,152.9961395263672,0.45642408927281686,-1.1967704808669315,0.5987584258119264,0.12245662207715217
0.8285890221595764,0.0025801288429647684,154.7493133544922,0.45642408927281686,-1.1967704808669315,0.5987584258119264,0.12245662207715217
-0.5688542127609253,-0.9120781421661377,156.5067138671875,0.45642408927281686,-1.1967704808669315,0.5987584258119264,0.12245662207715217
0.9966199994087219,0.13853609561920166,158.174560546875,0.45642408927281686,-1.1967704808669315,0.5987584258119264,0.12245662207715217
-0.25504210591316223,0.40680131316185,159.88992309570312,0.45642408927281686,-1.1967704808669315,0.5987584258119264,0.12245662207715217
-0.5922468900680542,-0.7217984795570374,161.5315399169922,0.45642408927281686,-1.1967704808669315,0.5987584258119264,0.12245662207715217
1.7776488065719604,0.7493687868118286,163.02230834960938,0.45642408927281686,-1.1967704808669315,0.5987584258119264,0.12245662207715217
-0.5259857773780823,-0.05136461928486824,164.2924346923828,0.45642408927281686,-1.1967704808669315,0.5987584258119264,0.12245662207715217
-0.39964547753334045,0.9237974882125854,165.28578186035156,0.45642408927281686,-1.1967704808669315,0.5987584258119264,0.12245662207715217
1.6925514936447144,1.130797266960144,165.979736328125,0.45642408927281686,-1.1967704808669315,0.5987584258119264,0.12245662207715217
1.3557780981063843,0.6868022084236145,166.3742218017578,0.45642408927281686,-1.1967704808669315,0.5987584258119264,0.12245662207715217
2.4559872150421143,0.36748072504997253,166.6239471435547,0.45642408927281686,-1.1967704808669315,0.5987584258119264,0.12245662207715217
0.6463780403137207,-0.756787121295929,166.74789428710938,0.45642408927281686,-1.1967704808669315,0.5987584258119264,0.12245662207715217
1.0217680931091309,0.1755969524383545,166.76986694335938,0.45642408927281686,-1.1967704808669315,0.5987584258119264,0.12245662207715217
0.39507806301116943,0.315236896276474,166.73353576660156,0.45642408927281686,-1.1967704808669315,0.5987584258119264,0.12245662207715217
-0.3782128095626831,0.011977343820035458,166.6963348388672,0.45642408927281686,-1.1967704808669315,0.5987584258119264,0.12245662207715217
-0.43343815207481384,0.20667217671871185,166.64364624023438,0.45642408927281686,-1.1967704808669315,0.5987584258119264,0.12245662207715217
-0.3258037865161896,0.30801111459732056,166.62396240234375,0.45642408927281686,-1.1967704808669315,0.5987584258119264,0.12245662207715217
-0.22340871393680573,0.136922687292099,166.63783264160156,0.45642408927281686,-1.1967704808669315,0.5987584258119264,0.12245662207715217
0.11537027359008789,0.08998844027519226,166.63214111328125,0.45642408927281686,-1.1967704808669315,0.5987584258119264,0.12245662207715217
0.21860702335834503,0.12875689566135406,166.63583374023438,0.45642408927281686,-1.1967704808669315,0.5987584258119264,0.12245662207715217
-0.059800948947668076,0.09299898892641068,166.63262939453125,0.45642408927281686,-1.1967704808669315,0.5987584258119264,0.12245662207715217
-0.16795480251312256,0.21937541663646698,166.6300811767578,0.45642408927281686,-1.1967704808669315,0.5987584258119264,0.12245662207715217
-0.11931901425123215,0.1363481879234314,166.6337890625,0.45642408927281686,-1.1967704808669315,0.5987584258119264,0.12245662207715217
0.07889445871114731,0.10235114395618439,166.63436889648438,0.45642408927281686,-1.1967704808669315,0.5987584258119264,0.12245662207715217
0.08099747449159622,0.11560145020484924,166.63449096679688,0.45642408927281686,-1.1967704808669315,0.5987584258119264,0.12245662207715217
-0.05252639204263687,0.13294537365436554,166.63522338867188,0.45642408927281686,-1.1967704808669315,0.5987584258119264,0.12245662207715217
-0.1281520277261734,0.16672591865062714,166.63560485839844,0.45642408927281686,-1.1967704808669315,0.5987584258119264,0.12245662207715217
-0.05214967578649521,0.13664256036281586,166.63821411132812,0.45642408927281686,-1.1967704808669315,0.5987584258119264,0.12245662207715217
0.04911498725414276,0.10272632539272308,166.6376495361328,0.45642408927281686,-1.1967704808669315,0.5987584258119264,0.12245662207715217
0.02150600403547287,0.13856428861618042,166.63653564453125,0.45642408927281686,-1.1967704808669315,0.5987584258119264,0.12245662207715217
-0.07449803501367569,0.13388188183307648,166.6358184814453,0.45642408927281686,-1.1967704808669315,0.5987584258119264,0.12245662207715217
-0.07338077574968338,0.13944925367832184,166.63604736328125,0.45642408927281686,-1.1967704808669315,0.5987584258119264,0.12245662207715217
-0.015431487932801247,0.12181099504232407,166.6376190185547,0.45642408927281686,-1.1967704808669315,0.5987584258119264,0.12245662207715217
0.01793021336197853,0.11044380068778992,166.6380157470703,0.45642408927281686,-1.1967704808669315,0.5987584258119264,0.12245662207715217
0,0.12067433446645737,166.63697814941406,0.466404641523388,-1.1947134872951488,0.5989078442566096,0.1243826065367709
-0.06787809729576111,0.12622232735157013,166.63795471191406,0.4763817251709082,-1.192623298251354,0.5983421934458116,0.12644007871858778
-0.13078536093235016,0.1629500687122345,166.6327362060547,0.48634029898818365,-1.190495882189651,0.5966866646272441,0.12884984868578617
-0.9547362327575684,0.2650711238384247,166.6111297607422,0.4962096932879648,-1.1883186610176275,0.5876406513464948,0.13241669195704167
-3.126772403717041,0.11852932721376419,166.81687927246094,0.5057202660439846,-1.1860850772314648,0.553628079375873,0.13561336238247657
-2.1918766498565674,1.7339569330215454,167.0243377685547,0.5145780500715287,-1.1836962096459072,0.5093060039294263,0.15105074788443748
-2.194869041442871,1.1377745866775513,166.93397521972656,0.5227618483529011,-1.1809792713811875,0.4727497898352643,0.17498184388192994
-1.4309722185134888,0,166.88856506347656,0.5303892169848807,-1.1779838951924138,0.44253444600229463,0.18446329877090953
-0.9616149663925171,-0.3151630759239197,166.88954162597656,0.5375986391970783,-1.1749313932042822,0.42259621946141124,0.18183693980487686
-0.5359004735946655,1.7493623495101929,166.94590759277344,0.5445379153936583,-1.1718011803690906,0.41011692412818473,0.1937886004180958
-1.2458800077438354,-1.1773113012313843,167.0504608154297,0.5512494627068129,-1.1685316445948808,0.3952687534503639,0.19855569248708588
-1.8843660354614258,0.40480488538742065,167.09732055664062,0.5576198970668741,-1.1652760293323075,0.36918336975698673,0.1921181390217195
-0.9923405051231384,1.4832085371017456,167.267333984375,0.5576198970668741,-1.1652760293323075,0.36918336975698673,0.1921181390217195
-0.7798187732696533,0,167.45108032226562,0.5636498866129355,-1.1619710597557578,0.3544153757703801,0.20447821016423406
0,-0.10910853743553162,167.5680694580078,0.5695026554609648,-1.1585706665681201,0.34791688599313303,0.2035689723522713
1.9908565282821655,0.062078628689050674,167.4498748779297,0.5754395241530922,-1.155181116328134,0.3645073570621511,0.20317705644605064
0.6378605365753174,-0.8343208432197571,167.28868103027344,0.5816971965669654,-1.1518484599855978,0.3864133326026301,0.19674170465829474
-1.356102705001831,0.7218533754348755,167.3133087158203,0.5880875408486462,-1.1485772418154447,0.38042798119907584,0.1958044757600874
-1.4101537466049194,0.08951175957918167,167.3197479248047,0.5942359060594915,-1.1452574890850673,0.3573758441023529,0.20256585188520454
-3.223155975341797,1.1291007995605469,167.33682250976562,0.5998704125082844,-1.1417967656814847,0.3187649297527969,0.21272095654470227
-1.1996530294418335,1.0150883197784424,167.45518493652344,0.6048760218232766,-1.1381025143835632,0.28190818804626666,0.23058919920586052
0.4203912317752838,0.874747097492218,167.51071166992188,0.609520376221432,-1.1341281224928217,0.2754143397323787,0.24633782768311602
-1.3881148099899292,-0.1475314497947693,167.59088134765625,0.6140434121907067,-1.1299719909447907,0.26734997658059,0.25239795808059473
0.1416303664445877,-0.8922669887542725,167.63169860839844,0.6184126837140259,-1.1258375665350133,0.25696260621771216,0.24373297109268605
-1.6549657583236694,0.32782936096191406,167.7108917236328,0.6225903010821073,-1.1218145474076209,0.24435147795205314,0.2390293241944164
0.24382458627223969,0.8653483986854553,167.87611389160156,0.6265648297999158,-1.1177478657710718,0.2325919681849579,0.2489724721914778
-0.32400012016296387,-0.26157793402671814,167.96080017089844,0.6304357948575894,-1.1135563960633903,0.23192383873586853,0.2540038927303006
-1.4663201570510864,-0.4645210802555084,167.83299255371094,0.634176864372825,-1.109373421393877,0.21700450309241812,0.24795306761128205
0.1793331652879715,1.3981791734695435,167.68304443359375,0.6377042319943818,-1.105176032899438,0.20627961149439217,0.255733551721399
-0.9061543941497803,0.41747602820396423,167.5845947265625,0.6377042319943818,-1.105176032899438,0.20627961149439217,0.255733551721399
-0.9501224160194397,-0.620520830154419,167.35382080078125,0.641013317407471,-1.1009279073708835,0.19081063807631535,0.2540415117051452
0.3114319145679474,1.9508711099624634,167.22726440429688,0.6441491412016978,-1.0966014967397,0.18548821723088624,0.26512776403687893
0.940179169178009,-1.029457926750183,167.3322296142578,0.6473275289252505,-1.0921187136458066,0.19591830959543588,0.2728062072303146
0.709219217300415,0,167.4770965576172,0.650707375639791,-1.0876434336591034,0.20966329614942275,0.2642273911740631
-0.06480959802865982,-0.2492801696062088,167.4609832763672,0.654246514576953,-1.0832569549290918,0.2150333763100207,0.2621500564273447
-0.5897458791732788,0,167.53683471679688,0.6577849489406477,-1.0789050984448587,0.20957874733333787,0.2600727216806263
-1.7192425727844238,0.6648615002632141,167.63058471679688,0.6611175816425952,-1.0745243821459967,0.190337176900357,0.26561323418281974
0.5842717885971069,1.065549612045288,167.52793884277344,0.6642110505086992,-1.0699773274712616,0.18087908703212938,0.2800333267853906
-0.9645405411720276,-0.389573872089386,167.39430236816406,0.6671992944069726,-1.0652631625984526,0.17771018076067172,0.2856664579516898
-0.41132885217666626,-0.20633716881275177,167.31971740722656,0.6700655842673345,-1.0605434376770981,0.16624460248276593,0.28070053261083866
-1.1761113405227661,0,167.30548095703125,0.6727260887397765,-1.055879424436974,0.15301593421027065,0.2789810562040657
0.730573296546936,1.5941601991653442,167.39988708496094,0.6752454141680049,-1.0511190345975199,0.14930311717713873,0.2922657245304436
-0.6369650959968567,-1.617404580116272,167.57183837890625,0.6777403000237732,-1.0462495533818008,0.15008318551505606,0.29207202135585253
0.545314610004425,0.2402161955833435,167.77076721191406,0.6802353218319412,-1.0414773244414626,0.14931943146511914,0.2805954514847448
-0.14821553230285645,1.3321471214294434,167.95184326171875,0.6827515553478669,-1.0366915416863687,0.15262859044596555,0.29369847912651803
-0.25760385394096375,-0.48356056213378906,168.12916564941406,0.6852671832868105,-1.0317376374120868,0.14924676222726704,0.30077003378731515
-0.2863670587539673,-0.6819198727607727,168.18873596191406,0.6877168535661056,-1.0268057396569437,0.1447136712881426,0.2910576968298605
-1.1026520729064941,0.06670891493558884,168.1232147216797,0.6900322884256538,-1.021997501026295,0.13313851185763875,0.285930938847984
-0.496221661567688,1.061309814453125,168.07029724121094,0.6921402307250537,-1.0171536507448433,0.1198145640703539,0.2953310949262233
-0.3016000986099243,0.5204071998596191,168.07904052734375,0.6921402307250537,-1.0171536507448433,0.1198145640703539,0.2953310949262233
0.5324894785881042,0.24291884899139404,168.0780029296875,0.694153174110947,-1.0121784570760137,0.12173864223683874,0.30169214533331506
-0.06825385242700577,-1.0582612752914429,168.09878540039062,0.696214390066711,-1.0072068756556183,0.1256072724548479,0.29489762511414797
1.3128036260604858,1.184805154800415,168.1773223876953,0.6983942716752386,-1.0022831274676387,0.13597852056846024,0.2959521574433894
0.9299847483634949,-0.7344011664390564,168.08529663085938,0.7008163295440479,-0.9973193134555015,0.15466842368866007,0.2997055240130674
-0.2557869851589203,-0.24092470109462738,167.84507751464844,0.7034409558946371,-0.9923919523516402,0.16028673838203153,0.2915778084502867
-0.4584318995475769,0.45189258456230164,167.6406707763672,0.7060628030006774,-0.9875176716633391,0.15433491434281071,0.29333587414585066
-1.802858829498291,-0.35806983709335327,167.57435607910156,0.7084780174946516,-0.9826222249590008,0.13549082493409514,0.2941177303747586
0.49109673500061035,1.9654536247253418,167.53277587890625,0.7106451033203242,-0.977608638911947,0.12455947414661447,0.30751259527169184
-0.5064510107040405,-0.36631321907043457,167.6171875,0.712720028286955,-0.9723723775736928,0.12443152184908589,0.32083876531881605
-0.6822097301483154,-1.2312756776809692,167.78285217285156,0.7147113410996584,-0.9671360084917647,0.11452601567531626,0.3075255245125544
0.955604612827301,1.270920753479004,167.89413452148438,0.7166390937833219,-0.9620078299529584,0.1168043063643078,0.30785590014420466
0.14915120601654053,0.0525243915617466,167.88059997558594,0.7186625513768135,-0.9567849923710383,0.12601060485467314,0.3188846096862109
0.8609841465950012,-0.19539329409599304,167.722412109375,0.7208328764127672,-0.951480170327833,0.1344283994597693,0.3176940354984255
-0.2151898294687271,-0.6996840238571167,167.59938049316406,0.7231181965646749,-0.9462474278832727,0.13981001876915491,0.3102350578488163
-0.9528281092643738,0.40482333302497864,167.54483032226562,0.7253672511873044,-0.9410973200226557,0.13007653594637908,0.3077778854252151
-1.7356181144714355,0.5340866446495056,167.62794494628906,0.7273484957986512,-0.9359024865171192,0.10767281741524734,0.31560213523916913
0.3303723931312561,0.5946764945983887,167.79493713378906,0.7290454562471457,-0.9305640646006852,0.09596243640407917,0.3250084947329016
0.6267769932746887,-0.6230655312538147,168.0616912841797,0.730711298894603,-0.9251492278160157,0.10393868129079538,0.3247719194274397
0.40761351585388184,0.4390610158443451,168.2967987060547,0.7325154429236946,-0.9197491405835729,0.11255860220020013,0.3232385484656941
-0.3767484128475189,0.14916568994522095,168.48919677734375,0.7325154429236946,-0.9197491405835729,0.11255860220020013,0.3232385484656941
0.12347861379384995,-0.35304731130599976,168.53843688964844,0.7325154429236946,-0.9197491405835729,0.11255860220020013,0.3232385484656941
-0.007141173351556063,-0.8034220933914185,168.42446899414062,0.7325154429236946,-0.9197491405835729,0.11255860220020013,0.3232385484656941
0.8229191303253174,0.008767534978687763,168.28460693359375,0.7325154429236946,-0.9197491405835729,0.11255860220020013,0.3232385484656941
3.6326327323913574,0.04701618477702141,168.4573516845703,0.7325154429236946,-0.9197491405835729,0.11255860220020013,0.3232385484656941
1.5711438655853271,0.1696074903011322,169.00970458984375,0.7325154429236946,-0.9197491405835729,0.11255860220020013,0.3232385484656941
1.097260594367981,-1.0142815113067627,169.8883819580078,0.7325154429236946,-0.9197491405835729,0.11255860220020013,0.3232385484656941
0.47747448086738586,-1.1916614770889282,170.9638671875,0.7325154429236946,-0.9197491405835729,0.11255860220020013,0.3232385484656941
1.2260751724243164,0.1366579383611679,172.189453125,0.7325154429236946,-0.9197491405835729,0.11255860220020013,0.3232385484656941
0.7606147527694702,-1.9847798347473145,173.46951293945312,0.7325154429236946,-0.9197491405835729,0.11255860220020013,0.3232385484656941
2.611741065979004,0.4214678108692169,174.90188598632812,0.7325154429236946,-0.9197491405835729,0.11255860220020013,0.3232385484656941
-0.28296738862991333,-0.5796059966087341,176.4177703857422,0.7325154429236946,-0.9197491405835729,0.11255860220020013,0.3232385484656941
1.947463035583496,0.40356335043907166,177.9576416015625,0.7325154429236946,-0.9197491405835729,0.11255860220020013,0.3232385484656941
0.5587511658668518,-0.08900974690914154,179.51528930664062,0.7325154429236946,-0.9197491405835729,0.11255860220020013,0.3232385484656941
0.48006123304367065,-1.150551199913025,-178.9081573486328,0.7325154429236946,-0.9197491405835729,0.11255860220020013,0.3232385484656941
1.5513120889663696,0.4831458330154419,-177.25314331054688,0.7325154429236946,-0.9197491405835729,0.11255860220020013,0.3232385484656941
-0.3820846378803253,-0.8534380793571472,-175.56512451171875,0.7325154429236946,-0.9197491405835729,0.11255860220020013,0.3232385484656941
0.7742050290107727,0.2873227894306183,-173.8884735107422,0.7325154429236946,-0.9197491405835729,0.11255860220020013,0.3232385484656941
0.5522092580795288,0.8437066078186035,-172.18386840820312,0.7325154429236946,-0.9197491405835729,0.11255860220020013,0.3232385484656941
0.2631852626800537,0.18851080536842346,-170.46575927734375,0.7325154429236946,-0.9197491405835729,0.11255860220020013,0.3232385484656941
0.5918319821357727,0.17622409760951996,-168.7360382080078,0.7325154429236946,-0.9197491405835729,0.11255860220020013,0.3232385484656941
0.4578639268875122,-0.19529284536838531,-166.9993133544922,0.7325154429236946,-0.9197491405835729,0.11255860220020013,0.3232385484656941
-0.35078179836273193,-0.6660306453704834,-165.2574005126953,0.7325154429236946,-0.9197491405835729,0.11255860220020013,0.3232385484656941
1.0552109479904175,0.9174596667289734,-163.60470581054688,0.7325154429236946,-0.9197491405835729,0.11255860220020013,0.3232385484656941
-0.533800482749939,-2.1870973110198975,-161.94215393066406,0.7325154429236946,-0.9197491405835729,0.11255860220020013,0.3232385484656941
1.7063124179840088,-0.1860029548406601,-160.2994842529297,0.7325154429236946,-0.9197491405835729,0.11255860220020013,0.3232385484656941
0.6715991497039795,1.00325345993042,-158.6727752685547,0.7325154429236946,-0.9197491405835729,0.11255860220020013,0.3232385484656941
0.1188342273235321,-1.9467005729675293,-157.02752685546875,0.7325154429236946,-0.9197491405835729,0.11255860220020013,0.3232385484656941
-0.33092042803764343,-0.4661502242088318,-155.3122100830078,0.7325154429236946,-0.9197491405835729,0.11255860220020013,0.3232385484656941
0.9290081262588501,0.4260118901729584,-153.59747314453125,0.7325154429236946,-0.9197491405835729,0.11255860220020013,0.3232385484656941
0.5600026845932007,0.7584468722343445,-151.80355834960938,0.7325154429236946,-0.9197491405835729,0.11255860220020013,0.3232385484656941
0.342069536447525,-2.652167797088623,-149.9239044189453,0.7325154429236946,-0.9197491405835729,0.11255860220020013,0.3232385484656941
-0.09388435631990433,0.8753800988197327,-148.04005432128906,0.7325154429236946,-0.9197491405835729,0.11255860220020013,0.3232385484656941
0.2485206127166748,-1.4937278032302856,-146.09323120117188,0.7325154429236946,-0.9197491405835729,0.11255860220020013,0.3232385484656941
1.057249903678894,-0.5146853923797607,-144.23439025878906,0.7325154429236946,-0.9197491405835729,0.11255860220020013,0.3232385484656941
-0.07081817835569382,-1.0971732139587402,-142.34567260742188,0.7325154429236946,-0.9197491405835729,0.11255860220020013,0.3232385484656941
0.5391753911972046,1.5573151111602783,-140.4354705810547,0.7325154429236946,-0.9197491405835729,0.11255860220020013,0.3232385484656941
0.7578481435775757,-2.3255844116210938,-138.53561401367188,0.7325154429236946,-0.9197491405835729,0.11255860220020013,0.3232385484656941
1.2257013320922852,1.261169672012329,-136.61859130859375,0.7325154429236946,-0.9197491405835729,0.11255860220020013,0.3232385484656941
0.7923005223274231,-1.5602078437805176,-134.66107177734375,0.7325154429236946,-0.9197491405835729,0.11255860220020013,0.3232385484656941
0.39687660336494446,0.30542442202568054,-132.64454650878906,0.7325154429236946,-0.9197491405835729,0.11255860220020013,0.3232385484656941
0.7103378176689148,-0.6899893283843994,-130.6484832763672,0.7325154429236946,-0.9197491405835729,0.11255860220020013,0.3232385484656941
-0.32120147347450256,2.2409796714782715,-128.6085662841797,0.7325154429236946,-0.9197491405835729,0.11255860220020013,0.3232385484656941
0.5612480640411377,-2.2292380332946777,-126.62236785888672,0.7325154429236946,-0.9197491405835729,0.11255860220020013,0.3232385484656941
-0.07741911709308624,1.9676413536071777,-124.68917846679688,0.7325154429236946,-0.9197491405835729,0.11255860220020013,0.3232385484656941
0.1398601531982422,-1.4139835834503174,-122.69416046142578,0.7325154429236946,-0.9197491405835729,0.11255860220020013,0.3232385484656941
0.3319121301174164,0.5793271660804749,-120.6451416015625,0.7325154429236946,-0.9197491405835729,0.11255860220020013,0.3232385484656941
0.21727614104747772,0.6788254380226135,-118.67942810058594,0.7325154429236946,-0.9197491405835729,0.11255860220020013,0.3232385484656941
0.6149519681930542,-0.01467755064368248,-116.74141693115234,0.7325154429236946,-0.9197491405835729,0.11255860220020013,0.3232385484656941
0.3357897102832794,-0.5122361779212952,-114.74529266357422,0.7325154429236946,-0.9197491405835729,0.11255860220020013,0.3232385484656941
-0.06382947415113449,1.2336044311523438,-112.6651611328125,0.7325154429236946,-0.9197491405835729,0.11255860220020013,0.3232385484656941
0.3011777997016907,0.6412825584411621,-110.71798706054688,0.7325154429236946,-0.9197491405835729,0.11255860220020013,0.3232385484656941
0.0070209503173828125,-0.2819771468639374,-108.7950210571289,0.7325154429236946,-0.9197491405835729,0.11255860220020013,0.3232385484656941
-0.45912420749664307,0.7067511081695557,-107.1564712524414,0.7325154429236946,-0.9197491405835729,0.11255860220020013,0.3232385484656941
-1.4042141437530518,0.6067789196968079,-106.01362609863281,0.7325154429236946,-0.9197491405835729,0.11255860220020013,0.3232385484656941
-2.4647302627563477,0.8887282609939575,-105.2972640991211,0.7325154429236946,-0.9197491405835729,0.11255860220020013,0.3232385484656941
-0.9947335720062256,0.5791636109352112,-104.99330139160156,0.7325154429236946,-0.9197491405835729,0.11255860220020013,0.3232385484656941
0.36434826254844666,0.7742964625358582,-105.02754974365234,0.7325154429236946,-0.9197491405835729,0.11255860220020013,0.3232385484656941
0.49909359216690063,2.103304862976074,-104.99038696289062,0.7325154429236946,-0.9197491405835729,0.11255860220020013,0.3232385484656941
-0.19619102776050568,1.037292242050171,-105.0114517211914,0.7325154429236946,-0.9197491405835729,0.11255860220020013,0.3232385484656941
0.21704454720020294,-0.6585586667060852,-105.05701446533203,0.7325154429236946,-0.9197491405835729,0.11255860220020013,0.3232385484656941
-0.6230725646018982,-0.9068268537521362,-105.06501770019531,0.7325154429236946,-0.9197491405835729,0.11255860220020013,0.3232385484656941
0.08782437443733215,-0.725507915019989,-105.06765747070312,0.7325154429236946,-0.9197491405835729,0.11255860220020013,0.3232385484656941
-0.3275166451931,-0.3636009693145752,-105.06332397460938,0.7325154429236946,-0.9197491405835729,0.11255860220020013,0.3232385484656941
0.04590052738785744,0.12854866683483124,-105.04900360107422,0.7325154429236946,-0.9197491405835729,0.11255860220020013,0.3232385484656941
0.01973699778318405,0.3024711012840271,-105.0459213256836,0.7325154429236946,-0.9197491405835729,0.11255860220020013,0.3232385484656941
0.025353088974952698,0.3328094780445099,-105.05192565917969,0.7325154429236946,-0.9197491405835729,0.11255860220020013,0.3232385484656941
-0.10671043395996094,-0.1615973263978958,-105.05118560791016,0.7325154429236946,-0.9197491405835729,0.11255860220020013,0.3232385484656941
-0.1069498360157013,-0.3636973798274994,-105.05693817138672,0.7325154429236946,-0.9197491405835729,0.11255860220020013,0.3232385484656941
-0.1232893243432045,-0.22276005148887634,-105.05208587646484,0.7325154429236946,-0.9197491405835729,0.11255860220020013,0.3232385484656941
0.0016519074561074376,0.07253820449113846,-105.04822540283203,0.7325154429236946,-0.9197491405835729,0.11255860220020013,0.3232385484656941
-0.025317581370472908,0.11443458497524261,-105.0501480102539,0.7325154429236946,-0.9197491405835729,0.11255860220020013,0.3232385484656941
-0.08627718687057495,-0.12490901350975037,-105.05018615722656,0.7325154429236946,-0.9197491405835729,0.11255860220020013,0.3232385484656941
-0.07859516143798828,-0.2259744554758072,-105.04954528808594,0.7325154429236946,-0.9197491405835729,0.11255860220020013,0.3232385484656941
-0.0905662551522255,-0.08479228615760803,-105.04966735839844,0.7325154429236946,-0.9197491405835729,0.11255860220020013,0.3232385484656941
-0.038605011999607086,0.023748070001602173,-105.0486831665039,0.7325154429236946,-0.9197491405835729,0.11255860220020013,0.3232385484656941
-0.05471120774745941,-0.03535597026348114,-105.0499496459961,0.7325154429236946,-0.9197491405835729,0.11255860220020013,0.3232385484656941
-0.07260534167289734,-0.14286766946315765,-105.05030822753906,0.7325154429236946,-0.9197491405835729,0.11255860220020013,0.3232385484656941
-0.07121139764785767,-0.13225939869880676,-105.0504379272461,0.7325154429236946,-0.9197491405835729,0.11255860220020013,0.3232385484656941
-0.05493695288896561,-0.03835070878267288,-105.05097198486328,0.7325154429236946,-0.9197491405835729,0.11255860220020013,0.3232385484656941
-0.04933520033955574,-0.025951184332370758,-105.0512924194336,0.7325154429236946,-0.9197491405835729,0.11255860220020013,0.3232385484656941
-0.07211761176586151,-0.11635571718215942,-105.0521240234375,0.7343829854039684,-0.9143717138661943,0.11154649543265499,0.32205265761973967
-0.09175337851047516,-0.13352225720882416,-105.05322265625,0.736230713731299,-0.9090215222096425,0.11018090384701885,0.3199703411664815
-0.10888613760471344,-0.36119377613067627,-105.06411743164062,0.7380531288290191,-0.9037230384702941,0.10850890787939228,0.315847707555319
-0.7546775341033936,-1.4764920473098755,-105.08062744140625,0.7398016409275848,-0.8985865270821111,0.10131254394849139,0.30053365902664775
-0.7193441987037659,-2.622028350830078,-105.16127014160156,0.7413878207063925,-0.8938622522370934,0.08902902950843172,0.26637932237548145
-1.1496306657791138,-3.8079121112823486,-105.2397232055664,0.7427418479437218,-0.8898691205073709,0.07345423897107439,0.21279648519121122
-0.642490565776825,-1.293107032775879,-105.24927520751953,0.7438416323966038,-0.8866767498614103,0.0585198953747749,0.17028799232405933
0.4114419221878052,-0.13115018606185913,-105.37905883789062,0.7448009189414897,-0.8839375234073175,0.05659449001153307,0.15841918216707818
-0.6492767333984375,-0.7771638631820679,-105.39247131347656,0.7457276441353479,-0.8813602810690636,0.05461253325144447,0.1508498984233788
0,-2.2582809925079346,-105.35743713378906,0.7465927643608303,-0.8790569108769858,0.04920189380645749,0.1255545246259621
-1.299323320388794,-0.7716935873031616,-105.41593933105469,0.7473225651381332,-0.8771747503679288,0.038374199469884206,0.10030473646086963
0,-1.7560970783233643,-105.4572982788086,0.7478719043431599,-0.875678545778694,0.027546505133310924,0.07923981424731524
0,-1.0038172006607056,-105.39852142333984,0.7483310127620484,-0.8745495429217237,0.027546505133310924,0.05624052858911466
-0.3466140925884247,-0.6502145528793335,-105.46745300292969,0.7487660507578405,-0.8737270640947898,0.02465805436174072,0.042456930642947664
-0.11366960406303406,-2.208422899246216,-105.41973114013672,0.7491450541849354,-0.873217965073805,0.02082235688964523,0.018634951875234753
-0.8866445422172546,-1.1314051151275635,-105.2447738647461,0.7494226272062711,-0.8731393150435492,0.012486405670642823,-0.00919694824454674
-0.3922807574272156,-0.08395802974700928,-105.1225814819336,0.7495419197105286,-0.8733769977326857,0.0018286948402722377,-0.01932497445183485
-0.15501777827739716,-0.911213755607605,-105.08230590820312,0.7495343911151092,-0.873768189791977,-0.0027321262905995354,-0.0276180726631233
-0.6189152598381042,-0.41840845346450806,-104.98098754882812,0.7494351103270634,-0.8743208258786591,-0.00918156827489538,-0.03869825773872424
0.5775017738342285,-1.365775465965271,-104.92691802978516,0.7492792082526205,-0.8750896985020427,-0.00952668065826101,-0.053566457067305735
-1.5031068325042725,-0.6223805546760559,-104.92958068847656,0.7490561521125751,-0.8761205391768201,-0.017240056147178044,-0.07013442390598346
0.5536566376686096,-0.05708252638578415,-104.97911071777344,0.7487028838021474,-0.8773366311781047,-0.0251521411041419,-0.07579661624816546
0.3787994980812073,-0.306938499212265,-105.0291976928711,0.7483484353487277,-0.8786251873534628,-0.01738167330622676,-0.07883012479481587
-0.7268970012664795,-0.6555547118186951,-104.91116333007812,0.7480345673559028,-0.8800058625730314,-0.020282485832770696,-0.0868509015534072
0.13922588527202606,-0.9943078756332397,-104.81543731689453,0.7476557154311904,-0.8815679513897168,-0.025179745132724474,-0.10059975644883999
-1.172897458076477,0.49533796310424805,-104.69635009765625,0.7471642702642002,-0.8832792646855675,-0.033793674906094896,-0.10475783905324826
-0.7616574168205261,-1.3765983581542969,-104.5697021484375,0.7464666982605641,-0.8850864273083334,-0.04991496553023659,-0.11210167567866533
0.2518874704837799,-0.20777086913585663,-104.6246566772461,0.7455993814776757,-0.8870648142104286,-0.05416304841637614,-0.12530475257274995
-0.0984150767326355,-0.3251107335090637,-104.6800308227539,0.744707321809191,-0.8891902324201582,-0.05288411180178327,-0.12974543259479096
0.4165853261947632,-0.21939657628536224,-104.70486450195312,0.7438480151020406,-0.8913904693043626,-0.050232693056265536,-0.1342829935097445
0.6168517470359802,-0.9493972063064575,-104.75247955322266,0.7430825700145216,-0.8937096854310939,-0.04162071744600934,-0.14402294169800967
-0.09981212764978409,-0.4052528738975525,-104.87320709228516,0.7424247969195454,-0.8962041407149638,-0.03731205395112437,-0.1553116923663764
-0.7055929899215698,-0.8474688529968262,-104.99097442626953,0.7417469984427509,-0.8988796634854377,-0.04402376326421899,-0.16575104009049624
0,0.23794898390769958,-105.07502746582031,0.7409642695418249,-0.901684508588966,-0.04990370484689874,-0.17083037233290563
-0.5404898524284363,0.23212876915931702,-105.21709442138672,0.7400950071101802,-0.9044990371727737,-0.05440778695046904,-0.16691305772401382
-1.0847975015640259,-0.07372856885194778,-105.17485809326172,0.7390753434836451,-0.9072699214542637,-0.06795184823373956,-0.16559305605478575
1.5279161930084229,-0.895881712436676,-105.07194519042969,0.7379735848110998,-0.9100971397691552,-0.06425919247170292,-0.17367314173219095
0.19307470321655273,-0.6086853742599487,-105.08261108398438,0.737022111526587,-0.9130961759568235,-0.04991760166982812,-0.18621120078799616
-1.665387511253357,-0.6890140175819397,-105.07731628417969,0.736087907553754,-0.9162898139832791,-0.062186875070134824,-0.19702536238667856
0.8422093391418457,1.342698574066162,-105.19700622558594,0.7349942944850774,-0.9195281752621901,-0.06904669317106409,-0.19157799108264337
-0.43069225549697876,0.7051008939743042,-105.24071502685547,0.7338720938408128,-0.9225789334838425,-0.0656173841406902,-0.17451299551563948
-0.5146611928939819,0,-105.15388488769531,0.7327128212267741,-0.9254385180692438,-0.0734953295439482,-0.16863715473252028
1.630784273147583,-2.576540946960449,-105.11883544921875,0.731565407614948,-0.9284280637694359,-0.0641943038751682,-0.19010832929052401
-0.7694559097290039,-0.11926285177469254,-105.11365509033203,0.7305553170200437,-0.9317837445214123,-0.0570165675133467,-0.2125733609466502
-1.1159414052963257,-0.10276462882757187,-104.97476196289062,0.7294741105257223,-0.935342052445565,-0.07272821180522446,-0.21442358995166907
0.07709977775812149,-0.22354036569595337,-104.83997344970703,0.7281898318826118,-0.9389384390138237,-0.08138522536804282,-0.2171427982393651
0.3897695541381836,-0.2535263001918793,-104.76689910888672,0.7268658329411928,-0.942590615280722,-0.07749464760224029,-0.2211183537884304
-1.1450384855270386,0.33569851517677307,-104.86968994140625,0.725521806249809,-0.9462702147733774,-0.08378855536381408,-0.22043358533022295
0.9961353540420532,-0.09391473978757858,-104.92733764648438,0.7241149898318368,-0.9499273173222569,-0.08502941479285563,-0.218418720535313
0.2566295564174652,0.43701982498168945,-104.77909851074219,0.7227848304818488,-0.9535438025891514,-0.07458970720569297,-0.21555951149202873
-0.6086236834526062,-0.5995933413505554,-104.70916748046875,0.7215172246584877,-0.9571477509415441,-0.07752299159765248,-0.2169142907951026
-1.8932803869247437,-0.08747605234384537,-104.62836456298828,0.7200514314603061,-0.9608107022738024,-0.0983721921841304,-0.22263986907588929
0,-0.12846605479717255,-104.63135528564453,0.7182804171192564,-0.9645363627380631,-0.11414952874183659,-0.22443938663539778
1.1124306917190552,-0.6655694842338562,-104.62974548339844,0.7164551771049285,-0.9683321605388635,-0.10487927297751114,-0.23105634946065634
0.09097335487604141,0.3692197799682617,-104.61528015136719,0.7147907589474279,-0.9722036795371151,-0.09485090592255199,-0.2335259303295363
0.05278901383280754,0.09823340177536011,-104.68367767333984,0.7132198940132124,-0.9760633163494307,-0.09365288618331158,-0.22963048714833945
0.28603631258010864,-0.8150618672370911,-104.76009368896484,0.7116825421133803,-0.9799402708897823,-0.09082934179653727,-0.23560405769385387
0.13676905632019043,-0.18055760860443115,-104.8479232788086,0.7101980812340561,-0.9839361454260578,-0.08730596372236811,-0.2439008866591999
-0.5506955981254578,0.1768968403339386,-104.97521209716797,0.7087142369399468,-0.9880014144237299,-0.09075535157074534,-0.243931393061454
-1.3305047750473022,0.5101006031036377,-105.02855682373047,0.7070710088322975,-0.9920192294856265,-0.106432021347185,-0.23820641436614087
1.192222237586975,-0.499983012676239,-104.90289306640625,0.705287538855854,-0.9959886337812824,-0.10758437582602107,-0.23812210111257923
0.7503032684326172,-1.2246800661087036,-104.85115051269531,0.703629363530005,-1.0000771037358522,-0.0913966632758578,-0.2524942934357871
-1.707709789276123,0.44751375913619995,-104.84197235107422,0.7020395992447933,-1.0043393118422106,-0.09937505094955368,-0.2589706793272246
1.0789216756820679,1.4613701105117798,-104.9405517578125,0.7003396825544123,-1.008522928451161,-0.1046149518961708,-0.24306331374682477
-0.1802978366613388,-0.417278528213501,-105.00487518310547,0.6986585044560747,-1.0125014773203929,-0.09712641990433139,-0.23436255056100577
-0.880232036113739,0,-104.96521759033203,0.6969660828831709,-1.0164364975053133,-0.10596416884412371,-0.2378398716294516
1.7293823957443237,-1.984387755393982,-104.88580322265625,0.6969660828831709,-1.0164364975053133,-0.10596416884412371,-0.2378398716294516
-1.0712233781814575,0.2882501482963562,-104.83827209472656,0.6952457188897662,-1.0205182826996304,-0.10047951036443316,-0.2519743516885985
-1.3513460159301758,-0.2882307469844818,-104.71693420410156,0.6934028263979901,-1.0247178538804604,-0.12066758864869677,-0.2519741900109995
0.5726982951164246,0.37278538942337036,-104.67510223388672,0.691337627162122,-1.0289115518638077,-0.12715631965547802,-0.25126956799067546
0.7696990966796875,2.6889514923095703,-104.94933319091797,0.689311577208961,-1.0328867573801985,-0.11596967472384376,-0.22575509397623428
0.4316442310810089,0.7906311750411987,-105.1670913696289,0.6874621759168803,-1.0364077045945697,-0.10595848032583796,-0.1967585717483112
0.22094842791557312,-0.4116521179676056,-105.10836791992188,0.6857415201794356,-1.0396606961336337,-0.10052020816753311,-0.1936004129393646
0.05190783739089966,-0.35304421186447144,-104.99198150634766,0.6840851317284008,-1.042940473594417,-0.09824640595664584,-0.19997288235463193
-1.6994922161102295,-1.0528929233551025,-105.01972961425781,0.6823332760472679,-1.0463709894902733,-0.11197627577930692,-0.21168902514812837
-0.39218175411224365,0.8595483899116516,-105.03103637695312,0.6803217496474584,-1.0499125666131202,-0.12940689219782753,-0.21330022959349046
0.6086596846580505,-0.7597852945327759,-104.95565032958984,0.6781800013004492,-1.0534606424469437,-0.12760290944327915,-0.21246887046533317
0.21347732841968536,-0.6746641397476196,-104.86005401611328,0.6761103789911916,-1.05710140483208,-0.12075176766763135,-0.22442261575100314
-0.6554582118988037,0.21022295951843262,-104.84004211425781,0.6740671564131562,-1.0608740346210015,-0.124434941696624,-0.2282929589195797
0.21008536219596863,-0.9456120133399963,-104.8927230834961,0.6719623120480942,-1.0647299859539543,-0.1281463821108143,-0.2344212010347594
0.09019096195697784,-0.16403238475322723,-104.95929718017578,0.6698473915354246,-1.0687140646099567,-0.12564407940953976,-0.24366823768553628
0,0.3321181833744049,-105.02761840820312,0.6677595868065126,-1.0727635292798114,-0.12489248805989828,-0.24226752269702645
0,0.14265763759613037,-105.15032958984375,0.6656780453388477,-1.076768350781639,-0.12489248805989828,-0.238311057522272
-0.32039815187454224,0.3339661955833435,-105.24807739257812,0.6635742539995247,-1.0807071028630395,-0.1275624726588528,-0.23433919224577637
-0.15149334073066711,-0.6416901350021362,-105.12897491455078,0.6614154425460018,-1.084634125785151,-0.1314949017638962,-0.23690355840759963
0.7785479426383972,-0.9812735915184021,-105.0500717163086,0.6592674063084027,-1.0886952242396195,-0.12626944674799845,-0.25042825612860414
-1.2072309255599976,0.2028898149728775,-105.11653137207031,0.6571331458776777,-1.0929230829373564,-0.1298418049390118,-0.25691478759981684
0.9343850612640381,0.8882980942726135,-105.18560791015625,0.6549501681658958,-1.097129219125878,-0.13211552047481145,-0.2478215550227711
-1.1875075101852417,-0.19858220219612122,-105.21842956542969,0.6527306648768072,-1.1012116814393076,-0.1342248742158215,-0.2420739225888003
0.08638999611139297,0,-105.10344696044922,0.6504171171458439,-1.1052600372464956,-0.14340085349977022,-0.243728774273768
1.5226495265960693,-1.562562108039856,-105.12237548828125,0.6504171171458439,-1.1052600372464956,-0.14340085349977022,-0.243728774273768
-1.171545386314392,0.371814101934433,-105.13533020019531,0.6480514851528117,-1.109404874318149,-0.14047498566408959,-0.2536516743246465
-0.8057160973548889,-0.4967864453792572,-105.05902099609375,0.6455729255664888,-1.1136410808585213,-0.15695216469466694,-0.2546931105200201
0.3725457489490509,0.9802693724632263,-104.99739837646484,0.6429269748807162,-1.1178523908305853,-0.16056191759804891,-0.2506640861276537
0.8718258142471313,2.189243793487549,-105.02336883544922,0.6403373576126373,-1.1218100205184107,-0.15019215457141405,-0.2242514764113972
0.08718490600585938,1.6572074890136719,-105.1735610961914,0.6379007530031313,-1.1252804304528714,-0.1422003985693058,-0.19219771572388702
0.6341448426246643,-0.9917571544647217,-105.0998306274414,0.6355808387039644,-1.128437513886148,-0.1361893173307181,-0.18665229626931243
-0.7173371315002441,-0.38877493143081665,-104.93861389160156,0.6333052395061695,-1.1316442557743793,-0.13688258640468126,-0.19815673031844191
-0.38463690876960754,-1.5325571298599243,-104.9015884399414,0.6309473370910726,-1.135080293783943,-0.14606570340693004,-0.2141678308291981
-1.1977519989013672,0.3949011564254761,-104.877197265625,0.6284030205823689,-1.1387287615181405,-0.15925227763752148,-0.22364829727448518
-0.6359714269638062,-0.6111206412315369,-104.8084716796875,0.6256214740505028,-1.1424712483813824,-0.17453330618639792,-0.22545012631453568
1.0939584970474243,0.20136232674121857,-104.7413558959961,0.6227443902717076,-1.1462572059251308,-0.17071674726903444,-0.22886477893528834
0.1573222130537033,-0.2558017671108246,-104.71314239501953,0.619986005644314,-1.150075399424078,-0.1602894080181917,-0.2293184409383684
-0.43566396832466125,-0.6138069033622742,-104.82223510742188,0.617295186222117,-1.1539577629307225,-0.16260892264544968,-0.23656517985897754
0.3961050808429718,-0.27299708127975464,-104.9084701538086,0.6145822903663954,-1.1579620995384168,-0.16293858004113043,-0.24395521306432777
0.18084916472434998,-0.25922590494155884,-104.9514389038086,0.6119067136327633,-1.1620649796857543,-0.1581306279947361,-0.24839040461617204
-0.09128294140100479,0,-105.00660705566406,0.609277423042804,-1.1662228215616448,-0.15738424280037489,-0.25055062049068505
0.1826275885105133,0.581868588924408,-105.0997543334961,0.6066606957077358,-1.170358257695592,-0.15662303740779565,-0.24570171558298165
-0.8467633724212646,0,-105.09208679199219,0.6040041912103898,-1.1744128787477441,-0.16215750227371858,-0.24085281067527825
0.5324206352233887,-2.053370714187622,-105.01036834716797,0.6012797368157446,-1.178569687447484,-0.16477702508370087,-0.2579642332935084
-0.12510055303573608,0.9932681918144226,-104.96216583251953,0.5985617391811682,-1.1829427095664296,-0.16138269106547043,-0.26679842097995177
0.11999153345823288,0.0671708807349205,-105.00106048583984,0.5958716728703841,-1.187315708313835,-0.16142526622861628,-0.25796142870870725
-0.9744691252708435,1.151411533355713,-105.07833862304688,0.5931219130449202,-1.191530441680224,-0.1685459128270547,-0.24780657525795197
-0.1248580664396286,-0.5544902086257935,-105.12132263183594,0.5931219130449202,-1.191530441680224,-0.1685459128270547,-0.24780657525795197
0.559431254863739,-0.5320229530334473,-105.0780258178711,0.5931219130449202,-1.191530441680224,-0.1685459128270547,-0.24780657525795197
0.5932507514953613,-1.7623106241226196,-105.00470733642578,0.5931219130449202,-1.191530441680224,-0.1685459128270547,-0.24780657525795197
-0.4417914152145386,1.2393511533737183,-104.9227066040039,0.5931219130449202,-1.191530441680224,-0.1685459128270547,-0.24780657525795197
0.2157442271709442,2.3531036376953125,-104.70716857910156,0.5931219130449202,-1.191530441680224,-0.1685459128270547,-0.24780657525795197
0.14803378283977509,3.6584033966064453,-104.23722839355469,0.5931219130449202,-1.191530441680224,-0.1685459128270547,-0.24780657525795197
2.63795804977417,2.056528329849243,-103.63322448730469,0.5931219130449202,-1.191530441680224,-0.1685459128270547,-0.24780657525795197
0.4612225890159607,1.8711495399475098,-102.64557647705078,0.5931219130449202,-1.191530441680224,-0.1685459128270547,-0.24780657525795197
-0.46183082461357117,-0.1303863674402237,-101.46758270263672,0.5931219130449202,-1.191530441680224,-0.1685459128270547,-0.24780657525795197
1.6916699409484863,0.9566580057144165,-100.16375732421875,0.5931219130449202,-1.191530441680224,-0.1685459128270547,-0.24780657525795197
-1.3492846488952637,2.972804307937622,-98.71585845947266,0.5931219130449202,-1.191530441680224,-0.1685459128270547,-0.24780657525795197
0.4432152211666107,1.6337778568267822,-97.2708511352539,0.5931219130449202,-1.191530441680224,-0.1685459128270547,-0.24780657525795197
0.2669180929660797,0.8344560861587524,-95.82968139648438,0.5931219130449202,-1.191530441680224,-0.1685459128270547,-0.24780657525795197
1.080739974975586,1.207838773727417,-94.37136840820312,0.5931219130449202,-1.191530441680224,-0.1685459128270547,-0.24780657525795197
0.580438494682312,0.003973407205194235,-92.94017028808594,0.5931219130449202,-1.191530441680224,-0.1685459128270547,-0.24780657525795197
0.8274452090263367,0.6615134477615356,-91.58975219726562,0.5931219130449202,-1.191530441680224,-0.1685459128270547,-0.24780657525795197
-0.2021603137254715,1.368366003036499,-90.34821319580078,0.5931219130449202,-1.191530441680224,-0.1685459128270547,-0.24780657525795197
1.3012996912002563,1.220211386680603,-89.1904525756836,0.5931219130449202,-1.191530441680224,-0.1685459128270547,-0.24780657525795197
0.3668755292892456,0.12118101119995117,-88.13736724853516,0.5931219130449202,-1.191530441680224,-0.1685459128270547,-0.24780657525795197
-0.2593361437320709,1.0340709686279297,-87.13014221191406,0.5931219130449202,-1.191530441680224,-0.1685459128270547,-0.24780657525795197
1.7182496786117554,-0.9229609966278076,-86.1196060180664,0.5931219130449202,-1.191530441680224,-0.1685459128270547,-0.24780657525795197
-0.7954057455062866,1.0903942584991455,-85.13579559326172,0.5931219130449202,-1.191530441680224,-0.1685459128270547,-0.24780657525795197
0.5366471409797668,0.9235599040985107,-84.14696502685547,0.5931219130449202,-1.191530441680224,-0.1685459128270547,-0.24780657525795197
0.40276217460632324,0.500542938709259,-83.26017761230469,0.5931219130449202,-1.191530441680224,-0.1685459128270547,-0.24780657525795197
0.2623631954193115,0.20113661885261536,-82.40996551513672,0.5931219130449202,-1.191530441680224,-0.1685459128270547,-0.24780657525795197
0.36311525106430054,0.023886878043413162,-81.57881164550781,0.5931219130449202,-1.191530441680224,-0.1685459128270547,-0.24780657525795197
-0.4137997627258301,-1.0497559309005737,-80.69906616210938,0.5931219130449202,-1.191530441680224,-0.1685459128270547,-0.24780657525795197
0.9818620085716248,-0.20927037298679352,-79.8228988647461,0.5931219130449202,-1.191530441680224,-0.1685459128270547,-0.24780657525795197
-0.3720262050628662,-0.49267223477363586,-78.9330062866211,0.5931219130449202,-1.191530441680224,-0.1685459128270547,-0.24780657525795197
0.2612937092781067,0.43938958644866943,-78.01171875,0.5931219130449202,-1.191530441680224,-0.1685459128270547,-0.24780657525795197
-0.24354751408100128,-0.17515642940998077,-77.02529907226562,0.5931219130449202,-1.191530441680224,-0.1685459128270547,-0.24780657525795197
0.6009193658828735,0.1210843026638031,-75.96037292480469,0.5931219130449202,-1.191530441680224,-0.1685459128270547,-0.24780657525795197
0.6704998016357422,-0.64104825258255,-74.76599884033203,0.5931219130449202,-1.191530441680224,-0.1685459128270547,-0.24780657525795197
1.2079411745071411,0.2764415740966797,-73.47933959960938,0.5931219130449202,-1.191530441680224,-0.1685459128270547,-0.24780657525795197
0.08872507512569427,-0.10376731306314468,-72.21358489990234,0.5931219130449202,-1.191530441680224,-0.1685459128270547,-0.24780657525795197
-0.18431507050991058,0.23370160162448883,-70.97638702392578,0.5931219130449202,-1.191530441680224,-0.1685459128270547,-0.24780657525795197
-0.4807729125022888,0.5532345175743103,-69.7647705078125,0.5931219130449202,-1.191530441680224,-0.1685459128270547,-0.24780657525795197
0.2722700834274292,0.03870510309934616,-68.58645629882812,0.5931219130449202,-1.191530441680224,-0.1685459128270547,-0.24780657525795197
0.19274087250232697,-0.18444839119911194,-67.37185668945312,0.5931219130449202,-1.191530441680224,-0.1685459128270547,-0.24780657525795197
0.856452226638794,-0.23796619474887848,-66.15914916992188,0.5931219130449202,-1.191530441680224,-0.1685459128270547,-0.24780657525795197
-0.32944852113723755,-0.059381693601608276,-64.9735107421875,0.5931219130449202,-1.191530441680224,-0.1685459128270547,-0.24780657525795197
-1.5422025918960571,0.598041832447052,-63.74022674560547,0.5931219130449202,-1.191530441680224,-0.1685459128270547,-0.24780657525795197
-1.423815131187439,0.48776304721832275,-62.4166259765625,0.5931219130449202,-1.191530441680224,-0.1685459128270547,-0.24780657525795197
-0.3221309185028076,0.8857778310775757,-61.0801887512207,0.5931219130449202,-1.191530441680224,-0.1685459128270547,-0.24780657525795197
-0.05864148586988449,0.3180209994316101,-59.878013610839844,0.5931219130449202,-1.191530441680224,-0.1685459128270547,-0.24780657525795197
-0.8020398616790771,0.697117269039154,-58.83446502685547,0.5931219130449202,-1.191530441680224,-0.1685459128270547,-0.24780657525795197
-0.2942156195640564,0.2435559183359146,-57.86232376098633,0.5931219130449202,-1.191530441680224,-0.1685459128270547,-0.24780657525795197
-0.6044979691505432,-0.02676960453391075,-56.953739166259766,0.5931219130449202,-1.191530441680224,-0.1685459128270547,-0.24780657525795197
-0.831361711025238,-0.378324031829834,-56.13592529296875,0.5931219130449202,-1.191530441680224,-0.1685459128270547,-0.24780657525795197
-0.84422767162323,-0.1496075540781021,-55.392250061035156,0.5931219130449202,-1.191530441680224,-0.1685459128270547,-0.24780657525795197
-0.3872164487838745,0.021165523678064346,-54.731754302978516,0.5931219130449202,-1.191530441680224,-0.1685459128270547,-0.24780657525795197
-0.5876426100730896,0.17087318003177643,-54.073974609375,0.5931219130449202,-1.191530441680224,-0.1685459128270547,-0.24780657525795197
-0.6756633520126343,-0.18496106564998627,-53.48945236206055,0.5931219130449202,-1.191530441680224,-0.1685459128270547,-0.24780657525795197
-0.634156346321106,-0.5026575326919556,-52.96186447143555,0.5931219130449202,-1.191530441680224,-0.1685459128270547,-0.24780657525795197
0.41437414288520813,-0.07895074784755707,-52.491172790527344,0.5931219130449202,-1.191530441680224,-0.1685459128270547,-0.24780657525795197
0.2668505907058716,-0.3236202895641327,-51.92666244506836,0.5931219130449202,-1.191530441680224,-0.1685459128270547,-0.24780657525795197
0.7171663641929626,0.133896142244339,-51.38129806518555,0.5931219130449202,-1.191530441680224,-0.1685459128270547,-0.24780657525795197
0.23618999123573303,-0.0474526584148407,-50.88508224487305,0.5931219130449202,-1.191530441680224,-0.1685459128270547,-0.24780657525795197
-0.4519626796245575,0.350661039352417,-50.46132278442383,0.5931219130449202,-1.191530441680224,-0.1685459128270547,-0.24780657525795197
0.6763765215873718,-0.03595622256398201,-50.10064697265625,0.5931219130449202,-1.191530441680224,-0.1685459128270547,-0.24780657525795197
0.596642792224884,-0.23416805267333984,-49.844322204589844,0.5931219130449202,-1.191530441680224,-0.1685459128270547,-0.24780657525795197
0.18320655822753906,0.16433405876159668,-49.58696746826172,0.5931219130449202,-1.191530441680224,-0.1685459128270547,-0.24780657525795197
-0.6106505393981934,-0.18791157007217407,-49.300628662109375,0.5931219130449202,-1.191530441680224,-0.1685459128270547,-0.24780657525795197
0.20491351187229156,-0.5216003656387329,-48.95764923095703,0.5931219130449202,-1.191530441680224,-0.1685459128270547,-0.24780657525795197
-0.6031726002693176,-0.4726136326789856,-48.70158004760742,0.5931219130449202,-1.191530441680224,-0.1685459128270547,-0.24780657525795197
1.4890695810317993,-0.5726613998413086,-48.63550567626953,0.5931219130449202,-1.191530441680224,-0.1685459128270547,-0.24780657525795197
-0.6284316182136536,0.2992929518222809,-48.57699203491211,0.5931219130449202,-1.191530441680224,-0.1685459128270547,-0.24780657525795197
0.3961487412452698,0.4015534222126007,-48.40338134765625,0.5931219130449202,-1.191530441680224,-0.1685459128270547,-0.24780657525795197
-0.06106393411755562,0.27501222491264343,-48.13337326049805,0.5931219130449202,-1.191530441680224,-0.1685459128270547,-0.24780657525795197
0.4709378182888031,-0.604691207408905,-47.877685546875,0.5931219130449202,-1.191530441680224,-0.1685459128270547,-0.24780657525795197
-0.834251344203949,-0.04922471567988396,-47.63740921020508,0.5931219130449202,-1.191530441680224,-0.1685459128270547,-0.24780657525795197
0.4826774597167969,-0.515770673751831,-47.426090240478516,0.5931219130449202,-1.191530441680224,-0.1685459128270547,-0.24780657525795197
-0.9346259236335754,0.1196463480591774,-47.215972900390625,0.5931219130449202,-1.191530441680224,-0.1685459128270547,-0.24780657525795197
0.5978726744651794,0.24095401167869568,-47.02040100097656,0.5931219130449202,-1.191530441680224,-0.1685459128270547,-0.24780657525795197
0.9068027138710022,0.09317361563444138,-46.89718246459961,0.5931219130449202,-1.191530441680224,-0.1685459128270547,-0.24780657525795197
-0.3548656105995178,0.34466415643692017,-46.8515625,0.5931219130449202,-1.191530441680224,-0.1685459128270547,-0.24780657525795197
0.596123218536377,-0.06579413264989853,-46.76700210571289,0.5931219130449202,-1.191530441680224,-0.1685459128270547,-0.24780657525795197
-1.2224148511886597,-0.3944026231765747,-46.57837677001953,0.5931219130449202,-1.191530441680224,-0.1685459128270547,-0.24780657525795197
0.23237797617912292,-0.7195920348167419,-46.452484130859375,0.5931219130449202,-1.191530441680224,-0.1685459128270547,-0.24780657525795197
-0.7710728645324707,-1.2146130800247192,-46.453426361083984,0.5931219130449202,-1.191530441680224,-0.1685459128270547,-0.24780657525795197
0.6324743032455444,0.46260866522789,-46.54350662231445,0.5931219130449202,-1.191530441680224,-0.1685459128270547,-0.24780657525795197
0.75410395860672,1.2940346002578735,-46.37160110473633,0.5931219130449202,-1.191530441680224,-0.1685459128270547,-0.24780657525795197
-0.6348763108253479,0.06872249394655228,-46.114044189453125,0.5931219130449202,-1.191530441680224,-0.1685459128270547,-0.24780657525795197
0.3448579013347626,-0.14710472524166107,-45.80121994018555,0.5931219130449202,-1.191530441680224,-0.1685459128270547,-0.24780657525795197
0.4116280972957611,1.458979845046997,-45.50538635253906,0.5931219130449202,-1.191530441680224,-0.1685459128270547,-0.24780657525795197
0.7231736183166504,1.3834869861602783,-45.15458297729492,0.5931219130449202,-1.191530441680224,-0.1685459128270547,-0.24780657525795197
1.4429395198822021,1.920541524887085,-44.70508575439453,0.5931219130449202,-1.191530441680224,-0.1685459128270547,-0.24780657525795197
0.5359686017036438,1.9334601163864136,-44.14796829223633,0.5931219130449202,-1.191530441680224,-0.1685459128270547,-0.24780657525795197
-0.24738891422748566,1.6139872074127197,-43.5164680480957,0.5931219130449202,-1.191530441680224,-0.1685459128270547,-0.24780657525795197
0.025407345965504646,1.2413395643234253,-42.943233489990234,0.5931219130449202,-1.191530441680224,-0.1685459128270547,-0.24780657525795197
0.24533268809318542,1.324198603630066,-42.34668731689453,0.5931219130449202,-1.191530441680224,-0.1685459128270547,-0.24780657525795197
0.8393396735191345,1.3675707578659058,-41.6916389465332,0.5931219130449202,-1.191530441680224,-0.1685459128270547,-0.24780657525795197
0.7181206941604614,1.2046128511428833,-40.97157287597656,0.5931219130449202,-1.191530441680224,-0.1685459128270547,-0.24780657525795197
0.8537597060203552,1.308656096458435,-40.217262268066406,0.5931219130449202,-1.191530441680224,-0.1685459128270547,-0.24780657525795197
0.9157488942146301,1.0516737699508667,-39.415313720703125,0.5931219130449202,-1.191530441680224,-0.1685459128270547,-0.24780657525795197
1.5219086408615112,0.6426429152488708,-38.541831970214844,0.5931219130449202,-1.191530441680224,-0.1685459128270547,-0.24780657525795197
1.3971623182296753,0.45386406779289246,-37.62326431274414,0.5931219130449202,-1.191530441680224,-0.1685459128270547,-0.24780657525795197
1.4323331117630005,0.6413378715515137,-36.64336395263672,0.5931219130449202,-1.191530441680224,-0.1685459128270547,-0.24780657525795197
1.76755952835083,0.5424681901931763,-35.627105712890625,0.5931219130449202,-1.191530441680224,-0.1685459128270547,-0.24780657525795197
1.360872507095337,0.4137597382068634,-34.60237503051758,0.5931219130449202,-1.191530441680224,-0.1685459128270547,-0.24780657525795197
1.5971606969833374,-0.09633198380470276,-33.55424880981445,0.5931219130449202,-1.191530441680224,-0.1685459128270547,-0.24780657525795197
1.7157634496688843,-0.4899647533893585,-32.43149185180664,0.5931219130449202,-1.191530441680224,-0.1685459128270547,-0.24780657525795197
1.6751391887664795,-0.7213164567947388,-31.21869468688965,0.5931219130449202,-1.191530441680224,-0.1685459128270547,-0.24780657525795197
2.076383352279663,-0.5970751047134399,-29.91725730895996,0.5931219130449202,-1.191530441680224,-0.1685459128270547,-0.24780657525795197
2.1680095195770264,-1.0165965557098389,-28.549495697021484,0.5931219130449202,-1.191530441680224,-0.1685459128270547,-0.24780657525795197
1.6482468843460083,-1.2688242197036743,-27.14719581604004,0.5931219130449202,-1.191530441680224,-0.1685459128270547,-0.24780657525795197
1.4908373355865479,-1.7306716442108154,-25.70339584350586,0.5931219130449202,-1.191530441680224,-0.1685459128270547,-0.24780657525795197
1.5441488027572632,-2.3382985591888428,-24.207181930541992,0.5931219130449202,-1.191530441680224,-0.1685459128270547,-0.24780657525795197
1.590261459350586,-2.474371910095215,-22.626544952392578,0.5931219130449202,-1.191530441680224,-0.1685459128270547,-0.24780657525795197
1.4304858446121216,-2.7762491703033447,-20.980892181396484,0.5931219130449202,-1.191530441680224,-0.1685459128270547,-0.24780657525795197
1.4628345966339111,-2.8309202194213867,-19.283527374267578,0.5931219130449202,-1.191530441680224,-0.1685459128270547,-0.24780657525795197
1.379111886024475,-2.746617078781128,-17.52301597595215,0.5931219130449202,-1.191530441680224,-0.1685459128270547,-0.24780657525795197
1.6626627445220947,-2.333285093307495,-15.699352264404297,0.5931219130449202,-1.191530441680224,-0.1685459128270547,-0.24780657525795197
