faccX,faccY,yaw,posX,posY,velX,velY
0,0,-74.08177947998047,0.0,0.0,0.0,0.0
0,0,-74.08123779296875,0.0,0.0,0.0,0.0
0.40380343794822693,-0.5641488432884216,-74.06136322021484,2.8041905413071314e-05,-3.9177003006140395e-05,0.0033650286495685577,-0.004701240360736847
0.2794530987739563,-2.1752514839172363,-73.9809341430664,0.00013157408684492112,-0.00030776714285214745,0.009058833122253418,-0.027529576420783998
0.2029304951429367,-2.051553964614868,-73.9873046875,0.0003160534995711512,-0.0010601215726799434,0.013078696404894192,-0.06275295515855153
0.8893222808837891,-1.6284289360046387,-74.01339721679688,0.0006098826602101326,-0.0023615585267543794,0.022180802871783575,-0.09341947933038075
0.5371041893959045,-1.2367634773254395,-73.9378662109375,0.0010786201018426153,-0.004117521544297537,0.034067690124114355,-0.11729608277479807
0.7940813899040222,-1.3425285816192627,-73.92648315429688,0.0017388583802514606,-0.006251573761304219,0.04516090328494708,-0.13879018326600392
-0.8798342347145081,-1.6150315999984741,-73.91415405273438,0.0024855850429998504,-0.00877012960612774,0.0444462962448597,-0.1634365181128184
0.7832329273223877,-0.8336699604988098,-73.87033081054688,0.0032196482229563924,-0.011664120294153691,0.04364128534992536,-0.18384236445029575
0.37442073225975037,-1.6836934089660645,-73.84674072265625,0.004027395594037242,-0.014902976602315904,0.05328839917977651,-0.2048203925291697
0.9185121059417725,-1.3098353147506714,-73.80896759033203,0.005005322583019734,-0.018524533750282395,0.06406283949812254,-0.22976646522680916
-0.5801709294319153,-0.9591732025146484,-73.81952667236328,0.0060965324896905156,-0.022511544873317083,0.06688234930237134,-0.2486748695373535
0.8990125060081482,-1.4334243535995483,-73.81333923339844,0.007233380087547832,-0.026822278640336462,0.06953936244050662,-0.2686131825049718
-0.7223159670829773,-1.3575656414031982,-73.60440826416016,0.00840464005453719,-0.03149298376507229,0.07101183359821638,-0.29187143246332803
0.7934261560440063,-0.45783135294914246,-73.46536254882812,0.009593108822074202,-0.03648357687518,0.07160441850622495,-0.3069997407495975
-0.18723522126674652,-0.9451018571853638,-73.4731216430664,0.010828612389870816,-0.04169766513837708,0.07665600962936879,-0.31869085083405174
0.19253754615783691,-0.6958902478218079,-73.53043365478516,0.012106580767366622,-0.047123137104014556,0.07670019567012788,-0.33236578504244485
0.6857737302780151,-0.7324650287628174,-73.6126480102539,0.013445911200510132,-0.052761758193373684,0.08401945630709332,-0.3442687456806501
2.2033286094665527,-0.5291075706481934,-73.66873168945312,0.015046867579221726,-0.05858717982967695,0.10809530913829804,-0.35478185067574186
-1.806930422782898,-0.5573638081550598,-73.7872085571289,0.016875983716713058,-0.06457566007557843,0.11139862736066183,-0.3638357788324356
1.3459680080413818,-1.279913306236267,-73.69461822509766,0.018700616227255926,-0.07076717841128509,0.10755727390448254,-0.3791464214523633
0.2648853659629822,0,-73.59418487548828,0.02060510227663649,-0.07717516830397977,0.12098105202118557,-0.38981236567099886
-0.693403959274292,-0.6449780464172363,-73.540283203125,0.02259169490800963,-0.0837168312072754,0.11741006374359132,-0.39518718272447584
-1.08267343044281,-0.7846129536628723,-73.60807800292969,0.024425190596116912,-0.09040256140546667,0.10260941882928214,-0.40710044105847676
0.6829525828361511,-0.0931481271982193,-73.63384246826172,0.02610758918441004,-0.09724852438705664,0.09927841176589332,-0.4144151167323192
0.15714336931705475,-0.43259182572364807,-73.67855072021484,0.027820569377185567,-0.10419195271821487,0.10627921136717003,-0.41879628300666805
0.5441266894340515,-0.4705355763435364,-73.75089263916016,0.029640588876273896,-0.11123460794902511,0.11212312852342925,-0.42632234469056124
0.8276550769805908,-0.11292041093111038,-73.78856658935547,0.0316045703076654,-0.11838049813742854,0.12355464324355127,-0.43118447791785
-1.0763201713562012,-0.5507742166519165,-73.77798461914062,0.03364654595239295,-0.12561299600741932,0.12148243412375452,-0.43671526648104186
-0.4418797194957733,0.5462499856948853,-73.76727294921875,0.035565822639813026,-0.13289189796480871,0.10883076836665473,-0.4367529684056838
0.17691899836063385,-0.2584133744239807,-73.7049331665039,0.03736126872917844,-0.14015112545134295,0.10662276235719523,-0.43435432997842627
0.22626423835754395,-0.7917930483818054,-73.67987823486328,0.03916631360434824,-0.14746329528590046,0.10998262266318004,-0.4431060501684745
1.130307912826538,-0.5846513509750366,-73.6605224609375,0.041093563714789026,-0.1549439825386637,0.12128739058971405,-0.45457642016311484
-0.9987159967422485,-0.246037557721138,-73.60940551757812,0.04312415855212345,-0.16257794293781952,0.12238398989041646,-0.461498827735583
-0.794181227684021,-0.3296204209327698,-73.61473846435547,0.04503938496526745,-0.17030956631526353,0.10744317968686422,-0.46629597755769886
1.1985690593719482,0.48795464634895325,-73.62937927246094,0.04685818711502685,-0.1780701705089046,0.11081307828426361,-0.46497652567923065
0.44860124588012695,-0.12304125726222992,-73.61521911621094,0.04881945857985153,-0.18579443806264967,0.12453949749469757,-0.4619355807701746
0.26934683322906494,-0.33096399903297424,-73.59881591796875,0.05094497437692352,-0.19352489255161753,0.13052239815394084,-0.46571895790596796
-0.7292203307151794,-0.20033769309520721,-73.71479797363281,0.05308841201994155,-0.2013237711342259,0.12669011900822322,-0.47014647200703613
0.403120756149292,0,-73.72803497314453,0.05517726819962264,-0.20917345800747478,0.1239726225535075,-0.4718159527828295
0.4898042380809784,-0.5937453508377075,-73.71788787841797,0.05730548725566931,-0.21707828953655234,0.13141366417209308,-0.47676383070647704
-1.8031036853790283,-1.1487038135528564,-73.70135498046875,0.05940451364136405,-0.22514535679585407,0.120469502111276,-0.49128424040973173
0.6454646587371826,-0.08661757409572601,-73.59215545654297,0.06133194707747963,-0.2334192136768252,0.11082251022259394,-0.5015785853068032
-0.5056290626525879,0.8705394864082336,-73.6025390625,0.06318869971980652,-0.24172441774358355,0.11198780685663223,-0.49504590270419896
1.5967209339141846,0.4472289979457855,-73.643310546875,0.06513093343625467,-0.24988367108835116,0.12108023911714554,-0.48406449866791545
0.5929846167564392,0.2648420035839081,-73.65509033203125,0.06730100030700367,-0.2579019633577102,0.13932778537273408,-0.47813057365516803
0.8577919006347656,-1.9568523168563843,-73.5904769897461,0.06972387843247918,-0.2659883069681625,0.15141758968432745,-0.49223065959910534
-0.7838239669799805,0.45176100730895996,-73.52692413330078,0.07225264158927733,-0.27429667152464393,0.15203398913145066,-0.5047730871786672
0,-1.1538796424865723,-73.59429931640625,0.07473210918820568,-0.28275831454950906,0.14550212273995083,-0.5106240758051473
-1.3513907194137573,1.4153250455856323,-73.63304138183594,0.07706329798946779,-0.2912505598821574,0.13424053341150285,-0.5084453641126552
0.29304832220077515,0.5988163352012634,-73.63683319091797,0.07922714421318638,-0.2995847783548137,0.125421013434728,-0.4916608526060977
-0.06496722251176834,-0.32741108536720276,-73.68826293945312,0.0813333334023547,-0.3077602783114546,0.12732168926546972,-0.4893991421908139
1.6476235389709473,-0.9114584922790527,-73.57219696044922,0.0835652682454222,-0.31600296329086025,0.14051049190262954,-0.499723055337866
-1.2101446390151978,-0.17800508439540863,-73.5556640625,0.08593749025629628,-0.3244073380726493,0.1441561494022608,-0.5088019184768199
0.0695381835103035,1.5025427341461182,-73.58084869384766,0.08826088396470168,-0.3327953882660303,0.13465109560638666,-0.4977641047288973
-0.4553512632846832,0,-73.49556732177734,0.09047827631649046,-0.34098711343275173,0.13143598660826683,-0.48524291527767965
1.603046178817749,-1.1422253847122192,-73.41397857666016,0.09274857712909582,-0.34915381656131805,0.1410001109043757,-0.4947614601502815
-2.4213809967041016,0.6967448592185974,-73.43751525878906,0.09504175017070442,-0.3574307770447598,0.1341806540886561,-0.49847379786272833
0.4470956325531006,-0.6998494863510132,-73.49068450927734,0.09714099125522709,-0.36573888927491166,0.11772827605406441,-0.4984996697554985
0.7868090271949768,0.5245872139930725,-73.43781280517578,0.09918881701305511,-0.3740593880953059,0.1280108148852984,-0.49996018869181463
0.7333276271820068,0.18896876275539398,-73.31947326660156,0.1014278956399196,-0.38234250540845083,0.14067862033843992,-0.4940138888855774
-0.08796503394842148,-0.38001516461372375,-73.34680938720703,0.10381735615897926,-0.3905893373344506,0.14605664194871978,-0.4956059422343968
-0.8389069437980652,-0.5857570767402649,-73.41053771972656,0.10618726741522552,-0.39891650388845123,0.1383327088008324,-0.50365404424568
0.17316307127475739,-0.19207967817783356,-73.41197967529297,0.1084465803485364,-0.40736475440052633,0.1327848431964715,-0.5101360172033309
0.4145199954509735,0.3725188970565796,-73.45574951171875,0.11070047239255576,-0.4158544908526042,0.13768220208585258,-0.5086323570460081
-1.2709685564041138,-0.9397651553153992,-73.40180969238281,0.11293570016614267,-0.4243710889046389,0.1305451307445764,-0.5133594091981649
0,0.9860066175460815,-73.37828826904297,0.1150231906399131,-0.43292386784528675,0.11995372610787547,-0.5129740636795759
1.498674750328064,0.3180353045463562,-73.45764923095703,0.11712649404381714,-0.44138287710646773,0.13244268236060933,-0.5021070476621389
-0.19184641540050507,-0.7690292000770569,-73.66156005859375,0.11942462405086393,-0.44978264692135966,0.14333291848500565,-0.5058653301248948
1.5459434986114502,-0.728207528591156,-73.63561248779297,0.12190754054528145,-0.45831771052959874,0.15461706084509685,-0.5183423028637966
-1.4132153987884521,0.09842499345541,-73.68903350830078,0.12449370878852077,-0.46700048380893533,0.15572312834362184,-0.5235904906565945
-0.1841333955526352,0.7073999047279358,-73.79094696044922,0.12697816726130745,-0.4756710319241714,0.14241188839077945,-0.5168752831717333
-0.5653789639472961,0.6850941181182861,-73.77438354492188,0.1292996492650774,-0.4841889190032248,0.13616595206161336,-0.5052711663146814
0.5666173696517944,-0.4690968692302704,-73.81352996826172,0.1292996492650774,-0.4841889190032248,0.13616595206161336,-0.5052711663146814
-0.5528755187988281,0.2812280058860779,-73.85893249511719,0.1292996492650774,-0.4841889190032248,0.13616595206161336,-0.5052711663146814
-0.3672066032886505,0.09400664269924164,-73.83100891113281,0.1292996492650774,-0.4841889190032248,0.13616595206161336,-0.5052711663146814
-1.5614807605743408,1.939697265625,-74.03475952148438,0.1292996492650774,-0.4841889190032248,0.13616595206161336,-0.5052711663146814
0.9150541424751282,2.8836584091186523,-74.51423645019531,0.1292996492650774,-0.4841889190032248,0.13616595206161336,-0.5052711663146814
-1.0565325021743774,1.1164398193359375,-75.1750717163086,0.1292996492650774,-0.4841889190032248,0.13616595206161336,-0.5052711663146814
-0.43285512924194336,1.8272415399551392,-76.08031463623047,0.1292996492650774,-0.4841889190032248,0.13616595206161336,-0.5052711663146814
-0.4890531599521637,2.4471964836120605,-77.21526336669922,0.1292996492650774,-0.4841889190032248,0.13616595206161336,-0.5052711663146814
-1.1697748899459839,1.1521013975143433,-78.55191802978516,0.1292996492650774,-0.4841889190032248,0.13616595206161336,-0.5052711663146814
-0.28177908062934875,3.00142765045166,-80.08650970458984,0.1292996492650774,-0.4841889190032248,0.13616595206161336,-0.5052711663146814
-0.223009392619133,1.410780429840088,-81.8445053100586,0.1292996492650774,-0.4841889190032248,0.13616595206161336,-0.5052711663146814
-0.7844807505607605,1.3041582107543945,-83.7616958618164,0.1292996492650774,-0.4841889190032248,0.13616595206161336,-0.5052711663146814
-0.0912289246916771,1.2358982563018799,-85.78829193115234,0.1292996492650774,-0.4841889190032248,0.13616595206161336,-0.5052711663146814
-0.4392130970954895,1.2057244777679443,-87.92245483398438,0.1292996492650774,-0.4841889190032248,0.13616595206161336,-0.5052711663146814
0.290557861328125,2.346547842025757,-90.21485137939453,0.1292996492650774,-0.4841889190032248,0.13616595206161336,-0.5052711663146814
-1.9495394229888916,1.3829220533370972,-92.57872772216797,0.1292996492650774,-0.4841889190032248,0.13616595206161336,-0.5052711663146814
-1.315382957458496,0.14696145057678223,-94.9254150390625,0.1292996492650774,-0.4841889190032248,0.13616595206161336,-0.5052711663146814
1.347582459449768,2.4192442893981934,-97.36261749267578,0.1292996492650774,-0.4841889190032248,0.13616595206161336,-0.5052711663146814
-2.601771831512451,-0.011477981694042683,-99.81640625,0.1292996492650774,-0.4841889190032248,0.13616595206161336,-0.5052711663146814
1.740122675895691,2.2308454513549805,-102.30257415771484,0.1292996492650774,-0.4841889190032248,0.13616595206161336,-0.5052711663146814
-0.7266877293586731,0.4270661175251007,-104.83639526367188,0.1292996492650774,-0.4841889190032248,0.13616595206161336,-0.5052711663146814
-0.09829524904489517,0.48162660002708435,-107.39676666259766,0.1292996492650774,-0.4841889190032248,0.13616595206161336,-0.5052711663146814
-0.003217189572751522,0.5353419780731201,-109.97364044189453,0.1292996492650774,-0.4841889190032248,0.13616595206161336,-0.5052711663146814
-0.06718258559703827,1.3893837928771973,-112.51143646240234,0.1292996492650774,-0.4841889190032248,0.13616595206161336,-0.5052711663146814
-0.2721351683139801,0.6416151523590088,-115.00908660888672,0.1292996492650774,-0.4841889190032248,0.13616595206161336,-0.5052711663146814
-0.546339213848114,-0.30077141523361206,-117.44261932373047,0.1292996492650774,-0.4841889190032248,0.13616595206161336,-0.5052711663146814
0.28313830494880676,0.9622097611427307,-119.80888366699219,0.1292996492650774,-0.4841889190032248,0.13616595206161336,-0.5052711663146814
0.8061803579330444,0.01327495463192463,-122.18611907958984,0.1292996492650774,-0.4841889190032248,0.13616595206161336,-0.5052711663146814
-2.527066469192505,0.642542839050293,-124.45980072021484,0.1292996492650774,-0.4841889190032248,0.13616595206161336,-0.5052711663146814
0.6031587719917297,-0.35020580887794495,-126.66371154785156,0.1292996492650774,-0.4841889190032248,0.13616595206161336,-0.5052711663146814
0.6139847040176392,1.6935811042785645,-128.93170166015625,0.1292996492650774,-0.4841889190032248,0.13616595206161336,-0.5052711663146814
0.7563466429710388,1.1824666261672974,-131.35890197753906,0.1292996492650774,-0.4841889190032248,0.13616595206161336,-0.5052711663146814
0.5228008031845093,0.28636905550956726,-133.6114044189453,0.1292996492650774,-0.4841889190032248,0.13616595206161336,-0.5052711663146814
-1.6910697221755981,0.875861406326294,-135.76109313964844,0.1292996492650774,-0.4841889190032248,0.13616595206161336,-0.5052711663146814
0.4007265567779541,0.010427834466099739,-137.87054443359375,0.1292996492650774,-0.4841889190032248,0.13616595206161336,-0.5052711663146814
0.9814854264259338,0.39369866251945496,-140.0418701171875,0.1292996492650774,-0.4841889190032248,0.13616595206161336,-0.5052711663146814
-1.4012163877487183,1.1100844144821167,-142.21473693847656,0.1292996492650774,-0.4841889190032248,0.13616595206161336,-0.5052711663146814
2.4944825172424316,-0.5658205151557922,-144.3832550048828,0.1292996492650774,-0.4841889190032248,0.13616595206161336,-0.5052711663146814
-2.382619619369507,1.8093162775039673,-146.57960510253906,0.1292996492650774,-0.4841889190032248,0.13616595206161336,-0.5052711663146814
0.6080836057662964,-0.5682845115661621,-148.86874389648438,0.1292996492650774,-0.4841889190032248,0.13616595206161336,-0.5052711663146814
-1.48142671585083,1.3069435358047485,-151.27902221679688,0.1292996492650774,-0.4841889190032248,0.13616595206161336,-0.5052711663146814
0.6158251762390137,0.26339778304100037,-153.87503051757812,0.1292996492650774,-0.4841889190032248,0.13616595206161336,-0.5052711663146814
0.8225431442260742,0.1135990172624588,-156.5274200439453,0.1292996492650774,-0.4841889190032248,0.13616595206161336,-0.5052711663146814
0.6389889717102051,0.8576152324676514,-159.21189880371094,0.1292996492650774,-0.4841889190032248,0.13616595206161336,-0.5052711663146814
-0.5081098079681396,1.3266805410385132,-161.9679412841797,0.1292996492650774,-0.4841889190032248,0.13616595206161336,-0.5052711663146814
0.432160347700119,-0.09872443974018097,-164.775634765625,0.1292996492650774,-0.4841889190032248,0.13616595206161336,-0.5052711663146814
0.5911404490470886,0.2455747127532959,-167.62680053710938,0.1292996492650774,-0.4841889190032248,0.13616595206161336,-0.5052711663146814
-0.07894665002822876,0.7464441061019897,-170.48263549804688,0.1292996492650774,-0.4841889190032248,0.13616595206161336,-0.5052711663146814
0.482232004404068,-0.2506892681121826,-173.37893676757812,0.1292996492650774,-0.4841889190032248,0.13616595206161336,-0.5052711663146814
-0.06386861950159073,1.1947135925292969,-176.1457061767578,0.1292996492650774,-0.4841889190032248,0.13616595206161336,-0.5052711663146814
1.7984904050827026,-1.8732318878173828,-178.5721893310547,0.1292996492650774,-0.4841889190032248,0.13616595206161336,-0.5052711663146814
-0.41759192943573,0.37507256865501404,179.47268676757812,0.1292996492650774,-0.4841889190032248,0.13616595206161336,-0.5052711663146814
-0.3133135735988617,-2.147157907485962,177.91307067871094,0.1292996492650774,-0.4841889190032248,0.13616595206161336,-0.5052711663146814
0.17395932972431183,-1.2224212884902954,176.6354217529297,0.1292996492650774,-0.4841889190032248,0.13616595206161336,-0.5052711663146814
-0.558042585849762,-0.910862147808075,175.7771453857422,0.1292996492650774,-0.4841889190032248,0.13616595206161336,-0.5052711663146814
-0.8047193288803101,-1.1501140594482422,175.19903564453125,0.1292996492650774,-0.4841889190032248,0.13616595206161336,-0.5052711663146814
-0.30922165513038635,-0.891792893409729,174.8930206298828,0.1292996492650774,-0.4841889190032248,0.13616595206161336,-0.5052711663146814
-0.6958313584327698,-0.3695584833621979,174.92823791503906,0.1292996492650774,-0.4841889190032248,0.13616595206161336,-0.5052711663146814
-0.6645493507385254,-0.5087746977806091,175.10508728027344,0.1292996492650774,-0.4841889190032248,0.13616595206161336,-0.5052711663146814
0.102776899933815,0.9806017279624939,175.2288818359375,0.1292996492650774,-0.4841889190032248,0.13616595206161336,-0.5052711663146814
-0.08614993840456009,0.7075545787811279,175.19435119628906,0.1292996492650774,-0.4841889190032248,0.13616595206161336,-0.5052711663146814
-0.11079329997301102,-0.34077057242393494,175.1344757080078,0.1292996492650774,-0.4841889190032248,0.13616595206161336,-0.5052711663146814
-0.07190877944231033,0.34708690643310547,175.17330932617188,0.1292996492650774,-0.4841889190032248,0.13616595206161336,-0.5052711663146814
0.06187283620238304,0.2671419382095337,175.1958770751953,0.1292996492650774,-0.4841889190032248,0.13616595206161336,-0.5052711663146814
-0.0009491820237599313,0.15279752016067505,175.16798400878906,0.1292996492650774,-0.4841889190032248,0.13616595206161336,-0.5052711663146814
0.04171277955174446,0.23087553679943085,175.1690216064453,0.1292996492650774,-0.4841889190032248,0.13616595206161336,-0.5052711663146814
0.044987089931964874,0.1017347052693367,175.18222045898438,0.1292996492650774,-0.4841889190032248,0.13616595206161336,-0.5052711663146814
0.06966295093297958,0.2515307664871216,175.17381286621094,0.1292996492650774,-0.4841889190032248,0.13616595206161336,-0.5052711663146814
0.02495182678103447,0.17432065308094025,175.1720428466797,0.1292996492650774,-0.4841889190032248,0.13616595206161336,-0.5052711663146814
0.007398621179163456,0.16602982580661774,175.17486572265625,0.1292996492650774,-0.4841889190032248,0.13616595206161336,-0.5052711663146814
-0.02408170886337757,0.2230733186006546,175.1697235107422,0.1292996492650774,-0.4841889190032248,0.13616595206161336,-0.5052711663146814
-0.037998173385858536,0.1755969524383545,175.17176818847656,0.1292996492650774,-0.4841889190032248,0.13616595206161336,-0.5052711663146814
-0.033479638397693634,0.2107192873954773,175.16973876953125,0.1292996492650774,-0.4841889190032248,0.13616595206161336,-0.5052711663146814
-0.01657271571457386,0.17942743003368378,175.1688232421875,0.1292996492650774,-0.4841889190032248,0.13616595206161336,-0.5052711663146814
-0.009721148759126663,0.20345830917358398,175.1693878173828,0.1292996492650774,-0.4841889190032248,0.13616595206161336,-0.5052711663146814
-0.005189773626625538,0.17543888092041016,175.1671905517578,0.1292996492650774,-0.4841889190032248,0.13616595206161336,-0.5052711663146814
-0.02055235020816326,0.20316551625728607,175.168701171875,0.1292996492650774,-0.4841889190032248,0.13616595206161336,-0.5052711663146814
-0.028126373887062073,0.1693422496318817,175.16770935058594,0.1292996492650774,-0.4841889190032248,0.13616595206161336,-0.5052711663146814
-0.019148197025060654,0.18842019140720367,175.16783142089844,0.1292996492650774,-0.4841889190032248,0.13616595206161336,-0.5052711663146814
-0.019427267834544182,0.17920131981372833,175.16749572753906,0.1292996492650774,-0.4841889190032248,0.13616595206161336,-0.5052711663146814
-0.022786656394600868,0.18560917675495148,175.1669158935547,0.1292996492650774,-0.4841889190032248,0.13616595206161336,-0.5052711663146814
-0.011064548045396805,0.1898825615644455,175.16600036621094,0.1292996492650774,-0.4841889190032248,0.13616595206161336,-0.5052711663146814
-0.031939130276441574,0.18403582274913788,175.16661071777344,0.1292996492650774,-0.4841889190032248,0.13616595206161336,-0.5052711663146814
-0.025847529992461205,0.19572746753692627,175.1668243408203,0.1292996492650774,-0.4841889190032248,0.13616595206161336,-0.5052711663146814
-0.01279707346111536,0.19324925541877747,175.1663818359375,0.1292996492650774,-0.4841889190032248,0.13616595206161336,-0.5052711663146814
-0.012398736551404,0.1878940463066101,175.16603088378906,0.1292996492650774,-0.4841889190032248,0.13616595206161336,-0.5052711663146814
-0.0165526382625103,0.19484837353229523,175.16510009765625,0.1292996492650774,-0.4841889190032248,0.13616595206161336,-0.5052711663146814
-0.02230215258896351,0.1949041485786438,175.16519165039062,0.1292996492650774,-0.4841889190032248,0.13616595206161336,-0.5052711663146814
-0.013736388646066189,0.19453223049640656,175.16424560546875,0.1292996492650774,-0.4841889190032248,0.13616595206161336,-0.5052711663146814
-0.017359808087348938,0.19532036781311035,175.16500854492188,0.1292996492650774,-0.4841889190032248,0.13616595206161336,-0.5052711663146814
-0.017421988770365715,0.19014279544353485,175.1655731201172,0.1292996492650774,-0.4841889190032248,0.13616595206161336,-0.5052711663146814
-0.009213217534124851,0.17843708395957947,175.16481018066406,0.1292996492650774,-0.4841889190032248,0.13616595206161336,-0.5052711663146814
-0.01208040863275528,0.18601581454277039,175.1637725830078,0.1292996492650774,-0.4841889190032248,0.13616595206161336,-0.5052711663146814
-0.021165043115615845,0.1974402368068695,175.16322326660156,0.1292996492650774,-0.4841889190032248,0.13616595206161336,-0.5052711663146814
-0.023033196106553078,0.20134010910987854,175.16134643554688,0.1292996492650774,-0.4841889190032248,0.13616595206161336,-0.5052711663146814
-0.02702012099325657,0.1858052909374237,175.16236877441406,0.1292996492650774,-0.4841889190032248,0.13616595206161336,-0.5052711663146814
-0.026800338178873062,0.19947801530361176,175.1623077392578,0.1292996492650774,-0.4841889190032248,0.13616595206161336,-0.5052711663146814
-0.008640537969768047,0.19266952574253082,175.16236877441406,0.1292996492650774,-0.4841889190032248,0.13616595206161336,-0.5052711663146814
-0.02553929015994072,0.20192791521549225,175.16270446777344,0.1292996492650774,-0.4841889190032248,0.13616595206161336,-0.5052711663146814
-0.02877504751086235,0.20020432770252228,175.16249084472656,0.1292996492650774,-0.4841889190032248,0.13616595206161336,-0.5052711663146814
-0.016239885240793228,0.18211953341960907,175.162841796875,0.1292996492650774,-0.4841889190032248,0.13616595206161336,-0.5052711663146814
-0.01680537313222885,0.192696675658226,175.16366577148438,0.1292996492650774,-0.4841889190032248,0.13616595206161336,-0.5052711663146814
-0.026519540697336197,0.1825382560491562,175.1642608642578,0.1292996492650774,-0.4841889190032248,0.13616595206161336,-0.5052711663146814
-0.0022633529733866453,0.17838647961616516,175.16488647460938,0.1292996492650774,-0.4841889190032248,0.13616595206161336,-0.5052711663146814
-0.01795133389532566,0.19704675674438477,175.1633758544922,0.1292996492650774,-0.4841889190032248,0.13616595206161336,-0.5052711663146814
-0.011205989867448807,0.17813654243946075,175.16372680664062,0.1292996492650774,-0.4841889190032248,0.13616595206161336,-0.5052711663146814
-0.019017770886421204,0.19756709039211273,175.16441345214844,0.1292996492650774,-0.4841889190032248,0.13616595206161336,-0.5052711663146814
-0.016926679760217667,0.18373091518878937,175.16326904296875,0.1292996492650774,-0.4841889190032248,0.13616595206161336,-0.5052711663146814
-0.01301611214876175,0.18244090676307678,175.16233825683594,0.1292996492650774,-0.4841889190032248,0.13616595206161336,-0.5052711663146814
-0.026102740317583084,0.18240803480148315,175.16207885742188,0.1292996492650774,-0.4841889190032248,0.13616595206161336,-0.5052711663146814
-0.0212550051510334,0.1816655397415161,175.1610565185547,0.1292996492650774,-0.4841889190032248,0.13616595206161336,-0.5052711663146814
-0.024319835007190704,0.18202513456344604,175.1604766845703,0.1292996492650774,-0.4841889190032248,0.13616595206161336,-0.5052711663146814
-0.016939034685492516,0.17901384830474854,175.1589813232422,0.1292996492650774,-0.4841889190032248,0.13616595206161336,-0.5052711663146814
-0.012662900611758232,0.18809941411018372,175.15945434570312,0.1292996492650774,-0.4841889190032248,0.13616595206161336,-0.5052711663146814
-0.012175210751593113,0.18528850376605988,175.15975952148438,0.1292996492650774,-0.4841889190032248,0.13616595206161336,-0.5052711663146814
-0.022916391491889954,0.17632876336574554,175.15896606445312,0.1292996492650774,-0.4841889190032248,0.13616595206161336,-0.5052711663146814
-0.008859757333993912,0.17965558171272278,175.15907287597656,0.1292996492650774,-0.4841889190032248,0.13616595206161336,-0.5052711663146814
-0.005434176418930292,0.1845996230840683,175.1583709716797,0.1292996492650774,-0.4841889190032248,0.13616595206161336,-0.5052711663146814
-0.021929582580924034,0.1853393316268921,175.1598358154297,0.1292996492650774,-0.4841889190032248,0.13616595206161336,-0.5052711663146814
-0.021596143022179604,0.1900072693824768,175.15975952148438,0.1292996492650774,-0.4841889190032248,0.13616595206161336,-0.5052711663146814
-0.018663641065359116,0.18805700540542603,175.1597900390625,0.1292996492650774,-0.4841889190032248,0.13616595206161336,-0.5052711663146814
-0.015893276780843735,0.1865391731262207,175.15928649902344,0.1292996492650774,-0.4841889190032248,0.13616595206161336,-0.5052711663146814
-0.00983744952827692,0.18438291549682617,175.15988159179688,0.1292996492650774,-0.4841889190032248,0.13616595206161336,-0.5052711663146814
-0.004822338465601206,0.18152210116386414,175.1591033935547,0.1292996492650774,-0.4841889190032248,0.13616595206161336,-0.5052711663146814
-0.011182695627212524,0.17424218356609344,175.15869140625,0.1292996492650774,-0.4841889190032248,0.13616595206161336,-0.5052711663146814
-0.02385173738002777,0.1826181858778,175.15830993652344,0.1292996492650774,-0.4841889190032248,0.13616595206161336,-0.5052711663146814
-0.01542248297482729,0.16551573574543,175.1588134765625,0.1292996492650774,-0.4841889190032248,0.13616595206161336,-0.5052711663146814
-0.007814236916601658,0.19684386253356934,175.1586456298828,0.1292996492650774,-0.4841889190032248,0.13616595206161336,-0.5052711663146814
-0.032313279807567596,0.1711280792951584,175.1591339111328,0.1292996492650774,-0.4841889190032248,0.13616595206161336,-0.5052711663146814
-0.0237534511834383,0.17931242287158966,175.1583709716797,0.1292996492650774,-0.4841889190032248,0.13616595206161336,-0.5052711663146814
-0.009412810206413269,0.18645744025707245,175.15760803222656,0.1292996492650774,-0.4841889190032248,0.13616595206161336,-0.5052711663146814
-0.019071703776717186,0.19074173271656036,175.157470703125,0.1292996492650774,-0.4841889190032248,0.13616595206161336,-0.5052711663146814
-0.0165327787399292,0.19603034853935242,175.15689086914062,0.1292996492650774,-0.4841889190032248,0.13616595206161336,-0.5052711663146814
-0.017750466242432594,0.19050438702106476,175.1566619873047,0.1292996492650774,-0.4841889190032248,0.13616595206161336,-0.5052711663146814
-0.02210693620145321,0.17375104129314423,175.15602111816406,0.1292996492650774,-0.4841889190032248,0.13616595206161336,-0.5052711663146814
-0.011575807817280293,0.19924208521842957,175.1551971435547,0.1292996492650774,-0.4841889190032248,0.13616595206161336,-0.5052711663146814
-0.01589396595954895,0.17271846532821655,175.15585327148438,0.1292996492650774,-0.4841889190032248,0.13616595206161336,-0.5052711663146814
-0.014194304123520851,0.17925918102264404,175.15541076660156,0.1292996492650774,-0.4841889190032248,0.13616595206161336,-0.5052711663146814
-0.023596709594130516,0.18576398491859436,175.1552276611328,0.1292996492650774,-0.4841889190032248,0.13616595206161336,-0.5052711663146814
-0.017640750855207443,0.18906815350055695,175.15457153320312,0.1292996492650774,-0.4841889190032248,0.13616595206161336,-0.5052711663146814
-0.007582451682537794,0.17912012338638306,175.1537322998047,0.1292996492650774,-0.4841889190032248,0.13616595206161336,-0.5052711663146814
-0.01716757006943226,0.1781860888004303,175.1529998779297,0.1292996492650774,-0.4841889190032248,0.13616595206161336,-0.5052711663146814
-0.018989883363246918,0.1897694617509842,175.1536865234375,0.1292996492650774,-0.4841889190032248,0.13616595206161336,-0.5052711663146814
-0.01710725948214531,0.1846846044063568,175.1532440185547,0.1292996492650774,-0.4841889190032248,0.13616595206161336,-0.5052711663146814
-0.012174061499536037,0.16872288286685944,175.1538543701172,0.1292996492650774,-0.4841889190032248,0.13616595206161336,-0.5052711663146814
-0.012434164062142372,0.1890183836221695,175.1531982421875,0.1292996492650774,-0.4841889190032248,0.13616595206161336,-0.5052711663146814
-0.01023841742426157,0.18460527062416077,175.1535186767578,0.1292996492650774,-0.4841889190032248,0.13616595206161336,-0.5052711663146814
-0.027658773586153984,0.1761409491300583,175.15365600585938,0.1292996492650774,-0.4841889190032248,0.13616595206161336,-0.5052711663146814
-0.018447270616889,0.17835545539855957,175.1531982421875,0.1292996492650774,-0.4841889190032248,0.13616595206161336,-0.5052711663146814
-0.0008812014712020755,0.18255673348903656,175.1546173095703,0.1292996492650774,-0.4841889190032248,0.13616595206161336,-0.5052711663146814
-0.016368141397833824,0.1700526922941208,175.15557861328125,0.1292996492650774,-0.4841889190032248,0.13616595206161336,-0.5052711663146814
-0.016120344400405884,0.1759929209947586,175.1551971435547,0.1292996492650774,-0.4841889190032248,0.13616595206161336,-0.5052711663146814
-0.008712475188076496,0.1867942065000534,175.15475463867188,0.1292996492650774,-0.4841889190032248,0.13616595206161336,-0.5052711663146814
-0.02093765139579773,0.1672593057155609,175.15480041503906,0.1292996492650774,-0.4841889190032248,0.13616595206161336,-0.5052711663146814
-0.007385776843875647,0.17298908531665802,175.15447998046875,0.1292996492650774,-0.4841889190032248,0.13616595206161336,-0.5052711663146814
-0.01678786426782608,0.17379005253314972,175.1541748046875,0.1292996492650774,-0.4841889190032248,0.13616595206161336,-0.5052711663146814
-0.018858235329389572,0.1783929467201233,175.1544952392578,0.1292996492650774,-0.4841889190032248,0.13616595206161336,-0.5052711663146814
-0.012160848826169968,0.16669590771198273,175.15414428710938,0.1292996492650774,-0.4841889190032248,0.13616595206161336,-0.5052711663146814
-0.026430314406752586,0.17110224068164825,175.15501403808594,0.1292996492650774,-0.4841889190032248,0.13616595206161336,-0.5052711663146814
-0.015967393293976784,0.16681694984436035,175.15478515625,0.1292996492650774,-0.4841889190032248,0.13616595206161336,-0.5052711663146814
-0.016226956620812416,0.15957142412662506,175.1533660888672,0.1292996492650774,-0.4841889190032248,0.13616595206161336,-0.5052711663146814
-0.005393428262323141,0.1667146384716034,175.15318298339844,0.1292996492650774,-0.4841889190032248,0.13616595206161336,-0.5052711663146814
-0.012683159671723843,0.17020867764949799,175.15333557128906,0.1292996492650774,-0.4841889190032248,0.13616595206161336,-0.5052711663146814
-0.009568640030920506,0.17084775865077972,175.15264892578125,0.1292996492650774,-0.4841889190032248,0.13616595206161336,-0.5052711663146814
-0.0018803367856889963,0.16445019841194153,175.1512908935547,0.1292996492650774,-0.4841889190032248,0.13616595206161336,-0.5052711663146814
-0.013914639130234718,0.1732090711593628,175.15072631835938,0.1292996492650774,-0.4841889190032248,0.13616595206161336,-0.5052711663146814
-0.007200129330158234,0.17386490106582642,175.15199279785156,0.1292996492650774,-0.4841889190032248,0.13616595206161336,-0.5052711663146814
-0.01408915314823389,0.17118678987026215,175.1518096923828,0.1292996492650774,-0.4841889190032248,0.13616595206161336,-0.5052711663146814
-0.0075948541052639484,0.1582254022359848,175.153076171875,0.1292996492650774,-0.4841889190032248,0.13616595206161336,-0.5052711663146814
-0.006405462045222521,0.17622330784797668,175.15357971191406,0.1292996492650774,-0.4841889190032248,0.13616595206161336,-0.5052711663146814
-0.02364364266395569,0.17284788191318512,175.15318298339844,0.1292996492650774,-0.4841889190032248,0.13616595206161336,-0.5052711663146814
-0.009713135659694672,0.15499603748321533,175.15248107910156,0.1292996492650774,-0.4841889190032248,0.13616595206161336,-0.5052711663146814
-0.01248638704419136,0.17704437673091888,175.15171813964844,0.1292996492650774,-0.4841889190032248,0.13616595206161336,-0.5052711663146814
-0.0129198944196105,0.1642100065946579,175.1508331298828,0.1292996492650774,-0.4841889190032248,0.13616595206161336,-0.5052711663146814
-0.004215446766465902,0.1584281027317047,175.14987182617188,0.1292996492650774,-0.4841889190032248,0.13616595206161336,-0.5052711663146814
-0.018108440563082695,0.16326527297496796,175.14990234375,0.1292996492650774,-0.4841889190032248,0.13616595206161336,-0.5052711663146814
-0.012140415608882904,0.1622777134180069,175.14915466308594,0.1292996492650774,-0.4841889190032248,0.13616595206161336,-0.5052711663146814
-0.0016337697161361575,0.1616930067539215,175.1484832763672,0.1292996492650774,-0.4841889190032248,0.13616595206161336,-0.5052711663146814
-0.02370745688676834,0.16152852773666382,175.14920043945312,0.1292996492650774,-0.4841889190032248,0.13616595206161336,-0.5052711663146814
-0.024044254794716835,0.16450843214988708,175.1488494873047,0.1292996492650774,-0.4841889190032248,0.13616595206161336,-0.5052711663146814
-0.02826300635933876,0.1686524897813797,175.1484375,0.1292996492650774,-0.4841889190032248,0.13616595206161336,-0.5052711663146814
-0.01390727050602436,0.16745707392692566,175.14735412597656,0.1292996492650774,-0.4841889190032248,0.13616595206161336,-0.5052711663146814
-0.006563542410731316,0.16567133367061615,175.1470947265625,0.1292996492650774,-0.4841889190032248,0.13616595206161336,-0.5052711663146814
-0.019832249730825424,0.16374583542346954,175.14697265625,0.1292996492650774,-0.4841889190032248,0.13616595206161336,-0.5052711663146814
-0.025787055492401123,0.15877282619476318,175.14590454101562,0.1292996492650774,-0.4841889190032248,0.13616595206161336,-0.5052711663146814
-0.011721235699951649,0.1586037576198578,175.14663696289062,0.1292996492650774,-0.4841889190032248,0.13616595206161336,-0.5052711663146814
-0.015287940390408039,0.1627301424741745,175.1465606689453,0.1292996492650774,-0.4841889190032248,0.13616595206161336,-0.5052711663146814
-0.007659882307052612,0.1653807908296585,175.14524841308594,0.1292996492650774,-0.4841889190032248,0.13616595206161336,-0.5052711663146814
-0.007615662645548582,0.17095515131950378,175.1453094482422,0.1292996492650774,-0.4841889190032248,0.13616595206161336,-0.5052711663146814
-0.01638999953866005,0.1561414748430252,175.14364624023438,0.1292996492650774,-0.4841889190032248,0.13616595206161336,-0.5052711663146814
-0.0012060774024575949,0.16057398915290833,175.1432342529297,0.1292996492650774,-0.4841889190032248,0.13616595206161336,-0.5052711663146814
-0.015834832563996315,0.1559407263994217,175.14369201660156,0.1292996492650774,-0.4841889190032248,0.13616595206161336,-0.5052711663146814
-0.006942905019968748,0.15023326873779297,175.14389038085938,0.1292996492650774,-0.4841889190032248,0.13616595206161336,-0.5052711663146814
-0.0040977755561470985,0.14875884354114532,175.1444091796875,0.1292996492650774,-0.4841889190032248,0.13616595206161336,-0.5052711663146814
-0.010094184428453445,0.16245000064373016,175.14488220214844,0.1292996492650774,-0.4841889190032248,0.13616595206161336,-0.5052711663146814
-0.022382520139217377,0.17151391506195068,175.1780242919922,0.1292996492650774,-0.4841889190032248,0.13616595206161336,-0.5052711663146814
-0.0014800337376073003,0.1518508344888687,175.17791748046875,0.1292996492650774,-0.4841889190032248,0.13616595206161336,-0.5052711663146814
-0.024419846013188362,0.17303363978862762,175.17823791503906,0.1292996492650774,-0.4841889190032248,0.13616595206161336,-0.5052711663146814
-0.01553352177143097,0.15965910255908966,175.1786346435547,0.1292996492650774,-0.4841889190032248,0.13616595206161336,-0.5052711663146814
-0.019874271005392075,0.1530780792236328,175.1787109375,0.1292996492650774,-0.4841889190032248,0.13616595206161336,-0.5052711663146814
-0.0013205952709540725,0.16266605257987976,175.17811584472656,0.1292996492650774,-0.4841889190032248,0.13616595206161336,-0.5052711663146814
-0.015787119045853615,0.15985430777072906,175.17796325683594,0.1292996492650774,-0.4841889190032248,0.13616595206161336,-0.5052711663146814
0.00033107484341599047,0.16024275124073029,175.17657470703125,0.1292996492650774,-0.4841889190032248,0.13616595206161336,-0.5052711663146814
-0.014618152752518654,0.16338564455509186,175.17608642578125,0.1292996492650774,-0.4841889190032248,0.13616595206161336,-0.5052711663146814
-0.0071752117946743965,0.15658360719680786,175.1754150390625,0.1292996492650774,-0.4841889190032248,0.13616595206161336,-0.5052711663146814
-0.01612831838428974,0.15748973190784454,175.1742401123047,0.1292996492650774,-0.4841889190032248,0.13616595206161336,-0.5052711663146814
-0.0018054379615932703,0.1631508767604828,175.17422485351562,0.1292996492650774,-0.4841889190032248,0.13616595206161336,-0.5052711663146814
-0.018522053956985474,0.16333089768886566,175.17457580566406,0.1292996492650774,-0.4841889190032248,0.13616595206161336,-0.5052711663146814
-0.01827223040163517,0.17515508830547333,175.17416381835938,0.1292996492650774,-0.4841889190032248,0.13616595206161336,-0.5052711663146814
-0.012587718665599823,0.14680959284305573,175.17483520507812,0.1292996492650774,-0.4841889190032248,0.13616595206161336,-0.5052711663146814
-0.013433475978672504,0.15018802881240845,175.17526245117188,0.1292996492650774,-0.4841889190032248,0.13616595206161336,-0.5052711663146814
-0.01617461070418358,0.16207244992256165,175.1744384765625,0.1292996492650774,-0.4841889190032248,0.13616595206161336,-0.5052711663146814
-0.021799730136990547,0.16240884363651276,175.1748809814453,0.1292996492650774,-0.4841889190032248,0.13616595206161336,-0.5052711663146814
-0.01090293563902378,0.1625453680753708,175.17547607421875,0.1292996492650774,-0.4841889190032248,0.13616595206161336,-0.5052711663146814
-0.028941046446561813,0.15918076038360596,175.1756591796875,0.1292996492650774,-0.4841889190032248,0.13616595206161336,-0.5052711663146814
-0.01040553767234087,0.16386225819587708,175.17572021484375,0.1292996492650774,-0.4841889190032248,0.13616595206161336,-0.5052711663146814
-0.0188351608812809,0.15121537446975708,175.17617797851562,0.1292996492650774,-0.4841889190032248,0.13616595206161336,-0.5052711663146814
-0.013049266301095486,0.1451536864042282,175.1772918701172,0.1292996492650774,-0.4841889190032248,0.13616595206161336,-0.5052711663146814
-0.02023581974208355,0.15282870829105377,175.17816162109375,0.1292996492650774,-0.4841889190032248,0.13616595206161336,-0.5052711663146814
-0.006854638457298279,0.16640685498714447,175.1782989501953,0.1292996492650774,-0.4841889190032248,0.13616595206161336,-0.5052711663146814
-0.014998192898929119,0.15180756151676178,175.1779327392578,0.1292996492650774,-0.4841889190032248,0.13616595206161336,-0.5052711663146814
-0.02370048500597477,0.15610769391059875,175.17662048339844,0.1292996492650774,-0.4841889190032248,0.13616595206161336,-0.5052711663146814
-0.0127668222412467,0.150146022439003,175.1757049560547,0.1292996492650774,-0.4841889190032248,0.13616595206161336,-0.5052711663146814
-0.011979810893535614,0.16385327279567719,175.1749725341797,0.1292996492650774,-0.4841889190032248,0.13616595206161336,-0.5052711663146814
-0.025032933801412582,0.1620979607105255,175.173583984375,0.1292996492650774,-0.4841889190032248,0.13616595206161336,-0.5052711663146814
-0.02028011344373226,0.16164740920066833,175.1741180419922,0.1292996492650774,-0.4841889190032248,0.13616595206161336,-0.5052711663146814
-0.01488535013049841,0.14837341010570526,175.1747589111328,0.1292996492650774,-0.4841889190032248,0.13616595206161336,-0.5052711663146814
-0.01940971612930298,0.14844675362110138,175.17453002929688,0.1292996492650774,-0.4841889190032248,0.13616595206161336,-0.5052711663146814
-0.018218697980046272,0.1587434560060501,175.1743621826172,0.1292996492650774,-0.4841889190032248,0.13616595206161336,-0.5052711663146814
-0.0268799290060997,0.15265966951847076,175.17425537109375,0.1292996492650774,-0.4841889190032248,0.13616595206161336,-0.5052711663146814
-0.01672678254544735,0.15294547379016876,175.1737518310547,0.1292996492650774,-0.4841889190032248,0.13616595206161336,-0.5052711663146814
-0.007835771888494492,0.16300560534000397,175.1739959716797,0.1292996492650774,-0.4841889190032248,0.13616595206161336,-0.5052711663146814
-0.00988956168293953,0.15790636837482452,175.17349243164062,0.1292996492650774,-0.4841889190032248,0.13616595206161336,-0.5052711663146814
-0.030801044777035713,0.15860620141029358,175.1729278564453,0.1292996492650774,-0.4841889190032248,0.13616595206161336,-0.5052711663146814
-0.02957047149538994,0.1329234391450882,175.1720428466797,0.1292996492650774,-0.4841889190032248,0.13616595206161336,-0.5052711663146814
0.010082083754241467,0.1508178412914276,175.17189025878906,0.1292996492650774,-0.4841889190032248,0.13616595206161336,-0.5052711663146814
-0.008832703344523907,0.15169712901115417,175.1724090576172,0.1292996492650774,-0.4841889190032248,0.13616595206161336,-0.5052711663146814
-0.020130963996052742,0.1387639194726944,175.1715545654297,0.1292996492650774,-0.4841889190032248,0.13616595206161336,-0.5052711663146814
-0.017465800046920776,0.14834828674793243,175.1713104248047,0.1292996492650774,-0.4841889190032248,0.13616595206161336,-0.5052711663146814
-0.023410025984048843,0.15916168689727783,175.17031860351562,0.1292996492650774,-0.4841889190032248,0.13616595206161336,-0.5052711663146814
-0.016498679295182228,0.13834303617477417,175.16937255859375,0.1292996492650774,-0.4841889190032248,0.13616595206161336,-0.5052711663146814
-0.010933502577245235,0.14071471989154816,175.1688690185547,0.1292996492650774,-0.4841889190032248,0.13616595206161336,-0.5052711663146814
-0.0009594418224878609,0.14463473856449127,175.16905212402344,0.1292996492650774,-0.4841889190032248,0.13616595206161336,-0.5052711663146814
-0.024988815188407898,0.1446043848991394,175.16864013671875,0.1292996492650774,-0.4841889190032248,0.13616595206161336,-0.5052711663146814
-0.02737680822610855,0.14614902436733246,175.1685791015625,0.1292996492650774,-0.4841889190032248,0.13616595206161336,-0.5052711663146814
-0.019550861790776253,0.14120572805404663,175.167724609375,0.1292996492650774,-0.4841889190032248,0.13616595206161336,-0.5052711663146814
-0.021037878468632698,0.14634297788143158,175.16746520996094,0.1292996492650774,-0.4841889190032248,0.13616595206161336,-0.5052711663146814
-0.014088001102209091,0.15948350727558136,175.16787719726562,0.1292996492650774,-0.4841889190032248,0.13616595206161336,-0.5052711663146814
-0.020408228039741516,0.14540351927280426,175.16769409179688,0.1292996492650774,-0.4841889190032248,0.13616595206161336,-0.5052711663146814
-0.0254898089915514,0.13092979788780212,175.168701171875,0.1292996492650774,-0.4841889190032248,0.13616595206161336,-0.5052711663146814
-0.012571794912219048,0.14062578976154327,175.16848754882812,0.1292996492650774,-0.4841889190032248,0.13616595206161336,-0.5052711663146814
-0.010017648339271545,0.1418401449918747,175.1678924560547,0.1292996492650774,-0.4841889190032248,0.13616595206161336,-0.5052711663146814
-0.015475497581064701,0.14842258393764496,175.1691131591797,0.1292996492650774,-0.4841889190032248,0.13616595206161336,-0.5052711663146814
-0.013567064888775349,0.14666511118412018,175.16970825195312,0.1292996492650774,-0.4841889190032248,0.13616595206161336,-0.5052711663146814
-0.027507487684488297,0.14848358929157257,175.169189453125,0.1292996492650774,-0.4841889190032248,0.13616595206161336,-0.5052711663146814
-0.017641743645071983,0.15163350105285645,175.16912841796875,0.1292996492650774,-0.4841889190032248,0.13616595206161336,-0.5052711663146814
-0.012007148005068302,0.14405958354473114,175.16893005371094,0.1292996492650774,-0.4841889190032248,0.13616595206161336,-0.5052711663146814
-0.02029496058821678,0.14811331033706665,175.16934204101562,0.1292996492650774,-0.4841889190032248,0.13616595206161336,-0.5052711663146814
-0.00614975206553936,0.1480918824672699,175.170166015625,0.1292996492650774,-0.4841889190032248,0.13616595206161336,-0.5052711663146814
-0.017084097489714622,0.1376805454492569,175.16888427734375,0.1292996492650774,-0.4841889190032248,0.13616595206161336,-0.5052711663146814
-0.01588665135204792,0.13646598160266876,175.16978454589844,0.1292996492650774,-0.4841889190032248,0.13616595206161336,-0.5052711663146814
-0.015062747523188591,0.1357799768447876,175.16854858398438,0.1292996492650774,-0.4841889190032248,0.13616595206161336,-0.5052711663146814
-0.01610676757991314,0.13829079270362854,175.16876220703125,0.1292996492650774,-0.4841889190032248,0.13616595206161336,-0.5052711663146814
-0.006544789765030146,0.1414068341255188,175.1683807373047,0.1292996492650774,-0.4841889190032248,0.13616595206161336,-0.5052711663146814
-0.0028940860647708178,0.14134053885936737,175.16876220703125,0.1292996492650774,-0.4841889190032248,0.13616595206161336,-0.5052711663146814
-0.009010324254631996,0.12540408968925476,175.1681365966797,0.1292996492650774,-0.4841889190032248,0.13616595206161336,-0.5052711663146814
-0.013279064558446407,0.1452137678861618,175.1677703857422,0.1292996492650774,-0.4841889190032248,0.13616595206161336,-0.5052711663146814
-0.009346487000584602,0.14078223705291748,175.168212890625,0.1292996492650774,-0.4841889190032248,0.13616595206161336,-0.5052711663146814
-0.005610286258161068,0.12855421006679535,175.167724609375,0.1292996492650774,-0.4841889190032248,0.13616595206161336,-0.5052711663146814
-0.009331087581813335,0.14552927017211914,175.16842651367188,0.1292996492650774,-0.4841889190032248,0.13616595206161336,-0.5052711663146814
2.54119931923924e-05,0.13543283939361572,175.1688690185547,0.1292996492650774,-0.4841889190032248,0.13616595206161336,-0.5052711663146814
-0.020596439018845558,0.13429048657417297,175.1688232421875,0.1292996492650774,-0.4841889190032248,0.13616595206161336,-0.5052711663146814
-0.003991288132965565,0.13984717428684235,175.16799926757812,0.1292996492650774,-0.4841889190032248,0.13616595206161336,-0.5052711663146814
-0.015487723983824253,0.15153463184833527,175.16810607910156,0.1292996492650774,-0.4841889190032248,0.13616595206161336,-0.5052711663146814
-0.023943200707435608,0.13897192478179932,175.16827392578125,0.1292996492650774,-0.4841889190032248,0.13616595206161336,-0.5052711663146814
-0.00864317175000906,0.1410967856645584,175.16796875,0.1292996492650774,-0.4841889190032248,0.13616595206161336,-0.5052711663146814
-0.022705530747771263,0.1228647381067276,175.1671142578125,0.1292996492650774,-0.4841889190032248,0.13616595206161336,-0.5052711663146814
-0.014052050188183784,0.13937407732009888,175.1674346923828,0.1292996492650774,-0.4841889190032248,0.13616595206161336,-0.5052711663146814
-0.006672289688140154,0.12709982693195343,175.16702270507812,0.1292996492650774,-0.4841889190032248,0.13616595206161336,-0.5052711663146814
0.0043157837353646755,0.1331331729888916,175.16676330566406,0.1292996492650774,-0.4841889190032248,0.13616595206161336,-0.5052711663146814
-0.01686690002679825,0.13813546299934387,175.16773986816406,0.1292996492650774,-0.4841889190032248,0.13616595206161336,-0.5052711663146814
-0.0074934326112270355,0.13714905083179474,175.168701171875,0.1292996492650774,-0.4841889190032248,0.13616595206161336,-0.5052711663146814
-0.0009968103840947151,0.146752268075943,175.1680145263672,0.1292996492650774,-0.4841889190032248,0.13616595206161336,-0.5052711663146814
-0.007537977769970894,0.13882951438426971,175.16912841796875,0.1292996492650774,-0.4841889190032248,0.13616595206161336,-0.5052711663146814
-0.007051902823150158,0.1319071501493454,175.16944885253906,0.1292996492650774,-0.4841889190032248,0.13616595206161336,-0.5052711663146814
-0.011007006280124187,0.13818706572055817,175.1691436767578,0.1292996492650774,-0.4841889190032248,0.13616595206161336,-0.5052711663146814
0,0.14256368577480316,175.16937255859375,0.1315683174240015,-0.49259060852850456,0.136074227009279,-0.5029315767188867
0,0.14312784373760223,175.16920471191406,0.13383622120748948,-0.5009529617842698,0.136074227009279,-0.50055081397295
-0.4150707423686981,-0.06374164670705795,175.1717529296875,0.13607530063386852,-0.5092899624201364,0.1326153041562065,-0.49988926233102876
-1.9212675094604492,0.7763252854347229,175.2836456298828,0.13812330999120606,-0.5175719651507419,0.11314581872429695,-0.4939510653416316
-2.4430489540100098,0.42286667227745056,175.3641357421875,0.13970599610442555,-0.5257212056871502,0.07677651486204312,-0.48395779902736347
-2.971487045288086,0.30901336669921875,175.29298400878906,0.1406095952410639,-0.5337363440015662,0.03165538153455899,-0.4778587987025579
-1.8771042823791504,0.647266685962677,175.37384033203125,0.14080047720221855,-0.5416342489762851,-0.00874954619600131,-0.46988979826370875
-1.417104959487915,-0.41052332520484924,175.51011657714844,0.1404258869016,-0.5494493051028498,-0.03620128987822685,-0.46791693692406017
-0.8824764490127563,0,175.56663513183594,0.1396628389169281,-0.5572764292825012,-0.05536446828239911,-0.4713379646341006
-2.1190967559814453,0.7759342789649963,175.55201721191406,0.13853165519520796,-0.5650781777014747,-0.08037757832401746,-0.46487184564272566
-1.488343596458435,-0.21126016974449158,175.73915100097656,0.13694151219866602,-0.5727868283157131,-0.11043958126101647,-0.46016622806588814
-1.1224620342254639,0.3786841928958893,175.7181396484375,0.13491954656440713,-0.5804446387818702,-0.13219629485004897,-0.4587710278729598
-0.850712776184082,0.41931018233299255,175.7251434326172,0.1325792489550723,-0.5880354063036953,-0.14863941827012853,-0.45212107474605245
-1.6515527963638306,-0.11016546934843063,175.72454833984375,0.12992815687469877,-0.5955492891666168,-0.16949163137469447,-0.44954486880451444
0,0.49566468596458435,175.72702026367188,0.12698860518537305,-0.6030149328677603,-0.18325457134439305,-0.44633237533271314
-0.8757636547088623,0.22022660076618195,175.61314392089844,0.12387354540916727,-0.6104040911172826,-0.19055260180030023,-0.44036661460995674
-1.6697551012039185,0.7862522006034851,175.69200134277344,0.12052089657666833,-0.617673640332909,-0.21176525809957342,-0.4319792912652095
-0.6853045225143433,0.6211070418357849,175.79122924804688,0.11682792980113944,-0.6247755619066041,-0.23139075496389228,-0.4202512975782156
-1.377379059791565,-0.6496248841285706,175.89044189453125,0.11282817530297,-0.6317817306052892,-0.2485797848164415,-0.4204889462639888
-0.690865695476532,-0.3434411585330963,175.87908935546875,0.10854155078135791,-0.6388588426293182,-0.265815157777009,-0.4287644966195027
0.21753987669944763,0.8833001852035522,175.88392639160156,0.10407842830321491,-0.6459674273627912,-0.26975953960015137,-0.4242656713972489
-0.5637404918670654,-0.7441317439079285,175.8892822265625,0.09955839426715908,-0.6530288574109887,-0.2726445447265482,-0.42310593438645205
-0.4946324825286865,0.9160050749778748,175.85963439941406,0.09494082039849469,-0.6600686873361052,-0.28146431951317946,-0.4216736566275358
-0.5995487570762634,0.2929004430770874,175.86570739746094,0.09017376359830247,-0.6670126298411437,-0.2905824965098874,-0.4115994439770778
-0.38328275084495544,0.2584356665611267,175.88929748535156,0.08526246980175425,-0.673834333344259,-0.2987727590758975,-0.40700497639675937
-0.7395663261413574,-0.557800829410553,175.8301544189453,0.08020494818680969,-0.6806385388649584,-0.3081298347174501,-0.40949968608717124
-0.48929858207702637,1.307867407798767,175.7294921875,0.07498411310067035,-0.6874114456762455,-0.31837037561926995,-0.40324913126726947
-1.2856298685073853,0.16666047275066376,175.73992919921875,0.06955468125350305,-0.6940298667612174,-0.3331614460408067,-0.39096139892935755
-0.40305840969085693,0.2057742178440094,175.78517150878906,0.06388472046683695,-0.7005200265565265,-0.3472338483591254,-0.3878577765077353
0.6067208647727966,-0.4884486198425293,175.7720184326172,0.058111632886898884,-0.7070039529984609,-0.34553666123344257,-0.39021339652438963
-0.356635719537735,1.151706337928772,175.82664489746094,0.052370055556982834,-0.7134614500434447,-0.3434526183564837,-0.3846862488736709
0.22839133441448212,-0.08333004266023636,175.83616638183594,0.04663693939096343,-0.71979869472639,-0.34452132156584414,-0.3757831130797665
-0.9420179128646851,-0.7967754006385803,175.80125427246094,0.040845359963584765,-0.7261228650446152,-0.35046820971959586,-0.3831173251072566
-1.1868793964385986,-0.5601347088813782,175.71536254882812,0.034856383044000995,-0.7326023836651194,-0.3682090206304566,-0.39442490935325625
-0.5991560220718384,1.0353779792785645,175.72708129882812,0.028595535796096826,-0.7391431291494517,-0.3830926491180435,-0.390464548766613
0.13537271320819855,0.5847987532615662,175.8270263671875,0.02217845113656946,-0.7455383593558021,-0.38695751002524054,-0.37696307599544526
0.34193822741508484,-0.2448442280292511,175.86837768554688,0.015762305895914288,-0.7517974693359184,-0.38297991885337984,-0.3741301216185093
0.41658762097358704,0.7028900980949402,175.85061645507812,0.00943198265449606,-0.7580011626219167,-0.3766588701168076,-0.3703130727012952
-0.26959946751594543,-1.036615014076233,175.83009338378906,0.0031645423298727144,-0.764196222508326,-0.3754339688379939,-0.373094113667806
-0.7479526996612549,-0.15445809066295624,175.80172729492188,-0.0031633538290367115,-0.7704971711461741,-0.38391357023113726,-0.3830197228739659
-0.2393285632133484,0.4534794092178345,175.81414794921875,-0.009630474531699736,-0.7768600678247295,-0.3921409140884256,-0.3805278785526753
-0.36178138852119446,-0.3083721697330475,175.75595092773438,-0.016207900179821728,-0.7831921222423098,-0.3971501636862135,-0.3793186515569687
-0.13801132142543793,1.8941811323165894,175.7147674560547,-0.022861777401671578,-0.7894039741458577,-0.4013151029357687,-0.36610357686877254
-0.5351143479347229,0.12010744214057922,175.79872131347656,-0.02959710728875107,-0.7953658192759999,-0.4069244835137701,-0.34931783874829614
0.4606747031211853,-1.367356538772583,175.87222290039062,-0.03638435143375929,-0.8012743977757376,-0.40754481388721625,-0.3597115812202295
0.7811132669448853,1.783430814743042,175.74501037597656,-0.043090529722847194,-0.8072406967491323,-0.3971965808033323,-0.3562442955871423
-0.24199531972408295,-0.41024449467658997,175.6273193359375,-0.04967303398990129,-0.813082741514469,-0.39270393124315894,-0.34480107625325523
-0.13596215844154358,0.3302057683467865,175.61920166015625,-0.056244346557715444,-0.8188349843635739,-0.39585357689453915,-0.3454680656393369
0,0,175.595703125,-0.06285134798918288,-0.8245698545014277,-0.396986594881552,-0.3427163509031137
-0.8975985646247864,-0.9236208200454712,175.47816467285156,-0.06953012447086324,-0.8303459340178717,-0.4044665829200919,-0.3504131910701593
0.6076038479804993,0.40230926871299744,175.4418182373047,-0.07629137270818728,-0.8362223560601058,-0.4068832055587943,-0.3547574539979299
-0.9889197945594788,0.8832424283027649,175.5048828125,-0.0830992397415685,-0.8420457058700007,-0.41006083844695246,-0.3440445231894652
1.2692691087722778,-0.10033805668354034,175.63243103027344,-0.08991411834664183,-0.8477254128973516,-0.4077245941618458,-0.3375203200926383
0,0.616022527217865,175.72439575195312,-0.09662138456123007,-0.8533149401439973,-0.3971473515887435,-0.33322294950485226
-0.3405284881591797,-0.5080778002738953,175.7012176513672,-0.10326415489938684,-0.8588611598074849,-0.39998508899006996,-0.3323234101136525
-0.13064058125019073,-0.29825079441070557,175.59764099121094,-0.10996329312348588,-0.8644558783506766,-0.4039114979018147,-0.3390428150693575
-1.3043705224990845,0.5296084880828857,175.45042419433594,-0.11679480497072094,-0.8700905254286609,-0.415869923766392,-0.337114834288756
1.4637947082519531,0,175.4088897705078,-0.12371489924281685,-0.8756723276329123,-0.4145413888851181,-0.3327014302213986
-1.442731261253357,0.305729478597641,175.57664489746094,-0.13062245965152725,-0.881196120256144,-0.4143658601601298,-0.33015368456641825
0.7292453646659851,0.9278150200843811,175.70010375976562,-0.1375781049525702,-0.8866130188531759,-0.42031157596502455,-0.3198741470774014
0,-0.37977322936058044,175.718994140625,-0.1445326558461077,-0.8919061961801101,-0.4142345312594747,-0.3153071321547031
-0.5849834680557251,-0.8314071297645569,175.646240234375,-0.1514771885523806,-0.8972454247965167,-0.41910939349327236,-0.3254003018140792
-0.09834051132202148,0.31544721126556396,175.51126098632812,-0.15850979816472527,-0.9027045937099805,-0.4248037599880869,-0.3296999678015708
-0.03440752252936363,-0.8180161714553833,175.38180541992188,-0.15850979816472527,-0.9027045937099805,-0.4248037599880869,-0.3296999678015708
0.06348923593759537,2.5224545001983643,175.23789978027344,-0.15850979816472527,-0.9027045937099805,-0.4248037599880869,-0.3296999678015708
-0.1311114877462387,0.4432366192340851,175.27511596679688,-0.15850979816472527,-0.9027045937099805,-0.4248037599880869,-0.3296999678015708
2.767157554626465,-1.9317960739135742,175.24334716796875,-0.15850979816472527,-0.9027045937099805,-0.4248037599880869,-0.3296999678015708
1.449428677558899,0.7010961174964905,174.8988037109375,-0.15850979816472527,-0.9027045937099805,-0.4248037599880869,-0.3296999678015708
1.6087249517440796,1.1498229503631592,174.3114776611328,-0.15850979816472527,-0.9027045937099805,-0.4248037599880869,-0.3296999678015708
2.3790664672851562,-1.3521603345870972,173.59019470214844,-0.15850979816472527,-0.9027045937099805,-0.4248037599880869,-0.3296999678015708
1.4452558755874634,1.626497507095337,172.69778442382812,-0.15850979816472527,-0.9027045937099805,-0.4248037599880869,-0.3296999678015708
2.190080404281616,-0.886974036693573,171.57247924804688,-0.15850979816472527,-0.9027045937099805,-0.4248037599880869,-0.3296999678015708
1.6332820653915405,0.1351488083600998,170.1957244873047,-0.15850979816472527,-0.9027045937099805,-0.4248037599880869,-0.3296999678015708
1.0722215175628662,0.06320777535438538,168.64915466308594,-0.15850979816472527,-0.9027045937099805,-0.4248037599880869,-0.3296999678015708
1.820271611213684,-0.9730224013328552,166.98367309570312,-0.15850979816472527,-0.9027045937099805,-0.4248037599880869,-0.3296999678015708
1.6832492351531982,0.7470723986625671,165.21469116210938,-0.15850979816472527,-0.9027045937099805,-0.4248037599880869,-0.3296999678015708
1.7193412780761719,-0.3409990072250366,163.29928588867188,-0.15850979816472527,-0.9027045937099805,-0.4248037599880869,-0.3296999678015708
1.8518058061599731,-0.31725624203681946,161.23268127441406,-0.15850979816472527,-0.9027045937099805,-0.4248037599880869,-0.3296999678015708
0.8613837361335754,1.2545151710510254,159.07449340820312,-0.15850979816472527,-0.9027045937099805,-0.4248037599880869,-0.3296999678015708
0.38120508193969727,-0.5943391919136047,156.84812927246094,-0.15850979816472527,-0.9027045937099805,-0.4248037599880869,-0.3296999678015708
1.5431735515594482,0.805622935295105,154.54685974121094,-0.15850979816472527,-0.9027045937099805,-0.4248037599880869,-0.3296999678015708
1.8207603693008423,0.44354599714279175,152.1790008544922,-0.15850979816472527,-0.9027045937099805,-0.4248037599880869,-0.3296999678015708
1.124636173248291,-0.017577363178133965,149.73915100097656,-0.15850979816472527,-0.9027045937099805,-0.4248037599880869,-0.3296999678015708
1.1828778982162476,0.4995417892932892,147.28074645996094,-0.15850979816472527,-0.9027045937099805,-0.4248037599880869,-0.3296999678015708
1.6310038566589355,-0.49680784344673157,144.714599609375,-0.15850979816472527,-0.9027045937099805,-0.4248037599880869,-0.3296999678015708
0.20556552708148956,0.41527682542800903,142.1199493408203,-0.15850979816472527,-0.9027045937099805,-0.4248037599880869,-0.3296999678015708
1.6076511144638062,-0.5910463333129883,139.43084716796875,-0.15850979816472527,-0.9027045937099805,-0.4248037599880869,-0.3296999678015708
0.6182020902633667,-0.12810462713241577,136.73426818847656,-0.15850979816472527,-0.9027045937099805,-0.4248037599880869,-0.3296999678015708
0.9149569272994995,-0.46177151799201965,134.02993774414062,-0.15850979816472527,-0.9027045937099805,-0.4248037599880869,-0.3296999678015708
0.9395996332168579,0.3238559067249298,131.36203002929688,-0.15850979816472527,-0.9027045937099805,-0.4248037599880869,-0.3296999678015708
0.7991079092025757,-0.1435798853635788,128.81967163085938,-0.15850979816472527,-0.9027045937099805,-0.4248037599880869,-0.3296999678015708
1.0100170373916626,1.573519229888916,126.3302230834961,-0.15850979816472527,-0.9027045937099805,-0.4248037599880869,-0.3296999678015708
1.1935813426971436,0.6514133214950562,123.9658203125,-0.15850979816472527,-0.9027045937099805,-0.4248037599880869,-0.3296999678015708
0.11769735813140869,-0.5410789251327515,121.63509368896484,-0.15850979816472527,-0.9027045937099805,-0.4248037599880869,-0.3296999678015708
0.8276726603507996,0.6446786522865295,119.33728790283203,-0.15850979816472527,-0.9027045937099805,-0.4248037599880869,-0.3296999678015708
0.6153254508972168,-1.14128577709198,116.97106170654297,-0.15850979816472527,-0.9027045937099805,-0.4248037599880869,-0.3296999678015708
1.3262628316879272,0.1985008865594864,114.62199401855469,-0.15850979816472527,-0.9027045937099805,-0.4248037599880869,-0.3296999678015708
-0.3056160509586334,-0.5120684504508972,112.16766357421875,-0.15850979816472527,-0.9027045937099805,-0.4248037599880869,-0.3296999678015708
1.0676863193511963,0.8618719577789307,109.6584243774414,-0.15850979816472527,-0.9027045937099805,-0.4248037599880869,-0.3296999678015708
0.039185505360364914,-0.2276669442653656,107.03390502929688,-0.15850979816472527,-0.9027045937099805,-0.4248037599880869,-0.3296999678015708
0.8709043264389038,-0.7541300654411316,104.3595962524414,-0.15850979816472527,-0.9027045937099805,-0.4248037599880869,-0.3296999678015708
1.1949777603149414,-0.3192826807498932,101.70315551757812,-0.15850979816472527,-0.9027045937099805,-0.4248037599880869,-0.3296999678015708
-0.8247020840644836,-1.0380152463912964,99.25301361083984,-0.15850979816472527,-0.9027045937099805,-0.4248037599880869,-0.3296999678015708
1.4621835947036743,0.9318326115608215,97.1168212890625,-0.15850979816472527,-0.9027045937099805,-0.4248037599880869,-0.3296999678015708
-1.0555977821350098,-0.9300543665885925,95.32035064697266,-0.15850979816472527,-0.9027045937099805,-0.4248037599880869,-0.3296999678015708
-0.8234391212463379,0.22759176790714264,93.90462493896484,-0.15850979816472527,-0.9027045937099805,-0.4248037599880869,-0.3296999678015708
-1.227154016494751,0.6389033198356628,92.74514770507812,-0.15850979816472527,-0.9027045937099805,-0.4248037599880869,-0.3296999678015708
-1.561477541923523,0.17980214953422546,91.89176177978516,-0.15850979816472527,-0.9027045937099805,-0.4248037599880869,-0.3296999678015708
-0.7766729593276978,1.1004259586334229,91.43634796142578,-0.15850979816472527,-0.9027045937099805,-0.4248037599880869,-0.3296999678015708
-1.4567447900772095,0.5975427627563477,91.36385345458984,-0.15850979816472527,-0.9027045937099805,-0.4248037599880869,-0.3296999678015708
0.2780139446258545,0.05302358418703079,91.47575378417969,-0.15850979816472527,-0.9027045937099805,-0.4248037599880869,-0.3296999678015708
0.3170749843120575,-0.6247850656509399,91.58517456054688,-0.15850979816472527,-0.9027045937099805,-0.4248037599880869,-0.3296999678015708
0.2383715659379959,-1.0656542778015137,91.56153106689453,-0.15850979816472527,-0.9027045937099805,-0.4248037599880869,-0.3296999678015708
0.32372963428497314,-0.6945359706878662,91.5355453491211,-0.15850979816472527,-0.9027045937099805,-0.4248037599880869,-0.3296999678015708
0.02810066193342209,0.19688920676708221,91.5702896118164,-0.15850979816472527,-0.9027045937099805,-0.4248037599880869,-0.3296999678015708
0.19108514487743378,0.5101121068000793,91.5595703125,-0.15850979816472527,-0.9027045937099805,-0.4248037599880869,-0.3296999678015708
0.1688595712184906,0.5609062314033508,91.55469512939453,-0.15850979816472527,-0.9027045937099805,-0.4248037599880869,-0.3296999678015708
0.07463738322257996,0.28345873951911926,91.56460571289062,-0.15850979816472527,-0.9027045937099805,-0.4248037599880869,-0.3296999678015708
0.21394585072994232,-0.08673834800720215,91.55858612060547,-0.15850979816472527,-0.9027045937099805,-0.4248037599880869,-0.3296999678015708
0.12489458173513412,-0.22671164572238922,91.5578842163086,-0.15850979816472527,-0.9027045937099805,-0.4248037599880869,-0.3296999678015708
0.19021862745285034,-0.06719604879617691,91.5575180053711,-0.15850979816472527,-0.9027045937099805,-0.4248037599880869,-0.3296999678015708
0.12155387550592422,0.2116805464029312,91.55953979492188,-0.15850979816472527,-0.9027045937099805,-0.4248037599880869,-0.3296999678015708
0.14242443442344666,0.27635881304740906,91.56201171875,-0.15850979816472527,-0.9027045937099805,-0.4248037599880869,-0.3296999678015708
0.15665362775325775,0.14396542310714722,91.56067657470703,-0.15850979816472527,-0.9027045937099805,-0.4248037599880869,-0.3296999678015708
0.16267918050289154,-0.032620854675769806,91.56098937988281,-0.15850979816472527,-0.9027045937099805,-0.4248037599880869,-0.3296999678015708
0.14989952743053436,-0.033155396580696106,91.56002044677734,-0.15850979816472527,-0.9027045937099805,-0.4248037599880869,-0.3296999678015708
0.15007656812667847,0.10830815136432648,91.56002044677734,-0.15850979816472527,-0.9027045937099805,-0.4248037599880869,-0.3296999678015708
0.13696414232254028,0.16921398043632507,91.55987548828125,-0.15850979816472527,-0.9027045937099805,-0.4248037599880869,-0.3296999678015708
0.1484791785478592,0.12479618191719055,91.55858612060547,-0.15850979816472527,-0.9027045937099805,-0.4248037599880869,-0.3296999678015708
0.16305159032344818,0.029116995632648468,91.55792236328125,-0.15850979816472527,-0.9027045937099805,-0.4248037599880869,-0.3296999678015708
0.15612488985061646,0.027192633599042892,91.55814361572266,-0.15850979816472527,-0.9027045937099805,-0.4248037599880869,-0.3296999678015708
0.1600080281496048,0.09890300780534744,91.55877685546875,-0.15850979816472527,-0.9027045937099805,-0.4248037599880869,-0.3296999678015708
0.16045694053173065,0.12899982929229736,91.55972290039062,-0.15850979816472527,-0.9027045937099805,-0.4248037599880869,-0.3296999678015708
0.15775927901268005,0.09844901412725449,91.5602035522461,-0.15850979816472527,-0.9027045937099805,-0.4248037599880869,-0.3296999678015708
0.15029610693454742,0.02937977947294712,91.55984497070312,-0.15850979816472527,-0.9027045937099805,-0.4248037599880869,-0.3296999678015708
0.1533299833536148,0.03477367013692856,91.56056213378906,-0.15850979816472527,-0.9027045937099805,-0.4248037599880869,-0.3296999678015708
0.15683215856552124,0.09046589583158493,91.5616683959961,-0.15850979816472527,-0.9027045937099805,-0.4248037599880869,-0.3296999678015708
0.14066261053085327,0.10489379614591599,91.56148529052734,-0.15850979816472527,-0.9027045937099805,-0.4248037599880869,-0.3296999678015708
0.14936883747577667,0.09106256067752838,91.56220245361328,-0.15850979816472527,-0.9027045937099805,-0.4248037599880869,-0.3296999678015708
0.14658313989639282,0.06449568271636963,91.56291198730469,-0.15850979816472527,-0.9027045937099805,-0.4248037599880869,-0.3296999678015708
0.15004341304302216,0.0740615576505661,91.56401824951172,-0.15850979816472527,-0.9027045937099805,-0.4248037599880869,-0.3296999678015708
0.13657614588737488,0.09465760737657547,91.5638656616211,-0.15850979816472527,-0.9027045937099805,-0.4248037599880869,-0.3296999678015708
0.1491265445947647,0.09329289942979813,91.564208984375,-0.15850979816472527,-0.9027045937099805,-0.4248037599880869,-0.3296999678015708
0.15514884889125824,0.07876031845808029,91.56492614746094,-0.15850979816472527,-0.9027045937099805,-0.4248037599880869,-0.3296999678015708
0.1499141901731491,0.05752136930823326,91.56473541259766,-0.15850979816472527,-0.9027045937099805,-0.4248037599880869,-0.3296999678015708
0.15955780446529388,0.07703062891960144,91.56501007080078,-0.15850979816472527,-0.9027045937099805,-0.4248037599880869,-0.3296999678015708
0.17569003999233246,0.07775286585092545,91.5650634765625,-0.15850979816472527,-0.9027045937099805,-0.4248037599880869,-0.3296999678015708
0.16652852296829224,0.08471180498600006,91.5656967163086,-0.15850979816472527,-0.9027045937099805,-0.4248037599880869,-0.3296999678015708
0.15621459484100342,0.06266479194164276,91.56549072265625,-0.15850979816472527,-0.9027045937099805,-0.4248037599880869,-0.3296999678015708
0.148356631398201,0.06612066924571991,91.56537628173828,-0.15850979816472527,-0.9027045937099805,-0.4248037599880869,-0.3296999678015708
0.15288327634334564,0.05945774167776108,91.56504821777344,-0.15850979816472527,-0.9027045937099805,-0.4248037599880869,-0.3296999678015708
0.15272580087184906,0.07638265937566757,91.56492614746094,-0.15850979816472527,-0.9027045937099805,-0.4248037599880869,-0.3296999678015708
0.15580584108829498,0.08285297453403473,91.5654067993164,-0.15850979816472527,-0.9027045937099805,-0.4248037599880869,-0.3296999678015708
0.16416876018047333,0.06892149150371552,91.56534576416016,-0.15850979816472527,-0.9027045937099805,-0.4248037599880869,-0.3296999678015708
0.1437569409608841,0.07659736275672913,91.56706237792969,-0.15850979816472527,-0.9027045937099805,-0.4248037599880869,-0.3296999678015708
0.13943572342395782,0.06784047186374664,91.56629943847656,-0.15850979816472527,-0.9027045937099805,-0.4248037599880869,-0.3296999678015708
0.1513938158750534,0.08608387410640717,91.56681060791016,-0.15850979816472527,-0.9027045937099805,-0.4248037599880869,-0.3296999678015708
0.15146027505397797,0.07650608569383621,91.56733703613281,-0.15850979816472527,-0.9027045937099805,-0.4248037599880869,-0.3296999678015708
0.13831281661987305,0.0831252858042717,91.56687927246094,-0.15850979816472527,-0.9027045937099805,-0.4248037599880869,-0.3296999678015708
0.14470937848091125,0.0749649927020073,91.56600952148438,-0.15850979816472527,-0.9027045937099805,-0.4248037599880869,-0.3296999678015708
0.14903640747070312,0.09014545381069183,91.5669937133789,-0.15850979816472527,-0.9027045937099805,-0.4248037599880869,-0.3296999678015708
0.14268869161605835,0.07870477437973022,91.56649017333984,-0.15850979816472527,-0.9027045937099805,-0.4248037599880869,-0.3296999678015708
0.13853023946285248,0.08310133218765259,91.56693267822266,-0.15850979816472527,-0.9027045937099805,-0.4248037599880869,-0.3296999678015708
0.16077923774719238,0.07483973354101181,91.56668090820312,-0.15850979816472527,-0.9027045937099805,-0.4248037599880869,-0.3296999678015708
0.14374487102031708,0.06767786294221878,91.56713104248047,-0.15850979816472527,-0.9027045937099805,-0.4248037599880869,-0.3296999678015708
0.1435621976852417,0.08145681023597717,91.56720733642578,-0.15850979816472527,-0.9027045937099805,-0.4248037599880869,-0.3296999678015708
0.1537524312734604,0.07879450172185898,91.56681823730469,-0.15850979816472527,-0.9027045937099805,-0.4248037599880869,-0.3296999678015708
0.15086017549037933,0.0774419829249382,91.56553649902344,-0.15850979816472527,-0.9027045937099805,-0.4248037599880869,-0.3296999678015708
0.14374972879886627,0.07298383116722107,91.56640625,-0.15850979816472527,-0.9027045937099805,-0.4248037599880869,-0.3296999678015708
0.15884442627429962,0.06833703815937042,91.56568908691406,-0.15850979816472527,-0.9027045937099805,-0.4248037599880869,-0.3296999678015708
0.1557854413986206,0.07461313903331757,91.56514739990234,-0.15850979816472527,-0.9027045937099805,-0.4248037599880869,-0.3296999678015708
0.15783357620239258,0.06647738069295883,91.56399536132812,-0.15850979816472527,-0.9027045937099805,-0.4248037599880869,-0.3296999678015708
0.1624222695827484,0.07610947638750076,91.56332397460938,-0.15850979816472527,-0.9027045937099805,-0.4248037599880869,-0.3296999678015708
0.15653426945209503,0.07077324390411377,91.56336212158203,-0.15850979816472527,-0.9027045937099805,-0.4248037599880869,-0.3296999678015708
0.14430396258831024,0.06560274213552475,91.56258392333984,-0.15850979816472527,-0.9027045937099805,-0.4248037599880869,-0.3296999678015708
0.15871606767177582,0.04631955921649933,91.5615463256836,-0.15850979816472527,-0.9027045937099805,-0.4248037599880869,-0.3296999678015708
0.15976300835609436,0.07284654676914215,91.56129455566406,-0.15850979816472527,-0.9027045937099805,-0.4248037599880869,-0.3296999678015708
0.1524234116077423,0.0773690938949585,91.56207275390625,-0.15850979816472527,-0.9027045937099805,-0.4248037599880869,-0.3296999678015708
0.1430768221616745,0.07246807962656021,91.56298065185547,-0.15850979816472527,-0.9027045937099805,-0.4248037599880869,-0.3296999678015708
0.14200367033481598,0.08884978294372559,91.5632553100586,-0.15850979816472527,-0.9027045937099805,-0.4248037599880869,-0.3296999678015708
0.16893118619918823,0.05777496472001076,91.56368255615234,-0.15850979816472527,-0.9027045937099805,-0.4248037599880869,-0.3296999678015708
0.1521155685186386,0.06729865074157715,91.56342315673828,-0.15850979816472527,-0.9027045937099805,-0.4248037599880869,-0.3296999678015708
0.1449572592973709,0.07029940187931061,91.56302642822266,-0.15850979816472527,-0.9027045937099805,-0.4248037599880869,-0.3296999678015708
0.15662403404712677,0.06948371231555939,91.56290435791016,-0.15850979816472527,-0.9027045937099805,-0.4248037599880869,-0.3296999678015708
0.14307785034179688,0.07229779660701752,91.56354522705078,-0.15850979816472527,-0.9027045937099805,-0.4248037599880869,-0.3296999678015708
0.15370136499404907,0.06847968697547913,91.5636215209961,-0.15850979816472527,-0.9027045937099805,-0.4248037599880869,-0.3296999678015708
0.14519724249839783,0.07012107223272324,91.56343078613281,-0.15850979816472527,-0.9027045937099805,-0.4248037599880869,-0.3296999678015708
0.14748919010162354,0.056247446686029434,91.56348419189453,-0.15850979816472527,-0.9027045937099805,-0.4248037599880869,-0.3296999678015708
0.1413830667734146,0.06030445173382759,91.56290435791016,-0.15850979816472527,-0.9027045937099805,-0.4248037599880869,-0.3296999678015708
0.14357709884643555,0.0657794177532196,91.56375122070312,-0.15850979816472527,-0.9027045937099805,-0.4248037599880869,-0.3296999678015708
0.14792679250240326,0.0664302185177803,91.56303405761719,-0.15850979816472527,-0.9027045937099805,-0.4248037599880869,-0.3296999678015708
0.14625969529151917,0.07326003164052963,91.56372833251953,-0.15850979816472527,-0.9027045937099805,-0.4248037599880869,-0.3296999678015708
0.1505117118358612,0.06437980383634567,91.56346893310547,-0.15850979816472527,-0.9027045937099805,-0.4248037599880869,-0.3296999678015708
0.1456611603498459,0.0713910460472107,91.56299591064453,-0.15850979816472527,-0.9027045937099805,-0.4248037599880869,-0.3296999678015708
0.15211309492588043,0.07448037713766098,91.56326293945312,-0.15850979816472527,-0.9027045937099805,-0.4248037599880869,-0.3296999678015708
0.151162251830101,0.07162538170814514,91.56388092041016,-0.15850979816472527,-0.9027045937099805,-0.4248037599880869,-0.3296999678015708
0.14974650740623474,0.06521755456924438,91.56431579589844,-0.15850979816472527,-0.9027045937099805,-0.4248037599880869,-0.3296999678015708
0.1567002534866333,0.06095071882009506,91.56428527832031,-0.15850979816472527,-0.9027045937099805,-0.4248037599880869,-0.3296999678015708
0.14342547953128815,0.05335107073187828,91.56312561035156,-0.15850979816472527,-0.9027045937099805,-0.4248037599880869,-0.3296999678015708
0.1521618515253067,0.06686685234308243,91.56334686279297,-0.15850979816472527,-0.9027045937099805,-0.4248037599880869,-0.3296999678015708
0.147910013794899,0.07104416936635971,91.56297302246094,-0.15850979816472527,-0.9027045937099805,-0.4248037599880869,-0.3296999678015708
0.13960124552249908,0.07899398356676102,91.56280517578125,-0.15850979816472527,-0.9027045937099805,-0.4248037599880869,-0.3296999678015708
0.14819730818271637,0.08038311451673508,91.56207275390625,-0.15850979816472527,-0.9027045937099805,-0.4248037599880869,-0.3296999678015708
0.1391647309064865,0.06414567679166794,91.56295776367188,-0.15850979816472527,-0.9027045937099805,-0.4248037599880869,-0.3296999678015708
0.1466895490884781,0.04740241914987564,91.56297302246094,-0.15850979816472527,-0.9027045937099805,-0.4248037599880869,-0.3296999678015708
0.14347124099731445,0.07458937168121338,91.56334686279297,-0.15850979816472527,-0.9027045937099805,-0.4248037599880869,-0.3296999678015708
0.14640730619430542,0.05731521174311638,91.56300354003906,-0.15850979816472527,-0.9027045937099805,-0.4248037599880869,-0.3296999678015708
0.1424272209405899,0.06736214458942413,91.56246948242188,-0.15850979816472527,-0.9027045937099805,-0.4248037599880869,-0.3296999678015708
0.1412685066461563,0.05638504773378372,91.561279296875,-0.15850979816472527,-0.9027045937099805,-0.4248037599880869,-0.3296999678015708
0.14610683917999268,0.05121553689241409,91.56116485595703,-0.15850979816472527,-0.9027045937099805,-0.4248037599880869,-0.3296999678015708
0.14320707321166992,0.0739445835351944,91.5611572265625,-0.15850979816472527,-0.9027045937099805,-0.4248037599880869,-0.3296999678015708
0.14065711200237274,0.05709557235240936,91.5608139038086,-0.15850979816472527,-0.9027045937099805,-0.4248037599880869,-0.3296999678015708
0.1338624209165573,0.06285090744495392,91.56159973144531,-0.15850979816472527,-0.9027045937099805,-0.4248037599880869,-0.3296999678015708
0.15420536696910858,0.05825294554233551,91.56148529052734,-0.15850979816472527,-0.9027045937099805,-0.4248037599880869,-0.3296999678015708
0.1488633006811142,0.06962528824806213,91.56099700927734,-0.15850979816472527,-0.9027045937099805,-0.4248037599880869,-0.3296999678015708
0.14936314523220062,0.05259140580892563,91.560546875,-0.15850979816472527,-0.9027045937099805,-0.4248037599880869,-0.3296999678015708
0.13382820785045624,0.06112192943692207,91.56063079833984,-0.15850979816472527,-0.9027045937099805,-0.4248037599880869,-0.3296999678015708
0.14782202243804932,0.06780597567558289,91.56019592285156,-0.15850979816472527,-0.9027045937099805,-0.4248037599880869,-0.3296999678015708
0.14765287935733795,0.0688692256808281,91.56000518798828,-0.15850979816472527,-0.9027045937099805,-0.4248037599880869,-0.3296999678015708
0.15521810948848724,0.06557182222604752,91.55949401855469,-0.15850979816472527,-0.9027045937099805,-0.4248037599880869,-0.3296999678015708
0.13612587749958038,0.0727420523762703,91.5599594116211,-0.15850979816472527,-0.9027045937099805,-0.4248037599880869,-0.3296999678015708
0.14228010177612305,0.04988717660307884,91.5604248046875,-0.15850979816472527,-0.9027045937099805,-0.4248037599880869,-0.3296999678015708
0.1538035273551941,0.06600383669137955,91.55935668945312,-0.15850979816472527,-0.9027045937099805,-0.4248037599880869,-0.3296999678015708
0.15432773530483246,0.06330063194036484,91.56018829345703,-0.15850979816472527,-0.9027045937099805,-0.4248037599880869,-0.3296999678015708
0.1481105238199234,0.06704321503639221,91.55970764160156,-0.15850979816472527,-0.9027045937099805,-0.4248037599880869,-0.3296999678015708
0.13912439346313477,0.04789596050977707,91.5594482421875,-0.15850979816472527,-0.9027045937099805,-0.4248037599880869,-0.3296999678015708
0.141849085688591,0.05122024565935135,91.55929565429688,-0.15850979816472527,-0.9027045937099805,-0.4248037599880869,-0.3296999678015708
0.1556117832660675,0.05321653187274933,91.55967712402344,-0.15850979816472527,-0.9027045937099805,-0.4248037599880869,-0.3296999678015708
0.1466202437877655,0.06058138981461525,91.55957794189453,-0.15850979816472527,-0.9027045937099805,-0.4248037599880869,-0.3296999678015708
0.15368801355361938,0.05588635057210922,91.55885314941406,-0.15850979816472527,-0.9027045937099805,-0.4248037599880869,-0.3296999678015708
0.1485636979341507,0.04511197283864021,91.55886840820312,-0.15850979816472527,-0.9027045937099805,-0.4248037599880869,-0.3296999678015708
0.13478566706180573,0.06155898794531822,91.55795288085938,-0.15850979816472527,-0.9027045937099805,-0.4248037599880869,-0.3296999678015708
0.1545894742012024,0.059643592685461044,91.55718994140625,-0.15850979816472527,-0.9027045937099805,-0.4248037599880869,-0.3296999678015708
0.15536586940288544,0.06539370119571686,91.55709075927734,-0.15850979816472527,-0.9027045937099805,-0.4248037599880869,-0.3296999678015708
0.136799618601799,0.05363145470619202,91.55714416503906,-0.15850979816472527,-0.9027045937099805,-0.4248037599880869,-0.3296999678015708
0.13633832335472107,0.053527265787124634,91.55680847167969,-0.15850979816472527,-0.9027045937099805,-0.4248037599880869,-0.3296999678015708
0.1454700529575348,0.0680905133485794,91.55721282958984,-0.15850979816472527,-0.9027045937099805,-0.4248037599880869,-0.3296999678015708
0.15381021797657013,0.04507611691951752,91.55806732177734,-0.15850979816472527,-0.9027045937099805,-0.4248037599880869,-0.3296999678015708
0.14222149550914764,0.06225655972957611,91.55923461914062,-0.15850979816472527,-0.9027045937099805,-0.4248037599880869,-0.3296999678015708
0.14484421908855438,0.059838104993104935,91.55943298339844,-0.15850979816472527,-0.9027045937099805,-0.4248037599880869,-0.3296999678015708
0.13521215319633484,0.055313222110271454,91.55973815917969,-0.15850979816472527,-0.9027045937099805,-0.4248037599880869,-0.3296999678015708
0.14851461350917816,0.050112299621105194,91.55927276611328,-0.15850979816472527,-0.9027045937099805,-0.4248037599880869,-0.3296999678015708
0.13398008048534393,0.0645274817943573,91.5594482421875,-0.15850979816472527,-0.9027045937099805,-0.4248037599880869,-0.3296999678015708
0.13970565795898438,0.05364111065864563,91.5596923828125,-0.15850979816472527,-0.9027045937099805,-0.4248037599880869,-0.3296999678015708
0.14365635812282562,0.06127352640032768,91.55943298339844,-0.15850979816472527,-0.9027045937099805,-0.4248037599880869,-0.3296999678015708
0.14017920196056366,0.040538206696510315,91.55937957763672,-0.15850979816472527,-0.9027045937099805,-0.4248037599880869,-0.3296999678015708
0.12679752707481384,0.060437191277742386,91.55892944335938,-0.15850979816472527,-0.9027045937099805,-0.4248037599880869,-0.3296999678015708
0.13507957756519318,0.05556325986981392,91.55870819091797,-0.15850979816472527,-0.9027045937099805,-0.4248037599880869,-0.3296999678015708
0.143208310008049,0.05639295652508736,91.55901336669922,-0.15850979816472527,-0.9027045937099805,-0.4248037599880869,-0.3296999678015708
0.1421220749616623,0.059486813843250275,91.5595474243164,-0.15850979816472527,-0.9027045937099805,-0.4248037599880869,-0.3296999678015708
0.1617455780506134,0.05320778489112854,91.5583724975586,-0.15850979816472527,-0.9027045937099805,-0.4248037599880869,-0.3296999678015708
0.14971669018268585,0.048197779804468155,91.55938720703125,-0.15850979816472527,-0.9027045937099805,-0.4248037599880869,-0.3296999678015708
0.1376340538263321,0.0649811327457428,91.56036376953125,-0.15850979816472527,-0.9027045937099805,-0.4248037599880869,-0.3296999678015708
0.14048609137535095,0.05205362290143967,91.55990600585938,-0.15850979816472527,-0.9027045937099805,-0.4248037599880869,-0.3296999678015708
0.13545101881027222,0.050907429307699203,91.5596923828125,-0.15850979816472527,-0.9027045937099805,-0.4248037599880869,-0.3296999678015708
0.14094232022762299,0.04766453430056572,91.55914306640625,-0.15850979816472527,-0.9027045937099805,-0.4248037599880869,-0.3296999678015708
0.15454155206680298,0.043049123138189316,91.55883026123047,-0.15850979816472527,-0.9027045937099805,-0.4248037599880869,-0.3296999678015708
0.14206406474113464,0.063539057970047,91.55772399902344,-0.15850979816472527,-0.9027045937099805,-0.4248037599880869,-0.3296999678015708
0.14263036847114563,0.047018617391586304,91.5573959350586,-0.15850979816472527,-0.9027045937099805,-0.4248037599880869,-0.3296999678015708
0.14726951718330383,0.04847210273146629,91.55874633789062,-0.15850979816472527,-0.9027045937099805,-0.4248037599880869,-0.3296999678015708
0.14042013883590698,0.0660288855433464,91.55892944335938,-0.15850979816472527,-0.9027045937099805,-0.4248037599880869,-0.3296999678015708
0.14320839941501617,0.04958726838231087,91.5586929321289,-0.15850979816472527,-0.9027045937099805,-0.4248037599880869,-0.3296999678015708
0.1380336880683899,0.05698021501302719,91.55863952636719,-0.15850979816472527,-0.9027045937099805,-0.4248037599880869,-0.3296999678015708
0.13475240767002106,0.05165853351354599,91.55854034423828,-0.15850979816472527,-0.9027045937099805,-0.4248037599880869,-0.3296999678015708
0.13528934121131897,0.05266134440898895,91.55816650390625,-0.15850979816472527,-0.9027045937099805,-0.4248037599880869,-0.3296999678015708
0.13866910338401794,0.0645991712808609,91.55758666992188,-0.15850979816472527,-0.9027045937099805,-0.4248037599880869,-0.3296999678015708
0.14733698964118958,0.055057134479284286,91.55783081054688,-0.15850979816472527,-0.9027045937099805,-0.4248037599880869,-0.3296999678015708
0.1238112822175026,0.049533095210790634,91.5582275390625,-0.15850979816472527,-0.9027045937099805,-0.4248037599880869,-0.3296999678015708
0.14362464845180511,0.04536792263388634,91.55712127685547,-0.15850979816472527,-0.9027045937099805,-0.4248037599880869,-0.3296999678015708
0.14214977622032166,0.0534769743680954,91.5784683227539,-0.15850979816472527,-0.9027045937099805,-0.4248037599880869,-0.3296999678015708
0.14808082580566406,0.05106212943792343,91.57859802246094,-0.15850979816472527,-0.9027045937099805,-0.4248037599880869,-0.3296999678015708
0.13130706548690796,0.04503970593214035,91.5794906616211,-0.15850979816472527,-0.9027045937099805,-0.4248037599880869,-0.3296999678015708
0.13440871238708496,0.04291318729519844,91.58000946044922,-0.15850979816472527,-0.9027045937099805,-0.4248037599880869,-0.3296999678015708
0.13882668316364288,0.04495846480131149,91.58039855957031,-0.15850979816472527,-0.9027045937099805,-0.4248037599880869,-0.3296999678015708
0.1376582533121109,0.05654371902346611,91.58001708984375,-0.15850979816472527,-0.9027045937099805,-0.4248037599880869,-0.3296999678015708
0.14986583590507507,0.0430746003985405,91.57911682128906,-0.15850979816472527,-0.9027045937099805,-0.4248037599880869,-0.3296999678015708
0.1297176629304886,0.050749827176332474,91.58008575439453,-0.15850979816472527,-0.9027045937099805,-0.4248037599880869,-0.3296999678015708
0.14212794601917267,0.05263515189290047,91.57988739013672,-0.15850979816472527,-0.9027045937099805,-0.4248037599880869,-0.3296999678015708
0.12635573744773865,0.04426473751664162,91.57962036132812,-0.15850979816472527,-0.9027045937099805,-0.4248037599880869,-0.3296999678015708
0.13859356939792633,0.04276109114289284,91.57939910888672,-0.15850979816472527,-0.9027045937099805,-0.4248037599880869,-0.3296999678015708
0.1349276453256607,0.05154417082667351,91.5799331665039,-0.15850979816472527,-0.9027045937099805,-0.4248037599880869,-0.3296999678015708
0.12520122528076172,0.04472923278808594,91.58113098144531,-0.15850979816472527,-0.9027045937099805,-0.4248037599880869,-0.3296999678015708
0.13082975149154663,0.04253720864653587,91.5808334350586,-0.15850979816472527,-0.9027045937099805,-0.4248037599880869,-0.3296999678015708
0.14523980021476746,0.0439549945294857,91.58219146728516,-0.15850979816472527,-0.9027045937099805,-0.4248037599880869,-0.3296999678015708
0.12564532458782196,0.045683760195970535,91.5830078125,-0.15850979816472527,-0.9027045937099805,-0.4248037599880869,-0.3296999678015708
0.14568406343460083,0.028764095157384872,91.58316802978516,-0.15850979816472527,-0.9027045937099805,-0.4248037599880869,-0.3296999678015708
0.13278792798519135,0.038618821650743484,91.58377075195312,-0.15850979816472527,-0.9027045937099805,-0.4248037599880869,-0.3296999678015708
0.13734103739261627,0.04945763945579529,91.5838394165039,-0.15850979816472527,-0.9027045937099805,-0.4248037599880869,-0.3296999678015708
0.1389988362789154,0.04752041772007942,91.5847396850586,-0.15850979816472527,-0.9027045937099805,-0.4248037599880869,-0.3296999678015708
0.13695210218429565,0.02981829084455967,91.58613586425781,-0.15850979816472527,-0.9027045937099805,-0.4248037599880869,-0.3296999678015708
0.12546657025814056,0.03307473659515381,91.58673858642578,-0.15850979816472527,-0.9027045937099805,-0.4248037599880869,-0.3296999678015708
0.12744246423244476,0.040019042789936066,91.5865707397461,-0.15850979816472527,-0.9027045937099805,-0.4248037599880869,-0.3296999678015708
0.13865265250205994,0.04077880084514618,91.58666229248047,-0.15850979816472527,-0.9027045937099805,-0.4248037599880869,-0.3296999678015708
0.1287243515253067,0.03274258226156235,91.5861587524414,-0.15850979816472527,-0.9027045937099805,-0.4248037599880869,-0.3296999678015708
0.12146443873643875,0.04601767659187317,91.58597564697266,-0.15850979816472527,-0.9027045937099805,-0.4248037599880869,-0.3296999678015708
0.1364988088607788,0.033835891634225845,91.58548736572266,-0.15850979816472527,-0.9027045937099805,-0.4248037599880869,-0.3296999678015708
0.1273878812789917,0.03894040361046791,91.5846176147461,-0.15850979816472527,-0.9027045937099805,-0.4248037599880869,-0.3296999678015708
0.1330418735742569,0.048073310405015945,91.58460235595703,-0.15850979816472527,-0.9027045937099805,-0.4248037599880869,-0.3296999678015708
0.13755792379379272,0.03227025642991066,91.58500671386719,-0.15850979816472527,-0.9027045937099805,-0.4248037599880869,-0.3296999678015708
0.13521893322467804,0.043692100793123245,91.58493041992188,-0.15850979816472527,-0.9027045937099805,-0.4248037599880869,-0.3296999678015708
0.13254502415657043,0.034043148159980774,91.58419036865234,-0.15850979816472527,-0.9027045937099805,-0.4248037599880869,-0.3296999678015708
0.12126122415065765,0.04439343139529228,91.58460235595703,-0.15850979816472527,-0.9027045937099805,-0.4248037599880869,-0.3296999678015708
0.12456980347633362,0.034775327891111374,91.58526611328125,-0.15850979816472527,-0.9027045937099805,-0.4248037599880869,-0.3296999678015708
0.11836828291416168,0.042820848524570465,91.58548736572266,-0.15850979816472527,-0.9027045937099805,-0.4248037599880869,-0.3296999678015708
0.12730690836906433,0.03353545442223549,91.58602905273438,-0.15850979816472527,-0.9027045937099805,-0.4248037599880869,-0.3296999678015708
0.13985393941402435,0.045666806399822235,91.58494567871094,-0.15850979816472527,-0.9027045937099805,-0.4248037599880869,-0.3296999678015708
0.1338079422712326,0.03730731084942818,91.58551025390625,-0.15850979816472527,-0.9027045937099805,-0.4248037599880869,-0.3296999678015708
0.13485707342624664,0.04156540706753731,91.58690643310547,-0.15850979816472527,-0.9027045937099805,-0.4248037599880869,-0.3296999678015708
0.13183273375034332,0.02774115279316902,91.5875015258789,-0.15850979816472527,-0.9027045937099805,-0.4248037599880869,-0.3296999678015708
0.13859835267066956,0.03976617008447647,91.58709716796875,-0.15850979816472527,-0.9027045937099805,-0.4248037599880869,-0.3296999678015708
0.12469779700040817,0.03857773169875145,91.58646392822266,-0.15850979816472527,-0.9027045937099805,-0.4248037599880869,-0.3296999678015708
0.11762003600597382,0.04249899834394455,91.58728790283203,-0.15850979816472527,-0.9027045937099805,-0.4248037599880869,-0.3296999678015708
0.11691880971193314,0.047607842832803726,91.5876693725586,-0.15850979816472527,-0.9027045937099805,-0.4248037599880869,-0.3296999678015708
0.11953789740800858,0.03219033032655716,91.58755493164062,-0.15850979816472527,-0.9027045937099805,-0.4248037599880869,-0.3296999678015708
0.12235023826360703,0.03997744992375374,91.5884017944336,-0.15850979816472527,-0.9027045937099805,-0.4248037599880869,-0.3296999678015708
0.14036446809768677,0.032785069197416306,91.58849334716797,-0.15850979816472527,-0.9027045937099805,-0.4248037599880869,-0.3296999678015708
0.14042767882347107,0.03638148680329323,91.58905029296875,-0.15850979816472527,-0.9027045937099805,-0.4248037599880869,-0.3296999678015708
0.13888901472091675,0.04045559838414192,91.58946228027344,-0.15850979816472527,-0.9027045937099805,-0.4248037599880869,-0.3296999678015708
0.11586012691259384,0.02821660041809082,91.58911895751953,-0.15850979816472527,-0.9027045937099805,-0.4248037599880869,-0.3296999678015708
0.11017737537622452,0.030887244269251823,91.58798217773438,-0.15850979816472527,-0.9027045937099805,-0.4248037599880869,-0.3296999678015708
0.12150605767965317,0.03314590826630592,91.58918762207031,-0.15850979816472527,-0.9027045937099805,-0.4248037599880869,-0.3296999678015708
0.12206440418958664,0.030787264928221703,91.589599609375,-0.15850979816472527,-0.9027045937099805,-0.4248037599880869,-0.3296999678015708
0.11573614180088043,0.04333849623799324,91.58951568603516,-0.15850979816472527,-0.9027045937099805,-0.4248037599880869,-0.3296999678015708
0.11252230405807495,0.024731915444135666,91.58870697021484,-0.15850979816472527,-0.9027045937099805,-0.4248037599880869,-0.3296999678015708
0.1130991131067276,0.046004291623830795,91.58859252929688,-0.15850979816472527,-0.9027045937099805,-0.4248037599880869,-0.3296999678015708
0.13015684485435486,0.03591929376125336,91.58847045898438,-0.15850979816472527,-0.9027045937099805,-0.4248037599880869,-0.3296999678015708
0.12243733555078506,0.024609623476862907,91.58853149414062,-0.15850979816472527,-0.9027045937099805,-0.4248037599880869,-0.3296999678015708
0.12859278917312622,0.025573600083589554,91.58816528320312,-0.15850979816472527,-0.9027045937099805,-0.4248037599880869,-0.3296999678015708
0.12779934704303741,0.022942431271076202,91.5895004272461,-0.15850979816472527,-0.9027045937099805,-0.4248037599880869,-0.3296999678015708
0.11449260264635086,0.0386849045753479,91.5892105102539,-0.15850979816472527,-0.9027045937099805,-0.4248037599880869,-0.3296999678015708
0.12667667865753174,0.029928604140877724,91.58885192871094,-0.15850979816472527,-0.9027045937099805,-0.4248037599880869,-0.3296999678015708
0.12674081325531006,0.041128646582365036,91.5892562866211,-0.15850979816472527,-0.9027045937099805,-0.4248037599880869,-0.3296999678015708
0.12378402054309845,0.046041663736104965,91.5893783569336,-0.15850979816472527,-0.9027045937099805,-0.4248037599880869,-0.3296999678015708
0.12321030348539352,0.04178354889154434,91.58827209472656,-0.15850979816472527,-0.9027045937099805,-0.4248037599880869,-0.3296999678015708
0.12743189930915833,0.043904613703489304,91.58943176269531,-0.15850979816472527,-0.9027045937099805,-0.4248037599880869,-0.3296999678015708
0.12155478447675705,0.026805449277162552,91.5896987915039,-0.15850979816472527,-0.9027045937099805,-0.4248037599880869,-0.3296999678015708
0.12953472137451172,0.029889071360230446,91.5905532836914,-0.15850979816472527,-0.9027045937099805,-0.4248037599880869,-0.3296999678015708
0.12164174020290375,0.027530666440725327,91.5903549194336,-0.15850979816472527,-0.9027045937099805,-0.4248037599880869,-0.3296999678015708
0.11968392133712769,0.03641413524746895,91.58899688720703,-0.15850979816472527,-0.9027045937099805,-0.4248037599880869,-0.3296999678015708
0.12419519573450089,0.039770033210515976,91.58917999267578,-0.15850979816472527,-0.9027045937099805,-0.4248037599880869,-0.3296999678015708
0.11342649906873703,0,91.5893325805664,-0.16557335932460981,-0.9081968313654781,-0.4228235791980599,-0.3293685508581498
0.11036320775747299,0,91.59039306640625,-0.17260487802604788,-0.913686307213114,-0.4209586649745082,-0.3293685508581498
0.10290291160345078,0.11934531480073929,91.58739471435547,-0.17960604562844518,-0.9191674951916664,-0.41918144731316714,-0.32837400656814364
0.060706816613674164,1.09309720993042,91.63109588623047,-0.18658104129698289,-0.9245561979035847,-0.4178180329113578,-0.31827031886205065
0.24511034786701202,2.805105686187744,91.7426528930664,-0.1935234378757499,-0.9295899946834996,-0.41526955654068537,-0.2857852947277326
-0.3479021191596985,2.657724142074585,91.84022521972656,-0.20045173546887887,-0.9339737197464436,-0.4161261546347911,-0.24026171282554654
0.49020692706108093,2.377023220062256,91.77982330322266,-0.20737728910113223,-0.9376284463933876,-0.4149402812356129,-0.19830548480773952
-0.261122465133667,0.9077066779136658,91.92801666259766,-0.2142770518118697,-0.9407054315639349,-0.41303124405288444,-0.17093273565794018
-0.6490064263343811,2.099229097366333,92.0955581665039,-0.2212241092746586,-0.9433454955071728,-0.4206156514817848,-0.14587493753060685
0.5494962930679321,0.6955178380012512,92.29832458496094,-0.22824128055860962,-0.9455826648177269,-0.4214449025923386,-0.12258537973587698
0,1.668583631515503,92.49700927734375,-0.23522720280368556,-0.9474615807668306,-0.41686576681677245,-0.1028845341565707
0.23242153227329254,0.7580611705780029,92.56048583984375,-0.24215882519977946,-0.9490078060026281,-0.414928920714495,-0.08266249413912483
1.5277965068817139,1.677957534790039,92.75700378417969,-0.2489520698478575,-0.9502163462726296,-0.40026043705486997,-0.06236233826105781
-1.5091055631637573,1.2245999574661255,93.02835845947266,-0.2556217791499027,-0.9510541520844628,-0.40010467919055365,-0.0381743591589231
-0.7216060161590576,0.38515904545783997,93.11095428466797,-0.26244510099608714,-0.9515786025841306,-0.4186939423515771,-0.02475970080122339
1.5155260562896729,1.1461639404296875,93.09814453125,-0.26936820003249323,-0.951884922390131,-0.4120779420171553,-0.011998675918827327
0.9473943114280701,1.2835630178451538,93.1380386352539,-0.2760651295961321,-0.9519161692833423,-0.39155360561950747,0.008249048733463018
-1.3645098209381104,-0.16636207699775696,93.18850708007812,-0.28261998937795096,-0.9517011017391147,-0.3950295681987578,0.017559056573857992
0.41319194436073303,1.1816374063491821,93.0588150024414,-0.28926987925602593,-0.9513379455650122,-0.4029572171702359,0.026019684318453203
0.5561076998710632,0.32797178626060486,92.96145629882812,-0.295918520400236,-0.9507994501879956,-0.39487972013497097,0.03859976092353476
0.6311511397361755,1.1609958410263062,93.03567504882812,-0.30241740053862387,-0.9500527203095973,-0.3849858964715773,0.051007824484259015
-0.281381756067276,0.7575294971466064,93.1828842163086,-0.30880954260595095,-0.9490693589752643,-0.38207115160766986,0.06699553563569996
-0.8420767784118652,0.5368175506591797,93.30807495117188,-0.3152554130865287,-0.9478628815030161,-0.3914333060616627,0.0777817610340815
0.7369213700294495,0.8269791603088379,93.35845947265625,-0.3217866039798052,-0.9464718107141864,-0.3923096011315162,0.08914673362548166
-0.17869046330451965,0.6065462231636047,93.32848358154297,-0.3282863312968079,-0.9448864814465762,-0.3876576769088084,0.10109277848775201
-0.2496139109134674,0.8281097412109375,93.24652099609375,-0.33477703593794206,-0.9431019729186987,-0.39122688002729167,0.11304824485753986
0.5255226492881775,0.560920774936676,93.21585083007812,-0.3412783236093431,-0.9411213750518961,-0.38892764054083573,0.12462349915876998
0.20289865136146545,-0.0790526270866394,93.19505310058594,-0.3477098661391453,-0.9390108536667603,-0.38285746303542206,0.1286390670575203
0.3590628206729889,0.2515079975128174,93.1352767944336,-0.3540517987541777,-0.9368548931484109,-0.3781744507684683,0.1300761951444051
-0.8901538848876953,-0.3846360743045807,93.1028823852539,-0.3603915875908893,-0.9346962015680036,-0.38260020963692415,0.12896679450447374
-0.08539162576198578,1.522215485572815,93.14126586914062,-0.36683600396752203,-0.9324677564227021,-0.3907297555590048,0.138446622931709
0.10622020065784454,0.8338099122047424,93.10588073730469,-0.3733467201313599,-0.9299966998323279,-0.3905561841015393,0.15808016791318866
0.39875465631484985,-0.15368634462356567,93.16793823242188,-0.3798209221679847,-0.9273147995638038,-0.3863480602934335,0.16374786430969845
0.7274583578109741,0,93.25210571289062,-0.38618184726911653,-0.9245963411547966,-0.376962951842385,0.16246714477116875
0.3899502754211426,0.21479737758636475,93.1983871459961,-0.39238696531140405,-0.9218736389240558,-0.36765121323211736,0.1642571229177218
0.644115686416626,0.3861458897590637,93.12470245361328,-0.3984426753957006,-0.919094288037417,-0.35903399688346926,0.1692649834789337
-1.4857984781265259,1.058933973312378,93.18539428710938,-0.40448502553762716,-0.916172852211166,-0.3660480201477184,0.1813073156711957
-0.4270918667316437,0.28128787875175476,93.28231048583984,-0.4107186654807043,-0.9130579926546971,-0.3819887730215365,0.19247583110506347
0.2117627114057541,0.06391460448503494,93.27603912353516,-0.41710009844462753,-0.9098260897416102,-0.38378318264925226,0.19535251846537005
0.723084032535553,0.08476197719573975,93.24950408935547,-0.42343156490934136,-0.9065598896712372,-0.37599279311640804,0.1965914899793765
1.1667473316192627,0,93.27854919433594,-0.42956687317210407,-0.9032774785898312,-0.3602441984151179,0.197297839789341
0.08644868433475494,0,93.35084533691406,-0.43548391564458144,-0.8999891812600088,-0.34980089828216776,0.197297839789341
-0.36721324920654297,0.34201565384864807,93.2752914428711,-0.4413334281551781,-0.8966771328431137,-0.35214060298943267,0.20014797023807976
0.5892589092254639,-0.18147197365760803,93.1893310546875,-0.4471870183675007,-0.8933301844724657,-0.350290222489275,0.20148583423967176
-0.5109997987747192,0.09639087319374084,93.1860122680664,-0.45301975408187395,-0.8899779956448923,-0.34963806323551877,0.20077682506913952
0.5130323767662048,-0.2294607013463974,93.14550018310547,-0.45884691398454985,-0.8866409561873617,-0.34962112508558973,0.19966790983453406
0.22544535994529724,0.8484812378883362,93.22272491455078,-0.4646226495598158,-0.8832701701528596,-0.3434671439463272,0.20482641430571688
-0.115126833319664,0.7675959467887878,93.36085510253906,-0.4703394409501278,-0.8797441689988283,-0.34254782289111363,0.21829372417802625
0.6061309576034546,-0.5882523059844971,93.33972930908203,-0.47601447382301554,-0.8760934858430276,-0.33845612185541535,0.219788254518062
-0.4665331244468689,0.3917697072029114,93.21066284179688,-0.48164571489330327,-0.872443992892642,-0.3372928065791105,0.21815089952821545
-0.18031412363052368,0.22401224076747894,93.15520477294922,-0.4873121816174049,-0.868765381931896,-0.34268320031308874,0.22328241576130203
0.5372902154922485,0.5742011070251465,93.12541961669922,-0.49299877828291044,-0.8649885768533887,-0.33970839954757437,0.2299341936595739
1.034142017364502,-0.3099950850009918,93.05105590820312,-0.49855145770364384,-0.8611379926519774,-0.32661313094043476,0.2321359105097752
-1.8833599090576172,-1.4834986925125122,93.04228210449219,-0.5040539833506853,-0.8573936089891419,-0.33368994670454405,0.217190129030496
-0.445732980966568,0.4678180515766144,93.07514953613281,-0.509777225024235,-0.8538443068831431,-0.35309905412141224,0.20872612368936352
1.3405908346176147,0.3593991696834564,92.95374298095703,-0.5156000663530883,-0.8503080925146217,-0.3456419053409868,0.21561960053319745
0.30592960119247437,0.3905811011791229,92.96176147460938,-0.5212464230785069,-0.8466623505424807,-0.3319209017092361,0.22186943612371895
0.753201961517334,-0.21813823282718658,92.9144287109375,-0.5267048873040282,-0.8429525514078943,-0.323094805353321,0.22330646002665175
0.5105013847351074,0.1653808057308197,92.83726501464844,-0.5320020435497604,-0.8392344407843317,-0.3125639441345507,0.2228668148008487
-1.3471803665161133,1.066481590270996,92.93407440185547,-0.5372695453257378,-0.8354344478712619,-0.31953626898272575,0.23313233476753048
-0.43058863282203674,0.2142026573419571,93.02672576904297,-0.5427186059892928,-0.8314599725523855,-0.334351010643877,0.24380470349763841
-0.1619342863559723,-0.6500236392021179,93.0042724609375,-0.5483322702583003,-0.8274268261733874,-0.33928870163702707,0.24017286198213708
1.1179379224777222,-0.12496813386678696,92.99917602539062,-0.5539206928108534,-0.8234777640134815,-0.3313220046693458,0.23371459720656287
1.4676264524459839,-0.28846630454063416,93.01020050048828,-0.5592631731404173,-0.8196112314515949,-0.30977563487831494,0.23026931021983438
-0.8513994812965393,-0.23906151950359344,93.06816864013672,-0.5643833068487261,-0.8158100434912674,-0.3046404101187362,0.22587324501946582
-0.5774359703063965,0,93.05182647705078,-0.5695598717015108,-0.8120620909020196,-0.31654737221542734,0.2238810656902692
1.2522990703582764,0.09925322979688644,93.08625030517578,-0.5747887957453754,-0.8083238472217793,-0.3109235130483283,0.2247081759385766
0.28737401962280273,-0.12461541593074799,93.15072631835938,-0.5798639325538211,-0.8045804722190624,-0.29809290396515264,0.22449682438746107
-0.11581911146640778,0.10583610832691193,93.17242431640625,-0.5848202340846184,-0.800840162597855,-0.29666327973051604,0.2243403301574291
0,0.34852275252342224,93.1937484741211,-0.5897726650739787,-0.7970696043965609,-0.2976284389927361,0.22812665399784857
0.07260517030954361,-0.4849919378757477,93.19432830810547,-0.5947280970314751,-0.7932769705233573,-0.29702339590682325,0.2269894107865792
-0.441061407327652,0.972138524055481,93.12152099609375,-0.5997040742019373,-0.7894599840528741,-0.30009386454864084,0.2310489656714103
-0.21546100080013275,0.0717216357588768,93.01286315917969,-0.604751230444979,-0.7855366776694745,-0.3055648846163724,0.23974780033652995
0.4979104697704315,0.7037285566329956,92.98804473876953,-0.6098243639754622,-0.781487030289394,-0.3032111390416199,0.2462098852731289
0.8902286887168884,-0.6017215847969055,92.86836242675781,-0.6147814844068165,-0.77737644838402,-0.2916433127208922,0.24705994337176299
-1.0598251819610596,-1.0609279870986938,92.81273651123047,-0.619653983819751,-0.7733742444369833,-0.29305661683126033,0.233204530272633
-0.5471132397651672,0.26363176107406616,92.93604278564453,-0.624649853712892,-0.7695428700592467,-0.3064477703456456,0.2265603950557611
-0.7208696007728577,0,92.87764739990234,-0.6298453709159123,-0.7657485557137983,-0.31701429401679576,0.22875732639804497
1.5028612613677979,0.430969774723053,92.84175109863281,-0.6350746375064287,-0.7619060051505863,-0.31049769684517126,0.23234874118740376
1.2479910850524902,0.12195273488759995,92.81466674804688,-0.640058567707569,-0.7579951287342954,-0.28757392729166886,0.23695642876749254
0.2958708703517914,0.5992153286933899,92.69964599609375,-0.640058567707569,-0.7579951287342954,-0.28757392729166886,0.23695642876749254
-0.8554252982139587,0.24017606675624847,92.72400665283203,-0.640058567707569,-0.7579951287342954,-0.28757392729166886,0.23695642876749254
-0.03631953150033951,-0.8545148968696594,92.83760070800781,-0.640058567707569,-0.7579951287342954,-0.28757392729166886,0.23695642876749254
-0.39427053928375244,-2.1853175163269043,92.68407440185547,-0.640058567707569,-0.7579951287342954,-0.28757392729166886,0.23695642876749254
0.8245083093643188,-2.6804912090301514,92.21312713623047,-0.640058567707569,-0.7579951287342954,-0.28757392729166886,0.23695642876749254
0.9528921842575073,-2.5659048557281494,91.56582641601562,-0.640058567707569,-0.7579951287342954,-0.28757392729166886,0.23695642876749254
1.034824013710022,-1.973694086074829,90.72266387939453,-0.640058567707569,-0.7579951287342954,-0.28757392729166886,0.23695642876749254
0.26641303300857544,-1.9463163614273071,89.59341430664062,-0.640058567707569,-0.7579951287342954,-0.28757392729166886,0.23695642876749254
0.18847304582595825,-1.6931565999984741,88.1693115234375,-0.640058567707569,-0.7579951287342954,-0.28757392729166886,0.23695642876749254
0.4377007484436035,-1.8294519186019897,86.61292266845703,-0.640058567707569,-0.7579951287342954,-0.28757392729166886,0.23695642876749254
0.8450945019721985,-1.7402862310409546,84.98833465576172,-0.640058567707569,-0.7579951287342954,-0.28757392729166886,0.23695642876749254
-0.1874847710132599,-1.7757163047790527,83.25714111328125,-0.640058567707569,-0.7579951287342954,-0.28757392729166886,0.23695642876749254
1.919685959815979,-0.9048112034797668,81.46257019042969,-0.640058567707569,-0.7579951287342954,-0.28757392729166886,0.23695642876749254
-1.5912339687347412,-1.51575767993927,79.61139678955078,-0.640058567707569,-0.7579951287342954,-0.28757392729166886,0.23695642876749254
1.4785412549972534,-0.9253606200218201,77.65546417236328,-0.640058567707569,-0.7579951287342954,-0.28757392729166886,0.23695642876749254
-0.6559798717498779,-1.6935691833496094,75.62885284423828,-0.640058567707569,-0.7579951287342954,-0.28757392729166886,0.23695642876749254
-0.007785947062075138,-0.7595221400260925,73.49634552001953,-0.640058567707569,-0.7579951287342954,-0.28757392729166886,0.23695642876749254
0.2321712225675583,-1.8134559392929077,71.30477905273438,-0.640058567707569,-0.7579951287342954,-0.28757392729166886,0.23695642876749254
0.010198953561484814,-1.4298138618469238,69.09466552734375,-0.640058567707569,-0.7579951287342954,-0.28757392729166886,0.23695642876749254
-0.8254533410072327,-0.8388842940330505,66.84539794921875,-0.640058567707569,-0.7579951287342954,-0.28757392729166886,0.23695642876749254
1.9608330726623535,-0.9183170795440674,64.63489532470703,-0.640058567707569,-0.7579951287342954,-0.28757392729166886,0.23695642876749254
-0.68401700258255,-0.001609195489436388,62.40829849243164,-0.640058567707569,-0.7579951287342954,-0.28757392729166886,0.23695642876749254
-0.37599828839302063,-0.7399880290031433,60.311710357666016,-0.640058567707569,-0.7579951287342954,-0.28757392729166886,0.23695642876749254
0.8913957476615906,-0.8068066239356995,58.27048110961914,-0.640058567707569,-0.7579951287342954,-0.28757392729166886,0.23695642876749254
0.23124738037586212,-1.3930690288543701,56.29247283935547,-0.640058567707569,-0.7579951287342954,-0.28757392729166886,0.23695642876749254
1.1966094970703125,-0.5493766665458679,54.31352615356445,-0.640058567707569,-0.7579951287342954,-0.28757392729166886,0.23695642876749254
1.4328519105911255,-0.8713577389717102,52.42938232421875,-0.640058567707569,-0.7579951287342954,-0.28757392729166886,0.23695642876749254
-0.6416155099868774,-0.3539562523365021,50.468772888183594,-0.640058567707569,-0.7579951287342954,-0.28757392729166886,0.23695642876749254
2.0259552001953125,-1.0516183376312256,48.661624908447266,-0.640058567707569,-0.7579951287342954,-0.28757392729166886,0.23695642876749254
-1.5491113662719727,-0.9201351404190063,46.826358795166016,-0.640058567707569,-0.7579951287342954,-0.28757392729166886,0.23695642876749254
0.8519102334976196,-0.03631369024515152,45.0540657043457,-0.640058567707569,-0.7579951287342954,-0.28757392729166886,0.23695642876749254
-0.7332959771156311,-1.5742865800857544,43.209564208984375,-0.640058567707569,-0.7579951287342954,-0.28757392729166886,0.23695642876749254
-0.5904637575149536,-0.17347249388694763,41.366981506347656,-0.640058567707569,-0.7579951287342954,-0.28757392729166886,0.23695642876749254
-0.27277520298957825,-0.8655522465705872,39.500267028808594,-0.640058567707569,-0.7579951287342954,-0.28757392729166886,0.23695642876749254
-0.9911430478096008,-0.4318704903125763,37.620033264160156,-0.640058567707569,-0.7579951287342954,-0.28757392729166886,0.23695642876749254
0.5409063696861267,0.11316848546266556,35.72612762451172,-0.640058567707569,-0.7579951287342954,-0.28757392729166886,0.23695642876749254
-1.0878697633743286,0.10504709929227829,33.64835739135742,-0.640058567707569,-0.7579951287342954,-0.28757392729166886,0.23695642876749254
1.1539541482925415,-1.3227077722549438,31.64544105529785,-0.640058567707569,-0.7579951287342954,-0.28757392729166886,0.23695642876749254
-1.2211940288543701,-0.08270399272441864,29.562002182006836,-0.640058567707569,-0.7579951287342954,-0.28757392729166886,0.23695642876749254
0.19213330745697021,-0.6992207169532776,27.468013763427734,-0.640058567707569,-0.7579951287342954,-0.28757392729166886,0.23695642876749254
-1.0819244384765625,-0.21345093846321106,25.237760543823242,-0.640058567707569,-0.7579951287342954,-0.28757392729166886,0.23695642876749254
0.9700698256492615,-1.083984613418579,22.950870513916016,-0.640058567707569,-0.7579951287342954,-0.28757392729166886,0.23695642876749254
-1.3211078643798828,0.650161862373352,20.445453643798828,-0.640058567707569,-0.7579951287342954,-0.28757392729166886,0.23695642876749254
0.2520231008529663,-0.5821899771690369,17.86185073852539,-0.640058567707569,-0.7579951287342954,-0.28757392729166886,0.23695642876749254
-0.8283693790435791,-0.7318984866142273,15.17300796508789,-0.640058567707569,-0.7579951287342954,-0.28757392729166886,0.23695642876749254
-0.5178935527801514,0.30355826020240784,12.437335014343262,-0.640058567707569,-0.7579951287342954,-0.28757392729166886,0.23695642876749254
-0.09502879530191422,-0.32544609904289246,9.737499237060547,-0.640058567707569,-0.7579951287342954,-0.28757392729166886,0.23695642876749254
1.3994477987289429,-1.505847692489624,7.222682476043701,-0.640058567707569,-0.7579951287342954,-0.28757392729166886,0.23695642876749254
-0.7700241804122925,1.4758262634277344,5.254963397979736,-0.640058567707569,-0.7579951287342954,-0.28757392729166886,0.23695642876749254
0.6056627631187439,1.029438853263855,3.6965363025665283,-0.640058567707569,-0.7579951287342954,-0.28757392729166886,0.23695642876749254
-0.16977138817310333,2.2432563304901123,2.4923810958862305,-0.640058567707569,-0.7579951287342954,-0.28757392729166886,0.23695642876749254
0.4043504297733307,1.3438372611999512,1.755744457244873,-0.640058567707569,-0.7579951287342954,-0.28757392729166886,0.23695642876749254
0.28023675084114075,1.8891972303390503,1.4916578531265259,-0.640058567707569,-0.7579951287342954,-0.28757392729166886,0.23695642876749254
0.3911745846271515,0.3824900686740875,1.5688437223434448,-0.640058567707569,-0.7579951287342954,-0.28757392729166886,0.23695642876749254
0.6757147312164307,-0.7816822528839111,1.5989131927490234,-0.640058567707569,-0.7579951287342954,-0.28757392729166886,0.23695642876749254
1.1324414014816284,0.3678880035877228,1.576995611190796,-0.640058567707569,-0.7579951287342954,-0.28757392729166886,0.23695642876749254
0.2898298501968384,-0.6005366444587708,1.5893313884735107,-0.640058567707569,-0.7579951287342954,-0.28757392729166886,0.23695642876749254
-0.23108933866024017,0.1618581861257553,1.5861350297927856,-0.640058567707569,-0.7579951287342954,-0.28757392729166886,0.23695642876749254
-0.5093870759010315,-0.3684091567993164,1.573225975036621,-0.640058567707569,-0.7579951287342954,-0.28757392729166886,0.23695642876749254
-0.0855504646897316,-0.03202129155397415,1.586419939994812,-0.640058567707569,-0.7579951287342954,-0.28757392729166886,0.23695642876749254
0.3829057514667511,-0.19056004285812378,1.5735055208206177,-0.640058567707569,-0.7579951287342954,-0.28757392729166886,0.23695642876749254
0.4715707004070282,-0.15708741545677185,1.5817267894744873,-0.640058567707569,-0.7579951287342954,-0.28757392729166886,0.23695642876749254
0.09149305522441864,-0.10226113349199295,1.5801583528518677,-0.640058567707569,-0.7579951287342954,-0.28757392729166886,0.23695642876749254
-0.16601455211639404,-0.1913733333349228,1.5807230472564697,-0.640058567707569,-0.7579951287342954,-0.28757392729166886,0.23695642876749254
-0.0628041997551918,-0.12861613929271698,1.5825806856155396,-0.640058567707569,-0.7579951287342954,-0.28757392729166886,0.23695642876749254
0.2154768705368042,-0.14645200967788696,1.5793118476867676,-0.640058567707569,-0.7579951287342954,-0.28757392729166886,0.23695642876749254
0.26944097876548767,-0.15794456005096436,1.5830222368240356,-0.640058567707569,-0.7579951287342954,-0.28757392729166886,0.23695642876749254
0.09384456276893616,-0.14542515575885773,1.5809850692749023,-0.640058567707569,-0.7579951287342954,-0.28757392729166886,0.23695642876749254
-0.03418068215250969,-0.1658724695444107,1.5818802118301392,-0.640058567707569,-0.7579951287342954,-0.28757392729166886,0.23695642876749254
0.056761011481285095,-0.12906476855278015,1.5813932418823242,-0.640058567707569,-0.7579951287342954,-0.28757392729166886,0.23695642876749254
0.18850798904895782,-0.15278048813343048,1.5814852714538574,-0.640058567707569,-0.7579951287342954,-0.28757392729166886,0.23695642876749254
0.15256130695343018,-0.1274169534444809,1.5824767351150513,-0.640058567707569,-0.7579951287342954,-0.28757392729166886,0.23695642876749254
0.044835664331912994,-0.16482453048229218,1.5823944807052612,-0.640058567707569,-0.7579951287342954,-0.28757392729166886,0.23695642876749254
0.018140681087970734,-0.14608845114707947,1.582963466644287,-0.640058567707569,-0.7579951287342954,-0.28757392729166886,0.23695642876749254
0.10707352310419083,-0.14825516939163208,1.5818345546722412,-0.640058567707569,-0.7579951287342954,-0.28757392729166886,0.23695642876749254
0.14717860519886017,-0.1405348777770996,1.5816268920898438,-0.640058567707569,-0.7579951287342954,-0.28757392729166886,0.23695642876749254
0.09107688814401627,-0.14815360307693481,1.5818467140197754,-0.640058567707569,-0.7579951287342954,-0.28757392729166886,0.23695642876749254
0.05975111946463585,-0.15657614171504974,1.5827263593673706,-0.640058567707569,-0.7579951287342954,-0.28757392729166886,0.23695642876749254
0.08507334440946579,-0.1500367373228073,1.5828105211257935,-0.640058567707569,-0.7579951287342954,-0.28757392729166886,0.23695642876749254
0.12561021745204926,-0.15081709623336792,1.5828880071640015,-0.640058567707569,-0.7579951287342954,-0.28757392729166886,0.23695642876749254
0.10395073145627975,-0.15476089715957642,1.5822348594665527,-0.640058567707569,-0.7579951287342954,-0.28757392729166886,0.23695642876749254
0.06972883641719818,-0.1554110199213028,1.5818294286727905,-0.640058567707569,-0.7579951287342954,-0.28757392729166886,0.23695642876749254
0.07331093400716782,-0.1427466720342636,1.5821826457977295,-0.640058567707569,-0.7579951287342954,-0.28757392729166886,0.23695642876749254
0.10746009647846222,-0.15944413840770721,1.5823090076446533,-0.640058567707569,-0.7579951287342954,-0.28757392729166886,0.23695642876749254
