faccX,faccY,yaw,posX,posY,velX,velY
0,0,-96.600341796875,0.0,0.0,0.0,0.0
0,0,-96.60025024414062,0.0,0.0,0.0,0.0
0,0,-96.59999084472656,0.0,0.0,0.0,0.0
0,0,-96.59980773925781,0.0,0.0,0.0,0.0
0,-0.5695444345474243,-96.58768463134766,0.0,-3.955169684357113e-05,0.0,-0.004746203621228536
-0.4740370512008667,-2.660736560821533,-96.60069274902344,-3.2919239666726855e-05,-0.0003429801596535576,-0.0039503087600072226,-0.03166521191596985
0.06358944624662399,-3.224039077758789,-96.5965805053711,-0.00012726102489978074,-0.0012793986664877998,-0.007370705467959245,-0.0807050089041392
0,-1.7893552780151367,-96.61881256103516,-0.00024569018226530817,-0.002972634534041087,-0.006840793415904045,-0.12248329520225526
-0.5247861742973328,-1.3386116027832031,-96.65542602539062,-0.00039614689018991256,-0.00523124270968967,-0.011214011535048484,-0.14854968587557477
-0.24288806319236755,-0.954373300075531,-96.6175765991211,-0.0006363577933775053,-0.007866305870314439,-0.017611296847462654,-0.16765789339939755
1.0194145441055298,-1.6615976095199585,-96.65019226074219,-0.0008759539574384688,-0.010842268740137419,-0.01114024283985297,-0.18945765097935996
-0.9222716093063354,-1.2104393243789673,-96.81746673583984,-0.0010548786342971855,-0.014199343265758621,-0.010330718383193018,-0.21339129209518434
-0.5202807784080505,-1.5869100093841553,-96.85148620605469,-0.0013272345231639016,-0.017950125171078576,-0.0223519882808129,-0.23670253654321036
0.10781863331794739,-0.7849317193031311,-96.76708984375,-0.001728410865697596,-0.022059878677957587,-0.025789172823230427,-0.2564678842822711
0,-0.9353849291801453,-96.6480712890625,-0.0021507430076599123,-0.026453809849917888,-0.024890684212247532,-0.27080385635296506
-0.26497191190719604,-0.7631219625473022,-96.64550018310547,-0.002583988571746482,-0.03108515932328171,-0.027098783478140834,-0.28495808045069376
0.682738721370697,-0.5937734842300415,-96.59855651855469,-0.003006623379058308,-0.03592868951459725,-0.023617393399278326,-0.29626554250717163
-0.4337526857852936,-1.7229853868484497,-96.48628234863281,-0.0033829559054639607,-0.04102733458909723,-0.021542509769399965,-0.3155718664328257
-0.5036309361457825,-0.5733281373977661,-96.35295867919922,-0.003807093819810285,-0.046446331913272534,-0.029354039952158933,-0.33470781246821085
0.8284819722175598,-0.5138736963272095,-96.24102020263672,-0.004273768719285727,-0.052100295581751395,-0.026646947984894122,-0.3437678277492523
-0.512819766998291,-0.7425028085708618,-96.24542999267578,-0.004695963532560402,-0.05791700774596797,-0.02401642960806688,-0.35423763195673624
-0.7581255435943604,-0.8078992962837219,-96.30691528320312,-0.005184497450374895,-0.06392863509141736,-0.03460764052967231,-0.3671576494971911
0.2852040231227875,0.08526729047298431,-96.33863067626953,-0.0057941332314577374,-0.07009811202788517,-0.03854865320026875,-0.37317958287894726
0,-1.1826599836349487,-96.43033599853516,-0.006416804949856468,-0.07639397956844832,-0.036171953007578854,-0.3823245219886303
0.15386031568050385,-0.7385244965553284,-96.5513687133789,-0.007008986089171635,-0.0828994705238276,-0.034889783710241325,-0.39833439265688264
0.8020098209381104,-0.29556727409362793,-96.585693359375,-0.007524102613743809,-0.08961018899662626,-0.02692419923841954,-0.4069518240789573
-0.5590452551841736,0,-96.57872009277344,-0.007955966728429,-0.0964132449030876,-0.0248994945238034,-0.4094148846964042
-0.7210833430290222,-0.8470328450202942,-96.54981994628906,-0.008459856123146084,-0.10329564804004297,-0.0355672328422467,-0.41647349173824
-0.5340200066566467,0,-96.451171875,-0.00913980329202281,-0.1102956946276956,-0.046026427422960606,-0.4235320987800758
0.638178288936615,-1.3309190273284912,-96.4304428100586,-0.0098996772016916,-0.11744698787315024,-0.045158441737294205,-0.4346230906744799
-0.22178855538368225,0.9005556702613831,-96.38587188720703,-0.010623401943594216,-0.12472059239529901,-0.04168852729101977,-0.43820945198337247
-0.1204916462302208,0.1669900268316269,-96.36471557617188,-0.011341980190223288,-0.13194994814383487,-0.04454086230446896,-0.42931323784093073
0.16800692677497864,-0.5978432893753052,-96.37625885009766,-0.012081028223037717,-0.13913508913997147,-0.044144901633262644,-0.4329036816954614
0,-0.6029060482978821,-96.40089416503906,-0.012805109435899388,-0.14643353587223423,-0.042744843910137824,-0.4429099261760713
1.3053703308105469,-1.5260988473892212,-96.35992431640625,-0.013426872783650953,-0.15396321553736925,-0.03186675782004993,-0.46065163364013045
-0.6782774925231934,-0.28257131576538086,-96.2225112915039,-0.013914437300215163,-0.16176634485936828,-0.02664098416765532,-0.47572388499975216
-0.5820048451423645,-0.07065415382385254,-96.1181411743164,-0.014445973309791749,-0.16971960582253007,-0.03714333698153497,-0.47866743057966243
0.11709275096654892,-0.5958131551742554,-96.1046142578125,-0.015097314488246208,-0.17774367878420486,-0.0410176044330001,-0.48422132482131336
0.28111687302589417,0.07117950171232224,-96.0465316772461,-0.015753287782685622,-0.18585046709049494,-0.03769919089972974,-0.4885932719334961
-0.5831332802772522,0.8135544657707214,-96.00212860107422,-0.016402580992629128,-0.19393224843053355,-0.040215994293491056,-0.4812204888711374
-0.2486221194267273,-0.8536179661750793,-96.05378723144531,-0.017130608355833424,-0.20195537209924724,-0.04714728929102422,-0.48155435137450703
2.307499408721924,0.3797382712364197,-96.16018676757812,-0.017773418921149437,-0.21001418626763754,-0.029989978546897583,-0.4855033488323292
-0.7438684105873108,-0.33680883049964905,-96.24989318847656,-0.018164666410949493,-0.21810292753701407,-0.01695972022910914,-0.4851456034928561
-1.6888614892959595,-0.7110374569892883,-96.26541900634766,-0.018616267991148763,-0.22626145469852618,-0.037232469394803056,-0.4938776558885973
0.26305654644966125,0.7679409384727478,-96.20063018798828,-0.019335823379870918,-0.23448879733267755,-0.04911417725185554,-0.49340346020956843
0.34551796317100525,-0.477778822183609,-96.12654876708984,-0.02011213088201152,-0.24269203818920584,-0.04404272300501665,-0.4909854425738256
-0.42167651653289795,0,-95.98406219482422,-0.02085146505385637,-0.25090830798364344,-0.04467737761636576,-0.494966932758689
0.28438055515289307,1.7894978523254395,-95.9883804321289,-0.021605622455891635,-0.25903348617876565,-0.045821510627865804,-0.480054450655977
-0.2708040177822113,-1.701269507408142,-96.09017944335938,-0.022368371484594213,-0.2670282667213016,-0.04570837281644346,-0.47931921444833286
0.05258769541978836,-0.1856590062379837,-96.18450927734375,-0.023145331609476773,-0.275147956997777,-0.04752684216946365,-0.49504361872871727
1.073923945426941,0,-96.24076843261719,-0.0238592156705757,-0.28341157696313324,-0.038139245162407576,-0.4965907771140338
-0.45257794857025146,-0.603654682636261,-96.2619400024414,-0.024451720729056332,-0.2917300103791058,-0.032961361855268496,-0.5016212328026693
-0.27658283710479736,0.3322572410106659,-96.24785614013672,-0.025051712925649353,-0.3001092113037076,-0.0390377017358939,-0.5038828781495494
-0.5124980807304382,-0.331524133682251,-96.16007995605469,-0.02575713857387503,-0.3085072083626356,-0.04561337605118753,-0.5038767689218125
0.9014519453048706,-0.24539048969745636,-96.14344024658203,-0.026490350823021598,-0.316945218026845,-0.042372093846400595,-0.5086843907833101
-0.8340597152709961,1.0307329893112183,-96.14995574951172,-0.0271918723711537,-0.32536875353298256,-0.04181049192945164,-0.5021398699531954
-0.3051539957523346,0.4717406928539276,-96.17379760742188,-0.027967825966576737,-0.33363341291538545,-0.05130393952131273,-0.4896192559351525
1.0052262544631958,-0.631397008895874,-96.21934509277344,-0.02877427549618814,-0.3418048210918076,-0.045470004032055554,-0.49094972523550207
0.41608431935310364,-0.998495876789093,-96.2275161743164,-0.029433406773540713,-0.35010050351834965,-0.03362574925025306,-0.5045321659495434
-0.7189779281616211,-0.6010861396789551,-96.11042022705078,-0.030014870206101076,-0.358620455035319,-0.0361498626569907,-0.5178620160867772
0.7073677778244019,0,-96.0318603515625,-0.030618174177491006,-0.3672932307297985,-0.036246613909800864,-0.5228710672507685
-0.07081375271081924,0,-96.07632446289062,-0.03117807926868813,-0.37600774851731134,-0.030941997033854342,-0.5228710672507685
0.46962788701057434,0.9435479640960693,-96.09213256835938,-0.03166608379325933,-0.3846567421406508,-0.027618545914689714,-0.5150081675499679
-1.0607411861419678,-0.6358599662780762,-96.11381530761719,-0.032167442426499396,-0.39321884437774623,-0.03254449007411799,-0.5124441009014846
0,1.5999467372894287,-96.21682739257812,-0.03278351317677233,-0.40169262892256186,-0.04138399995863439,-0.50441004447639
1.5139234066009521,-0.5799590349197388,-96.32099914550781,-0.03278351317677233,-0.40169262892256186,-0.04138399995863439,-0.50441004447639
-0.85457843542099,0.49001896381378174,-96.43549346923828,-0.03278351317677233,-0.40169262892256186,-0.04138399995863439,-0.50441004447639
-0.6270742416381836,-0.27511221170425415,-96.4012222290039,-0.03278351317677233,-0.40169262892256186,-0.04138399995863439,-0.50441004447639
-0.20632030069828033,1.0182052850723267,-96.49020385742188,-0.03278351317677233,-0.40169262892256186,-0.04138399995863439,-0.50441004447639
-0.24696214497089386,2.5256519317626953,-96.99304962158203,-0.03278351317677233,-0.40169262892256186,-0.04138399995863439,-0.50441004447639
-0.42883390188217163,1.7654662132263184,-97.79108428955078,-0.03278351317677233,-0.40169262892256186,-0.04138399995863439,-0.50441004447639
0.028658052906394005,2.568007469177246,-98.81951904296875,-0.03278351317677233,-0.40169262892256186,-0.04138399995863439,-0.50441004447639
-0.18087923526763916,1.8228530883789062,-100.0774917602539,-0.03278351317677233,-0.40169262892256186,-0.04138399995863439,-0.50441004447639
0.01490961853414774,1.7768409252166748,-101.51664733886719,-0.03278351317677233,-0.40169262892256186,-0.04138399995863439,-0.50441004447639
-0.3290129005908966,0.7617230415344238,-103.09977722167969,-0.03278351317677233,-0.40169262892256186,-0.04138399995863439,-0.50441004447639
0.1130966916680336,1.7775874137878418,-104.88420867919922,-0.03278351317677233,-0.40169262892256186,-0.04138399995863439,-0.50441004447639
0.09393502026796341,1.399469017982483,-106.8328857421875,-0.03278351317677233,-0.40169262892256186,-0.04138399995863439,-0.50441004447639
0.09931237995624542,2.25706148147583,-108.89078521728516,-0.03278351317677233,-0.40169262892256186,-0.04138399995863439,-0.50441004447639
-0.8191079497337341,0.7777490019798279,-111.09441375732422,-0.03278351317677233,-0.40169262892256186,-0.04138399995863439,-0.50441004447639
0.9130476117134094,1.9787176847457886,-113.4078598022461,-0.03278351317677233,-0.40169262892256186,-0.04138399995863439,-0.50441004447639
0.2175023853778839,0.7803469896316528,-115.87001037597656,-0.03278351317677233,-0.40169262892256186,-0.04138399995863439,-0.50441004447639
-0.43498268723487854,1.2388827800750732,-118.41181945800781,-0.03278351317677233,-0.40169262892256186,-0.04138399995863439,-0.50441004447639
-1.164840579032898,0.9435336589813232,-121.08004760742188,-0.03278351317677233,-0.40169262892256186,-0.04138399995863439,-0.50441004447639
0.002851726720109582,2.2789864540100098,-123.86978149414062,-0.03278351317677233,-0.40169262892256186,-0.04138399995863439,-0.50441004447639
0.24633170664310455,1.1249260902404785,-126.70614624023438,-0.03278351317677233,-0.40169262892256186,-0.04138399995863439,-0.50441004447639
0.5952699780464172,0.8604656457901001,-129.59095764160156,-0.03278351317677233,-0.40169262892256186,-0.04138399995863439,-0.50441004447639
-0.5526002049446106,1.363026738166809,-132.4401092529297,-0.03278351317677233,-0.40169262892256186,-0.04138399995863439,-0.50441004447639
-0.3403404653072357,0.6902319192886353,-135.30332946777344,-0.03278351317677233,-0.40169262892256186,-0.04138399995863439,-0.50441004447639
0.45076483488082886,0.4616922438144684,-138.20986938476562,-0.03278351317677233,-0.40169262892256186,-0.04138399995863439,-0.50441004447639
-0.05761496350169182,1.1464653015136719,-141.1565704345703,-0.03278351317677233,-0.40169262892256186,-0.04138399995863439,-0.50441004447639
-0.21573665738105774,1.5143126249313354,-144.0941162109375,-0.03278351317677233,-0.40169262892256186,-0.04138399995863439,-0.50441004447639
0.3455345034599304,-0.07918456941843033,-147.06576538085938,-0.03278351317677233,-0.40169262892256186,-0.04138399995863439,-0.50441004447639
0.4550199806690216,0.9928094744682312,-150.10862731933594,-0.03278351317677233,-0.40169262892256186,-0.04138399995863439,-0.50441004447639
-1.4444810152053833,0.8724970817565918,-153.10487365722656,-0.03278351317677233,-0.40169262892256186,-0.04138399995863439,-0.50441004447639
1.0044242143630981,1.925908088684082,-156.2138214111328,-0.03278351317677233,-0.40169262892256186,-0.04138399995863439,-0.50441004447639
-1.7704063653945923,0.15617328882217407,-159.28016662597656,-0.03278351317677233,-0.40169262892256186,-0.04138399995863439,-0.50441004447639
1.813244342803955,0.8558844923973083,-162.38116455078125,-0.03278351317677233,-0.40169262892256186,-0.04138399995863439,-0.50441004447639
-0.15750786662101746,0.8844439387321472,-165.50982666015625,-0.03278351317677233,-0.40169262892256186,-0.04138399995863439,-0.50441004447639
0.5314154028892517,0.4960949420928955,-168.69163513183594,-0.03278351317677233,-0.40169262892256186,-0.04138399995863439,-0.50441004447639
0.3255367875099182,0.42983222007751465,-171.9091796875,-0.03278351317677233,-0.40169262892256186,-0.04138399995863439,-0.50441004447639
1.2265156507492065,0.22465167939662933,-175.1720428466797,-0.03278351317677233,-0.40169262892256186,-0.04138399995863439,-0.50441004447639
0.14079949259757996,0.10794640332460403,-178.4466552734375,-0.03278351317677233,-0.40169262892256186,-0.04138399995863439,-0.50441004447639
0.5099192261695862,1.7011216878890991,178.29281616210938,-0.03278351317677233,-0.40169262892256186,-0.04138399995863439,-0.50441004447639
0.8942973017692566,-0.46020787954330444,175.01622009277344,-0.03278351317677233,-0.40169262892256186,-0.04138399995863439,-0.50441004447639
0.3247779905796051,-0.03942147642374039,171.7158660888672,-0.03278351317677233,-0.40169262892256186,-0.04138399995863439,-0.50441004447639
0.5959522724151611,-0.08812887966632843,168.37814331054688,-0.03278351317677233,-0.40169262892256186,-0.04138399995863439,-0.50441004447639
-0.5651304125785828,1.1857694387435913,165.04019165039062,-0.03278351317677233,-0.40169262892256186,-0.04138399995863439,-0.50441004447639
0.9700661301612854,1.7500804662704468,161.96051025390625,-0.03278351317677233,-0.40169262892256186,-0.04138399995863439,-0.50441004447639
0.7475802302360535,-1.7863308191299438,159.29608154296875,-0.03278351317677233,-0.40169262892256186,-0.04138399995863439,-0.50441004447639
-1.4381954669952393,0.48515594005584717,157.15919494628906,-0.03278351317677233,-0.40169262892256186,-0.04138399995863439,-0.50441004447639
-0.2861737012863159,-0.2042653113603592,155.49073791503906,-0.03278351317677233,-0.40169262892256186,-0.04138399995863439,-0.50441004447639
0.03187450394034386,-2.179886817932129,154.0957794189453,-0.03278351317677233,-0.40169262892256186,-0.04138399995863439,-0.50441004447639
-1.0085722208023071,-0.2636522054672241,153.04563903808594,-0.03278351317677233,-0.40169262892256186,-0.04138399995863439,-0.50441004447639
-0.3031013011932373,-0.812981367111206,152.40701293945312,-0.03278351317677233,-0.40169262892256186,-0.04138399995863439,-0.50441004447639
-0.029370248317718506,-1.507899284362793,152.11834716796875,-0.03278351317677233,-0.40169262892256186,-0.04138399995863439,-0.50441004447639
0.3421093225479126,-0.7071752548217773,152.04405212402344,-0.03278351317677233,-0.40169262892256186,-0.04138399995863439,-0.50441004447639
1.6734733581542969,-0.09221918880939484,152.06979370117188,-0.03278351317677233,-0.40169262892256186,-0.04138399995863439,-0.50441004447639
0.46760597825050354,-0.14925023913383484,152.0872802734375,-0.03278351317677233,-0.40169262892256186,-0.04138399995863439,-0.50441004447639
-0.06100693345069885,0.3234860599040985,152.0883331298828,-0.03278351317677233,-0.40169262892256186,-0.04138399995863439,-0.50441004447639
-0.24010248482227325,0.3299984335899353,152.0824432373047,-0.03278351317677233,-0.40169262892256186,-0.04138399995863439,-0.50441004447639
-0.44357219338417053,0.47039559483528137,152.0883026123047,-0.03278351317677233,-0.40169262892256186,-0.04138399995863439,-0.50441004447639
-0.020320270210504532,0.23059266805648804,152.0907440185547,-0.03278351317677233,-0.40169262892256186,-0.04138399995863439,-0.50441004447639
0.26073938608169556,0.1007981151342392,152.10093688964844,-0.03278351317677233,-0.40169262892256186,-0.04138399995863439,-0.50441004447639
0.23027798533439636,0.08422835916280746,152.0990753173828,-0.03278351317677233,-0.40169262892256186,-0.04138399995863439,-0.50441004447639
0.037048161029815674,0.2501903474330902,152.09762573242188,-0.03278351317677233,-0.40169262892256186,-0.04138399995863439,-0.50441004447639
-0.059080228209495544,0.24991226196289062,152.09912109375,-0.03278351317677233,-0.40169262892256186,-0.04138399995863439,-0.50441004447639
0.0028547518886625767,0.20607757568359375,152.0992431640625,-0.03278351317677233,-0.40169262892256186,-0.04138399995863439,-0.50441004447639
0.09298500418663025,0.18313732743263245,152.09962463378906,-0.03278351317677233,-0.40169262892256186,-0.04138399995863439,-0.50441004447639
0.10199562460184097,0.16570547223091125,152.10035705566406,-0.03278351317677233,-0.40169262892256186,-0.04138399995863439,-0.50441004447639
0.04051265865564346,0.2150043547153473,152.0994110107422,-0.03278351317677233,-0.40169262892256186,-0.04138399995863439,-0.50441004447639
-0.012417505495250225,0.22295838594436646,152.10067749023438,-0.03278351317677233,-0.40169262892256186,-0.04138399995863439,-0.50441004447639
0.03370118513703346,0.2040925920009613,152.1003875732422,-0.03278351317677233,-0.40169262892256186,-0.04138399995863439,-0.50441004447639
0.11090759187936783,0.1802327185869217,152.10093688964844,-0.03278351317677233,-0.40169262892256186,-0.04138399995863439,-0.50441004447639
0.07036260515451431,0.18871842324733734,152.1002197265625,-0.03278351317677233,-0.40169262892256186,-0.04138399995863439,-0.50441004447639
0,0.22922739386558533,152.10049438476562,-0.03346836021739162,-0.41007043898209106,-0.04079764491568011,-0.5009271626671157
0,0.20506469905376434,152.10157775878906,-0.03414832096598629,-0.41838906585342356,-0.04079764491568011,-0.49730806189278776
-0.10660368949174881,0.2335965782403946,152.09503173828125,-0.03483568474857344,-0.4266470709629357,-0.041686008994778014,-0.49365255124866975
0,0.5338338017463684,152.10313415527344,-0.03553785459914555,-0.4348213197073589,-0.04257437307387592,-0.4872572980821134
-1.6707549095153809,1.322535753250122,151.99574279785156,-0.036363452130204275,-0.4428133601229638,-0.05649733065317076,-0.47178755179047593
-3.173149585723877,1.4830994606018066,151.95477294921875,-0.037641456564370956,-0.45048165020739867,-0.09686320144683125,-0.44840725834170986
-1.8930025100708008,0.7947679758071899,152.10789489746094,-0.039607659372914994,-0.4577969192744543,-0.13908113557845356,-0.4294250297049682
-1.4296733140945435,0.432100385427475,152.16470336914062,-0.042156419675900704,-0.46486880391111807,-0.16677010077983143,-0.41920112669467935
-0.40451309084892273,1.2958779335021973,152.2166748046875,-0.045063295411463415,-0.4717354908616593,-0.18205498748769364,-0.40480130737026543
-1.7242873907089233,0.44336315989494324,152.3070526123047,-0.04824537856969983,-0.4783613986863445,-0.1997949915006757,-0.3903076315919559
-1.4395993947982788,0.9884947538375854,152.3336181640625,-0.05179500945481576,-0.4847670913022012,-0.22616071471323573,-0.3783754823108515
-0.8321067690849304,0.10791069269180298,152.41986083984375,-0.055722112072528245,-0.4909972100735953,-0.24509159941226247,-0.3692387702564399
-1.0296095609664917,0.9666698575019836,152.5028076171875,-0.05993625791898619,-0.4970765659285503,-0.26060590216269097,-0.36028393233815836
-0.8288942575454712,1.2130587100982666,152.55184936523438,-0.06440875238687215,-0.5029299280947697,-0.276093433983624,-0.3421195276081563
-1.0500080585479736,0.5470014214515686,152.5620880126953,-0.06914078894743904,-0.5085096938235479,-0.2917509532844027,-0.327452359845241
-0.1718946248292923,0.4114939868450165,152.6505126953125,-0.07408815918852472,-0.5139006709731703,-0.3019334756458799,-0.3194648981094361
-2.0108859539031982,0.8828937411308289,152.75828552246094,-0.07927196576725692,-0.5191351979049958,-0.320123313801984,-0.30867833370963743
-0.2701752185821533,0.7286365032196045,152.78775024414062,-0.08476576135649036,-0.5241679249776321,-0.3391321569060286,-0.2952489150067171
-0.27222365140914917,0.9390906691551208,152.86434936523438,-0.09045563055978467,-0.5289729258407736,-0.34365214748928946,-0.2813511885702611
-0.28535839915275574,0.3392229378223419,152.89988708496094,-0.09622188732700629,-0.5335733405386823,-0.34829866457730535,-0.2706985751787822
-1.5580344200134277,-0.42751193046569824,152.84555053710938,-0.10215487846018126,-0.5380911146383733,-0.3636602714036902,-0.27143431678414354
0.24369002878665924,1.019923210144043,152.8480987548828,-0.10830715689963351,-0.5425738802459091,-0.37461314133058,-0.26649755612015735
-0.8404739499092102,-0.41472020745277405,152.9533233642578,-0.1145921525829989,-0.5469734781949471,-0.3795863406732679,-0.26145419776439677
0,0.5298807621002197,152.94895935058594,-0.1209769578407415,-0.5513230508969477,-0.3865902902558447,-0.26049452647566806
0.9453012347221375,1.9444057941436768,152.9134063720703,-0.12735448342592764,-0.5554928008829141,-0.37871277996649355,-0.23987547184030225
-1.4175883531570435,0.28460702300071716,152.8648223876953,-0.13369916080859384,-0.5593359328568397,-0.3826485059534511,-0.22130036503076564
-1.4702568054199219,-0.10333414375782013,152.69813537597656,-0.140277180710497,-0.5630116838796273,-0.40671388227492583,-0.21978975770374148
-0.9814925789833069,1.1892735958099365,152.6555938720703,-0.14722600578899597,-0.5665994340460749,-0.42714512714495273,-0.21074026226997386
-0.1498861163854599,-0.5614786148071289,152.71707153320312,-0.15442365920636802,-0.5700681748768938,-0.43657328293969244,-0.2055086374282838
0.1294793337583542,0.32357555627822876,152.69737243652344,-0.16170129772637867,-0.573509839879763,-0.436743339461585,-0.20749116291602462
1.1234474182128906,0.7812670469284058,152.60931396484375,-0.16889334458185154,-0.5768913007475852,-0.42630228319515795,-0.198284141222636
-0.389649897813797,-0.2632521092891693,152.53317260742188,-0.17594742447396536,-0.5801600631750709,-0.42018730385849884,-0.19396735007564236
-0.40799689292907715,0.23855926096439362,152.46168518066406,-0.18300593834318638,-0.5833945671241318,-0.4268343604480228,-0.19417312381168217
-0.9523176550865173,0.556499183177948,152.41009521484375,-0.19021431063871005,-0.5865755734623722,-0.43817031501481946,-0.18754763677716266
-0.37180769443511963,-1.1508435010910034,152.44210815429688,-0.1976091023715627,-0.5897426413196244,-0.44920469292749976,-0.1925005060931048
-0.18712151050567627,1.1089671850204468,152.52857971191406,-0.20513466178180859,-0.5929538911653477,-0.4538624363020064,-0.19284947539369277
1.1825602054595947,1.2744370698928833,152.5509796142578,-0.21262990803302578,-0.596002534904207,-0.44556711384405706,-0.172987773269415
-0.7188735008239746,0,152.56576538085938,-0.2200238261314937,-0.5987971618843991,-0.4417030579720936,-0.16236746435364097
-0.11909869313240051,0.3384445905685425,152.69813537597656,-0.22744373627783113,-0.6014797831937259,-0.4486861595883967,-0.15954709276556978
-0.056472793221473694,1.12288236618042,152.91461181640625,-0.23493403140196786,-0.6040374203678223,-0.4501492553080123,-0.1473693681259951
-1.2268701791763306,-1.1989684104919434,153.0772705078125,-0.2425256400301846,-0.6064988602563327,-0.46084378007799404,-0.1480034184952578
0.8585768342018127,0.6986162662506104,153.14540100097656,-0.2502319456248855,-0.6090003305746038,-0.463912891286115,-0.1521730196972689
-0.11833281815052032,0.5999655723571777,153.18324279785156,-0.25791242131187275,-0.6114463682752105,-0.45774419115235426,-0.14135150437553734
-0.30242592096328735,-0.23812039196491241,153.35911560058594,-0.2655707105212949,-0.6137770985439422,-0.46125051397830263,-0.13833612787226846
-0.1500128209590912,0.15299880504608154,153.49688720703125,-0.27328963844467785,-0.6160886118964606,-0.46502083682765577,-0.13904547442992538
1.0628455877304077,-0.2587462365627289,153.52761840820312,-0.28097659456077967,-0.6184133800419258,-0.4574138971045615,-0.13992670302589744
-1.010327696800232,0.6467844843864441,153.55279541015625,-0.2885965124367633,-0.6207185446584808,-0.4569762480134767,-0.1366930509606998
0,0.44907909631729126,153.6197967529297,-0.29628294488259904,-0.6229206605369435,-0.46539564548681195,-0.12756085445483534
-0.07679655402898788,-0.059264298528432846,153.6752471923828,-0.3040448720680757,-0.6250196043057887,-0.46603561677038685,-0.12431239780659485
0.6837363839149475,0.8730166554450989,153.54486083984375,-0.31176998374828446,-0.6270349670222238,-0.4609777848546705,-0.11753112816562264
-0.5542864203453064,-0.7308415770530701,153.37298583984375,-0.3194439572483922,-0.6289839458889848,-0.4598990351582568,-0.11634633584568907
-0.1355661302804947,0.4702227711677551,153.24623107910156,-0.3271568475948233,-0.6309411500145994,-0.4656478064134718,-0.11851815922806669
-1.107149362564087,-0.09402715414762497,153.35394287109375,-0.33500394405538425,-0.6328903279727741,-0.4760037688538433,-0.11538319575289893
0.30735597014427185,0.11580164730548859,153.4702911376953,-0.34299288141075523,-0.634811869117742,-0.4826687137906751,-0.11520174164325007
1.0627021789550781,0.8391426205635071,153.41868591308594,-0.35094221704691236,-0.6366655825709719,-0.4712515625481805,-0.10724387274434177
-0.49688512086868286,0.5240870714187622,153.2467803955078,-0.3587571169047927,-0.6383583117214344,-0.46653642039746057,-0.0958836253111562
-0.007273743860423565,-0.24220022559165955,153.15980529785156,-0.3587571169047927,-0.6383583117214344,-0.46653642039746057,-0.0958836253111562
-0.9581190347671509,-0.7801795601844788,153.12835693359375,-0.3587571169047927,-0.6383583117214344,-0.46653642039746057,-0.0958836253111562
-0.5432074666023254,0.6559159755706787,153.17636108398438,-0.3587571169047927,-0.6383583117214344,-0.46653642039746057,-0.0958836253111562
1.7412164211273193,0.977074384689331,153.09483337402344,-0.3587571169047927,-0.6383583117214344,-0.46653642039746057,-0.0958836253111562
1.807033658027649,0.3891575038433075,152.84104919433594,-0.3587571169047927,-0.6383583117214344,-0.46653642039746057,-0.0958836253111562
2.675049066543579,-1.9682841300964355,152.26876831054688,-0.3587571169047927,-0.6383583117214344,-0.46653642039746057,-0.0958836253111562
1.6603938341140747,-0.15459847450256348,151.47181701660156,-0.3587571169047927,-0.6383583117214344,-0.46653642039746057,-0.0958836253111562
1.288139820098877,-0.40507400035858154,150.44908142089844,-0.3587571169047927,-0.6383583117214344,-0.46653642039746057,-0.0958836253111562
2.7187271118164062,-1.748354196548462,149.14208984375,-0.3587571169047927,-0.6383583117214344,-0.46653642039746057,-0.0958836253111562
1.1935644149780273,0.8307223916053772,147.63424682617188,-0.3587571169047927,-0.6383583117214344,-0.46653642039746057,-0.0958836253111562
1.2545043230056763,0.2563738226890564,146.02427673339844,-0.3587571169047927,-0.6383583117214344,-0.46653642039746057,-0.0958836253111562
1.1199209690093994,-0.018123729154467583,144.2321014404297,-0.3587571169047927,-0.6383583117214344,-0.46653642039746057,-0.0958836253111562
2.173952579498291,0.4848480522632599,142.3237762451172,-0.3587571169047927,-0.6383583117214344,-0.46653642039746057,-0.0958836253111562
1.7584185600280762,-1.369775414466858,140.29428100585938,-0.3587571169047927,-0.6383583117214344,-0.46653642039746057,-0.0958836253111562
1.288712501525879,-0.002133711474016309,138.0886993408203,-0.3587571169047927,-0.6383583117214344,-0.46653642039746057,-0.0958836253111562
1.2609444856643677,0.020337440073490143,135.84657287597656,-0.3587571169047927,-0.6383583117214344,-0.46653642039746057,-0.0958836253111562
1.1762723922729492,-0.48427170515060425,133.44711303710938,-0.3587571169047927,-0.6383583117214344,-0.46653642039746057,-0.0958836253111562
1.0394935607910156,-0.25678351521492004,130.9300537109375,-0.3587571169047927,-0.6383583117214344,-0.46653642039746057,-0.0958836253111562
1.1799086332321167,-0.9621050357818604,128.26426696777344,-0.3587571169047927,-0.6383583117214344,-0.46653642039746057,-0.0958836253111562
2.371497631072998,0.9649285674095154,125.52198028564453,-0.3587571169047927,-0.6383583117214344,-0.46653642039746057,-0.0958836253111562
1.0189756155014038,0.3145825266838074,122.73817443847656,-0.3587571169047927,-0.6383583117214344,-0.46653642039746057,-0.0958836253111562
0.9746736288070679,-2.187804937362671,119.90937805175781,-0.3587571169047927,-0.6383583117214344,-0.46653642039746057,-0.0958836253111562
0.6404085755348206,0.1345655769109726,117.07359313964844,-0.3587571169047927,-0.6383583117214344,-0.46653642039746057,-0.0958836253111562
1.1548386812210083,0.4821150004863739,114.24633026123047,-0.3587571169047927,-0.6383583117214344,-0.46653642039746057,-0.0958836253111562
0.2321416735649109,-0.5440478920936584,111.3918685913086,-0.3587571169047927,-0.6383583117214344,-0.46653642039746057,-0.0958836253111562
1.2379847764968872,0.23838737607002258,108.51893615722656,-0.3587571169047927,-0.6383583117214344,-0.46653642039746057,-0.0958836253111562
0.41362446546554565,-0.4560157358646393,105.67036437988281,-0.3587571169047927,-0.6383583117214344,-0.46653642039746057,-0.0958836253111562
0.6827389597892761,-0.02809496968984604,102.80706787109375,-0.3587571169047927,-0.6383583117214344,-0.46653642039746057,-0.0958836253111562
0.29171088337898254,-0.5665618181228638,99.92250061035156,-0.3587571169047927,-0.6383583117214344,-0.46653642039746057,-0.0958836253111562
0.8010551333427429,-0.015502803027629852,97.02628326416016,-0.3587571169047927,-0.6383583117214344,-0.46653642039746057,-0.0958836253111562
0.5967894792556763,-0.3751782178878784,94.04953002929688,-0.3587571169047927,-0.6383583117214344,-0.46653642039746057,-0.0958836253111562
1.6273365020751953,-0.3908320367336273,91.02133178710938,-0.3587571169047927,-0.6383583117214344,-0.46653642039746057,-0.0958836253111562
0.1916969269514084,-0.5079941749572754,87.94918823242188,-0.3587571169047927,-0.6383583117214344,-0.46653642039746057,-0.0958836253111562
0.13041256368160248,-0.43058696389198303,84.85938262939453,-0.3587571169047927,-0.6383583117214344,-0.46653642039746057,-0.0958836253111562
0.39240652322769165,0.22520071268081665,81.78338623046875,-0.3587571169047927,-0.6383583117214344,-0.46653642039746057,-0.0958836253111562
1.1000699996948242,-0.6236200332641602,78.65058898925781,-0.3587571169047927,-0.6383583117214344,-0.46653642039746057,-0.0958836253111562
0.6370312571525574,-0.5564063787460327,75.5718002319336,-0.3587571169047927,-0.6383583117214344,-0.46653642039746057,-0.0958836253111562
0.27775633335113525,-0.21731504797935486,72.60565185546875,-0.3587571169047927,-0.6383583117214344,-0.46653642039746057,-0.0958836253111562
-0.07631142437458038,-0.06795681267976761,69.94732666015625,-0.3587571169047927,-0.6383583117214344,-0.46653642039746057,-0.0958836253111562
0.38216203451156616,0.0341959185898304,67.76972198486328,-0.3587571169047927,-0.6383583117214344,-0.46653642039746057,-0.0958836253111562
0.7246102094650269,-0.1799495816230774,65.94917297363281,-0.3587571169047927,-0.6383583117214344,-0.46653642039746057,-0.0958836253111562
-0.6497229933738708,0.9173018336296082,64.5493392944336,-0.3587571169047927,-0.6383583117214344,-0.46653642039746057,-0.0958836253111562
-0.9148411154747009,0.9563538432121277,63.446598052978516,-0.3587571169047927,-0.6383583117214344,-0.46653642039746057,-0.0958836253111562
-0.8177748322486877,0.9572435021400452,62.71621322631836,-0.3587571169047927,-0.6383583117214344,-0.46653642039746057,-0.0958836253111562
-0.5215709209442139,1.2251836061477661,62.34380340576172,-0.3587571169047927,-0.6383583117214344,-0.46653642039746057,-0.0958836253111562
-0.7606602907180786,0.4512918293476105,62.306495666503906,-0.3587571169047927,-0.6383583117214344,-0.46653642039746057,-0.0958836253111562
0.14923079311847687,-0.43501806259155273,62.4061279296875,-0.3587571169047927,-0.6383583117214344,-0.46653642039746057,-0.0958836253111562
0.0971231460571289,-0.531054675579071,62.46220397949219,-0.3587571169047927,-0.6383583117214344,-0.46653642039746057,-0.0958836253111562
-0.22514651715755463,-0.5957418084144592,62.41920852661133,-0.3587571169047927,-0.6383583117214344,-0.46653642039746057,-0.0958836253111562
-0.033526089042425156,-0.5244683623313904,62.423580169677734,-0.3587571169047927,-0.6383583117214344,-0.46653642039746057,-0.0958836253111562
0.273408979177475,0.2359142154455185,62.445716857910156,-0.3587571169047927,-0.6383583117214344,-0.46653642039746057,-0.0958836253111562
0.17847059667110443,0.22643402218818665,62.43680191040039,-0.3587571169047927,-0.6383583117214344,-0.46653642039746057,-0.0958836253111562
0.4220597445964813,0.23972851037979126,62.430908203125,-0.3587571169047927,-0.6383583117214344,-0.46653642039746057,-0.0958836253111562
0.24707674980163574,0.2520955204963684,62.43659591674805,-0.3587571169047927,-0.6383583117214344,-0.46653642039746057,-0.0958836253111562
0.27818092703819275,0.2417769879102707,62.43509292602539,-0.3587571169047927,-0.6383583117214344,-0.46653642039746057,-0.0958836253111562
0.2576192021369934,0.12523715198040009,62.432430267333984,-0.3587571169047927,-0.6383583117214344,-0.46653642039746057,-0.0958836253111562
0.2066667079925537,0.10041770339012146,62.43633270263672,-0.3587571169047927,-0.6383583117214344,-0.46653642039746057,-0.0958836253111562
0.19082963466644287,0.0555906668305397,62.43556594848633,-0.3587571169047927,-0.6383583117214344,-0.46653642039746057,-0.0958836253111562
0.18904194235801697,0.022402213886380196,62.43490219116211,-0.3587571169047927,-0.6383583117214344,-0.46653642039746057,-0.0958836253111562
0.19106553494930267,0.06040119752287865,62.4364128112793,-0.3587571169047927,-0.6383583117214344,-0.46653642039746057,-0.0958836253111562
0.22812743484973907,0.10431462526321411,62.435550689697266,-0.3587571169047927,-0.6383583117214344,-0.46653642039746057,-0.0958836253111562
0.22561857104301453,0.11835766583681107,62.43461608886719,-0.3587571169047927,-0.6383583117214344,-0.46653642039746057,-0.0958836253111562
0.1913597136735916,0.08371762931346893,62.436466217041016,-0.3587571169047927,-0.6383583117214344,-0.46653642039746057,-0.0958836253111562
0.17817357182502747,0.055131908506155014,62.43655014038086,-0.3587571169047927,-0.6383583117214344,-0.46653642039746057,-0.0958836253111562
0.2100358009338379,0.05364037677645683,62.43874740600586,-0.3665057649271977,-0.6399488185123646,-0.4633013422911367,-0.09497718960046776
0.24228307604789734,0.16495729982852936,62.43769836425781,-0.3741960429322596,-0.6415165912781637,-0.45953201831628887,-0.0931555422954262
0.6520902514457703,1.0099736452102661,62.43496322631836,-0.38179280064534404,-0.6429875912230154,-0.45207890725384164,-0.08336445108676957
2.0278561115264893,2.2993295192718506,62.357723236083984,-0.3891413417132572,-0.6441471860213726,-0.4297460208957395,-0.05578692471608526
0.8548001646995544,2.832496404647827,62.43538284301758,-0.39610359093122605,-0.6447205912997018,-0.40572388526052244,-0.013021708683421285
0.46001172065734863,0.4710310995578766,62.5234489440918,-0.4027743493046405,-0.6447082081455223,-0.3947671195492149,0.01450768718495958
0.9903982281684875,1.576704978942871,62.54830551147461,-0.40925307838401453,-0.644324209464766,-0.38268036997566623,0.031572154505799144
0.651162326335907,2.0442917346954346,62.59060287475586,-0.41551708728954617,-0.6435465487845555,-0.3690006986881296,0.06174712711945169
0.8885969519615173,1.7447577714920044,62.69658660888672,-0.42156017120668876,-0.6422543015613017,-0.3561693713689844,0.09332253967101367
0.4063178598880768,1.6967098712921143,62.85305404663086,-0.4274064027564601,-0.6404599350915915,-0.3453784146035711,0.12200143669421466
1.139121174812317,0.19075195491313934,62.95612335205078,-0.43305538751133205,-0.6382955040754237,-0.33249975598106785,0.13773028524592512
1.22268545627594,0.7751126885414124,62.97560119628906,-0.4384330357616354,-0.6359329253877517,-0.3128180340553324,0.14577915727471305
-0.09631287306547165,1.0842903852462769,63.03532409667969,-0.4435684493442791,-0.633374147553049,-0.3034315958619118,0.16127418288961046
1.3624950647354126,1.5942717790603638,63.14344787597656,-0.4485377132897783,-0.6305002332434786,-0.29288007759799567,0.18359553425883246
0.11602327227592468,0.23252519965171814,63.18925094604492,-0.4533163730318969,-0.6273134467711986,-0.28055909145623453,0.19881884241476647
0.5480185747146606,1.6738437414169312,63.15299606323242,-0.4579462438723487,-0.6238674126656005,-0.27502540939797965,0.2147052502570052
0.4061652719974518,0.9461454153060913,63.18716812133789,-0.4624637379285156,-0.6201070481365447,-0.26707387734204535,0.23653849322969706
0.6854339838027954,1.182960033416748,63.17033767700195,-0.4668391637136747,-0.6160168853709995,-0.2579772168770433,0.2542810386357207
0.6689859628677368,0.22709029912948608,63.13887023925781,-0.47104472705421774,-0.6116809478984218,-0.24669038398812218,0.266031458073606
0.3510833978652954,0.6999630331993103,63.144901275634766,-0.47508539530396887,-0.6071827115602277,-0.23818980598201359,0.2737569025096793
-0.6504912972450256,0.5671159029006958,63.052345275878906,-0.4790760176189038,-0.602532104925615,-0.240684871810178,0.284315893643846
1.732980489730835,0.6470461487770081,62.96440505981445,-0.4830122592884841,-0.5977091898890733,-0.23166412853946292,0.2944339107411602
1.2120583057403564,0.21379296481609344,63.074954986572266,-0.48666881151445635,-0.5927421775493877,-0.207122138577203,0.3016075700211027
0.36291447281837463,0.7725531458854675,63.17404556274414,-0.4900114740477876,-0.587646888458015,-0.1939973654225469,0.30982712094361575
-0.6773901581764221,1.1203175783157349,63.224178314208984,-0.4932666020607577,-0.5823516537531075,-0.19661799613386396,0.3256010436452924
0,0.8935862183570862,63.239463806152344,-0.49659060964619545,-0.5767851152620281,-0.20226291411866748,0.3423835752842326
0.7564275860786438,0.271250456571579,63.27534484863281,-0.4999091285213622,-0.5709978309048653,-0.19595935090134545,0.3520905475753048
0.22942332923412323,0.1984141319990158,63.19538879394531,-0.5031066558339323,-0.565097039515515,-0.1877439266070724,0.3560044191467264
0,0.46477100253105164,63.17660140991211,-0.5062197891017423,-0.559117578006505,-0.18583206553012138,0.361530961934477
0.8218981027603149,0.7245080471038818,63.19489288330078,-0.5092599139367748,-0.5530094731513724,-0.17898291467378544,0.37144162068143477
1.4285411834716797,-0.8106039762496948,63.20237731933594,-0.5120866820086829,-0.5468247583573169,-0.16022925395518547,0.3707241546052197
-0.6267397999763489,-0.490206778049469,63.202274322509766,-0.5147014889229711,-0.5407363565273896,-0.15354757575939104,0.35988406498605996
-0.15769915282726288,1.537211537361145,63.23196029663086,-0.5173150901129057,-0.5346655801137808,-0.16008456703275448,0.3686091046469906
0.15740925073623657,0.1760488599538803,63.248653411865234,-0.5199831863622079,-0.5284031186198508,-0.16008698288351303,0.38288627462461583
0.9754112958908081,0.5591057538986206,63.24623489379883,-0.522572634650084,-0.5219706283057007,-0.150646811661621,0.38901256307338666
0.6716434955596924,0.3296054005622864,63.312835693359375,-0.5249690360394825,-0.5154253695354178,-0.13692135506620015,0.3964184893605609
-0.19020700454711914,-0.06681940704584122,63.32926940917969,-0.5272176255342655,-0.5088001456854143,-0.13290938430776203,0.3986083726398646
0.6849601864814758,0.14717413485050201,63.31791687011719,-0.5293984240795384,-0.5021510926186523,-0.12878644112497573,0.3992779953715701
0.3953075706958771,0.6032982468605042,63.366233825683594,-0.5314698461707063,-0.49544434322484066,-0.11978420981516445,0.4055319318858285
-0.3308669626712799,0,63.41356658935547,-0.5334617746254017,-0.48864358198182267,-0.11924720474829281,0.41055941727633266
0.23745524883270264,-0.6697307825088501,63.4732551574707,-0.5354557149624454,-0.4818474341093358,-0.12002563569694762,0.4049783274220922
0.13080644607543945,0,63.476051330566406,-0.5374305684952481,-0.47514430440108624,-0.11695678823937977,0.3993972375678518
0.05164572224020958,0.6153573989868164,63.441070556640625,-0.5393671780097714,-0.46844495062224795,-0.11543635350341604,0.40452521589274193
0.2399151474237442,1.685322642326355,63.4257926940918,-0.5412708699522127,-0.46154309424338885,-0.11300667958954976,0.42369754957035166
0.1423661708831787,-0.8192633986473083,63.33240509033203,-0.5431277672982673,-0.45442132541418306,-0.10982100193699207,0.4309147099343437
0.823200523853302,0.39777979254722595,63.29983139038086,-0.5448910640878605,-0.4472686832768121,-0.10177461281418806,0.4274023465501764
0.05243777483701706,-0.7596040368080139,63.28760528564453,-0.5465264994195768,-0.44017043751793833,-0.09447762699176875,0.4243871445146698
1.6321760416030884,0.14032989740371704,63.352020263671875,-0.5479841394655202,-0.4331403235912636,-0.08043917852143453,0.41922652668630067
-0.6323610544204712,0.2686978578567505,63.50596618652344,-0.5492553608445453,-0.42612481010793213,-0.0721073869615794,0.4226350913134712
-0.4728519916534424,0.2733941972255707,63.625370025634766,-0.5505339015332157,-0.4190432466377713,-0.08131749567886201,0.4271525251058239
0.19463682174682617,0.7463485598564148,63.64692687988281,-0.5519085136257735,-0.4118532224167658,-0.08363595542808382,0.43565038141484047
-0.18784698843955994,0.36713406443595886,63.5565299987793,-0.5533019747000397,-0.4045150575442759,-0.08357937348385659,0.4449294032839436
0,1.164554476737976,63.561214447021484,-0.5547080091878568,-0.3969932002297398,-0.08514476505418626,0.45769347446039305
0.9502749443054199,-0.8992942571640015,63.62340545654297,-0.5560610972898498,-0.38934655480681835,-0.07722580718497443,0.45990397629017615
0.9460840821266174,-1.0509084463119507,63.52059555053711,-0.5572165024772082,-0.38181691927861233,-0.06142281529804079,0.44365228709454324
-0.42035606503486633,-0.5918986201286316,63.4509162902832,-0.5582037071754331,-0.37453679831776165,-0.05704174848894287,0.4299622282075384
-0.9833858013153076,-0.22991858422756195,63.411441802978516,-0.5592518850576342,-0.36742783182016076,-0.06873959737519432,0.4231137515045701
0.7093395590782166,0.8276565670967102,63.407222747802734,-0.5604165760029317,-0.36033442637960755,-0.07102331606050341,0.428094901361813
0.6604010462760925,0.7703011631965637,63.43727493286133,-0.5615051770619016,-0.3530885420700847,-0.05960881101588417,0.4414112157809236
0.3768428862094879,-0.6214492321014404,63.46977233886719,-0.5624266264168548,-0.3457213515340766,-0.05096511157850433,0.4426516485400497
0.31278371810913086,0.10634817183017731,63.440189361572266,-0.5632281542067522,-0.3383795949653724,-0.045218223209182506,0.43835913970445584
0.6694412231445312,0.9672744274139404,63.454044342041016,-0.5639135811948738,-0.330999052178684,-0.03703301536540199,0.4473059946981568
-0.8172369599342346,-0.242068812251091,63.507686614990234,-0.5645410617104631,-0.32349359076599504,-0.038264646505316184,0.4533493748245139
0.5029444098472595,-0.5621338486671448,63.612892150878906,-0.5652006316904189,-0.31599361525926134,-0.04088375108937431,0.44664768598352855
0.7031338810920715,-0.3154028058052063,63.64073181152344,-0.5657982721050376,-0.3086104272049853,-0.030833098664879884,0.4393348805295923
-0.5261998176574707,0.48437002301216125,63.55892562866211,-0.5662998699950471,-0.3012764453616305,-0.02935864813625821,0.4407429406729836
0.7090637683868408,1.5899585485458374,63.40212631225586,-0.5667764819118508,-0.29378667908850037,-0.027834781880180126,0.4580290121026336
-0.6948449611663818,-0.7096063494682312,63.384456634521484,-0.5667764819118508,-0.29378667908850037,-0.027834781880180126,0.4580290121026336
0.4452935457229614,0.7571116089820862,63.46076965332031,-0.5667764819118508,-0.29378667908850037,-0.027834781880180126,0.4580290121026336
0.18352192640304565,-0.7393952012062073,63.509544372558594,-0.5667764819118508,-0.29378667908850037,-0.027834781880180126,0.4580290121026336
1.0045403242111206,-2.7367236614227295,63.42879104614258,-0.5667764819118508,-0.29378667908850037,-0.027834781880180126,0.4580290121026336
-1.1585274934768677,-0.7576185464859009,63.119747161865234,-0.5667764819118508,-0.29378667908850037,-0.027834781880180126,0.4580290121026336
-1.0053836107254028,-2.952956199645996,62.48855972290039,-0.5667764819118508,-0.29378667908850037,-0.027834781880180126,0.4580290121026336
1.5415445566177368,-0.9104256629943848,61.62752151489258,-0.5667764819118508,-0.29378667908850037,-0.027834781880180126,0.4580290121026336
-1.2202138900756836,-1.9304778575897217,60.40646743774414,-0.5667764819118508,-0.29378667908850037,-0.027834781880180126,0.4580290121026336
0.04234209284186363,-1.502712607383728,58.94029998779297,-0.5667764819118508,-0.29378667908850037,-0.027834781880180126,0.4580290121026336
0.18007387220859528,-1.0139719247817993,57.3975830078125,-0.5667764819118508,-0.29378667908850037,-0.027834781880180126,0.4580290121026336
-1.6079347133636475,-2.647287368774414,55.678672790527344,-0.5667764819118508,-0.29378667908850037,-0.027834781880180126,0.4580290121026336
-0.0463748462498188,-0.1365380585193634,53.795562744140625,-0.5667764819118508,-0.29378667908850037,-0.027834781880180126,0.4580290121026336
0.2919424772262573,-1.1225576400756836,51.8367919921875,-0.5667764819118508,-0.29378667908850037,-0.027834781880180126,0.4580290121026336
-0.7504787445068359,-1.3692129850387573,49.73460388183594,-0.5667764819118508,-0.29378667908850037,-0.027834781880180126,0.4580290121026336
-0.4438384771347046,-1.4335978031158447,47.515018463134766,-0.5667764819118508,-0.29378667908850037,-0.027834781880180126,0.4580290121026336
-0.6866155862808228,-1.0723648071289062,45.17919921875,-0.5667764819118508,-0.29378667908850037,-0.027834781880180126,0.4580290121026336
-0.6629362106323242,-1.2810242176055908,42.69084167480469,-0.5667764819118508,-0.29378667908850037,-0.027834781880180126,0.4580290121026336
-0.8502385020256042,-0.6803110241889954,40.09815979003906,-0.5667764819118508,-0.29378667908850037,-0.027834781880180126,0.4580290121026336
0.9612225890159607,-1.0609819889068604,37.44813537597656,-0.5667764819118508,-0.29378667908850037,-0.027834781880180126,0.4580290121026336
-0.795921266078949,-1.610543966293335,34.706058502197266,-0.5667764819118508,-0.29378667908850037,-0.027834781880180126,0.4580290121026336
-0.016184164211153984,-2.069077730178833,31.89165687561035,-0.5667764819118508,-0.29378667908850037,-0.027834781880180126,0.4580290121026336
0.01632990874350071,-0.2944872975349426,29.047639846801758,-0.5667764819118508,-0.29378667908850037,-0.027834781880180126,0.4580290121026336
0.07910174131393433,-0.3811466097831726,26.12183380126953,-0.5667764819118508,-0.29378667908850037,-0.027834781880180126,0.4580290121026336
-0.3143775463104248,-0.42986035346984863,23.164615631103516,-0.5667764819118508,-0.29378667908850037,-0.027834781880180126,0.4580290121026336
0.8047646284103394,-1.4617795944213867,20.16533088684082,-0.5667764819118508,-0.29378667908850037,-0.027834781880180126,0.4580290121026336
-1.7196440696716309,-0.6234406232833862,17.15740394592285,-0.5667764819118508,-0.29378667908850037,-0.027834781880180126,0.4580290121026336
0.4586794972419739,-0.6896451115608215,14.156185150146484,-0.5667764819118508,-0.29378667908850037,-0.027834781880180126,0.4580290121026336
-0.7943240404129028,-0.5806553959846497,11.156111717224121,-0.5667764819118508,-0.29378667908850037,-0.027834781880180126,0.4580290121026336
-0.34515145421028137,-0.7132959365844727,8.168699264526367,-0.5667764819118508,-0.29378667908850037,-0.027834781880180126,0.4580290121026336
-0.3949056565761566,-0.7817689180374146,5.135358810424805,-0.5667764819118508,-0.29378667908850037,-0.027834781880180126,0.4580290121026336
0.7508693337440491,-0.6198037266731262,2.1533396244049072,-0.5667764819118508,-0.29378667908850037,-0.027834781880180126,0.4580290121026336
-0.4988860487937927,-2.5963480472564697,-0.8108845353126526,-0.5667764819118508,-0.29378667908850037,-0.027834781880180126,0.4580290121026336
-0.7683613896369934,2.016052484512329,-3.7743172645568848,-0.5667764819118508,-0.29378667908850037,-0.027834781880180126,0.4580290121026336
-0.9003192782402039,-0.8985159993171692,-6.750617504119873,-0.5667764819118508,-0.29378667908850037,-0.027834781880180126,0.4580290121026336
0.09998910874128342,-0.4725686311721802,-9.765321731567383,-0.5667764819118508,-0.29378667908850037,-0.027834781880180126,0.4580290121026336
-1.5971447229385376,0.3068772554397583,-12.78336238861084,-0.5667764819118508,-0.29378667908850037,-0.027834781880180126,0.4580290121026336
0.7689376473426819,-0.8310140371322632,-15.596513748168945,-0.5667764819118508,-0.29378667908850037,-0.027834781880180126,0.4580290121026336
-1.6043790578842163,0.33644556999206543,-18.039278030395508,-0.5667764819118508,-0.29378667908850037,-0.027834781880180126,0.4580290121026336
0.8378967642784119,-1.0057401657104492,-20.133956909179688,-0.5667764819118508,-0.29378667908850037,-0.027834781880180126,0.4580290121026336
-0.556515097618103,2.221006393432617,-21.761898040771484,-0.5667764819118508,-0.29378667908850037,-0.027834781880180126,0.4580290121026336
1.4118804931640625,-1.0824685096740723,-23.055665969848633,-0.5667764819118508,-0.29378667908850037,-0.027834781880180126,0.4580290121026336
0.846392035484314,2.2627804279327393,-24.11471176147461,-0.5667764819118508,-0.29378667908850037,-0.027834781880180126,0.4580290121026336
1.0574098825454712,0.01798289641737938,-24.847442626953125,-0.5667764819118508,-0.29378667908850037,-0.027834781880180126,0.4580290121026336
0.8124750256538391,0.8403717279434204,-25.242630004882812,-0.5667764819118508,-0.29378667908850037,-0.027834781880180126,0.4580290121026336
1.1890082359313965,0.7287268042564392,-25.303049087524414,-0.5667764819118508,-0.29378667908850037,-0.027834781880180126,0.4580290121026336
-0.3537464737892151,-0.27562254667282104,-25.182798385620117,-0.5667764819118508,-0.29378667908850037,-0.027834781880180126,0.4580290121026336
-0.05839814618229866,-0.18681593239307404,-25.16285514831543,-0.5667764819118508,-0.29378667908850037,-0.027834781880180126,0.4580290121026336
-0.12165677547454834,0.23424191772937775,-25.200605392456055,-0.5667764819118508,-0.29378667908850037,-0.027834781880180126,0.4580290121026336
-0.3077695369720459,-0.40089163184165955,-25.181514739990234,-0.5667764819118508,-0.29378667908850037,-0.027834781880180126,0.4580290121026336
0.07389771938323975,0.23181210458278656,-25.173904418945312,-0.5667764819118508,-0.29378667908850037,-0.027834781880180126,0.4580290121026336
0.09650567173957825,-0.2812731862068176,-25.19563865661621,-0.5667764819118508,-0.29378667908850037,-0.027834781880180126,0.4580290121026336
0.1402105987071991,-0.22941254079341888,-25.18439292907715,-0.5667764819118508,-0.29378667908850037,-0.027834781880180126,0.4580290121026336
0.24178698658943176,-0.06213641166687012,-25.176368713378906,-0.5667764819118508,-0.29378667908850037,-0.027834781880180126,0.4580290121026336
0.057596754282712936,-0.1810969114303589,-25.18815803527832,-0.5667764819118508,-0.29378667908850037,-0.027834781880180126,0.4580290121026336
0.03766176477074623,-0.15471802651882172,-25.1768741607666,-0.5667764819118508,-0.29378667908850037,-0.027834781880180126,0.4580290121026336
0.07367813587188721,-0.03040303848683834,-25.18003273010254,-0.5667764819118508,-0.29378667908850037,-0.027834781880180126,0.4580290121026336
0.028277741745114326,-0.17042116820812225,-25.185867309570312,-0.5667764819118508,-0.29378667908850037,-0.027834781880180126,0.4580290121026336
0.14608754217624664,-0.14718259871006012,-25.181764602661133,-0.5667764819118508,-0.29378667908850037,-0.027834781880180126,0.4580290121026336
0.14273178577423096,-0.11085320264101028,-25.184804916381836,-0.5667764819118508,-0.29378667908850037,-0.027834781880180126,0.4580290121026336
0.03820451721549034,-0.1578989326953888,-25.184396743774414,-0.5667764819118508,-0.29378667908850037,-0.027834781880180126,0.4580290121026336
0.0681762620806694,-0.08081838488578796,-25.183931350708008,-0.5667764819118508,-0.29378667908850037,-0.027834781880180126,0.4580290121026336
0.08423704653978348,-0.14090248942375183,-25.18634033203125,-0.5667764819118508,-0.29378667908850037,-0.027834781880180126,0.4580290121026336
0.088460274040699,-0.15154331922531128,-25.183982849121094,-0.5667764819118508,-0.29378667908850037,-0.027834781880180126,0.4580290121026336
0.10817425698041916,-0.12923437356948853,-25.183244705200195,-0.5672267397674218,-0.28617236067101165,-0.026196160788337475,0.45568919799601026
0.06526778638362885,-0.143781840801239,-25.183570861816406,-0.5676512978608826,-0.27859650016374277,-0.02475081042697041,0.4534140628762542
0.09412522614002228,-0.13531199097633362,-25.183103561401367,-0.5680527424087958,-0.27105898063190087,-0.02342253532260665,0.45108828094477443
0.6609558463096619,-0.30698561668395996,-25.17268943786621,-0.5683906818119191,-0.2635715577277977,-0.017130193052192617,0.4474024675476053
2.725212812423706,-0.4629684090614319,-25.038818359375,-0.5684410344281547,-0.2561683189649033,0.011087879103918782,0.44098618399972705
3.023729085922241,-1.5656514167785645,-24.929391860961914,-0.5678570043668154,-0.24895942560836892,0.058995728256801674,0.42408101878439375
1.0512359142303467,-1.2912850379943848,-24.98381805419922,-0.5665907585486359,-0.24208980699354382,0.09295376992473992,0.40027321499461915
1.1649216413497925,-1.1820697784423828,-25.02044105529785,-0.5648876292196416,-0.23559034749477495,0.1114217495545744,0.3796619248576461
1.6589736938476562,0,-25.024457931518555,-0.5628344962176767,-0.22934473692620602,0.13495421068121982,0.36981134337062627
1.3628897666931152,-0.47357964515686035,-25.0074405670166,-0.5603754077437855,-0.2232141020120537,0.16013640618572625,0.3658648463276524
1.6186219453811646,-1.5649882555007935,-25.080373764038086,-0.5574994182162404,-0.21725792178858294,0.18498233711967857,0.34887678048883863
1.0451810359954834,0.43772652745246887,-25.116336822509766,-0.5542313929460946,-0.21152159084488342,0.2071806952978173,0.3394829327551026
0.8456337451934814,-0.0837007611989975,-25.09994888305664,-0.5506470747757706,-0.20583895684297523,0.22293748514105866,0.34243314747388154
0.585515022277832,-1.2868843078613281,-25.07013702392578,-0.5468320646923452,-0.2002269172370953,0.23486372486998627,0.33101160523171214
0.5237230062484741,-1.2544488906860352,-24.935991287231445,-0.5428406388591979,-0.19488653862202143,0.2441073751077055,0.3098338285771508
1.5079693794250488,-0.2562083303928375,-24.825489044189453,-0.5386310928583977,-0.18982754823053272,0.2610381449883182,0.29724501840149353
0.969199001789093,0.27781355381011963,-24.854475021362305,-0.5341084315265636,-0.18487196422777052,0.28168121483176933,0.29742506192997087
0.24725908041000366,-0.90235835313797,-24.929719924926758,-0.5293292683569926,-0.179958251028891,0.2918183655167618,0.29222052193557213
0.2699967324733734,0.526178240776062,-25.033138275146484,-0.5244297083891518,-0.17511403261554548,0.2961288306241233,0.28908568766588955
2.1549227237701416,-0.7079114317893982,-25.13597869873047,-0.5193258306942884,-0.170308558181601,0.31633649275948594,0.2875712444074451
0.44889599084854126,-0.5809798240661621,-25.197629928588867,-0.5138727350708929,-0.16560521044535578,0.33803498204797494,0.27683048394198206
0.4664459526538849,-0.8522223234176636,-25.2036075592041,-0.5081752532906835,-0.16109089697323134,0.3456628315771618,0.26488713271295017
-0.6527308821678162,-0.9872764945030212,-25.142412185668945,-0.5024271425511693,-0.15680385440148223,0.34411045716454575,0.24955797589694445
1.117627739906311,0.413404256105423,-25.006919860839844,-0.4966596837610839,-0.15268440704197744,0.3479845976456999,0.24477570724363112
0.9986099600791931,0.31931132078170776,-24.778644561767578,-0.490712979515601,-0.14855392889507754,0.36561991181224573,0.2508816703843572
0.4362902045249939,-0.9990881681442261,-24.60692024230957,-0.48451966847396605,-0.14441977444751622,0.3775774131839473,0.24521686332300288
0.5059537887573242,-0.6532129645347595,-24.511423110961914,-0.4781612779769223,-0.14044756985968,0.38542944646129995,0.23144768721734466
0.48893827199935913,-0.7064977288246155,-24.515356063842773,-0.47166836414279256,-0.13668453275976308,0.3937202136342723,0.2201167647726832
0.5345593690872192,0.27637121081352234,-24.5993709564209,-0.4650352843571459,-0.13304578991063581,0.4022493606433271,0.21653237712259074
-0.6651937365531921,-0.6897122859954834,-24.64908790588379,-0.4583402001774978,-0.12946562119992472,0.401160740914444,0.21308786816274106
1.0772446393966675,0.5269873142242432,-24.655141830444336,-0.451625573182893,-0.1259254570758076,0.4045944984381396,0.21173182673131405
0.4083474278450012,0.10732027888298035,-24.70244789123535,-0.44477916542647666,-0.12235254415854215,0.4169744323318202,0.21701772334054092
0.6286249756813049,-0.47469133138656616,-24.737571716308594,-0.43775757958181255,-0.11876109398151255,0.42561586902787274,0.21395629790301104
0.7142771482467651,0.07624376565217972,-24.693689346313477,-0.4305707246727419,-0.11522282565297169,0.43680672006060667,0.21063590152189116
-0.897447407245636,-1.787072777748108,-24.7619571685791,-0.4233033328286067,-0.11183103486455795,0.43528030123561606,0.1963789930877584
0.4082510471343994,-0.5045828819274902,-24.743440628051758,-0.4160826331107986,-0.10871719440057279,0.43120366490135575,0.17728186259046175
0.23471923172473907,0.7472335696220398,-24.661802291870117,-0.40885125464863303,-0.10574564594853075,0.43656175055851526,0.179303951654583
0.6458761692047119,0.1549169421195984,-24.62965202331543,-0.4015140730142599,-0.10269459741319453,0.44390004556626067,0.1868218725857633
0.7163473963737488,-0.41879573464393616,-24.606189727783203,-0.39402114006276817,-0.09959922445291267,0.45525190861274784,0.18462288264806048
0.296792209148407,0.07914309948682785,-24.625459671020508,-0.38636325133550553,-0.0965457633973309,0.4636947386587658,0.18179244402175124
-0.09002300351858139,0.30468013882637024,-24.706274032592773,-0.3786206467185796,-0.09348923493875218,0.4654178153723477,0.18499097100769454
0.5445984601974487,-0.38111385703086853,-24.73407554626465,-0.3708321153889933,-0.09041135998572147,0.46920594417800493,0.18435402335599038
-0.4779431223869324,-0.529973030090332,-24.70283317565918,-0.3630073874764564,-0.08740206285250506,0.4697614053264259,0.17676163262998038
-0.6235859990119934,-1.076149344444275,-24.61261749267578,-0.3552545257988909,-0.08456757191801473,0.46058199598143484,0.16337727950885866
0.46104490756988525,0.7279353737831116,-24.559585571289062,-0.34758944677499487,-0.0818687987852741,0.45922748688608395,0.16047549642001563
1.1501678228378296,0.3375062942504883,-24.625802993774414,-0.3398237655539485,-0.07912021817354929,0.47265425963948154,0.16935417698696228
1.197829008102417,-0.44308438897132874,-24.69620132446289,-0.33178313922447517,-0.07630498036923332,0.49222089989731693,0.16847435953095527
0.32560062408447266,-0.9319131970405579,-24.679105758666992,-0.3234736638350625,-0.07359256032052378,0.5049161468322076,0.15701604631418956
-0.29388874769210815,-0.05115291476249695,-24.67116928100586,-0.315056192507554,-0.07104389469527361,0.5051804124688107,0.14882382871583077
-0.2999427318572998,0.5621412992477417,-24.547746658325195,-0.3066777572635981,-0.06852801224553162,0.500231816805899,0.1530820652532078
-0.7182490825653076,0.184239000082016,-24.391456604003906,-0.2984112680817236,-0.06592481252608026,0.49174688501904396,0.1593019010809558
-0.4652220606803894,-0.6933481693267822,-24.321256637573242,-0.29029767216079827,-0.06330513564481743,0.48188462549199645,0.15505932467058275
0.6783581972122192,-0.8176906108856201,-24.305437088012695,-0.2822514606153392,-0.06082574681560025,0.48366075996309504,0.1424673348354794
0.5231515765190125,0.31172072887420654,-24.419315338134766,-0.27410700977055624,-0.05848642803237083,0.4936733414108553,0.13825091915205096
0,-0.15612433850765228,-24.435808181762695,-0.2658427907764504,-0.05617144074161674,0.49803293788184705,0.1395475557384389
0.6855709552764893,-0.16782009601593018,-24.38994026184082,-0.2574946327176365,-0.05386814428726246,0.5037460291758178,0.13684801878407574
0.1417086273431778,0.32212939858436584,-24.401098251342773,-0.24904141559369095,-0.051576628050405054,0.5106400256976483,0.1381339296388127
0.3451407551765442,-0.22656981647014618,-24.421485900878906,-0.24049693951383294,-0.049267759807666914,0.5146971038853126,0.13893025948976453
-1.2154669761657715,-0.30083009600639343,-24.424428939819336,-0.24049693951383294,-0.049267759807666914,0.5146971038853126,0.13893025948976453
0.0017066994914785028,-1.846059799194336,-24.492788314819336,-0.24049693951383294,-0.049267759807666914,0.5146971038853126,0.13893025948976453
0.472788006067276,0.5220863223075867,-24.413192749023438,-0.24049693951383294,-0.049267759807666914,0.5146971038853126,0.13893025948976453
0.5626416802406311,0.9618426561355591,-24.24582290649414,-0.24049693951383294,-0.049267759807666914,0.5146971038853126,0.13893025948976453
-0.14600606262683868,0.0795760452747345,-24.182458877563477,-0.24049693951383294,-0.049267759807666914,0.5146971038853126,0.13893025948976453
-1.5536692142486572,-0.08463481068611145,-24.392608642578125,-0.24049693951383294,-0.049267759807666914,0.5146971038853126,0.13893025948976453
-1.7630609273910522,0.5009681582450867,-24.992048263549805,-0.24049693951383294,-0.049267759807666914,0.5146971038853126,0.13893025948976453
-2.400944709777832,0.6018067002296448,-25.83192253112793,-0.24049693951383294,-0.049267759807666914,0.5146971038853126,0.13893025948976453
-2.97131609916687,0.9406042098999023,-26.818519592285156,-0.24049693951383294,-0.049267759807666914,0.5146971038853126,0.13893025948976453
-1.712890625,-0.1478898525238037,-28.04371452331543,-0.24049693951383294,-0.049267759807666914,0.5146971038853126,0.13893025948976453
-1.6119136810302734,0.6594127416610718,-29.51374626159668,-0.24049693951383294,-0.049267759807666914,0.5146971038853126,0.13893025948976453
-0.2239520400762558,-0.28632357716560364,-31.188983917236328,-0.24049693951383294,-0.049267759807666914,0.5146971038853126,0.13893025948976453
-1.9248216152191162,0.6742721199989319,-33.0742073059082,-0.24049693951383294,-0.049267759807666914,0.5146971038853126,0.13893025948976453
-1.402869701385498,-1.3545198440551758,-35.07553482055664,-0.24049693951383294,-0.049267759807666914,0.5146971038853126,0.13893025948976453
-2.1513543128967285,2.522937536239624,-37.130828857421875,-0.24049693951383294,-0.049267759807666914,0.5146971038853126,0.13893025948976453
-0.5621532201766968,0.5083333849906921,-39.357852935791016,-0.24049693951383294,-0.049267759807666914,0.5146971038853126,0.13893025948976453
-0.9922297596931458,-1.3777185678482056,-41.647796630859375,-0.24049693951383294,-0.049267759807666914,0.5146971038853126,0.13893025948976453
-0.7594200968742371,1.2168426513671875,-44.014644622802734,-0.24049693951383294,-0.049267759807666914,0.5146971038853126,0.13893025948976453
-1.4322848320007324,0.37807780504226685,-46.47920608520508,-0.24049693951383294,-0.049267759807666914,0.5146971038853126,0.13893025948976453
-0.5170740485191345,-1.504631519317627,-48.92607498168945,-0.24049693951383294,-0.049267759807666914,0.5146971038853126,0.13893025948976453
-1.9940518140792847,1.8740649223327637,-51.44822311401367,-0.24049693951383294,-0.049267759807666914,0.5146971038853126,0.13893025948976453
-1.0742005109786987,-0.7286655902862549,-54.110939025878906,-0.24049693951383294,-0.049267759807666914,0.5146971038853126,0.13893025948976453
-1.0368812084197998,-0.19610610604286194,-56.83885192871094,-0.24049693951383294,-0.049267759807666914,0.5146971038853126,0.13893025948976453
-0.1134844496846199,0.432256817817688,-59.60065460205078,-0.24049693951383294,-0.049267759807666914,0.5146971038853126,0.13893025948976453
-1.6295241117477417,0.732321560382843,-62.37019348144531,-0.24049693951383294,-0.049267759807666914,0.5146971038853126,0.13893025948976453
-0.8666788339614868,-0.06369560211896896,-65.18778991699219,-0.24049693951383294,-0.049267759807666914,0.5146971038853126,0.13893025948976453
-1.6822112798690796,-0.4759567081928253,-68.01303100585938,-0.24049693951383294,-0.049267759807666914,0.5146971038853126,0.13893025948976453
0.3406846821308136,0.9494521617889404,-70.91577911376953,-0.24049693951383294,-0.049267759807666914,0.5146971038853126,0.13893025948976453
-1.1625630855560303,-0.1280679851770401,-73.88119506835938,-0.24049693951383294,-0.049267759807666914,0.5146971038853126,0.13893025948976453
-0.7621623873710632,-0.3545109033584595,-76.89221954345703,-0.24049693951383294,-0.049267759807666914,0.5146971038853126,0.13893025948976453
-1.204478144645691,0.016737261787056923,-79.93019104003906,-0.24049693951383294,-0.049267759807666914,0.5146971038853126,0.13893025948976453
-0.2100154459476471,1.0618243217468262,-83.03684997558594,-0.24049693951383294,-0.049267759807666914,0.5146971038853126,0.13893025948976453
-1.5203522443771362,-0.2094397395849228,-86.09058380126953,-0.24049693951383294,-0.049267759807666914,0.5146971038853126,0.13893025948976453
-0.6115697622299194,0.7887328267097473,-89.16081237792969,-0.24049693951383294,-0.049267759807666914,0.5146971038853126,0.13893025948976453
-1.0820517539978027,-0.2889266610145569,-92.2449722290039,-0.24049693951383294,-0.049267759807666914,0.5146971038853126,0.13893025948976453
0.9960275888442993,1.6766703128814697,-95.39089965820312,-0.24049693951383294,-0.049267759807666914,0.5146971038853126,0.13893025948976453
-1.2062796354293823,-0.42021527886390686,-98.56598663330078,-0.24049693951383294,-0.049267759807666914,0.5146971038853126,0.13893025948976453
0.0013769306242465973,0.7907896041870117,-101.85377502441406,-0.24049693951383294,-0.049267759807666914,0.5146971038853126,0.13893025948976453
-0.6137520670890808,0.3219527006149292,-105.16669464111328,-0.24049693951383294,-0.049267759807666914,0.5146971038853126,0.13893025948976453
-0.5486623644828796,0.37473544478416443,-108.51596069335938,-0.24049693951383294,-0.049267759807666914,0.5146971038853126,0.13893025948976453
0.6904405355453491,0.7089499831199646,-111.76309967041016,-0.24049693951383294,-0.049267759807666914,0.5146971038853126,0.13893025948976453
0.2119383066892624,0.9979717135429382,-114.63848114013672,-0.24049693951383294,-0.049267759807666914,0.5146971038853126,0.13893025948976453
1.1366920471191406,0.05506078153848648,-117.11920928955078,-0.24049693951383294,-0.049267759807666914,0.5146971038853126,0.13893025948976453
-0.467389851808548,0.08846046775579453,-119.3230209350586,-0.24049693951383294,-0.049267759807666914,0.5146971038853126,0.13893025948976453
1.7367756366729736,-0.6483569741249084,-121.17092895507812,-0.24049693951383294,-0.049267759807666914,0.5146971038853126,0.13893025948976453
1.1702390909194946,-0.963029146194458,-122.69668579101562,-0.24049693951383294,-0.049267759807666914,0.5146971038853126,0.13893025948976453
-0.21678096055984497,-0.587256133556366,-123.85294342041016,-0.24049693951383294,-0.049267759807666914,0.5146971038853126,0.13893025948976453
0.6019765734672546,-0.8847370743751526,-124.68790435791016,-0.24049693951383294,-0.049267759807666914,0.5146971038853126,0.13893025948976453
0.9211359024047852,-1.6758123636245728,-125.1578369140625,-0.24049693951383294,-0.049267759807666914,0.5146971038853126,0.13893025948976453
0.7684448957443237,-0.9080243706703186,-125.23038482666016,-0.24049693951383294,-0.049267759807666914,0.5146971038853126,0.13893025948976453
0.4109020233154297,-0.27986806631088257,-125.07319641113281,-0.24049693951383294,-0.049267759807666914,0.5146971038853126,0.13893025948976453
-0.5198517441749573,0.41253021359443665,-124.90339660644531,-0.24049693951383294,-0.049267759807666914,0.5146971038853126,0.13893025948976453
-0.19174151122570038,0.8501965999603271,-124.89383697509766,-0.24049693951383294,-0.049267759807666914,0.5146971038853126,0.13893025948976453
0.4855853021144867,0.0235145166516304,-124.93051147460938,-0.24049693951383294,-0.049267759807666914,0.5146971038853126,0.13893025948976453
-0.24465258419513702,0.3917582929134369,-124.91189575195312,-0.24049693951383294,-0.049267759807666914,0.5146971038853126,0.13893025948976453
0.144688218832016,-0.034092411398887634,-124.91010284423828,-0.24049693951383294,-0.049267759807666914,0.5146971038853126,0.13893025948976453
-0.22156409919261932,-0.11167173832654953,-124.92839813232422,-0.24049693951383294,-0.049267759807666914,0.5146971038853126,0.13893025948976453
-0.4156934320926666,-0.30775949358940125,-124.92354583740234,-0.24049693951383294,-0.049267759807666914,0.5146971038853126,0.13893025948976453
-0.20213203132152557,-0.39245304465293884,-124.91542053222656,-0.24049693951383294,-0.049267759807666914,0.5146971038853126,0.13893025948976453
-0.14099238812923431,0.0749812126159668,-124.92618560791016,-0.24049693951383294,-0.049267759807666914,0.5146971038853126,0.13893025948976453
-0.01617700234055519,0.13103263080120087,-124.92053985595703,-0.24049693951383294,-0.049267759807666914,0.5146971038853126,0.13893025948976453
-0.03521156311035156,0.06419774889945984,-124.91976165771484,-0.24049693951383294,-0.049267759807666914,0.5146971038853126,0.13893025948976453
-0.1761457473039627,-0.07879501581192017,-124.9235610961914,-0.24049693951383294,-0.049267759807666914,0.5146971038853126,0.13893025948976453
-0.20490692555904388,-0.13032476603984833,-124.91929626464844,-0.24049693951383294,-0.049267759807666914,0.5146971038853126,0.13893025948976453
-0.12732306122779846,-0.10685890913009644,-124.92178344726562,-0.24049693951383294,-0.049267759807666914,0.5146971038853126,0.13893025948976453
-0.11432860046625137,0,-124.92169952392578,-0.23193543581447315,-0.046959676240415985,0.5126833400378622,0.13803976858034706
-0.08146185427904129,0,-124.92195892333984,-0.2234043100398661,-0.044659013430743535,0.5110517529149847,0.13803976858034706
-0.48489511013031006,-0.5239153504371643,-124.88089752197266,-0.21492611116936702,-0.04239473363151811,0.5063321115449068,0.13367380732670403
-1.2504854202270508,-1.9981411695480347,-124.88838195800781,-0.20660775518044894,-0.04034197965662757,0.4918706071252621,0.1126566696601607
-1.4547065496444702,-2.6812632083892822,-124.7505111694336,-0.19859777228182454,-0.03878932713298165,0.4693273407096661,0.07366163317734972
-1.2074096202850342,-1.073636531829834,-124.65950775146484,-0.19096051911513076,-0.0378223901730966,0.4471430392935869,0.04237080200885709
-0.8577345609664917,-0.9608493447303772,-124.6108627319336,-0.183651547917269,-0.037257493881043435,0.4299335044498242,0.025416753037521996
-0.32039281725883484,-1.7226167917251587,-124.51587677001953,-0.17656780391103757,-0.0370202331454497,0.4201157762979465,0.0030545352337258656
-1.233352780342102,-0.9430575966835022,-124.41069793701172,-0.1696737733059052,-0.037154440501860425,0.4071678963179387,-0.019159418003012976
-1.1283828020095825,-1.6011589765548706,-124.26348876953125,-0.1630516511160473,-0.03765044584171886,0.387486766465008,-0.040361222779999414
-0.9502173662185669,0.07120346277952194,-124.25287628173828,-0.15673788557553522,-0.038429379798731025,0.37016509839644013,-0.053110852061460656
-0.6736478209495544,-1.5896092653274536,-124.34843444824219,-0.15068123568470346,-0.039420005513821195,0.35663288850337244,-0.06576423374936008
-0.7454003691673279,-0.9044175744056702,-124.38958740234375,-0.1448358992228498,-0.04068927238462533,0.3448074869190651,-0.08654779074713612
-1.2413920164108276,-1.306428074836731,-124.35322570800781,-0.13922707946764165,-0.04228526651160832,0.3282508837059138,-0.10497150449082279
0,-0.6157274842262268,-124.4194107055664,-0.13384243918479383,-0.04416827461139029,0.3179059502358236,-0.1209894674830141
-0.44846072793006897,-0.1712176501750946,-124.58692932128906,-0.12857514978696968,-0.046239414703773955,0.314168777503073,-0.1275473436030251
-1.0767329931259155,-2.0722081661224365,-124.5916519165039,-0.12344491972588069,-0.04852099722328948,0.30145882982760647,-0.14624255873883787
0.6158187985420227,0.18636462092399597,-124.65218353271484,-0.11845261382560002,-0.05108933455957556,0.29761787820607405,-0.16195792161549155
-1.7923107147216797,-0.3576764166355133,-124.7049560546875,-0.11357401668301126,-0.05380052990564705,0.28781377890457693,-0.16338551991308753
-0.964318573474884,-0.4984605014324188,-124.66830444335938,-0.10896855295739308,-0.056583075856842115,0.2648418681696056,-0.1705199942303203
0.6042007207870483,-1.386865496635437,-124.6532211303711,-0.10457953000544742,-0.059556001177213276,0.2618408860638736,-0.1862310442142191
-1.408180594444275,-0.29549849033355713,-124.59748840332031,-0.10027134717338684,-0.06277668274654533,0.25514105378339674,-0.20025074410562738
-0.6151286363601685,-0.13129296898841858,-124.55323791503906,-0.09615950386246942,-0.06614383344409203,0.23828014352669305,-0.20380733959997718
0,-0.6769630908966064,-124.53142547607422,-0.09223088540343843,-0.06959675133047255,0.23315407155702497,-0.21054280676568574
0.5075393915176392,0.1967131495475769,-124.63491821289062,-0.08830973841974374,-0.0731391488002721,0.23738356648633863,-0.21454488961026097
-0.8043630123138428,-0.652217447757721,-124.74064636230469,-0.08437395839641561,-0.07674652920337438,0.23491003631303692,-0.21834075876201217
0.09173068404197693,-1.0636740922927856,-124.84434509277344,-0.08050827948066165,-0.08050470098413365,0.22897143357743804,-0.23263985492909972
-0.31511539220809937,-0.5184053182601929,-124.9720687866211,-0.07670760174799367,-0.0844918985253515,0.22710989434272036,-0.2458238500170412
-2.238236427307129,-0.49461451172828674,-124.90702056884766,-0.0730997529408591,-0.08865931129160694,0.20583196251342678,-0.2542656819336119
0.3957362771034241,-0.9809514284133911,-124.76519775390625,-0.06979717163162169,-0.09299954251412142,0.1904777945950626,-0.2665620647681259
0,-0.19494476914405823,-124.69841003417969,-0.06659506003579402,-0.09752390305175389,0.1937755969042578,-0.2763611997477713
0.12052728235721588,0.49026840925216675,-124.6077880859375,-0.06335709680389269,-0.10210941446143146,0.19477999092390128,-0.27390016941353706
-0.7246249318122864,-0.07223872095346451,-124.5254135131836,-0.06015271484748427,-0.10664538744552522,0.189745843845109,-0.27041658867771456
-0.8090482950210571,0.16583086550235748,-124.50170135498047,-0.05709678920192922,-0.11114583113567124,0.17696523362149782,-0.26963665413980714
1.642805814743042,0.2562229335308075,-124.3973617553711,-0.05408946881381245,-0.11561046607973517,0.18391321295251437,-0.2661195391478641
-0.19135349988937378,-1.7071481943130493,-124.24085235595703,-0.0509234532982946,-0.120146550430865,0.19600864890962827,-0.2782105829877161
-1.1363017559051514,0,-124.22502136230469,-0.047748840764786527,-0.12490194543859867,0.18494485511134057,-0.29243681794032483
-0.7293746471405029,-0.24374060332775116,-124.18954467773438,-0.044795987374253464,-0.1297928188350574,0.16939755175262677,-0.29446798963472276
-0.16617347300052643,-0.7769984602928162,-124.07369232177734,-0.04203488568671948,-0.13477150331949864,0.16193465075145153,-0.3029741484982275
-0.2974346876144409,0.08217711001634598,-123.99117279052734,-0.03936816985201577,-0.13986932394379384,0.15807124941299347,-0.3087643264171981
-0.6161717772483826,-0.060396719723939896,-123.9978256225586,-0.036797093921859134,-0.1450138835236435,0.15045786220580326,-0.3085828231647614
-0.3837660551071167,-0.13626809418201447,-124.03520202636719,-0.03435890301234266,-0.150170587855133,0.14212504693617412,-0.31022169661397764
0.46385857462882996,0.06924565136432648,-124.11970520019531,-0.03198459024955075,-0.15534560380167273,0.14279248459885505,-0.3107802169707917
0.8252764344215393,-1.1767699718475342,-124.20006561279297,-0.029515192241719113,-0.16060218549566393,0.15353527634094147,-0.3200095863081518
-0.6178695559501648,0.25004440546035767,-124.1920166015625,-0.026941867713920688,-0.16600003454291,0.1552636669948696,-0.32773229936137827
-0.66972416639328,-0.05123502388596535,-124.11898040771484,-0.024443556161391156,-0.17144843332521253,0.14453371930867423,-0.326075554514925
-0.4882349371910095,0.1071309968829155,-124.08687591552734,-0.02211507466621772,-0.17687914423566983,0.1348840601121385,-0.3256097547399504
0,-0.40733814239501953,-124.06492614746094,-0.019900912201653673,-0.182326821199774,0.13081543563554673,-0.32811148095255127
0.23552650213241577,-0.06635532528162003,-123.97161102294922,-0.017704298933968698,-0.1878282412620163,0.1327781564866502,-0.33205892651652325
0.057842716574668884,0.8525159358978271,-124.03999328613281,-0.015470956796780979,-0.19330796221711002,0.13522289997587592,-0.3255075880947215
-0.39965200424194336,0.3848491609096527,-124.210205078125,-0.013240978553271051,-0.19864716055363263,0.1323744892453153,-0.31519621228799255
0.46261441707611084,-1.045617699623108,-124.38322448730469,-0.01103036467606898,-0.20394631746250982,0.13289917601893336,-0.32070261677727135
-0.9663706421852112,-1.0089160203933716,-124.50946044921875,-0.008850361480274889,-0.20943403702824326,0.12870120747635752,-0.33782373111074204
-0.21822009980678558,-0.22538000345230103,-124.41819763183594,-0.006787604601640596,-0.21515014754841158,0.11882961795975755,-0.348109531309456
0.23207812011241913,0.09472201019525528,-124.30223083496094,-0.004806148606456746,-0.2209610465419898,0.1189451014623045,-0.3491983479199314
-0.9318622946739197,0.20799045264720917,-124.17021942138672,-0.002872326371985108,-0.22675999730851348,0.113113566674292,-0.34667574406291085
-0.33086326718330383,1.7033730745315552,-124.17536926269531,-0.0010747895358758821,-0.23240519279795235,0.10259085365881514,-0.3307477146697545
0.8484813570976257,0,-124.22823333740234,0.0006710037257928649,-0.23779936491227247,0.10690433774143449,-0.3165529390486582
-0.17179548740386963,-1.4037903547286987,-124.17185974121094,0.002499734762434395,-0.24317273267105072,0.11254338665554912,-0.3282511920047307
1.0931942462921143,1.307222843170166,-124.1805419921875,0.004439443898283008,-0.24865029194832114,0.1202217096462845,-0.32905592126771843
-1.02562415599823,-1.1001121997833252,-124.1990966796875,0.006447831426435936,-0.2541201746192146,0.12078479373206687,-0.32732999923949474
-1.453440546989441,-0.775632917881012,-124.20297241210938,0.008288754050929574,-0.2597059346841551,0.10012592120716961,-0.3429612085533642
-0.5329992175102234,-0.42654746770858765,-124.03921508789062,0.009819572198514369,-0.26550543957571043,0.08357225650300573,-0.35297937843327754
-0.3536849319934845,0.2348756343126297,-123.99382019042969,0.011150867852071152,-0.2714017397602509,0.07618322192380816,-0.3545766437115772
-0.07162260264158249,0.5920494794845581,-123.95512390136719,0.012391052972007186,-0.2772539251336524,0.07263899246851593,-0.3476856010966006
1.193662166595459,-0.5153272151947021,-123.95391845703125,0.013679622260645915,-0.28304335721690893,0.08198932216813157,-0.34704624889418517
0.5934306979179382,-0.26050156354904175,-124.0040283203125,0.015170214634594871,-0.28888133836366925,0.09688176270574321,-0.3535114887170497
-1.0279959440231323,0.6813330054283142,-124.01668548583984,0.016754732537599952,-0.29474397210326736,0.09326038565486659,-0.3500045600347224
-0.559274435043335,-0.2380443662405014,-123.83802795410156,0.018198845188857,-0.30054659750390245,0.08003313249597936,-0.3463104880414906
-1.12294340133667,-0.46780410408973694,-123.75933074951172,0.019415910047374713,-0.30636745622614464,0.06601465052614598,-0.3521925586275759
0.11704239249229431,0.3975580930709839,-123.63121795654297,0.020446299986085176,-0.31224221039848055,0.05763214211910952,-0.3527779420527322
1.0070385932922363,-0.20908384025096893,-123.58486938476562,0.021484896867638704,-0.3181087542762469,0.06699948366731394,-0.3512073232792321
0.3806804120540619,0.2124682515859604,-123.70258331298828,0.022697924304131874,-0.32396197463566917,0.07856380871186643,-0.3511791198514405
0.2154669165611267,-0.660692572593689,-123.9353256225586,0.024048720236039035,-0.32984608665548537,0.083531703116993,-0.3549143225265049
-0.6964828968048096,-0.19694367051124573,-124.01899719238281,0.025407511400471997,-0.3358208834366983,0.0795232366149623,-0.362061291219046
-1.332698941230774,-0.08424815535545349,-123.95277404785156,0.0265919832719689,-0.3418747655004787,0.06261338796466577,-0.36440455643460185
0.7585113644599915,0,-123.71165466308594,0.02759566560077091,-0.34795402534073283,0.057828491491575915,-0.3651066243958973
0.17143447697162628,0.8913446664810181,-123.53115844726562,0.02759566560077091,-0.34795402534073283,0.057828491491575915,-0.3651066243958973
-0.8882279992103577,-0.15343695878982544,-123.47747039794922,0.02759566560077091,-0.34795402534073283,0.057828491491575915,-0.3651066243958973
1.4940807819366455,0.8768911957740784,-123.4974594116211,0.02759566560077091,-0.34795402534073283,0.057828491491575915,-0.3651066243958973
-0.45716410875320435,0.254208505153656,-123.42567443847656,0.02759566560077091,-0.34795402534073283,0.057828491491575915,-0.3651066243958973
1.6311978101730347,3.069164276123047,-123.7643814086914,0.02759566560077091,-0.34795402534073283,0.057828491491575915,-0.3651066243958973
-0.032286353409290314,1.1412334442138672,-124.41014862060547,0.02759566560077091,-0.34795402534073283,0.057828491491575915,-0.3651066243958973
0.22867687046527863,1.642394781112671,-125.22512817382812,0.02759566560077091,-0.34795402534073283,0.057828491491575915,-0.3651066243958973
-0.41298767924308777,1.5242942571640015,-126.21531677246094,0.02759566560077091,-0.34795402534073283,0.057828491491575915,-0.3651066243958973
1.112647533416748,2.2872507572174072,-127.47003173828125,0.02759566560077091,-0.34795402534073283,0.057828491491575915,-0.3651066243958973
0.7256260514259338,1.7933263778686523,-128.95985412597656,0.02759566560077091,-0.34795402534073283,0.057828491491575915,-0.3651066243958973
0.6767520308494568,1.716863989830017,-130.5618896484375,0.02759566560077091,-0.34795402534073283,0.057828491491575915,-0.3651066243958973
0.48814067244529724,1.0961089134216309,-132.3436279296875,0.02759566560077091,-0.34795402534073283,0.057828491491575915,-0.3651066243958973
-0.37432757019996643,1.0518438816070557,-134.26658630371094,0.02759566560077091,-0.34795402534073283,0.057828491491575915,-0.3651066243958973
0.6386959552764893,0.9192829132080078,-136.3123321533203,0.02759566560077091,-0.34795402534073283,0.057828491491575915,-0.3651066243958973
0.8737829923629761,1.438720941543579,-138.47366333007812,0.02759566560077091,-0.34795402534073283,0.057828491491575915,-0.3651066243958973
0.24211937189102173,1.2625820636749268,-140.75384521484375,0.02759566560077091,-0.34795402534073283,0.057828491491575915,-0.3651066243958973
0.7984122633934021,1.5342391729354858,-143.1018524169922,0.02759566560077091,-0.34795402534073283,0.057828491491575915,-0.3651066243958973
0.7107519507408142,1.268160343170166,-145.52359008789062,0.02759566560077091,-0.34795402534073283,0.057828491491575915,-0.3651066243958973
-0.4315929710865021,0.6284838914871216,-148.02203369140625,0.02759566560077091,-0.34795402534073283,0.057828491491575915,-0.3651066243958973
-0.1672360748052597,0.9613249897956848,-150.47329711914062,0.02759566560077091,-0.34795402534073283,0.057828491491575915,-0.3651066243958973
1.2891693115234375,-0.9649075269699097,-153.0056610107422,0.02759566560077091,-0.34795402534073283,0.057828491491575915,-0.3651066243958973
0.2714022696018219,1.7408065795898438,-155.50424194335938,0.02759566560077091,-0.34795402534073283,0.057828491491575915,-0.3651066243958973
0.8044337034225464,0.7102441191673279,-158.11325073242188,0.02759566560077091,-0.34795402534073283,0.057828491491575915,-0.3651066243958973
-0.773169755935669,1.32145357131958,-160.7261962890625,0.02759566560077091,-0.34795402534073283,0.057828491491575915,-0.3651066243958973
0.569544792175293,1.259592890739441,-163.40106201171875,0.02759566560077091,-0.34795402534073283,0.057828491491575915,-0.3651066243958973
1.1203219890594482,0.5623899102210999,-166.10426330566406,0.02759566560077091,-0.34795402534073283,0.057828491491575915,-0.3651066243958973
-0.30705127120018005,0.38275185227394104,-168.8417205810547,0.02759566560077091,-0.34795402534073283,0.057828491491575915,-0.3651066243958973
-0.4441980719566345,1.0928350687026978,-171.66278076171875,0.02759566560077091,-0.34795402534073283,0.057828491491575915,-0.3651066243958973
1.73996901512146,0.8284426927566528,-174.50241088867188,0.02759566560077091,-0.34795402534073283,0.057828491491575915,-0.3651066243958973
-0.08293406665325165,0.14022518694400787,-177.35952758789062,0.02759566560077091,-0.34795402534073283,0.057828491491575915,-0.3651066243958973
0.32412129640579224,0.5392041206359863,179.7217254638672,0.02759566560077091,-0.34795402534073283,0.057828491491575915,-0.3651066243958973
-0.4211002290248871,1.6906486749649048,176.8051300048828,0.02759566560077091,-0.34795402534073283,0.057828491491575915,-0.3651066243958973
1.484153151512146,-0.17890827357769012,173.82098388671875,0.02759566560077091,-0.34795402534073283,0.057828491491575915,-0.3651066243958973
0.4265112578868866,0.1005982980132103,170.78195190429688,0.02759566560077091,-0.34795402534073283,0.057828491491575915,-0.3651066243958973
0.040215227752923965,0.020165668800473213,167.9381561279297,0.02759566560077091,-0.34795402534073283,0.057828491491575915,-0.3651066243958973
1.2659474611282349,-0.4468936622142792,165.40301513671875,0.02759566560077091,-0.34795402534073283,0.057828491491575915,-0.3651066243958973
-0.782507598400116,1.6972545385360718,163.31436157226562,0.02759566560077091,-0.34795402534073283,0.057828491491575915,-0.3651066243958973
0.05603300407528877,-0.07612943649291992,161.72364807128906,0.02759566560077091,-0.34795402534073283,0.057828491491575915,-0.3651066243958973
-1.0728174448013306,-1.2548171281814575,160.54254150390625,0.02759566560077091,-0.34795402534073283,0.057828491491575915,-0.3651066243958973
-0.5288442969322205,-1.030169129371643,159.63369750976562,0.02759566560077091,-0.34795402534073283,0.057828491491575915,-0.3651066243958973
-0.22989869117736816,-0.9780293107032776,159.14593505859375,0.02759566560077091,-0.34795402534073283,0.057828491491575915,-0.3651066243958973
-0.3808068335056305,-1.0815430879592896,159.00469970703125,0.02759566560077091,-0.34795402534073283,0.057828491491575915,-0.3651066243958973
1.0344346761703491,-0.4785449802875519,159.05447387695312,0.02759566560077091,-0.34795402534073283,0.057828491491575915,-0.3651066243958973
1.3609241247177124,0.07502016425132751,159.13137817382812,0.02759566560077091,-0.34795402534073283,0.057828491491575915,-0.3651066243958973
0.06659962236881256,-0.2648996114730835,159.12596130371094,0.02759566560077091,-0.34795402534073283,0.057828491491575915,-0.3651066243958973
-0.13079215586185455,0.3549978733062744,159.09532165527344,0.02759566560077091,-0.34795402534073283,0.057828491491575915,-0.3651066243958973
-0.5969089865684509,0.35015806555747986,159.0965118408203,0.02759566560077091,-0.34795402534073283,0.057828491491575915,-0.3651066243958973
-0.586652398109436,0.19603195786476135,159.09555053710938,0.02759566560077091,-0.34795402534073283,0.057828491491575915,-0.3651066243958973
-0.1065070778131485,0.2564127743244171,159.10203552246094,0.02759566560077091,-0.34795402534073283,0.057828491491575915,-0.3651066243958973
0.2639611065387726,-0.04274260625243187,159.11781311035156,0.02759566560077091,-0.34795402534073283,0.057828491491575915,-0.3651066243958973
0.31648239493370056,-0.030187545344233513,159.11753845214844,0.02759566560077091,-0.34795402534073283,0.057828491491575915,-0.3651066243958973
0.0948677733540535,0.09563503414392471,159.10565185546875,0.02759566560077091,-0.34795402534073283,0.057828491491575915,-0.3651066243958973
-0.2124028205871582,0.16932673752307892,159.10574340820312,0.02759566560077091,-0.34795402534073283,0.057828491491575915,-0.3651066243958973
-0.3224337100982666,0.19027861952781677,159.10145568847656,0.02759566560077091,-0.34795402534073283,0.057828491491575915,-0.3651066243958973
-0.12021521478891373,0.1609027087688446,159.1079864501953,0.02759566560077091,-0.34795402534073283,0.057828491491575915,-0.3651066243958973
0.10359600931406021,0.057705823332071304,159.11354064941406,0.02759566560077091,-0.34795402534073283,0.057828491491575915,-0.3651066243958973
0.13402806222438812,0.04429877549409866,159.1114044189453,0.02759566560077091,-0.34795402534073283,0.057828491491575915,-0.3651066243958973
-0.0071081724017858505,0.130421444773674,159.1080322265625,0.02759566560077091,-0.34795402534073283,0.057828491491575915,-0.3651066243958973
-0.14779193699359894,0.1409994661808014,159.10743713378906,0.02759566560077091,-0.34795402534073283,0.057828491491575915,-0.3651066243958973
-0.13861137628555298,0.1733400970697403,159.10646057128906,0.02759566560077091,-0.34795402534073283,0.057828491491575915,-0.3651066243958973
-0.0388515405356884,0.1068214550614357,159.1103057861328,0.02759566560077091,-0.34795402534073283,0.057828491491575915,-0.3651066243958973
0,0.07836247235536575,159.11099243164062,0.028556775768648863,-0.3540262757523716,0.05750472865377851,-0.3635634250007573
0,0.10127521306276321,159.1092529296875,0.029515187912878504,-0.36007319132978577,0.05750472865377851,-0.3620664442889395
-0.1703149974346161,0.1824960857629776,159.1052703857422,0.030461772626730742,-0.3660879257277385,0.056085437008490044,-0.35970168346539166
-0.890796422958374,0.2303377240896225,159.07745361328125,0.03132284161712273,-0.37205428477092195,0.04724284183854846,-0.35626140171662
-0.6552470922470093,0.7132322788238525,159.07794189453125,0.0320028581814315,-0.3779264491048855,0.0343591458785036,-0.34839831835900775
-2.7494733333587646,-0.22389036417007446,159.21295166015625,0.03233907169429504,-0.38369910566679577,0.005986475665122146,-0.3443204690702263
-2.06892991065979,0.8914161324501038,159.4450225830078,0.03210423495232357,-0.389391424195169,-0.03416688470169914,-0.3387577543345594
-1.4233704805374146,1.4113614559173584,159.5539093017578,0.03129226601346211,-0.39487747165710835,-0.06326938796167585,-0.3195679410981639
-1.0711721181869507,0.8733254671096802,159.447509765625,0.030064544089189436,-0.4000449451946453,-0.08405724295104555,-0.30052888340627193
-1.3599382638931274,0.6886536478996277,159.39369201660156,0.02849476293013867,-0.40494528914620753,-0.1043164961350462,-0.28751239078119434
-1.3976800441741943,0.354577898979187,159.4713897705078,0.02656465338982767,-0.4096647156906942,-0.1272966487022739,-0.2788187945572042
-1.0376238822937012,0.07115571200847626,159.5546417236328,0.02427392424989617,-0.41428213076588455,-0.14759084808950634,-0.27527101446564034
-1.1007431745529175,0.7739368677139282,159.4512939453125,0.021665579069456715,-0.4188112940222756,-0.16541057356322816,-0.268228576301287
-1.3387176990509033,0.6316092014312744,159.52676391601562,0.01873932917162487,-0.4231841629280509,-0.18573941417659334,-0.25651569239174365
-1.2344251871109009,0,159.6720733642578,0.015464981790475967,-0.4274155627178139,-0.20718227156127506,-0.2512522823798164
-0.31181788444519043,0.6530078053474426,159.68862915039062,0.0119045659400411,-0.43155775299321725,-0.22006763049090916,-0.2458105506685877
-0.43046098947525024,0.24596136808395386,159.6175994873047,0.008185224954503694,-0.43559216708953874,-0.2262532877735795,-0.23831914088999273
-1.9001089334487915,0,159.52366638183594,0.004252491691407644,-0.4395470721204772,-0.2456747037979465,-0.23626946282262645
0.3594965636730194,0.7977412939071655,159.3870849609375,5.0926324651884985e-05,-0.44342949779988855,-0.25851314021274463,-0.2296216187067334
-1.4971566200256348,1.1258984804153442,159.2940216064453,-0.004336630182807235,-0.44712293868289504,-0.26799364068234977,-0.2135912872540458
-1.2303783893585205,0.6313853859901428,159.2602081298828,-0.008992603014275853,-0.45056075986862876,-0.2907230990938844,-0.19894725503400007
-0.9109336733818054,-0.4848482012748718,159.36549377441406,-0.013986690225753115,-0.45386637125914575,-0.3085673662833871,-0.19772611182803948
-1.1080158948898315,0.3084692656993866,159.53359985351562,-0.019269684494939543,-0.45717405499347247,-0.3253919460189841,-0.19919593629116852
0.8364941477775574,0.25057703256607056,159.82608032226562,-0.02471173927213874,-0.46045516460539015,-0.32765462724491967,-0.1945372171389564
-1.6848533153533936,-0.29129907488822937,160.1009979248047,-0.030231563557302388,-0.4637002794773118,-0.3347242869747183,-0.19487656749164103
-0.7104109525680542,0.5831579566001892,160.24526977539062,-0.035976639469931126,-0.46692795429094247,-0.35468482254073036,-0.19244441014404137
0,0.4127346873283386,160.30104064941406,-0.041937387272871635,-0.4700662019152926,-0.36060491381213083,-0.1841453047779703
-1.1456671953201294,-0.11972186714410782,160.33116149902344,-0.048027029391637714,-0.47311494221574596,-0.3701521404397986,-0.18170353127643504
0,0.22096386551856995,160.2760467529297,-0.05427579195419825,-0.476136303709355,-0.3796993670674664,-0.18085984795664786
-0.7432724237442017,-0.1062878966331482,160.1871795654297,-0.06065573087919382,-0.4791426708996821,-0.3858933039320014,-0.1799042148826027
0.19011612236499786,1.4756027460098267,160.0540771484375,-0.0671256995767674,-0.4820459831720743,-0.3905029397768281,-0.1684932578044637
-0.5239407420158386,0.7154936790466309,160.0972137451172,-0.07365726417163472,-0.4847020446615198,-0.39328481160725176,-0.15023412092899321
-0.15117591619491577,-0.6282322406768799,160.1661834716797,-0.08025889413302022,-0.487199886854894,-0.39891078375900807,-0.14950694227591196
-1.363409399986267,-0.7923875451087952,160.22103881835938,-0.08701258673151627,-0.48979032337794987,-0.4115323280605179,-0.16134544049079258
1.360668659210205,1.0207598209381104,160.26751708984375,-0.09387164919507879,-0.4924635548669749,-0.4115551675669851,-0.15944233819221496
-0.6587669849395752,0.21587800979614258,160.32667541503906,-0.10068215881603752,-0.49503504954304417,-0.4057059869480632,-0.14913702293609618
-0.6116875410079956,0.4286874234676361,160.34117126464844,-0.10753215127391827,-0.497475905103558,-0.4162931079976263,-0.14376564432556468
-0.22921887040138245,0.5007036924362183,160.189697265625,-0.11452876601911546,-0.4998074581259352,-0.4233006614260378,-0.13602071835969923
-0.8806504011154175,0.08439848572015762,160.01573181152344,-0.1216608512978492,-0.5020338380028916,-0.4325495720220111,-0.13114486687506277
-0.13538330793380737,0.22497938573360443,159.8609161376953,-0.12894056872801113,-0.5041981012097361,-0.44101651959742133,-0.1285667179462814
-0.44170281291007996,0.23905187845230103,159.85691833496094,-0.13633091947969342,-0.5063086554488279,-0.4458255706044537,-0.1246997907447322
-0.3507704436779022,-0.3712224066257477,159.9791259765625,-0.14381637852147514,-0.5083961638034743,-0.4524295144093536,-0.12580121181284426
0.12314781546592712,0,160.1191864013672,-0.15137267755525685,-0.5105186300008152,-0.4543263696444534,-0.12889473186805883
0.4352238178253174,0.6237648725509644,160.18624877929688,-0.15890600790813028,-0.5126235585269112,-0.44967327270035967,-0.12369669126346747
0,-0.5241640210151672,160.0698699951172,-0.1663703385768984,-0.5146782533221679,-0.44604640755181535,-0.12286668416733583
-0.5954947471618652,-0.18699808418750763,159.8684539794922,-0.1738457991713149,-0.5167754176489292,-0.45100886377816424,-0.12879303504402478
-0.4271160960197449,0.4640704095363617,159.85610961914062,-0.18143362820950526,-0.5189027270992915,-0.45953062080467766,-0.126484098999451
-0.7664042115211487,1.2195498943328857,159.96737670898438,-0.18917535524427356,-0.5208938773392915,-0.46947662336751844,-0.11245392980054061
0.4864024817943573,-0.8498817086219788,160.2252655029297,-0.19701941019829655,-0.5227424381008483,-0.4718099711152417,-0.10937336158628305
-0.6811074018478394,-0.911540150642395,160.50979614257812,-0.20489643089188764,-0.5246876484230686,-0.4734325121156874,-0.12405187708015283
0.3457781672477722,0.10111545771360397,160.6708221435547,-0.2128102595128852,-0.5268114592003023,-0.47622692240402126,-0.13080541618789276
0.6347880363464355,0.32733145356178284,160.6641845703125,-0.22067928001103596,-0.528961796212373,-0.4680555373740695,-0.12723502526059788
-0.523535966873169,0.41705068945884705,160.5945587158203,-0.22847247979577925,-0.5310306867623399,-0.4671284367951256,-0.12103184073542596
-0.6819838881492615,0,160.5277862548828,-0.23634167039896345,-0.5330189222544957,-0.4771744355869792,-0.1175564183232689
0.8489096760749817,0.5120369791984558,160.46043395996094,-0.24428298559014047,-0.5349426377696613,-0.47578338735426484,-0.1132894434966151
-1.3671547174453735,1.5200642347335815,160.48851013183594,-0.25224869795169563,-0.5366896770214152,-0.48010209603235143,-0.09635526671384811
0.17196619510650635,-1.3241052627563477,160.5572967529297,-0.260333398755175,-0.5382819898713699,-0.49006200038517533,-0.0947222752807045
-0.05203494057059288,-0.49547311663627625,160.6922607421875,-0.2684927702022518,-0.5399870540690617,-0.48906257326404273,-0.1098854284423097
0,1.2629752159118652,160.82106018066406,-0.2766474266275255,-0.5417651791195394,-0.48949619776879766,-0.10348957761501312
0.09207160025835037,0.1692734956741333,160.8290252685547,-0.2847993027292097,-0.5433905436970405,-0.4887289344333114,-0.0915541716851298
0.12067107111215591,-0.5881977677345276,160.630615234375,-0.292930011173142,-0.544945538521797,-0.4869560788385572,-0.0950452072856331
0.07673864811658859,-0.3324853181838989,160.42933654785156,-0.3010322368121715,-0.5465935616353018,-0.4853109978449843,-0.10271756633495331
-0.22886882722377777,0.8891175389289856,160.22418212890625,-0.3091313180386926,-0.5482668660588882,-0.48657874933754425,-0.09807896449541093
-0.3932318091392517,0.892959713935852,160.20724487304688,-0.3172841652940658,-0.5497777601023628,-0.49176292130723614,-0.08322832072153728
-0.9286730289459229,-0.08757613599300385,160.33828735351562,-0.32557201292960897,-0.5511089693659201,-0.502778794957946,-0.07651679090534688
0.6887569427490234,-0.30308547616004944,160.4569549560547,-0.32557201292960897,-0.5511089693659201,-0.502778794957946,-0.07651679090534688
0.11960329115390778,0.5968747138977051,160.48536682128906,-0.32557201292960897,-0.5511089693659201,-0.502778794957946,-0.07651679090534688
0.914599597454071,-0.8483276963233948,160.31105041503906,-0.32557201292960897,-0.5511089693659201,-0.502778794957946,-0.07651679090534688
0.8929070830345154,0.1904977709054947,160.0551300048828,-0.32557201292960897,-0.5511089693659201,-0.502778794957946,-0.07651679090534688
1.0666966438293457,-1.1883137226104736,159.6170654296875,-0.32557201292960897,-0.5511089693659201,-0.502778794957946,-0.07651679090534688
2.797823667526245,-0.6804789304733276,158.8791961669922,-0.32557201292960897,-0.5511089693659201,-0.502778794957946,-0.07651679090534688
2.166541576385498,-0.7630060315132141,157.9383087158203,-0.32557201292960897,-0.5511089693659201,-0.502778794957946,-0.07651679090534688
1.4640038013458252,0.6102231740951538,156.7729034423828,-0.32557201292960897,-0.5511089693659201,-0.502778794957946,-0.07651679090534688
1.9486864805221558,-0.15788555145263672,155.34527587890625,-0.32557201292960897,-0.5511089693659201,-0.502778794957946,-0.07651679090534688
2.027279853820801,0.04946282505989075,153.72996520996094,-0.32557201292960897,-0.5511089693659201,-0.502778794957946,-0.07651679090534688
2.1405534744262695,-0.7118834853172302,151.93475341796875,-0.32557201292960897,-0.5511089693659201,-0.502778794957946,-0.07651679090534688
1.175286889076233,0.6176099181175232,149.9899139404297,-0.32557201292960897,-0.5511089693659201,-0.502778794957946,-0.07651679090534688
1.5845930576324463,-1.1940879821777344,147.8909454345703,-0.32557201292960897,-0.5511089693659201,-0.502778794957946,-0.07651679090534688
0.6561098098754883,1.8048259019851685,145.77545166015625,-0.32557201292960897,-0.5511089693659201,-0.502778794957946,-0.07651679090534688
1.3916882276535034,-1.2852506637573242,143.583984375,-0.32557201292960897,-0.5511089693659201,-0.502778794957946,-0.07651679090534688
1.485774040222168,0.6354778409004211,141.29917907714844,-0.32557201292960897,-0.5511089693659201,-0.502778794957946,-0.07651679090534688
2.0512406826019287,-0.7856459617614746,138.93003845214844,-0.32557201292960897,-0.5511089693659201,-0.502778794957946,-0.07651679090534688
0.22088705003261566,0.14259113371372223,136.431396484375,-0.32557201292960897,-0.5511089693659201,-0.502778794957946,-0.07651679090534688
0.6342852711677551,0.0031217304058372974,133.8983917236328,-0.32557201292960897,-0.5511089693659201,-0.502778794957946,-0.07651679090534688
0.8441817164421082,-0.19202561676502228,131.30494689941406,-0.32557201292960897,-0.5511089693659201,-0.502778794957946,-0.07651679090534688
1.1455565690994263,0.011476071551442146,128.6368865966797,-0.32557201292960897,-0.5511089693659201,-0.502778794957946,-0.07651679090534688
1.4039226770401,-0.3861863315105438,125.88845825195312,-0.32557201292960897,-0.5511089693659201,-0.502778794957946,-0.07651679090534688
0.9789360165596008,-0.05172024667263031,123.04781341552734,-0.32557201292960897,-0.5511089693659201,-0.502778794957946,-0.07651679090534688
0.8152979016304016,1.0058485269546509,120.17874908447266,-0.32557201292960897,-0.5511089693659201,-0.502778794957946,-0.07651679090534688
0.7174692749977112,-0.9334499835968018,117.28385925292969,-0.32557201292960897,-0.5511089693659201,-0.502778794957946,-0.07651679090534688
0.7941667437553406,-0.43255341053009033,114.39276123046875,-0.32557201292960897,-0.5511089693659201,-0.502778794957946,-0.07651679090534688
0.5361800789833069,-0.8666656613349915,111.45323181152344,-0.32557201292960897,-0.5511089693659201,-0.502778794957946,-0.07651679090534688
1.6567562818527222,0.695288896560669,108.49226379394531,-0.32557201292960897,-0.5511089693659201,-0.502778794957946,-0.07651679090534688
-0.4000377953052521,-0.3118266463279724,105.50508117675781,-0.32557201292960897,-0.5511089693659201,-0.502778794957946,-0.07651679090534688
1.1035186052322388,-1.3355307579040527,102.47921752929688,-0.32557201292960897,-0.5511089693659201,-0.502778794957946,-0.07651679090534688
0.24722854793071747,-0.3240944743156433,99.49684143066406,-0.32557201292960897,-0.5511089693659201,-0.502778794957946,-0.07651679090534688
0.4283973276615143,0.10375603288412094,96.46676635742188,-0.32557201292960897,-0.5511089693659201,-0.502778794957946,-0.07651679090534688
0.8816339373588562,-0.2907455563545227,93.42432403564453,-0.32557201292960897,-0.5511089693659201,-0.502778794957946,-0.07651679090534688
1.0351184606552124,-0.45449092984199524,90.37823486328125,-0.32557201292960897,-0.5511089693659201,-0.502778794957946,-0.07651679090534688
0.07236158102750778,-0.818586528301239,87.3012466430664,-0.32557201292960897,-0.5511089693659201,-0.502778794957946,-0.07651679090534688
1.3067115545272827,-0.04837746173143387,84.26293182373047,-0.32557201292960897,-0.5511089693659201,-0.502778794957946,-0.07651679090534688
-0.19124455749988556,-0.30676785111427307,81.19403839111328,-0.32557201292960897,-0.5511089693659201,-0.502778794957946,-0.07651679090534688
-0.5646970272064209,-0.6383777260780334,78.2635498046875,-0.32557201292960897,-0.5511089693659201,-0.502778794957946,-0.07651679090534688
-0.744333028793335,-0.6817678213119507,75.63549041748047,-0.32557201292960897,-0.5511089693659201,-0.502778794957946,-0.07651679090534688
1.290242314338684,0.31863510608673096,73.42005920410156,-0.32557201292960897,-0.5511089693659201,-0.502778794957946,-0.07651679090534688
-0.12181038409471512,-0.6382204294204712,71.61239624023438,-0.32557201292960897,-0.5511089693659201,-0.502778794957946,-0.07651679090534688
-0.7237309217453003,0.6122943162918091,70.2481689453125,-0.32557201292960897,-0.5511089693659201,-0.502778794957946,-0.07651679090534688
-1.639493465423584,0.333173006772995,69.29350280761719,-0.32557201292960897,-0.5511089693659201,-0.502778794957946,-0.07651679090534688
-0.8101664185523987,1.3970521688461304,68.72673797607422,-0.32557201292960897,-0.5511089693659201,-0.502778794957946,-0.07651679090534688
-0.5907158255577087,0.9758139848709106,68.5554428100586,-0.32557201292960897,-0.5511089693659201,-0.502778794957946,-0.07651679090534688
-0.20656384527683258,0.8458222150802612,68.65489196777344,-0.32557201292960897,-0.5511089693659201,-0.502778794957946,-0.07651679090534688
0.5277694463729858,0.13516999781131744,68.81299591064453,-0.32557201292960897,-0.5511089693659201,-0.502778794957946,-0.07651679090534688
0.35005754232406616,-0.6596212983131409,68.8537826538086,-0.32557201292960897,-0.5511089693659201,-0.502778794957946,-0.07651679090534688
-0.4314837157726288,-0.27373191714286804,68.79113006591797,-0.32557201292960897,-0.5511089693659201,-0.502778794957946,-0.07651679090534688
0.3409523069858551,-0.3917728364467621,68.81198120117188,-0.32557201292960897,-0.5511089693659201,-0.502778794957946,-0.07651679090534688
0.020702796056866646,-0.03820837661623955,68.83235931396484,-0.32557201292960897,-0.5511089693659201,-0.502778794957946,-0.07651679090534688
0.10458861291408539,0.2479693740606308,68.82000732421875,-0.32557201292960897,-0.5511089693659201,-0.502778794957946,-0.07651679090534688
0.44065356254577637,0.21583238244056702,68.8169937133789,-0.32557201292960897,-0.5511089693659201,-0.502778794957946,-0.07651679090534688
0.04178670048713684,0.1218494325876236,68.83036804199219,-0.32557201292960897,-0.5511089693659201,-0.502778794957946,-0.07651679090534688
0.06132407486438751,-0.1707015186548233,68.81837463378906,-0.32557201292960897,-0.5511089693659201,-0.502778794957946,-0.07651679090534688
0.13703791797161102,-0.0975450649857521,68.81739044189453,-0.32557201292960897,-0.5511089693659201,-0.502778794957946,-0.07651679090534688
0.14553488790988922,0.11516687273979187,68.8254165649414,-0.32557201292960897,-0.5511089693659201,-0.502778794957946,-0.07651679090534688
0.16379708051681519,0.12774114310741425,68.81818389892578,-0.32557201292960897,-0.5511089693659201,-0.502778794957946,-0.07651679090534688
0.18081799149513245,0.02190304361283779,68.820068359375,-0.32557201292960897,-0.5511089693659201,-0.502778794957946,-0.07651679090534688
0.10176894068717957,0.0011499300599098206,68.82252502441406,-0.32557201292960897,-0.5511089693659201,-0.502778794957946,-0.07651679090534688
0.1288740038871765,-0.025504466146230698,68.81822204589844,-0.32557201292960897,-0.5511089693659201,-0.502778794957946,-0.07651679090534688
0.158767431974411,0.019375279545783997,68.81953430175781,-0.32557201292960897,-0.5511089693659201,-0.502778794957946,-0.07651679090534688
0.14108970761299133,0.09456610679626465,68.81929779052734,-0.32557201292960897,-0.5511089693659201,-0.502778794957946,-0.07651679090534688
0.14836271107196808,0.032704200595617294,68.81754302978516,-0.32557201292960897,-0.5511089693659201,-0.502778794957946,-0.07651679090534688
0.13022351264953613,0,68.81990051269531,-0.3339323132467052,-0.5523819780893012,-0.5004572430936001,-0.0762442559003834
0.22131399810314178,0.15307003259658813,68.81072235107422,-0.3422488549711296,-0.5536420858242662,-0.4975277638373278,-0.07496867229541183
0.5361190438270569,1.0109580755233765,68.8070297241211,-0.3504883848516177,-0.5548107284105703,-0.4912158218212428,-0.06526843806107879
1.29294753074646,2.9279351234436035,68.837890625,-0.35854829670318195,-0.55562500146166,-0.47597360036646347,-0.03244432806968729
0.31572550535202026,2.4937541484832764,68.95868682861328,-0.3663694766373384,-0.5557892340633821,-0.46256799173230945,0.012736415863036706
0.6293892860412598,1.09839928150177,68.93775939941406,-0.37401331019458567,-0.5553275053663603,-0.45469203513736545,0.04267102777957876
0.8520097732543945,1.2723579406738281,69.02058410644531,-0.3814886358455351,-0.5544516856518273,-0.44234704297656835,0.06242733796437541
0.7952911853790283,1.3596030473709106,69.12027740478516,-0.38874669066190615,-0.5532284549504736,-0.4286195349879565,0.08436034619808157
0.4603566825389862,2.0395708084106445,69.10315704345703,-0.39580315180976666,-0.5515863954405207,-0.4181558027553064,0.11268679499626119
1.1835955381393433,1.5164825916290283,69.13774108886719,-0.4026582518403635,-0.5494613340378025,-0.40445620091632034,0.14232057332992512
0.37317731976509094,0.6355397701263428,69.16851043701172,-0.40929107929605885,-0.5469398784849596,-0.3914830937671167,0.16025409301121987
-0.15765750408172607,1.4763734340667725,69.05701446533203,-0.4158008308716439,-0.5441223162955925,-0.38968709530308865,0.17785336971282917
0.4322201907634735,0.9445967078208923,69.00865936279297,-0.42227654894012023,-0.5409899705405253,-0.3873990729140741,0.19802812089522637
1.2325854301452637,0.7894070744514465,68.95508575439453,-0.4286175886539028,-0.5375690849296137,-0.3735256927398346,0.2124781524141625
0.18451440334320068,0.8436307907104492,69.0249252319336,-0.43474460715557445,-0.5339143769820748,-0.36171652746076405,0.22608680129051165
0.30862703919410706,1.4687572717666626,69.1300277709961,-0.44073897001307766,-0.5299856811228942,-0.3576070154396198,0.24535670181115424
0.7771649360656738,0.6002441048622131,69.24848937988281,-0.44662368471656716,-0.5257527221082202,-0.34855874897912165,0.2625983799497282
-0.07763973623514175,0.3827247619628906,69.31343841552734,-0.4523844190606754,-0.5213078207155286,-0.3427293723138672,0.27078978717327074
0.2947392165660858,0.9953076839447021,69.32543182373047,-0.45808149891310573,-0.5166989608983417,-0.340920209977776,0.28227339088916736
0.9190863370895386,-0.784231960773468,69.18145751953125,-0.46367920897150927,-0.5119797463471909,-0.3308049970306458,0.28403235524892767
0.7769652605056763,0.8766543865203857,69.01941680908203,-0.4690748442277426,-0.5072394555356986,-0.31667123371735234,0.284802542130152
-0.2871793508529663,0.8428745269775391,68.98450469970703,-0.47431868521263926,-0.502373334770092,-0.31258968447024643,0.2991319497426347
-0.813528299331665,1.1363080739974976,69.00381469726562,-0.4796049513184062,-0.49725035903820264,-0.321762248221785,0.3156251380840933
1.0181210041046143,0.8341127634048462,69.03260040283203,-0.4849534476287156,-0.49185310528975923,-0.32005730901534374,0.33204531172911284
0.4759668707847595,0.06496379524469376,69.20093536376953,-0.4901839800098818,-0.48625658088881224,-0.30760657672459896,0.3395376163845257
0,0.17867404222488403,69.4357681274414,-0.4952777030337095,-0.4805807013214681,-0.303640186134726,0.34156793169677213
0.11087152361869812,-0.3378095328807831,69.5648422241211,-0.5003306733912591,-0.4748989535355952,-0.3027162567712368,0.340241802607973
0.32906338572502136,1.295975685119629,69.65585327148438,-0.5053453933020753,-0.4691617175093346,-0.2990501325267058,0.3482265205432967
0.06486545503139496,0.5409063100814819,69.64530944824219,-0.5103022060080235,-0.4632303809172796,-0.295767392187069,0.363533870503306
0.5554104447364807,0.1262182891368866,69.63838195800781,-0.515188587829213,-0.45712515497838985,-0.29059842635567,0.36909324216345907
0.4802699387073517,0.29910457134246826,69.64369201660156,-0.5199599726862906,-0.4509440646325767,-0.2819677564936381,0.3726375993341204
0,-0.0939001813530922,69.59809875488281,-0.524626083215441,-0.44471918767214763,-0.27796550700441014,0.3743476359173652
-0.44221553206443787,-0.1065879538655281,69.61546325683594,-0.5292895510774634,-0.43849398319402616,-0.2816506364382805,0.37267690145721005
0.3776494860649109,1.0622280836105347,69.77828216552734,-0.5339882121046292,-0.4322163376051737,-0.28218868682160986,0.3806405692050851
0.24329924583435059,0.4095006585121155,69.90655517578125,-0.5386482354452742,-0.42577012473355264,-0.2770141140557827,0.3929049753894405
0.5890842080116272,-0.3328448235988617,69.89445495605469,-0.5432073329396868,-0.419216385155193,-0.2700775852737329,0.39354377401371765
0.5583924055099487,0.2936893701553345,69.90027618408203,-0.5476289401516433,-0.41266004138367574,-0.2605152801610531,0.39321747856835493
-0.10208093374967575,-0.5873610377311707,69.90799713134766,-0.5519391731910108,-0.4061268106066737,-0.2567126845630508,0.3907702146718896
0.24614861607551575,0.23430615663528442,69.87838745117188,-0.5562077132335668,-0.39963849139555163,-0.2555121205436688,0.3878280906627572
0.17370182275772095,0.40748998522758484,69.85588836669922,-0.5604370922954868,-0.3931301207079874,-0.25201336688672515,0.3931763918449478
-0.29579395055770874,1.0028482675552368,69.73206329345703,-0.5646457936969183,-0.3864792406874617,-0.2530308012850584,0.40492921061813797
-0.19856621325016022,-0.3265458941459656,69.63536071777344,-0.568897304285267,-0.37968345506789486,-0.25715046931679064,0.4105650637298819
0.8378063440322876,1.181014895439148,69.6820297241211,-0.5731387537647981,-0.37278136588064037,-0.2518234682269396,0.4176856387406584
0.2553504407405853,-0.2812536656856537,69.7945556640625,-0.5772598979029712,-0.3657574551495632,-0.2427138283538323,0.42518364898860417
0.1309712827205658,-0.5003247261047363,69.88970947265625,-0.5812783004780725,-0.3587253372769608,-0.23949448065832268,0.41867049572368426
1.2407573461532593,-0.3818453550338745,69.7002944946289,-0.5851746162231505,-0.35180875749275625,-0.2280634087510408,0.4113190783808625
0,0.33654066920280457,69.50955963134766,-0.5888895093310739,-0.34495658567848014,-0.21772376419976364,0.4109415393322703
-1.4531736373901367,1.0808736085891724,69.4386215209961,-0.5926191535703331,-0.33800912847587344,-0.2298335445113481,0.42275332498053675
0.7359069585800171,-0.22436629235744476,69.47682189941406,-0.5964995228315507,-0.3309037600514595,-0.23581076683476576,0.4298908859491345
0.664002537727356,0.34775659441947937,69.60335540771484,-0.6003324863415532,-0.3237303431813307,-0.22414485436553766,0.43091913846631813
0.12268782407045364,0.192891925573349,69.75728607177734,-0.6040136026391874,-0.3165108125041148,-0.21758910135055592,0.4354245427995917
0,-0.3106215298175812,69.82122802734375,-0.6076315676739139,-0.30926191245774964,-0.21656670281663548,0.4344434627642231
0,0.31442147493362427,69.80957794189453,-0.6112410127208578,-0.3020209241932684,-0.21656670281663548,0.4344751289735234
0.3229420781135559,-0.09291626513004303,69.78916931152344,-0.6148280312345994,-0.2947642897374733,-0.21387551883235584,0.4363210057218866
-0.20339804887771606,0.7657152414321899,69.82218933105469,-0.6183843215464417,-0.2874455508243098,-0.21287931858872383,0.4419276638577378
0.7997108101844788,-0.5556118488311768,69.89753723144531,-0.6218908995811631,-0.2800654992466391,-0.20791004557783413,0.4436785254627462
-0.8951259255409241,-0.5533612966537476,69.99852752685547,-0.6218908995811631,-0.2800654992466391,-0.20791004557783413,0.4436785254627462
-1.0965659618377686,0.6786714792251587,70.1645736694336,-0.6218908995811631,-0.2800654992466391,-0.20791004557783413,0.4436785254627462
0.533929705619812,0.48215141892433167,70.29456329345703,-0.6218908995811631,-0.2800654992466391,-0.20791004557783413,0.4436785254627462
0.8698873519897461,-0.6662428975105286,70.33264923095703,-0.6218908995811631,-0.2800654992466391,-0.20791004557783413,0.4436785254627462
0.4643642008304596,0.27981141209602356,70.32835388183594,-0.6218908995811631,-0.2800654992466391,-0.20791004557783413,0.4436785254627462
0.13576212525367737,-1.3076565265655518,70.27761840820312,-0.6218908995811631,-0.2800654992466391,-0.20791004557783413,0.4436785254627462
1.0443179607391357,0.6382236480712891,70.21149444580078,-0.6218908995811631,-0.2800654992466391,-0.20791004557783413,0.4436785254627462
-0.7622187733650208,-0.13060738146305084,70.0601577758789,-0.6218908995811631,-0.2800654992466391,-0.20791004557783413,0.4436785254627462
-1.411421537399292,-1.3351428508758545,69.83624267578125,-0.6218908995811631,-0.2800654992466391,-0.20791004557783413,0.4436785254627462
0.39860013127326965,-1.761036992073059,69.33140563964844,-0.6218908995811631,-0.2800654992466391,-0.20791004557783413,0.4436785254627462
0.13613373041152954,-2.635070323944092,68.65283966064453,-0.6218908995811631,-0.2800654992466391,-0.20791004557783413,0.4436785254627462
-0.3013400435447693,-2.16385817527771,67.79166412353516,-0.6218908995811631,-0.2800654992466391,-0.20791004557783413,0.4436785254627462
0.37024906277656555,-1.0138497352600098,66.71298217773438,-0.6218908995811631,-0.2800654992466391,-0.20791004557783413,0.4436785254627462
-0.4708586037158966,-1.167802333831787,65.3917236328125,-0.6218908995811631,-0.2800654992466391,-0.20791004557783413,0.4436785254627462
0.02103898860514164,-1.4235680103302002,63.85327911376953,-0.6218908995811631,-0.2800654992466391,-0.20791004557783413,0.4436785254627462
-0.9699862003326416,-2.4429373741149902,62.13385772705078,-0.6218908995811631,-0.2800654992466391,-0.20791004557783413,0.4436785254627462
-0.046242520213127136,-1.4363818168640137,60.23368453979492,-0.6218908995811631,-0.2800654992466391,-0.20791004557783413,0.4436785254627462
0.6539835333824158,-1.2157902717590332,58.215110778808594,-0.6218908995811631,-0.2800654992466391,-0.20791004557783413,0.4436785254627462
-1.070001244544983,-1.529106616973877,56.042755126953125,-0.6218908995811631,-0.2800654992466391,-0.20791004557783413,0.4436785254627462
0.06366843730211258,-1.4340541362762451,53.73124694824219,-0.6218908995811631,-0.2800654992466391,-0.20791004557783413,0.4436785254627462
-0.19319236278533936,-1.838339924812317,51.30562210083008,-0.6218908995811631,-0.2800654992466391,-0.20791004557783413,0.4436785254627462
-0.5304521918296814,-1.1820743083953857,48.7459831237793,-0.6218908995811631,-0.2800654992466391,-0.20791004557783413,0.4436785254627462
-0.7318075895309448,-1.3128695487976074,46.144535064697266,-0.6218908995811631,-0.2800654992466391,-0.20791004557783413,0.4436785254627462
-0.23045824468135834,-1.3422904014587402,43.452781677246094,-0.6218908995811631,-0.2800654992466391,-0.20791004557783413,0.4436785254627462
0.7913296818733215,-0.890219509601593,40.71229934692383,-0.6218908995811631,-0.2800654992466391,-0.20791004557783413,0.4436785254627462
-0.4937213361263275,-0.706818699836731,37.96382141113281,-0.6218908995811631,-0.2800654992466391,-0.20791004557783413,0.4436785254627462
-0.441952109336853,-0.9418495297431946,35.16425323486328,-0.6218908995811631,-0.2800654992466391,-0.20791004557783413,0.4436785254627462
0.6213706135749817,-0.9091432690620422,32.4536018371582,-0.6218908995811631,-0.2800654992466391,-0.20791004557783413,0.4436785254627462
-0.4863571524620056,-1.8364475965499878,29.669782638549805,-0.6218908995811631,-0.2800654992466391,-0.20791004557783413,0.4436785254627462
-0.34688788652420044,-1.1183323860168457,26.80948257446289,-0.6218908995811631,-0.2800654992466391,-0.20791004557783413,0.4436785254627462
-1.2586898803710938,0.2524785101413727,23.908296585083008,-0.6218908995811631,-0.2800654992466391,-0.20791004557783413,0.4436785254627462
-0.11467219889163971,-1.158711314201355,20.960399627685547,-0.6218908995811631,-0.2800654992466391,-0.20791004557783413,0.4436785254627462
