faccX,faccY,yaw,posX,posY,velX,velY
0,0,-106.20819854736328,0.0,0.0,0.0,0.0
0,0,-106.20928955078125,0.0,0.0,0.0,0.0
0,0,-106.21023559570312,0.0,0.0,0.0,0.0
0,-0.45766541361808777,-106.19519805908203,0.0,-3.1782320390144985e-05,0.0,-0.003813878446817398
-0.5271040201187134,-2.165595769882202,-106.14591979980469,-3.660444584157732e-05,-0.00027751787669128843,-0.004392533500989278,-0.025674388309319816
-0.6075904965400696,-2.005995512008667,-106.09063720703125,-0.00018861156784825853,-0.0009951181875334845,-0.01384832113981247,-0.060437648991743725
-0.7059808969497681,-1.430484652519226,-106.12000274658203,-0.0005106371558374829,-0.002241056793265872,-0.02479474941889445,-0.08907498369614283
-0.40883544087409973,-1.3081721067428589,-106.24079132080078,-0.0010013007807234925,-0.003915824352039231,-0.034084885567426684,-0.11189712335666022
-0.32953885197639465,-1.1238987445831299,-106.29267120361328,-0.0016206581994063327,-0.005949670217103428,-0.04023800467451414,-0.13216438045104345
0.3612411916255951,-0.7814173698425293,-106.30998229980469,-0.002289090059283707,-0.008284723510344823,-0.0399738185107708,-0.14804201473792394
-1.0416810512542725,-1.4750885963439941,-106.3436050415039,-0.003002573135826323,-0.010908792225850953,-0.04564415067434311,-0.16684623112281163
-0.13550738990306854,-1.1359130144119263,-106.37613677978516,-0.0038450581777013013,-0.013870882300866975,-0.055454054350654286,-0.18860457787911097
-0.4531882405281067,-1.2988468408584595,-106.36161804199219,-0.004810174057881038,-0.01718337247769038,-0.06035985127091408,-0.20889424333969753
0.1415562480688095,-1.3532127141952515,-106.21920013427734,-0.00583781268965039,-0.020849114002452956,-0.06295678454140823,-0.23099473963181177
-0.32467910647392273,0,-106.17610931396484,-0.006899809297174216,-0.024792999434802267,-0.06448280836145083,-0.24227151225010554
-0.8431935906410217,-0.9079221487045288,-106.1667709350586,-0.008055625040498044,-0.028893908121519617,-0.0742150808374087,-0.24983753015597662
0,-1.7783597707748413,-106.10960388183594,-0.009351098164916038,-0.03324441431297196,-0.08124169409275055,-0.2722232128183047
-0.6552140712738037,-0.40919801592826843,-106.0518569946289,-0.010750627376967005,-0.03793338159513142,-0.08670181135336558,-0.2904528610408306
0.38521698117256165,-1.4581928253173828,-106.11845397949219,-0.012214407364113462,-0.04290394253200954,-0.08895178710420926,-0.30601445138454436
0.2060989886522293,0,-106.0863037109375,-0.013655873540168005,-0.048105446779065655,-0.084024154022336,-0.31816605826218924
0,-0.9604908227920532,-105.99171447753906,-0.015041963677439422,-0.053474915168351594,-0.08230666245023409,-0.326170148452123
0.6051945686340332,-0.9556885361671448,-105.8628921508789,-0.016371713984343738,-0.05904415232025914,-0.07726337437828382,-0.342138309776783
-1.878983736038208,-0.9315865635871887,-105.7169189453125,-0.017747894471718203,-0.0648775182540218,-0.08787828410665194,-0.3578656022747358
-0.09741735458374023,-0.06297280639410019,-105.5697250366211,-0.019349782615900035,-0.0709110115815161,-0.10434829319516817,-0.3661535970245799
0.29440271854400635,0.06585244834423065,-105.54572296142578,-0.021075241296655597,-0.07701337155679033,-0.10270674849549928,-0.3661296000083288
-0.8115711808204651,-1.1287031173706055,-105.54766845703125,-0.02282293491479423,-0.08318934063116709,-0.10701648568113643,-0.3749866889168819
-1.1317477226257324,0,-105.50163269042969,-0.024741495711108046,-0.0895175009407103,-0.12321080987652142,-0.38439254822830365
1.289603590965271,-2.1211555004119873,-105.4801025390625,-0.026784046995970937,-0.09607134587648841,-0.12189534430702526,-0.4020688440650702
0.6320263147354126,0.26636025309562683,-105.40840911865234,-0.028682189546525478,-0.102901298503081,-0.10588176175951956,-0.4175254711260399
0.13925603032112122,-0.32886001467704773,-105.21147155761719,-0.028682189546525478,-0.102901298503081,-0.10588176175951956,-0.4175254711260399
-0.2841259837150574,0.15793602168560028,-105.02422332763672,-0.030456945989280938,-0.10987192607691718,-0.1070890113711357,-0.41894983773430194
0.08547835797071457,0.8341418504714966,-105.03617858886719,-0.03225555781947655,-0.1167855290758113,-0.10874440825233855,-0.4106825221329928
0.7408965826034546,2.3770289421081543,-105.11602783203125,-0.03401057747503121,-0.12340723980632093,-0.10185795041422048,-0.38392276552816235
-0.8096961975097656,1.0102957487106323,-105.2474365234375,-0.03571298773297005,-0.12957072168381678,-0.10243128053843974,-0.35569505977133914
-0.13750968873500824,-0.8875012993812561,-105.35581970214844,-0.037485953928488816,-0.13549044528769122,-0.11032466292381285,-0.35467177269359434
0.4190697968006134,-2.1841375827789307,-105.36406707763672,-0.03930514552527003,-0.1416149497549567,-0.1079783286899328,-0.38026876337826254
-0.08798187226057053,-0.18966753780841827,-105.48363494873047,-0.041081792119786964,-0.1481176100557463,-0.10521926265209912,-0.40005047271649047
-0.6682310104370117,-1.2953561544418335,-105.60112762451172,-0.042887961280842615,-0.15488824457964964,-0.11152103667457897,-0.41242567015190923
-0.06697998940944672,0.36197900772094727,-105.59891510009766,-0.044797701544852714,-0.1618268236062593,-0.11764779500663279,-0.42020381304124993
-0.3040730059146881,-0.07785376906394958,-105.54145050048828,-0.046784265697416325,-0.16881048957092895,-0.12073990330100058,-0.41783610271910826
0.799397349357605,-0.7375202178955078,-105.46520233154297,-0.048762199895249464,-0.17583104780978628,-0.11661220043897627,-0.4246308859437704
-0.13921783864498138,-0.19108647108078003,-105.55535888671875,-0.050659890769877355,-0.1829727158178058,-0.11111070451637108,-0.4323692750185728
-0.3005303740501404,0.05320773273706436,-105.7391128540039,-0.05254227391547626,-0.19018844531383367,-0.1147752729554971,-0.43351826450477043
-0.713913083076477,-0.6813579797744751,-105.77213287353516,-0.05452564259370167,-0.19745737126717966,-0.12322896843155225,-0.43875284989674884
0.5777074694633484,0.6891790628433228,-105.71528625488281,-0.05658891745739512,-0.20476937563469014,-0.12436401521166165,-0.43868767420450844
-0.18471010029315948,-0.41818171739578247,-105.59331512451172,-0.05658891745739512,-0.20476937563469014,-0.12436401521166165,-0.43868767420450844
-0.19144220650196075,-0.33315446972846985,-105.5619125366211,-0.05868777273222803,-0.2121330129955378,-0.12749861776828766,-0.4449488090972105
0.9695098996162415,1.7666858434677124,-105.5800552368164,-0.06075871721634433,-0.21944927569064832,-0.12101472032566866,-0.43300271431605014
0.5078397393226624,1.5790643692016602,-105.70977020263672,-0.06267303549684583,-0.2264336438311471,-0.10870347333451114,-0.4051214625438054
0.1371617466211319,0.6224960088729858,-105.75138854980469,-0.0644399682825638,-0.23303278206951092,-0.10332846095164619,-0.38677512605985
-0.31945836544036865,0.16214829683303833,-105.70816802978516,-0.06617476878584258,-0.23942454498261218,-0.1048475994418065,-0.3802364235122998
-0.36846864223480225,-0.3893725574016571,-105.6705093383789,-0.06797000148540569,-0.24577759817035666,-0.11058032450576626,-0.3821299590170383
-0.10878122597932816,-1.9135152101516724,-105.57337951660156,-0.06984614924579444,-0.25230635358227627,-0.11455740674088401,-0.40132069041331603
-1.2894338369369507,0.4547942578792572,-105.59091186523438,-0.07185253762640058,-0.25909633182196157,-0.126209198931853,-0.4134766983489195
-0.6396810412406921,-1.157804250717163,-105.65605926513672,-0.07408999058624935,-0.2660364302661684,-0.14228515625000004,-0.41933511495590203
1.0154540538787842,-1.6494845151901245,-105.65372467041016,-0.07643531450898282,-0.27322029945751036,-0.13915371447801594,-0.44272918800512945
0.810711145401001,0.8067660927772522,-105.5234375,-0.07862772605588865,-0.2806576413702634,-0.1239356711506844,-0.44975184152523673
0.21994394063949585,-0.21740664541721344,-105.322998046875,-0.0806217473052028,-0.288112577656284,-0.1153468787670136,-0.4448405127972364
-0.4333145022392273,0.3687272071838379,-105.15188598632812,-0.08255901268476412,-0.2955160778305597,-0.1171249667803447,-0.4435795081158479
0.38836005330085754,-0.8510316014289856,-105.14511108398438,-0.08451421730116837,-0.302942562993202,-0.11749958718816444,-0.44759871140122415
-1.2230204343795776,-0.01669570617377758,-105.29051971435547,-0.08451421730116837,-0.302942562993202,-0.11749958718816444,-0.44759871140122415
-0.8433914184570312,-0.7803603410720825,-105.42559051513672,-0.0866160445774181,-0.3104578926309478,-0.13471968596180284,-0.454240845128273
0.48230916261672974,1.3116375207901,-105.5014419555664,-0.08888644783343706,-0.31799167913449417,-0.13772870476047203,-0.4498135352972895
1.1525577306747437,-1.0611313581466675,-105.50537109375,-0.09106839382296636,-0.3254711751281543,-0.12410481398304309,-0.4477259839419276
0,2.7137725353240967,-105.58953094482422,-0.09305676865805355,-0.33281850811210467,-0.11450016622742022,-0.43395397413211567
0.6926776766777039,0.6292694807052612,-105.69664001464844,-0.09491700214540794,-0.33981891865208236,-0.10872785225510602,-0.40609529066520433
-0.32892391085624695,-0.4192711114883423,-105.60955047607422,-0.09670387233814433,-0.3465725902764179,-0.10569657087326055,-0.4043453042550633
-0.08925702422857285,-0.7503541111946106,-105.5477066040039,-0.0984945221954129,-0.3533929026544664,-0.10918141199896739,-0.4140921811107546
-0.23860323429107666,-0.48190784454345703,-105.73226165771484,-0.10033698046890399,-0.36038001275323855,-0.11191358081996447,-0.4243610307419051
-0.6192537546157837,-1.082446813583374,-105.93135833740234,-0.10226178021791082,-0.36756133233908467,-0.11906238906085498,-0.43739731955962874
-0.8067380785942078,0,-105.9538803100586,-0.10434518057956466,-0.37492645758268844,-0.1309456543376049,-0.4464177096728235
-0.11547834426164627,0.1786476969718933,-105.85928344726562,-0.10659165095900083,-0.38235434665383466,-0.13863079119473704,-0.4449289788647244
-0.13779814541339874,0.6263611912727356,-105.7591552734375,-0.1089197527906961,-0.3897139262398964,-0.14074142860869573,-0.4382205714626858
1.8458504676818848,0.34888705611228943,-105.66614532470703,-0.11114682852290572,-0.3969498768582061,-0.12650765925645835,-0.4300935027344772
0.07311225682497025,-1.1609493494033813,-105.58985900878906,-0.11312202821020038,-0.4041744951185926,-0.11051630321890123,-0.43686068851190296
-0.35636770725250244,0.3343236744403839,-105.53841400146484,-0.11312202821020038,-0.4041744951185926,-0.11051630321890123,-0.43686068851190296
-0.4898831844329834,-0.49285903573036194,-105.51213836669922,-0.11502273402021579,-0.41146651599388057,-0.11756839398294694,-0.43818181652265276
-1.0363553762435913,0.3033592104911804,-105.42096710205078,-0.11708819604220078,-0.4187827059793442,-0.13028704865525173,-0.4397609817329793
-0.05796052888035774,1.779858946800232,-105.38130187988281,-0.11933564101319968,-0.4259673877473042,-0.13940634786461797,-0.42240083042221754
1.2633297443389893,0.09618369489908218,-105.502685546875,-0.12157537394875868,-0.4328771208486676,-0.12936160440246272,-0.40676714174138995
-0.46059268712997437,0.48561781644821167,-105.63162994384766,-0.12367565505982688,-0.43961617032829164,-0.12267212892572094,-0.4019187958134958
0.6734446883201599,-2.125711441040039,-105.51219177246094,-0.12570540915295067,-0.4464287123157799,-0.12089836224913605,-0.41558624268509436
0.848822832107544,-0.29380664229393005,-105.33861541748047,-0.127614668834851,-0.45352317178298523,-0.10821279957890519,-0.4357488933795441
-0.3807741105556488,-0.21953149139881134,-105.15744018554688,-0.12938571211105832,-0.46082130182081743,-0.10431239356597273,-0.44002671116031694
-0.1842394918203354,0.5038087368011475,-105.11075592041016,-0.13116348905954509,-0.46813533886478087,-0.10902084025243927,-0.43765773411529746
0,0.2987404465675354,-105.18424987792969,-0.13299329747290659,-0.47537390185119077,-0.11055616935094206,-0.43096982425389174
-0.42603540420532227,-0.6893061399459839,-105.4183349609375,-0.134865486087381,-0.482583854873018,-0.11410646438598641,-0.43422453836537883
-0.12635424733161926,0.29281413555145264,-105.5355453491211,-0.13680562088628195,-0.48984846467941284,-0.1187097114821276,-0.4375286384019999
0.3714963495731354,0.3644826114177704,-105.58734130859375,-0.13876709232055065,-0.4970949630453511,-0.11666686063011496,-0.4320511655105897
-0.21132485568523407,-0.8341629505157471,-105.55899047851562,-0.14070041697731034,-0.5043284324940761,-0.11533209818104911,-0.4359651683364062
-0.3973662853240967,-0.2629144489765167,-105.58366394042969,-0.14070041697731034,-0.5043284324940761,-0.11533209818104911,-0.4359651683364062
-0.1030396893620491,0,-105.57869720458984,-0.14265736902856993,-0.5116127765808618,-0.11950214797010032,-0.4381561220778772
0.5875008702278137,0.9924388527870178,-105.5301284790039,-0.14461542835717814,-0.5188464592507162,-0.11546497146288562,-0.429885798304652
0,1.24112069606781,-105.62718963623047,-0.14649904587668264,-0.5258561142537899,-0.11056913087765384,-0.41127280206419514
0.7350131273269653,1.7382420301437378,-105.85308837890625,-0.14829082214635694,-0.5325037607655395,-0.10444402148326246,-0.3864447793457656
-0.2066013514995575,-0.1829575151205063,-105.99321746826172,-0.1499948605755344,-0.5388365012188701,-0.10004059001803406,-0.37348407505390535
-0.521009087562561,0.24394860863685608,-105.90614318847656,-0.15171273224521428,-0.5450570003104965,-0.10610401034355171,-0.3729758159412691
-0.9366918802261353,-1.1273598670959473,-105.8118896484375,-0.15358236165148104,-0.5513346119135774,-0.11825151840845752,-0.3803375764284282
0.7983454465866089,-0.356180876493454,-105.75961303710938,-0.15556282768284696,-0.5577765951834671,-0.11940440535545357,-0.3927004159583399
0.23492813110351562,-0.7097046375274658,-105.70269775390625,-0.15748114599587604,-0.5643956219434687,-0.11079379220803587,-0.40158279524184753
0.23269863426685333,-0.3204716742038727,-105.6421127319336,-0.1592952351184148,-0.5711602085524808,-0.10689690249661613,-0.4101675978396087
0.24231769144535065,0.10501496493816376,-105.52006530761719,-0.16104386291518397,-0.5780112974546178,-0.1029384331156811,-0.41196307041682295
-0.2964020073413849,0.6833761930465698,-105.42514038085938,-0.16276325932238253,-0.5848225992422603,-0.10338913574814805,-0.4053931441002835
-0.21556903421878815,-0.24491024017333984,-105.42634582519531,-0.16452196512940445,-0.5915487026194266,-0.10765556109448282,-0.40173926115967323
-0.20419089496135712,0.17404738068580627,-105.48310852050781,-0.16634537447606113,-0.5982492780039966,-0.11115356050431736,-0.402329784988736
-0.684063732624054,-0.39952975511550903,-105.5531005859375,-0.16825961816693763,-0.6049704329186999,-0.11855568240086245,-0.4042088047756502
0.5978571176528931,-1.4551721811294556,-105.4666976928711,-0.16825961816693763,-0.6049704329186999,-0.11855568240086245,-0.4042088047756502
0.7750437259674072,0.685151219367981,-105.23294830322266,-0.17014020587058948,-0.6117607200095275,-0.10711484203735995,-0.4106256461236625
-0.4218446910381317,0.7788222432136536,-105.02644348144531,-0.17190092552711983,-0.6185028159544649,-0.10417151674628265,-0.3984258672688155
0.8689776659011841,3.30815052986145,-105.10841369628906,-0.17360606657185906,-0.6248594295219261,-0.10044540862242388,-0.364367760826523
0.8811144828796387,1.4703563451766968,-105.36709594726562,-0.17515862253856745,-0.6306003847804905,-0.08586130738258368,-0.3245468702012051
-1.0555846691131592,-0.7601181268692017,-105.55941772460938,-0.17660176031343228,-0.6359601771853504,-0.08731522560119635,-0.31862821838197597
-0.351478636264801,-0.9958149194717407,-105.75212097167969,-0.17815472680299235,-0.6413925872866014,-0.09904075314601268,-0.3332609937681505
-0.3669053316116333,-1.3966342210769653,-105.72865295410156,-0.17985529379763954,-0.6471130794841643,-0.10502728621164964,-0.35319806993938974
0.19269408285617828,-0.5372693538665771,-105.58031463623047,-0.1816178465712195,-0.6531340128425253,-0.10647904661794509,-0.36931393306391924
0.15215972065925598,-0.6221094727516174,-105.53070831298828,-0.18336854916738557,-0.6593697574787724,-0.10360526492198315,-0.3789754232857375
0.16391906142234802,0.23888519406318665,-105.53147888183594,-0.18507335366732963,-0.6657126273306658,-0.10097127507130312,-0.38216895894147446
0.20931470394134521,0,-105.51696014404297,-0.18673028924036775,-0.6720655207301027,-0.09786099369327234,-0.3801782489909479
-0.6756646633148193,-0.3339891731739044,-105.46431732177734,-0.18839369121576766,-0.6784250185725333,-0.10174724335471795,-0.38296149210073044
0.8576793670654297,0.2542589604854584,-105.54884338378906,-0.19007683869503028,-0.6848132469278712,-0.1002304541567962,-0.38362591053980083
0.49454841017723083,-0.35125604271888733,-105.70832824707031,-0.19165344155755726,-0.691213748012023,-0.0889618893464407,-0.3844342195584127
-0.5807055234909058,-0.22497044503688812,-105.76581573486328,-0.19314212284620028,-0.6976610007329795,-0.08967986529072132,-0.3892361069563775
-1.4197888374328613,0.3804108500480652,-105.72257232666016,-0.1947757104872209,-0.7041374747096822,-0.10635065163175271,-0.38794077024795104
-0.27993184328079224,-0.41577181220054626,-105.63127136230469,-0.1947757104872209,-0.7041374747096822,-0.10635065163175271,-0.38794077024795104
1.6561400890350342,0.8613014221191406,-105.48279571533203,-0.19645265133068385,-0.7105722146575704,-0.09488224958380069,-0.38422802349862945
0.28370919823646545,-1.0777406692504883,-105.42166900634766,-0.19789931040102002,-0.7169910455524872,-0.07871683885653818,-0.3860316838913907
0.8078576326370239,1.1727789640426636,-105.36315155029297,-0.19913545446315167,-0.7234183070690943,-0.0696204485992591,-0.3852396981014559
-1.020605206489563,1.993909239768982,-105.47891998291016,-0.2003105694102124,-0.7296190598010761,-0.07139334504803026,-0.3588506297363589
0.6593241095542908,1.668136477470398,-105.65664672851562,-0.2015255474594112,-0.7353455948996516,-0.07440402085582419,-0.3283335820926974
-0.7611095309257507,-0.1578434556722641,-105.79247283935547,-0.20277268290571462,-0.7407129398080161,-0.07525223270058636,-0.3157478069110463
-0.4314155578613281,-1.1780728101730347,-105.76647186279297,-0.2041097010263346,-0.7460681752194395,-0.085189941773812,-0.3268804424597571
0,-2.05657958984375,-105.74034118652344,-0.20555949280297184,-0.7517408112326588,-0.0887850714226564,-0.35383587912656367
-1.1281851530075073,-0.11385352909564972,-105.62828826904297,-0.20711759018453052,-0.7577888004069168,-0.09818661436438564,-0.371922821784392
1.1496613025665283,-0.9073414206504822,-105.46041107177734,-0.20875254235799534,-0.7640584304192779,-0.0980076464513938,-0.3804327796989431
0.2829965054988861,0.6811640858650208,-105.23872375488281,-0.21028651300662515,-0.7704146835069537,-0.08606883138418202,-0.38231759082215533
-0.14073090255260468,0.9964200854301453,-105.1167984008789,-0.2117111139739347,-0.7766701444532053,-0.08488328469296301,-0.36833772272802895
-0.07743686437606812,0.22833506762981415,-105.06822967529297,-0.21314098592485411,-0.7827240540574877,-0.08670134941736862,-0.3581314297858626
0.2825227379798889,-0.5624188780784607,-105.25713348388672,-0.21457176634058778,-0.7887161114851999,-0.08499230047067012,-0.3609154615396013
0.3773571252822876,-0.5423274636268616,-105.4682388305664,-0.2159424796912613,-0.7948080876734784,-0.07949330161015199,-0.3701216810538123
-0.46660906076431274,0.16934749484062195,-105.50640869140625,-0.21727356610250564,-0.80100268374443,-0.08023706773916886,-0.3732298474603643
0.07630810141563416,-0.409626841545105,-105.46282958984375,-0.21863795479811324,-0.807239867267846,-0.08348957573374118,-0.3752321753495683
-0.3138027489185333,-0.26890552043914795,-105.45366668701172,-0.21863795479811324,-0.807239867267846,-0.08348957573374118,-0.3752321753495683
-0.04993334040045738,-0.16574765741825104,-105.50175476074219,-0.21863795479811324,-0.807239867267846,-0.08348957573374118,-0.3752321753495683
-0.40163466334342957,0.8450130820274353,-105.4475326538086,-0.21863795479811324,-0.807239867267846,-0.08348957573374118,-0.3752321753495683
0.3919295072555542,0.6834971904754639,-105.51971435546875,-0.21863795479811324,-0.807239867267846,-0.08348957573374118,-0.3752321753495683
0.5848662853240967,2.1851415634155273,-105.7308120727539,-0.21863795479811324,-0.807239867267846,-0.08348957573374118,-0.3752321753495683
0.7448367476463318,2.139392137527466,-105.72061920166016,-0.21863795479811324,-0.807239867267846,-0.08348957573374118,-0.3752321753495683
1.2903623580932617,1.4247828722000122,-105.43794250488281,-0.21863795479811324,-0.807239867267846,-0.08348957573374118,-0.3752321753495683
1.120192527770996,0.7194594740867615,-104.83039855957031,-0.21863795479811324,-0.807239867267846,-0.08348957573374118,-0.3752321753495683
0.8659189939498901,0.5045904517173767,-103.84992980957031,-0.21863795479811324,-0.807239867267846,-0.08348957573374118,-0.3752321753495683
-0.17893794178962708,1.827789545059204,-102.76701354980469,-0.21863795479811324,-0.807239867267846,-0.08348957573374118,-0.3752321753495683
1.0910650491714478,-0.49879854917526245,-101.63275146484375,-0.21863795479811324,-0.807239867267846,-0.08348957573374118,-0.3752321753495683
0.6690416932106018,2.140983819961548,-100.42737579345703,-0.21863795479811324,-0.807239867267846,-0.08348957573374118,-0.3752321753495683
0.7010048031806946,-0.15771444141864777,-99.0603256225586,-0.21863795479811324,-0.807239867267846,-0.08348957573374118,-0.3752321753495683
0.02563653513789177,0.9917650818824768,-97.64812469482422,-0.21863795479811324,-0.807239867267846,-0.08348957573374118,-0.3752321753495683
0.5643491148948669,0.34456929564476013,-96.13545989990234,-0.21863795479811324,-0.807239867267846,-0.08348957573374118,-0.3752321753495683
0.9568036198616028,1.215754747390747,-94.55089569091797,-0.21863795479811324,-0.807239867267846,-0.08348957573374118,-0.3752321753495683
0.2868613004684448,1.566516637802124,-92.80265045166016,-0.21863795479811324,-0.807239867267846,-0.08348957573374118,-0.3752321753495683
0.40098482370376587,1.6678972244262695,-91.01555633544922,-0.21863795479811324,-0.807239867267846,-0.08348957573374118,-0.3752321753495683
0.6345711350440979,1.0855579376220703,-89.11299896240234,-0.21863795479811324,-0.807239867267846,-0.08348957573374118,-0.3752321753495683
1.453230857849121,0.20270302891731262,-87.19518280029297,-0.21863795479811324,-0.807239867267846,-0.08348957573374118,-0.3752321753495683
-0.6945905685424805,0.9210545420646667,-85.260009765625,-0.21863795479811324,-0.807239867267846,-0.08348957573374118,-0.3752321753495683
0.9730830788612366,1.0398492813110352,-83.32698822021484,-0.21863795479811324,-0.807239867267846,-0.08348957573374118,-0.3752321753495683
0.6654911637306213,0.49622127413749695,-81.384033203125,-0.21863795479811324,-0.807239867267846,-0.08348957573374118,-0.3752321753495683
-0.2780258357524872,0.7359330654144287,-79.54889678955078,-0.21863795479811324,-0.807239867267846,-0.08348957573374118,-0.3752321753495683
-0.3782758414745331,1.2088909149169922,-77.67937469482422,-0.21863795479811324,-0.807239867267846,-0.08348957573374118,-0.3752321753495683
3.95076847076416,-1.297444462776184,-75.84159088134766,-0.21863795479811324,-0.807239867267846,-0.08348957573374118,-0.3752321753495683
-1.5825592279434204,0.9485599398612976,-74.0306167602539,-0.21863795479811324,-0.807239867267846,-0.08348957573374118,-0.3752321753495683
1.025572657585144,-0.27110499143600464,-72.17745208740234,-0.21863795479811324,-0.807239867267846,-0.08348957573374118,-0.3752321753495683
1.3740590810775757,0.7219030261039734,-70.37166595458984,-0.21863795479811324,-0.807239867267846,-0.08348957573374118,-0.3752321753495683
-0.11891981959342957,1.351629614830017,-68.58663177490234,-0.21863795479811324,-0.807239867267846,-0.08348957573374118,-0.3752321753495683
0.38188737630844116,0.1530681550502777,-66.71176147460938,-0.21863795479811324,-0.807239867267846,-0.08348957573374118,-0.3752321753495683
-0.6939185857772827,1.241916537284851,-64.73623657226562,-0.21863795479811324,-0.807239867267846,-0.08348957573374118,-0.3752321753495683
2.1989166736602783,0.5523774027824402,-62.81765365600586,-0.21863795479811324,-0.807239867267846,-0.08348957573374118,-0.3752321753495683
-0.7473326325416565,0.3448091149330139,-60.787353515625,-0.21863795479811324,-0.807239867267846,-0.08348957573374118,-0.3752321753495683
0.39752885699272156,0.3546731472015381,-58.728275299072266,-0.21863795479811324,-0.807239867267846,-0.08348957573374118,-0.3752321753495683
-1.0782361030578613,0.8439649343490601,-56.606414794921875,-0.21863795479811324,-0.807239867267846,-0.08348957573374118,-0.3752321753495683
2.519423723220825,-0.05369655042886734,-54.413326263427734,-0.21863795479811324,-0.807239867267846,-0.08348957573374118,-0.3752321753495683
-0.13599544763565063,0.8681310415267944,-52.16515350341797,-0.21863795479811324,-0.807239867267846,-0.08348957573374118,-0.3752321753495683
-1.783141016960144,0.15437927842140198,-49.99885177612305,-0.21863795479811324,-0.807239867267846,-0.08348957573374118,-0.3752321753495683
1.9368338584899902,0.4196094572544098,-47.82420349121094,-0.21863795479811324,-0.807239867267846,-0.08348957573374118,-0.3752321753495683
-0.9350838661193848,0.6553007960319519,-45.77642822265625,-0.21863795479811324,-0.807239867267846,-0.08348957573374118,-0.3752321753495683
-0.6738284826278687,0.3805333375930786,-43.62591552734375,-0.21863795479811324,-0.807239867267846,-0.08348957573374118,-0.3752321753495683
2.2358458042144775,-0.007622563745826483,-41.47893524169922,-0.21863795479811324,-0.807239867267846,-0.08348957573374118,-0.3752321753495683
-2.469787359237671,0.515796422958374,-39.3779182434082,-0.21863795479811324,-0.807239867267846,-0.08348957573374118,-0.3752321753495683
-0.10221385210752487,0.4809635579586029,-37.30192947387695,-0.21863795479811324,-0.807239867267846,-0.08348957573374118,-0.3752321753495683
0.085747629404068,0.20621232688426971,-35.15319061279297,-0.21863795479811324,-0.807239867267846,-0.08348957573374118,-0.3752321753495683
0.4576829671859741,0.5655225515365601,-33.01266098022461,-0.21863795479811324,-0.807239867267846,-0.08348957573374118,-0.3752321753495683
-0.6695468425750732,0.030778639018535614,-30.900524139404297,-0.21863795479811324,-0.807239867267846,-0.08348957573374118,-0.3752321753495683
0.5782076716423035,0.9775887727737427,-28.786897659301758,-0.21863795479811324,-0.807239867267846,-0.08348957573374118,-0.3752321753495683
-0.8354324102401733,0.03200063854455948,-26.542068481445312,-0.21863795479811324,-0.807239867267846,-0.08348957573374118,-0.3752321753495683
0.280904084444046,1.0217028856277466,-24.254379272460938,-0.21863795479811324,-0.807239867267846,-0.08348957573374118,-0.3752321753495683
-1.2022837400436401,0.11723393946886063,-21.9593448638916,-0.21863795479811324,-0.807239867267846,-0.08348957573374118,-0.3752321753495683
0.7098135352134705,0.410747230052948,-19.725900650024414,-0.21863795479811324,-0.807239867267846,-0.08348957573374118,-0.3752321753495683
-0.439544677734375,-0.7243390083312988,-17.63524055480957,-0.21863795479811324,-0.807239867267846,-0.08348957573374118,-0.3752321753495683
-2.2233569622039795,-1.571924090385437,-16.035799026489258,-0.21863795479811324,-0.807239867267846,-0.08348957573374118,-0.3752321753495683
2.2295191287994385,-0.11344984173774719,-15.00283145904541,-0.21863795479811324,-0.807239867267846,-0.08348957573374118,-0.3752321753495683
-1.5756616592407227,-2.8089332580566406,-14.40900993347168,-0.21863795479811324,-0.807239867267846,-0.08348957573374118,-0.3752321753495683
-0.1977607160806656,-0.4303640127182007,-14.353330612182617,-0.21863795479811324,-0.807239867267846,-0.08348957573374118,-0.3752321753495683
-0.5672686100006104,0.5603795051574707,-14.4843111038208,-0.21863795479811324,-0.807239867267846,-0.08348957573374118,-0.3752321753495683
-2.0559511184692383,0.37431591749191284,-14.357234954833984,-0.21863795479811324,-0.807239867267846,-0.08348957573374118,-0.3752321753495683
0.05189137160778046,-0.3825913369655609,-14.37915325164795,-0.21863795479811324,-0.807239867267846,-0.08348957573374118,-0.3752321753495683
-0.29335394501686096,0.1893577128648758,-14.494648933410645,-0.21863795479811324,-0.807239867267846,-0.08348957573374118,-0.3752321753495683
0.5088147521018982,0.2443372905254364,-14.529955863952637,-0.21863795479811324,-0.807239867267846,-0.08348957573374118,-0.3752321753495683
0.8254185914993286,-0.42526674270629883,-14.489167213439941,-0.21863795479811324,-0.807239867267846,-0.08348957573374118,-0.3752321753495683
0.5972691774368286,0.27930402755737305,-14.493538856506348,-0.21863795479811324,-0.807239867267846,-0.08348957573374118,-0.3752321753495683
0.02511613629758358,-0.08349178731441498,-14.501036643981934,-0.21863795479811324,-0.807239867267846,-0.08348957573374118,-0.3752321753495683
-0.16003113985061646,0.04380141943693161,-14.48812198638916,-0.21863795479811324,-0.807239867267846,-0.08348957573374118,-0.3752321753495683
0.022320514544844627,0.10402923077344894,-14.491046905517578,-0.21863795479811324,-0.807239867267846,-0.08348957573374118,-0.3752321753495683
0.22179153561592102,-0.03856630250811577,-14.497406005859375,-0.21863795479811324,-0.807239867267846,-0.08348957573374118,-0.3752321753495683
0.39646807312965393,0.018869809806346893,-14.489995956420898,-0.21863795479811324,-0.807239867267846,-0.08348957573374118,-0.3752321753495683
0.3192700445652008,0.026050271466374397,-14.49378490447998,-0.21863795479811324,-0.807239867267846,-0.08348957573374118,-0.3752321753495683
0.04490108788013458,-0.005948357284069061,-14.491145133972168,-0.21863795479811324,-0.807239867267846,-0.08348957573374118,-0.3752321753495683
0.04687294363975525,0.061169203370809555,-14.487739562988281,-0.21863795479811324,-0.807239867267846,-0.08348957573374118,-0.3752321753495683
0.21071435511112213,0.017200971022248268,-14.491765975952148,-0.21863795479811324,-0.807239867267846,-0.08348957573374118,-0.3752321753495683
0.27500084042549133,-0.026301879435777664,-14.489495277404785,-0.21863795479811324,-0.807239867267846,-0.08348957573374118,-0.3752321753495683
0.23172993957996368,0.053155362606048584,-14.48826789855957,-0.21863795479811324,-0.807239867267846,-0.08348957573374118,-0.3752321753495683
0.1320124864578247,0.011095699854195118,-14.490558624267578,-0.21863795479811324,-0.807239867267846,-0.08348957573374118,-0.3752321753495683
0.11819035559892654,0.014670014381408691,-14.488715171813965,-0.21863795479811324,-0.807239867267846,-0.08348957573374118,-0.3752321753495683
0.18676145374774933,0.024368828162550926,-14.489008903503418,-0.21863795479811324,-0.807239867267846,-0.08348957573374118,-0.3752321753495683
0.2247237265110016,0.0030301406513899565,-14.490208625793457,-0.21863795479811324,-0.807239867267846,-0.08348957573374118,-0.3752321753495683
0.20402804017066956,0.019669853150844574,-14.489314079284668,-0.21863795479811324,-0.807239867267846,-0.08348957573374118,-0.3752321753495683
0.14500319957733154,0.002642108127474785,-14.48886489868164,-0.21863795479811324,-0.807239867267846,-0.08348957573374118,-0.3752321753495683
0.14296603202819824,0,-14.488791465759277,-0.220009449863703,-0.8134935533772745,-0.08108983213702843,-0.37521015778183936
0.22138430178165436,0,-14.490242958068848,-0.22133564495947222,-0.8197470560069718,-0.07805357935527966,-0.37521015778183936
1.182674527168274,-0.08080077916383743,-14.477619171142578,-0.22253903386338314,-0.8260061698018889,-0.06635308911403026,-0.37588349760820466
2.621210813522339,-0.31938329339027405,-14.447604179382324,-0.22338075997773568,-0.8322986853226196,-0.034654044608275154,-0.3792183648794889
2.5517325401306152,-0.7870624661445618,-14.36423110961914,-0.22359909521053659,-0.8386958279150233,0.008453816672166131,-0.38843874620894586
3.508626699447632,-0.7686688303947449,-14.454736709594727,-0.2230373399854742,-0.8452778439140988,0.05895681033531819,-0.40140317368010675
0.44523802399635315,-0.8575723171234131,-14.502904891967773,-0.2217801525407575,-0.8520808302217893,0.09190568303068472,-0.41495518324275804
1.1466315984725952,0,-14.4656343460083,-0.2201378446553524,-0.8590563035756354,0.10517126321792596,-0.4221016192187865
1.2871912717819214,-0.3223077952861786,-14.45991039276123,-0.21821597479128596,-0.866113713048399,0.12545312047004692,-0.42478751751283794
1.8168913125991821,0.3570587635040283,-14.43007755279541,-0.21590952815953648,-0.8731910917452645,0.15132047533988946,-0.42449792611102255
0.4895910620689392,-0.5632071495056152,-14.463624000549316,-0.21322734785007527,-0.8802803730405873,0.17054116179545714,-0.42621582932770247
1.2649617195129395,-0.3197118639945984,-14.545977592468262,-0.2102631512103189,-0.887445284016431,0.18516243497530613,-0.4335734877735376
1.5525643825531006,0.19292905926704407,-14.577865600585938,-0.20698144909253144,-0.894680313174096,0.2086418191591898,-0.4346300111462672
0.8235354423522949,-0.412026584148407,-14.561971664428711,-0.20333907850759317,-0.9019393617990951,0.22844265103340144,-0.43645582385361187
1.4040201902389526,-0.8381367325782776,-14.644046783447266,-0.19937700962699542,-0.9093004424269835,0.2470056146383285,-0.4468738514930009
0.9777288436889648,1.7526090145111084,-14.6126127243042,-0.19937700962699542,-0.9093004424269835,0.2470056146383285,-0.4468738514930009
0.3236182630062103,-0.42219123244285583,-14.454471588134766,-0.19516987805616945,-0.916655949828112,0.2578501738607883,-0.4357870366424321
-0.5518323183059692,-0.250840425491333,-14.356487274169922,-0.19088822335677436,-0.9239658054150647,0.2559483900666236,-0.4413956337918837
-2.0106849670410156,0.16546766459941864,-14.288442611694336,-0.18680036944492417,-0.9313283279755469,0.23459407935539875,-0.442107073465983
0.8647798299789429,-0.3435385525226593,-14.391345024108887,-0.1829700448679635,-0.9387091452338635,0.22504486987988148,-0.44359099753201
1.4103260040283203,0.3077146112918854,-14.366643905639648,-0.1790613035759372,-0.9461048162997603,0.24400408516327535,-0.44388953037559975
1.6880009174346924,-0.29258856177330017,-14.253460884094238,-0.17477940723144766,-0.9535019247192481,0.2698234761754671,-0.44376347996294485
1.2726209163665771,0.19734548032283783,-14.23415756225586,-0.17007675055673147,-0.960904596821509,0.2944953247904777,-0.4445571723083654
0.36655372381210327,-0.9898638725280762,-14.19787883758545,-0.1650546635713222,-0.9683689190261071,0.30815511345863333,-0.45116149224340907
0.9845163226127625,-0.23454821109771729,-14.185078620910645,-0.15982492070489882,-0.9759733058470824,0.3194140305121739,-0.461364926273624
0.8272467851638794,0.6181797981262207,-14.10317325592041,-0.15437553664721143,-0.9836360802025437,0.33451205641031256,-0.45816799638171984
1.2860372066497803,0.1639280617237091,-14.051837921142578,-0.14865357987427472,-0.9912179004297494,0.35212275634209306,-0.4516504308829704
-0.2126038670539856,-1.2790429592132568,-14.093221664428711,-0.14271032328665678,-0.9988228461456802,0.361068034172058,-0.46094305502871663
0.3578239977359772,0.1496785283088684,-14.054032325744629,-0.14271032328665678,-0.9988228461456802,0.361068034172058,-0.46094305502871663
0.6991701126098633,0.15393459796905518,-14.046622276306152,-0.13661912034834847,-1.0064841461512783,0.36987631842494,-0.4584129456430673
1.0787830352783203,-0.24627956748008728,-14.037867546081543,-0.1303310460726628,-1.0141307747571011,0.3846925946573415,-0.4591824870556592
-0.23319189250469208,1.2864881753921509,-14.066424369812012,-0.12386078122123671,-1.021711579499146,0.3917391875137884,-0.45051408198972537
-1.5357304811477661,-0.2509538233280182,-14.164175033569336,-0.11745463659417721,-1.0291482354245258,0.37699816773335126,-0.44188462905585757
0,-0.29587092995643616,-14.297934532165527,-0.11127798174870106,-1.0365509531833237,0.36420041372378653,-0.4464415019998947
0.667888879776001,-0.743067741394043,-14.21854305267334,-0.10516159368109795,-1.0440637934021657,0.36976615438858657,-0.4550993242611487
0.387877494096756,-0.11787354946136475,-14.08249282836914,-0.09892550733199146,-1.0517085697294943,0.3785642075041929,-0.46227383501827707
1.3809930086135864,-0.8424562811851501,-14.063521385192871,-0.09249326564423335,-1.0594798232180382,0.39330479502677906,-0.47027658360699803
1.0109502077102661,0.569783091545105,-14.133718490600586,-0.0857720785593201,-1.0673367019163242,0.4132376551628112,-0.4725488601873317
-0.09886389970779419,0,-14.114754676818848,-0.07882144497966197,-1.0751729479825336,0.4208383743961651,-0.46780066775778917
1.208380937576294,0.9135521650314331,-14.107725143432617,-0.07173042227876279,-1.0829061846559251,0.4300843497117359,-0.4601877330491939
0.07042904198169708,-0.00667200842872262,-14.125596046447754,-0.07173042227876279,-1.0829061846559251,0.4300843497117359,-0.4601877330491939
0.7202467918395996,0.16095414757728577,-14.125171661376953,-0.06450744173955182,-1.0905652661693042,0.4366733149935801,-0.45890204855628924
-0.49637454748153687,-1.6402349472045898,-14.197656631469727,-0.05721400647268951,-1.0983163614785498,0.4385389170298973,-0.47122938855318347
-2.0138325691223145,-0.10217522829771042,-14.217893600463867,-0.05007934446084427,-1.106291185327735,0.41762052439153186,-0.48574947334903595
-1.4881620407104492,1.4902821779251099,-14.327170372009277,-0.04336219645777935,-1.114290613567606,0.38843723597625884,-0.4741819154354743
1.3293993473052979,0.3053160011768341,-14.358277320861816,-0.036899267711883725,-1.1220689511735373,0.3871142135312159,-0.4592185972762914
1.4791690111160278,-0.4531508684158325,-14.309609413146973,-0.030252324683695313,-1.1297328607717005,0.4105189498513936,-0.46045055450328304
1.5918811559677124,0.7701879143714905,-14.212754249572754,-0.023197074813457938,-1.1373850202185638,0.43611103457709144,-0.45780857912031925
0.10485608130693436,-1.1295565366744995,-14.182250022888184,-0.015810728595695676,-1.1450401193582291,0.4502505115543802,-0.460803317639511
0.4369284510612488,-0.6031474471092224,-14.092394828796387,-0.008268929477263771,-1.1528405013177616,0.45476538265744837,-0.47524251750437535
-0.2794153690338135,1.4891269207000732,-13.9430513381958,-0.0006785680244988379,-1.160699683590502,0.45607799167434365,-0.4678593552244516
0.7024272084236145,-0.4944744110107422,-13.850255966186523,-0.0006785680244988379,-1.160699683590502,0.45607799167434365,-0.4678593552244516
0,-0.6643904447555542,-13.7838773727417,0.006971511503991863,-1.1685778162370044,0.4619315517445404,-0.4775165623558374
-0.8205161094665527,0.910657525062561,-13.702106475830078,0.014613390414354582,-1.1765193237290248,0.4550939174989858,-0.4754643366866123
-1.5839884281158447,0.6129355430603027,-13.683785438537598,0.022031309557561125,-1.184337924266293,0.4350563796857992,-0.46276772778558845
0,0.9452776312828064,-13.730043411254883,0.029172250022594177,-1.1919425104811678,0.4218564761181671,-0.4497826179993959
1.3687677383422852,-1.7093380689620972,-13.727574348449707,0.03629824460639296,-1.199491947200441,0.43326287393768614,-0.45614978831339
0.9298218488693237,-0.36439406871795654,-13.741586685180664,0.04367891678224409,-1.2072384528485587,0.4524177871644495,-0.47343088946072376
0.5644265413284302,0.23133066296577454,-13.782551765441895,0.0513229804843042,-1.2151382081871924,0.4648698570827641,-0.47453975117532526
0.2825656235218048,-0.06987104564905167,-13.749181747436523,0.05912963033602042,-1.2230359915666897,0.4719281251231828,-0.4731942543643526
0.2698194682598114,0.6589486598968506,-13.754312515258789,0.06703345916389164,-1.2308816543051062,0.4765313342213629,-0.46828527424562094
0,-0.289673388004303,-13.819149017333984,0.07499438553065461,-1.238660764759763,0.4787798297901947,-0.46520798031318306
0.731038510799408,-0.6733613610267639,-13.798040390014648,0.07499438553065461,-1.238660764759763,0.4787798297901947,-0.46520798031318306
0.5669630765914917,-0.22005882859230042,-13.782286643981934,0.08306418835961556,-1.2464762741670394,0.48959650968511886,-0.4726531485600086
0.30679991841316223,-0.3725041151046753,-13.778454780578613,0.09128480817346508,-1.254394976847463,0.4968778679768243,-0.4775911730908167
-0.5618088841438293,0.45877039432525635,-13.875471115112305,0.09954839701712531,-1.2623488390184752,0.49475279326240207,-0.4768722874306452
-2.268535614013672,0.954072117805481,-14.02932071685791,0.10759772520357108,-1.2701985964123101,0.47116658911108955,-0.4650985998295557
-0.6620399355888367,0.5417433977127075,-14.213212966918945,0.11524698949781129,-1.277846363665336,0.4467451261977353,-0.4526334705335708
1.766683578491211,-0.3924814462661743,-14.325119972229004,0.12276945296519731,-1.2853798894276007,0.45595048988858844,-0.451389620938183
1.2645217180252075,-0.43413472175598145,-14.34273624420166,0.1305791281644874,-1.2929604536771275,0.48121053402622527,-0.4582780890050343
1.126951813697815,0.35847237706184387,-14.308101654052734,0.13876537828240526,-1.3006036761567041,0.5011394801239171,-0.4589086085441521
-0.43825972080230713,-1.9260306358337402,-14.4100980758667,0.14716552879092162,-1.308361011178188,0.5068785808980463,-0.4719715940339179
0.2625587582588196,0.2514175772666931,-14.44670581817627,0.14716552879092162,-1.308361011178188,0.5068785808980463,-0.4719715940339179
0.9760110974311829,1.6137818098068237,-14.470376014709473,0.14716552879092162,-1.308361011178188,0.5068785808980463,-0.4719715940339179
0.11895661056041718,0.9814955592155457,-14.402460098266602,0.14716552879092162,-1.308361011178188,0.5068785808980463,-0.4719715940339179
-1.3522756099700928,0.3671249449253082,-14.124947547912598,0.14716552879092162,-1.308361011178188,0.5068785808980463,-0.4719715940339179
-3.0345075130462646,-0.519862949848175,-13.675788879394531,0.14716552879092162,-1.308361011178188,0.5068785808980463,-0.4719715940339179
-3.341517686843872,-0.5030150413513184,-13.17253589630127,0.14716552879092162,-1.308361011178188,0.5068785808980463,-0.4719715940339179
-0.9837766289710999,1.260175108909607,-12.504777908325195,0.14716552879092162,-1.308361011178188,0.5068785808980463,-0.4719715940339179
-0.08860477060079575,0.04294568672776222,-11.59158992767334,0.14716552879092162,-1.308361011178188,0.5068785808980463,-0.4719715940339179
0.1591690480709076,0.36203375458717346,-10.429864883422852,0.14716552879092162,-1.308361011178188,0.5068785808980463,-0.4719715940339179
-1.5515226125717163,-0.020906902849674225,-9.159964561462402,0.14716552879092162,-1.308361011178188,0.5068785808980463,-0.4719715940339179
-0.46709537506103516,1.0656405687332153,-7.817348957061768,0.14716552879092162,-1.308361011178188,0.5068785808980463,-0.4719715940339179
-0.2279568612575531,0.8118225932121277,-6.4311652183532715,0.14716552879092162,-1.308361011178188,0.5068785808980463,-0.4719715940339179
0.05415601655840874,0.6689517498016357,-5.010400295257568,0.14716552879092162,-1.308361011178188,0.5068785808980463,-0.4719715940339179
-0.749515950679779,0.07816661894321442,-3.6030333042144775,0.14716552879092162,-1.308361011178188,0.5068785808980463,-0.4719715940339179
-0.23962588608264923,1.2590173482894897,-2.1566505432128906,0.14716552879092162,-1.308361011178188,0.5068785808980463,-0.4719715940339179
-1.5036524534225464,0.04663780704140663,-0.6818194389343262,0.14716552879092162,-1.308361011178188,0.5068785808980463,-0.4719715940339179
1.3209902048110962,0.13117504119873047,0.7741217017173767,0.14716552879092162,-1.308361011178188,0.5068785808980463,-0.4719715940339179
-1.0603530406951904,0.6064419150352478,2.213620901107788,0.14716552879092162,-1.308361011178188,0.5068785808980463,-0.4719715940339179
-0.6767392754554749,1.809151291847229,3.652609348297119,0.14716552879092162,-1.308361011178188,0.5068785808980463,-0.4719715940339179
-0.4441336989402771,0.27057400345802307,5.066315174102783,0.14716552879092162,-1.308361011178188,0.5068785808980463,-0.4719715940339179
-0.4569728970527649,-0.2766067385673523,6.476002216339111,0.14716552879092162,-1.308361011178188,0.5068785808980463,-0.4719715940339179
0.4243488013744354,1.170141339302063,7.887553691864014,0.14716552879092162,-1.308361011178188,0.5068785808980463,-0.4719715940339179
-0.26051077246665955,0.22278709709644318,9.223937034606934,0.14716552879092162,-1.308361011178188,0.5068785808980463,-0.4719715940339179
-1.2129582166671753,-0.6123756766319275,10.45903491973877,0.14716552879092162,-1.308361011178188,0.5068785808980463,-0.4719715940339179
0.63001549243927,1.2139852046966553,11.705909729003906,0.14716552879092162,-1.308361011178188,0.5068785808980463,-0.4719715940339179
0.0013464699732139707,-0.1919841766357422,12.850717544555664,0.14716552879092162,-1.308361011178188,0.5068785808980463,-0.4719715940339179
-0.5753054618835449,-0.49108344316482544,13.999900817871094,0.14716552879092162,-1.308361011178188,0.5068785808980463,-0.4719715940339179
0.08960750699043274,1.7584197521209717,15.186686515808105,0.14716552879092162,-1.308361011178188,0.5068785808980463,-0.4719715940339179
0.22407107055187225,0.11197138577699661,16.395296096801758,0.14716552879092162,-1.308361011178188,0.5068785808980463,-0.4719715940339179
-0.7509056329727173,0.09469183534383774,17.631738662719727,0.14716552879092162,-1.308361011178188,0.5068785808980463,-0.4719715940339179
-0.5600266456604004,-0.982650101184845,18.875696182250977,0.14716552879092162,-1.308361011178188,0.5068785808980463,-0.4719715940339179
0.3336789011955261,1.2566978931427002,20.2291202545166,0.14716552879092162,-1.308361011178188,0.5068785808980463,-0.4719715940339179
-0.605944037437439,-0.271369606256485,21.66611671447754,0.14716552879092162,-1.308361011178188,0.5068785808980463,-0.4719715940339179
-0.7476398348808289,0.9086524844169617,23.111392974853516,0.14716552879092162,-1.308361011178188,0.5068785808980463,-0.4719715940339179
0.2650514543056488,0.28970763087272644,24.607086181640625,0.14716552879092162,-1.308361011178188,0.5068785808980463,-0.4719715940339179
-0.5359486937522888,-0.9603134393692017,26.29729461669922,0.14716552879092162,-1.308361011178188,0.5068785808980463,-0.4719715940339179
-0.24611064791679382,2.41532564163208,28.034767150878906,0.14716552879092162,-1.308361011178188,0.5068785808980463,-0.4719715940339179
-0.8138219714164734,0.4939331114292145,29.8131160736084,0.14716552879092162,-1.308361011178188,0.5068785808980463,-0.4719715940339179
-0.5366429686546326,-0.17885515093803406,31.640661239624023,0.14716552879092162,-1.308361011178188,0.5068785808980463,-0.4719715940339179
0.18394488096237183,0.7331414818763733,33.5722770690918,0.14716552879092162,-1.308361011178188,0.5068785808980463,-0.4719715940339179
0.11652237176895142,-0.6419740915298462,35.60084533691406,0.14716552879092162,-1.308361011178188,0.5068785808980463,-0.4719715940339179
-0.5144932866096497,0.7235078811645508,37.57463836669922,0.14716552879092162,-1.308361011178188,0.5068785808980463,-0.4719715940339179
0.12132534384727478,-0.26211100816726685,39.55017852783203,0.14716552879092162,-1.308361011178188,0.5068785808980463,-0.4719715940339179
-0.13058331608772278,-0.5751653909683228,41.65449142456055,0.14716552879092162,-1.308361011178188,0.5068785808980463,-0.4719715940339179
0.19283811748027802,0.6023430824279785,43.796478271484375,0.14716552879092162,-1.308361011178188,0.5068785808980463,-0.4719715940339179
-0.10687756538391113,-0.1259639859199524,45.880550384521484,0.14716552879092162,-1.308361011178188,0.5068785808980463,-0.4719715940339179
-0.17507287859916687,-0.9396538138389587,48.0006217956543,0.14716552879092162,-1.308361011178188,0.5068785808980463,-0.4719715940339179
0.12314091622829437,2.4414849281311035,50.14149856567383,0.14716552879092162,-1.308361011178188,0.5068785808980463,-0.4719715940339179
-0.052757978439331055,-0.7050108313560486,52.301509857177734,0.14716552879092162,-1.308361011178188,0.5068785808980463,-0.4719715940339179
-0.9692753553390503,-0.01933881640434265,54.402400970458984,0.14716552879092162,-1.308361011178188,0.5068785808980463,-0.4719715940339179
0.14170794188976288,-1.383585810661316,56.62517547607422,0.14716552879092162,-1.308361011178188,0.5068785808980463,-0.4719715940339179
-0.14357709884643555,0.808825671672821,58.96921920776367,0.14716552879092162,-1.308361011178188,0.5068785808980463,-0.4719715940339179
-0.06411150097846985,-0.4007992446422577,61.35804748535156,0.14716552879092162,-1.308361011178188,0.5068785808980463,-0.4719715940339179
-0.07991443574428558,0.7255651354789734,63.77888107299805,0.14716552879092162,-1.308361011178188,0.5068785808980463,-0.4719715940339179
0.8148679733276367,0.11646201461553574,66.19464111328125,0.14716552879092162,-1.308361011178188,0.5068785808980463,-0.4719715940339179
-0.9927164912223816,1.1069202423095703,68.62094116210938,0.14716552879092162,-1.308361011178188,0.5068785808980463,-0.4719715940339179
0.3533405363559723,0.35133859515190125,70.85366821289062,0.14716552879092162,-1.308361011178188,0.5068785808980463,-0.4719715940339179
1.2468634843826294,-1.9122798442840576,72.72080993652344,0.14716552879092162,-1.308361011178188,0.5068785808980463,-0.4719715940339179
0.4056496322154999,1.4690982103347778,74.12976837158203,0.14716552879092162,-1.308361011178188,0.5068785808980463,-0.4719715940339179
2.5173583030700684,-2.304799795150757,75.11756896972656,0.14716552879092162,-1.308361011178188,0.5068785808980463,-0.4719715940339179
1.1684895753860474,-1.1833738088607788,75.63048553466797,0.14716552879092162,-1.308361011178188,0.5068785808980463,-0.4719715940339179
0.7993689179420471,-0.3650595247745514,75.66764831542969,0.14716552879092162,-1.308361011178188,0.5068785808980463,-0.4719715940339179
-0.37535375356674194,-0.7149965167045593,75.62968444824219,0.14716552879092162,-1.308361011178188,0.5068785808980463,-0.4719715940339179
0.23166000843048096,-1.2407079935073853,75.69346618652344,0.14716552879092162,-1.308361011178188,0.5068785808980463,-0.4719715940339179
-0.1724044233560562,-1.142433762550354,75.70285034179688,0.14716552879092162,-1.308361011178188,0.5068785808980463,-0.4719715940339179
0.1453997641801834,0.32477667927742004,75.67964172363281,0.14716552879092162,-1.308361011178188,0.5068785808980463,-0.4719715940339179
0.3909899890422821,0.5725795030593872,75.6716537475586,0.14716552879092162,-1.308361011178188,0.5068785808980463,-0.4719715940339179
0.034916482865810394,0.38287287950515747,75.6691665649414,0.14716552879092162,-1.308361011178188,0.5068785808980463,-0.4719715940339179
0.35327717661857605,0.6080200672149658,75.66128540039062,0.14716552879092162,-1.308361011178188,0.5068785808980463,-0.4719715940339179
0.17805737257003784,0.028725793585181236,75.67115783691406,0.14716552879092162,-1.308361011178188,0.5068785808980463,-0.4719715940339179
0.02483844943344593,-0.08407209068536758,75.6744155883789,0.14716552879092162,-1.308361011178188,0.5068785808980463,-0.4719715940339179
0.16113683581352234,0.12772460281848907,75.66036987304688,0.14716552879092162,-1.308361011178188,0.5068785808980463,-0.4719715940339179
0.2798352539539337,0.37102389335632324,75.66609191894531,0.14716552879092162,-1.308361011178188,0.5068785808980463,-0.4719715940339179
0.0608995258808136,0.229261115193367,75.66561889648438,0.14716552879092162,-1.308361011178188,0.5068785808980463,-0.4719715940339179
0.22473302483558655,0.09736056625843048,75.66214752197266,0.14716552879092162,-1.308361011178188,0.5068785808980463,-0.4719715940339179
0.15919137001037598,0.13308660686016083,75.66419219970703,0.14716552879092162,-1.308361011178188,0.5068785808980463,-0.4719715940339179
0.14009325206279755,0.1561262011528015,75.66320037841797,0.14716552879092162,-1.308361011178188,0.5068785808980463,-0.4719715940339179
0.17890620231628418,0.20921723544597626,75.66233825683594,0.14716552879092162,-1.308361011178188,0.5068785808980463,-0.4719715940339179
0.1713893711566925,0.24304276704788208,75.66352844238281,0.14716552879092162,-1.308361011178188,0.5068785808980463,-0.4719715940339179
0.1655617207288742,0.10935410112142563,75.66313934326172,0.14716552879092162,-1.308361011178188,0.5068785808980463,-0.4719715940339179
0.1558329313993454,0.10052628815174103,75.66407775878906,0.14716552879092162,-1.308361011178188,0.5068785808980463,-0.4719715940339179
0.17414112389087677,0.2161014825105667,75.66152954101562,0.14716552879092162,-1.308361011178188,0.5068785808980463,-0.4719715940339179
0.18651290237903595,0.21512864530086517,75.66188049316406,0.14716552879092162,-1.308361011178188,0.5068785808980463,-0.4719715940339179
0.14418910443782806,0.1447121500968933,75.66297149658203,0.14716552879092162,-1.308361011178188,0.5068785808980463,-0.4719715940339179
0.16246864199638367,0.14356260001659393,75.66189575195312,0.1556348008160581,-1.3162071853322177,0.5094340621183314,-0.46956930444963885
0.17224115133285522,0.19699285924434662,75.66248321533203,0.16414861225367816,-1.3240096907217074,0.512223310396075,-0.466731342289131
0.17410370707511902,0.7221235036849976,75.6611328125,0.17270971915322442,-1.3317247189013228,0.5151095175494749,-0.4590720392647198
0.44005662202835083,1.5749000310897827,75.68762969970703,0.1813375278019034,-1.3392164040324865,0.5202275202920038,-0.43993017647492993
0.5362113118171692,2.5245773792266846,75.72139739990234,0.19007578285773163,-1.34626388770913,0.5283630864073832,-0.4057678647222927
0.8972424864768982,2.521881103515625,75.59733581542969,0.198981379700514,-1.3526762369487555,0.5403085347265004,-0.36371404403277346
0.9759836196899414,2.5528252124786377,75.48970031738281,0.20811660709221724,-1.358385727521802,0.5559187522778908,-0.3214248247328213
0.3003489077091217,1.2196012735366821,75.55455780029297,0.2174705538334737,-1.3634808338724869,0.566554856672883,-0.2899879373493603
0.28762075304985046,1.8279516696929932,75.54603576660156,0.22695396600446333,-1.3681023305405853,0.5714546038458744,-0.26459166282244634
1.0608123540878296,1.2253063917160034,75.63275146484375,0.23657185058989025,-1.372300159777806,0.5826915464053551,-0.23914784564403804
0.059985604137182236,1.8980211019515991,75.73197937011719,0.23657185058989025,-1.372300159777806,0.5826915464053551,-0.23914784564403804
0.7602623105049133,-0.060181960463523865,75.72303771972656,0.24634033802405186,-1.3761583294870476,0.5895269456940393,-0.22383251946497074
-0.12425951659679413,0,75.70478820800781,0.2562099539796406,-1.3798930507809404,0.5948269689766069,-0.22433403580216676
-0.5342941284179688,-0.6253066658973694,75.74398040771484,0.26607800390390246,-1.3836753754516637,0.5893390219348172,-0.22954492468464485
1.2945061922073364,-1.631091594696045,75.69126892089844,0.2759531134405792,-1.38765781852006,0.5956741224663953,-0.2483482435229233
-0.6905068755149841,2.698958396911621,75.78997802734375,0.28592295987867833,-1.3917227984952882,0.6007074501054982,-0.23944935350446017
0,2.5827243328094482,75.80119323730469,0.29588679884741476,-1.3953468375307987,0.5949532261428734,-0.1954353307567846
0.8600172400474548,0.7107453346252441,75.7197265625,0.3058624093692437,-1.3983753798720622,0.6021200364766022,-0.1679897501948288
0.8138872385025024,1.3764500617980957,75.5479965209961,0.31601398667708636,-1.4010302649172244,0.6160692404645185,-0.15059645522463433
0.29032981395721436,0.7048612236976624,75.451904296875,0.32635848909124915,-1.4033956703316977,0.6252710492350161,-0.13325219451216969
-0.4227621853351593,0.5754735469818115,75.452880859375,0.3367704765527093,-1.405527628103381,0.6241674461401999,-0.12258273808984074
0.05705563724040985,1.1384683847427368,75.47087860107422,0.3367704765527093,-1.405527628103381,0.6241674461401999,-0.12258273808984074
0.636512815952301,0.13336895406246185,75.53102111816406,0.3472214317976288,-1.4074823517007946,0.6299471832501392,-0.11198409359979741
0.08035138249397278,-0.2637155055999756,75.66816711425781,0.3577703337544677,-1.409357805104648,0.6359210515705248,-0.11307031486261003
0.6209166049957275,-1.3059958219528198,75.90878295898438,0.36841771711310767,-1.4113513180834383,0.6417649514662723,-0.12615124259221666
0.07131802290678024,-0.6156631112098694,75.8546371459961,0.37916187148670544,-1.4135872873303337,0.6475335733654599,-0.14216506703523907
0.39763766527175903,1.1729860305786133,75.73423767089844,0.38998666407669774,-1.4159180021337425,0.6514415374336144,-0.13752070937383287
0.9145576357841492,1.5447038412094116,75.68215942382812,0.4009351477076091,-1.4180212854933212,0.662376498275747,-0.11487329377559934
-1.0159832239151,2.0885300636291504,75.68684387207031,0.41196771256858467,-1.419683532479523,0.6615312850413224,-0.08459634456861131
1.4395908117294312,0.6306139230728149,75.59617614746094,0.42302265117953824,-1.4209046421121454,0.6650613482731085,-0.06193681134609494
0,1.2634968757629395,75.52836608886719,0.4342069785682379,-1.4218053868291056,0.6770579383708537,-0.04615255468913032
0.08172884583473206,0.4949631690979004,75.53824615478516,0.44549695315537957,-1.4224524807930314,0.6777390120861432,-0.031498720981956656
-0.1868520826101303,-0.3142322599887848,75.6200180053711,0.44549695315537957,-1.4224524807930314,0.6777390120861432,-0.031498720981956656
0.22854375839233398,1.06942880153656,75.70472717285156,0.45679549861207797,-1.4229250152717898,0.6780864427176615,-0.02520541646905853
1.4495751857757568,-0.46439164876937866,75.80072784423828,0.46821347536182845,-1.423303089077332,0.6920707672523956,-0.020163440195998684
-0.3975522816181183,-0.2100393921136856,75.82899475097656,0.4798210452954904,-1.4236859819028822,0.7008376247870426,-0.02578369887002422
-0.10684784501791,-1.3883122205734253,75.66495513916016,0.4914666445887025,-1.4242267068571526,0.6966342903984091,-0.03910329564241681
0.6081003546714783,-0.5563718676567078,75.5174560546875,0.503112025297402,-1.4250134759573199,0.7008113946455221,-0.055308996377667924
-0.15461863577365875,1.1957470178604126,75.56282043457031,0.5148237069941952,-1.425890891511517,0.7045904089696706,-0.049980870125970384
0.6378805637359619,1.5206730365753174,75.59880065917969,0.5266004403331316,-1.4265352657320585,0.7086175917026898,-0.027344036339005968
-0.07676448673009872,1.0370630025863647,75.5352783203125,0.5384496999224129,-1.4268133791127668,0.7132935590110719,-0.006029569345991949
-0.20364098250865936,1.2575006484985352,75.57769012451172,0.5503184533039003,-1.426754527237208,0.7109568467674157,0.013091794413048884
-0.2505696713924408,0.11979769170284271,75.56024169921875,0.5503184533039003,-1.426754527237208,0.7109568467674157,0.013091794413048884
0.2734655439853668,0.6495466828346252,75.46668243408203,0.5503184533039003,-1.426754527237208,0.7109568467674157,0.013091794413048884
1.633355975151062,-0.929128110408783,75.31815338134766,0.5503184533039003,-1.426754527237208,0.7109568467674157,0.013091794413048884
-0.5480207800865173,-0.11479756236076355,75.32989501953125,0.5503184533039003,-1.426754527237208,0.7109568467674157,0.013091794413048884
-0.8111346960067749,-3.915782928466797,75.5540771484375,0.5503184533039003,-1.426754527237208,0.7109568467674157,0.013091794413048884
-0.4660162031650543,-1.1593762636184692,75.91221618652344,0.5503184533039003,-1.426754527237208,0.7109568467674157,0.013091794413048884
-0.7097562551498413,-1.371434211730957,76.45011901855469,0.5503184533039003,-1.426754527237208,0.7109568467674157,0.013091794413048884
-1.0597397089004517,-0.11739123612642288,77.29451751708984,0.5503184533039003,-1.426754527237208,0.7109568467674157,0.013091794413048884
-1.0481479167938232,0.1887139081954956,78.40312957763672,0.5503184533039003,-1.426754527237208,0.7109568467674157,0.013091794413048884
-0.6513548493385315,-1.3548561334609985,79.7470932006836,0.5503184533039003,-1.426754527237208,0.7109568467674157,0.013091794413048884
-0.28779274225234985,-0.30946293473243713,81.11788940429688,0.5503184533039003,-1.426754527237208,0.7109568467674157,0.013091794413048884
0.9697529673576355,-2.9658215045928955,82.52240753173828,0.5503184533039003,-1.426754527237208,0.7109568467674157,0.013091794413048884
-1.2964733839035034,1.1902998685836792,84.03829193115234,0.5503184533039003,-1.426754527237208,0.7109568467674157,0.013091794413048884
0.8172115087509155,-1.0517901182174683,85.54745483398438,0.5503184533039003,-1.426754527237208,0.7109568467674157,0.013091794413048884
0.14937107264995575,-0.899183988571167,87.16719818115234,0.5503184533039003,-1.426754527237208,0.7109568467674157,0.013091794413048884
-0.5283156633377075,0.04255835711956024,88.72541809082031,0.5503184533039003,-1.426754527237208,0.7109568467674157,0.013091794413048884
0.7373089790344238,-0.5062486529350281,90.37614440917969,0.5503184533039003,-1.426754527237208,0.7109568467674157,0.013091794413048884
-1.3306714296340942,-0.12171006947755814,92.05376434326172,0.5503184533039003,-1.426754527237208,0.7109568467674157,0.013091794413048884
-0.42261719703674316,-0.4850439131259918,93.77085876464844,0.5503184533039003,-1.426754527237208,0.7109568467674157,0.013091794413048884
-1.274684190750122,-0.32524287700653076,95.51629638671875,0.5503184533039003,-1.426754527237208,0.7109568467674157,0.013091794413048884
-1.5206234455108643,-0.33400264382362366,97.27222442626953,0.5503184533039003,-1.426754527237208,0.7109568467674157,0.013091794413048884
-0.6601767539978027,-0.1779773086309433,99.02415466308594,0.5503184533039003,-1.426754527237208,0.7109568467674157,0.013091794413048884
-0.4994449019432068,-0.09411746263504028,100.81214904785156,0.5503184533039003,-1.426754527237208,0.7109568467674157,0.013091794413048884
0.06889195740222931,-0.9917739033699036,102.6193618774414,0.5503184533039003,-1.426754527237208,0.7109568467674157,0.013091794413048884
-0.3237694501876831,-0.14677287638187408,104.48957824707031,0.5503184533039003,-1.426754527237208,0.7109568467674157,0.013091794413048884
-0.8701216578483582,0.030757524073123932,106.43274688720703,0.5503184533039003,-1.426754527237208,0.7109568467674157,0.013091794413048884
1.203963041305542,-0.4173875153064728,108.34417724609375,0.5503184533039003,-1.426754527237208,0.7109568467674157,0.013091794413048884
-1.4601821899414062,0.5598295331001282,110.30821990966797,0.5503184533039003,-1.426754527237208,0.7109568467674157,0.013091794413048884
-0.30855223536491394,-0.44802314043045044,112.2716293334961,0.5503184533039003,-1.426754527237208,0.7109568467674157,0.013091794413048884
-0.12927114963531494,-0.012091614305973053,114.22029113769531,0.5503184533039003,-1.426754527237208,0.7109568467674157,0.013091794413048884
-0.09199201315641403,0.5149568915367126,116.20256805419922,0.5503184533039003,-1.426754527237208,0.7109568467674157,0.013091794413048884
0.07779454439878464,-1.0023114681243896,118.27168273925781,0.5503184533039003,-1.426754527237208,0.7109568467674157,0.013091794413048884
-1.3155174255371094,0.38239213824272156,120.18329620361328,0.5503184533039003,-1.426754527237208,0.7109568467674157,0.013091794413048884
1.0118279457092285,-0.052191928029060364,122.07725524902344,0.5503184533039003,-1.426754527237208,0.7109568467674157,0.013091794413048884
1.2840452194213867,-0.6347228288650513,123.93407440185547,0.5503184533039003,-1.426754527237208,0.7109568467674157,0.013091794413048884
-0.8857946991920471,0.31413760781288147,125.83956909179688,0.5503184533039003,-1.426754527237208,0.7109568467674157,0.013091794413048884
-0.5473084449768066,0.24098990857601166,127.7702865600586,0.5503184533039003,-1.426754527237208,0.7109568467674157,0.013091794413048884
1.2361764907836914,-0.9054239392280579,129.66128540039062,0.5503184533039003,-1.426754527237208,0.7109568467674157,0.013091794413048884
-1.1767162084579468,-0.0007688181940466166,131.5236053466797,0.5503184533039003,-1.426754527237208,0.7109568467674157,0.013091794413048884
-0.07436782121658325,0.655681312084198,133.48025512695312,0.5503184533039003,-1.426754527237208,0.7109568467674157,0.013091794413048884
0.7255527377128601,-0.46416720747947693,135.44883728027344,0.5503184533039003,-1.426754527237208,0.7109568467674157,0.013091794413048884
0.6090272665023804,-0.9063588380813599,137.35833740234375,0.5503184533039003,-1.426754527237208,0.7109568467674157,0.013091794413048884
0.7691048979759216,0.14220546185970306,139.32948303222656,0.5503184533039003,-1.426754527237208,0.7109568467674157,0.013091794413048884
-0.39168310165405273,-0.07083937525749207,141.28688049316406,0.5503184533039003,-1.426754527237208,0.7109568467674157,0.013091794413048884
0.8006202578544617,-0.5188412666320801,143.23541259765625,0.5503184533039003,-1.426754527237208,0.7109568467674157,0.013091794413048884
-1.9721240997314453,0.3069669306278229,145.21884155273438,0.5503184533039003,-1.426754527237208,0.7109568467674157,0.013091794413048884
1.4046810865402222,0.09128335118293762,147.2884063720703,0.5503184533039003,-1.426754527237208,0.7109568467674157,0.013091794413048884
-1.0298380851745605,-1.2166649103164673,149.31314086914062,0.5503184533039003,-1.426754527237208,0.7109568467674157,0.013091794413048884
0.13771390914916992,0.039725255221128464,151.3290252685547,0.5503184533039003,-1.426754527237208,0.7109568467674157,0.013091794413048884
0.5379487872123718,0.02499685250222683,153.32298278808594,0.5503184533039003,-1.426754527237208,0.7109568467674157,0.013091794413048884
0.6102703809738159,0.25820937752723694,155.27650451660156,0.5503184533039003,-1.426754527237208,0.7109568467674157,0.013091794413048884
1.3296772241592407,-0.17250335216522217,156.87364196777344,0.5503184533039003,-1.426754527237208,0.7109568467674157,0.013091794413048884
-0.04371902346611023,1.013960599899292,158.01817321777344,0.5503184533039003,-1.426754527237208,0.7109568467674157,0.013091794413048884
1.6010632514953613,1.670393705368042,158.79783630371094,0.5503184533039003,-1.426754527237208,0.7109568467674157,0.013091794413048884
1.527472972869873,0.7781952023506165,159.20172119140625,0.5503184533039003,-1.426754527237208,0.7109568467674157,0.013091794413048884
1.363835096359253,0.27259892225265503,159.41261291503906,0.5503184533039003,-1.426754527237208,0.7109568467674157,0.013091794413048884
1.9188820123672485,0.02413066476583481,159.49090576171875,0.5503184533039003,-1.426754527237208,0.7109568467674157,0.013091794413048884
1.1579511165618896,-0.7729429006576538,159.4872283935547,0.5503184533039003,-1.426754527237208,0.7109568467674157,0.013091794413048884
0.3407136797904968,0.2777302861213684,159.4240264892578,0.5503184533039003,-1.426754527237208,0.7109568467674157,0.013091794413048884
-0.543549656867981,0.5528764128684998,159.4078826904297,0.5503184533039003,-1.426754527237208,0.7109568467674157,0.013091794413048884
-0.8892936706542969,0.08190222829580307,159.3950653076172,0.5503184533039003,-1.426754527237208,0.7109568467674157,0.013091794413048884
-0.48743224143981934,0.5325567722320557,159.39378356933594,0.5503184533039003,-1.426754527237208,0.7109568467674157,0.013091794413048884
0.07063945382833481,0.0016175371129065752,159.4241485595703,0.5503184533039003,-1.426754527237208,0.7109568467674157,0.013091794413048884
0.4234882891178131,0.02755759283900261,159.43508911132812,0.5503184533039003,-1.426754527237208,0.7109568467674157,0.013091794413048884
0.3554134964942932,0.09379349648952484,159.42213439941406,0.5503184533039003,-1.426754527237208,0.7109568467674157,0.013091794413048884
-0.1528080552816391,0.19724737107753754,159.411376953125,0.5503184533039003,-1.426754527237208,0.7109568467674157,0.013091794413048884
-0.3521793484687805,0.25244349241256714,159.40008544921875,0.5503184533039003,-1.426754527237208,0.7109568467674157,0.013091794413048884
-0.1329396516084671,0.22577756643295288,159.40792846679688,0.5503184533039003,-1.426754527237208,0.7109568467674157,0.013091794413048884
0.10429999232292175,0.08646832406520844,159.41629028320312,0.5503184533039003,-1.426754527237208,0.7109568467674157,0.013091794413048884
0.19158928096294403,0.11511679738759995,159.4154510498047,0.5503184533039003,-1.426754527237208,0.7109568467674157,0.013091794413048884
-0.021543234586715698,0.17115984857082367,159.41265869140625,0.5503184533039003,-1.426754527237208,0.7109568467674157,0.013091794413048884
-0.1709667444229126,0.18924707174301147,159.408935546875,0.5503184533039003,-1.426754527237208,0.7109568467674157,0.013091794413048884
-0.10045376420021057,0.17976434528827667,159.40933227539062,0.5503184533039003,-1.426754527237208,0.7109568467674157,0.013091794413048884
0.04499461129307747,0.13679948449134827,159.4134063720703,0.5503184533039003,-1.426754527237208,0.7109568467674157,0.013091794413048884
0.06871222704648972,0.14307156205177307,159.4124298095703,0.5503184533039003,-1.426754527237208,0.7109568467674157,0.013091794413048884
-0.0282861590385437,0.17124220728874207,159.41021728515625,0.5503184533039003,-1.426754527237208,0.7109568467674157,0.013091794413048884
-0.10748742520809174,0.18234865367412567,159.409912109375,0.5503184533039003,-1.426754527237208,0.7109568467674157,0.013091794413048884
-0.04964074119925499,0.17989379167556763,159.41148376464844,0.5503184533039003,-1.426754527237208,0.7109568467674157,0.013091794413048884
0,0.15174317359924316,159.41180419921875,0.5621642868096628,-1.4265133003188464,0.7105431739240885,0.015855435790338972
-0.46253931522369385,0.24076463282108307,159.3950653076172,0.5739745522559515,-1.426221785569117,0.7066886796305577,0.019126334177175023
-2.0052907466888428,0.3795456886291504,159.45614624023438,0.585581319828828,-1.4258599362271744,0.6861234291146199,0.02429558685592697
-3.0690317153930664,1.068937063217163,159.64303588867188,0.5966643268097604,-1.4253544206995863,0.6438374085972707,0.03636627645464625
-2.0752086639404297,1.4566209316253662,159.59742736816406,0.6070377113711501,-1.4245729301201449,0.6009687387694915,0.05741259307833399
-1.4224597215652466,1.0424164533615112,159.5330047607422,0.616810963379426,-1.423442509305993,0.571821502223611,0.0782379046198913
-1.051087498664856,0.16397780179977417,159.5958251953125,0.6261695476373035,-1.4220547668501642,0.5512086087216934,0.08829119007956868
-1.199676275253296,0.5298746824264526,159.69212341308594,0.6352000547428096,-1.4205350628152111,0.5324522439390421,0.09407329411478724
-1.8323006629943848,0.8999892473220825,159.76731872558594,0.6438637048544154,-1.418867878473732,0.5071857694536448,0.1059888268626917
-0.6129640936851501,0.4515489637851715,159.8230743408203,0.652146990959429,-1.4170075412058047,0.486808563147982,0.11725164528858549
-1.5111902952194214,0.6363353729248047,159.6685791015625,0.652146990959429,-1.4170075412058047,0.486808563147982,0.11725164528858549
0.3029579818248749,0.6932832598686218,159.47659301757812,0.6601765619901319,-1.4149610124903844,0.47673996053636075,0.12833180056186405
-1.3137048482894897,-0.16157397627830505,159.34474182128906,0.6680520372444556,-1.4127852248918817,0.46831706998248895,0.13276271125845002
1.3699533939361572,0.33721116185188293,159.35169982910156,0.675861227893167,-1.4105603160107982,0.4687858078628778,0.13422635447156317
0.9300864338874817,-1.1458579301834106,159.32980346679688,0.683834049678925,-1.4083793661285173,0.4879528064280748,0.12748763140213376
-1.5071943998336792,1.009886384010315,159.34173583984375,0.6919265195106467,-1.4062640147402994,0.48314357337852315,0.12635453518402462
-0.9875955581665039,1.727761149406433,159.23252868652344,0.6998056630976498,-1.4039679914085228,0.46235365706185494,0.1491682646291642
-2.5664761066436768,-0.9999066591262817,159.2393035888672,0.7072647468497356,-1.4014313082139895,0.43273639318843676,0.1552337187148321
-1.423163890838623,0.48412230610847473,159.37193298339844,0.7141999617363844,-1.3988798979265908,0.3994893932094176,0.15093551577301703
0.9248098731040955,1.4013596773147583,159.4597930908203,0.7208235103719766,-1.3962333697481917,0.3953364430616299,0.1666478656348773
-1.1086865663528442,-0.5568556189537048,159.44107055664062,0.7273996818748615,-1.3933972592057797,0.393804137284557,0.17368539945455275
0,1.0537766218185425,159.4446258544922,0.733886092040274,-1.3904679941452271,0.38456508256495,0.17782640781175973
-0.3013937771320343,0.22509224712848663,159.46588134765625,0.7402745799596112,-1.3874154103435765,0.38205346775551635,0.18848364838631831
-1.5802574157714844,-0.47988203167915344,159.46229553222656,0.746511467533807,-1.3842917099388428,0.366373041147987,0.18636040018172942
-0.6028936505317688,0.42141959071159363,159.478759765625,0.7524660771733358,-1.3811897631608812,0.3481801155954599,0.18587321317366642
-0.4512289762496948,1.0154060125350952,159.55426025390625,0.7524660771733358,-1.3811897631608812,0.3481801155954599,0.18587321317366642
-0.10827352106571198,0.9661436080932617,159.6563262939453,0.7524660771733358,-1.3811897631608812,0.3481801155954599,0.18587321317366642
1.3337510824203491,-0.03430759906768799,159.66748046875,0.7524660771733358,-1.3811897631608812,0.3481801155954599,0.18587321317366642
0.932470977306366,-1.179003119468689,159.51612854003906,0.7524660771733358,-1.3811897631608812,0.3481801155954599,0.18587321317366642
2.7568001747131348,-2.7690653800964355,159.51397705078125,0.7524660771733358,-1.3811897631608812,0.3481801155954599,0.18587321317366642
2.0576953887939453,1.0537217855453491,159.45950317382812,0.7524660771733358,-1.3811897631608812,0.3481801155954599,0.18587321317366642
0.8044712543487549,0.393484503030777,159.39073181152344,0.7524660771733358,-1.3811897631608812,0.3481801155954599,0.18587321317366642
0.687840461730957,-0.9284733533859253,159.352783203125,0.7524660771733358,-1.3811897631608812,0.3481801155954599,0.18587321317366642
0.928180456161499,0.6421589851379395,159.28671264648438,0.7524660771733358,-1.3811897631608812,0.3481801155954599,0.18587321317366642
1.65189790725708,-1.1087661981582642,159.25897216796875,0.7524660771733358,-1.3811897631608812,0.3481801155954599,0.18587321317366642
0.686301589012146,0.3655284345149994,159.2374267578125,0.7524660771733358,-1.3811897631608812,0.3481801155954599,0.18587321317366642
1.5433975458145142,-0.4939790964126587,159.20327758789062,0.7524660771733358,-1.3811897631608812,0.3481801155954599,0.18587321317366642
-0.06500989943742752,-0.08424097299575806,159.17962646484375,0.7524660771733358,-1.3811897631608812,0.3481801155954599,0.18587321317366642
1.474460244178772,0.3861194849014282,159.1905975341797,0.7524660771733358,-1.3811897631608812,0.3481801155954599,0.18587321317366642
1.1999597549438477,-0.7559505701065063,159.15127563476562,0.7524660771733358,-1.3811897631608812,0.3481801155954599,0.18587321317366642
0.815094530582428,-0.5584442615509033,159.1551513671875,0.7524660771733358,-1.3811897631608812,0.3481801155954599,0.18587321317366642
0.7036325335502625,0.6600403785705566,159.1816864013672,0.7524660771733358,-1.3811897631608812,0.3481801155954599,0.18587321317366642
0.43824517726898193,-0.5233488082885742,159.21803283691406,0.7524660771733358,-1.3811897631608812,0.3481801155954599,0.18587321317366642
1.3930460214614868,0.11172160506248474,159.2516632080078,0.7524660771733358,-1.3811897631608812,0.3481801155954599,0.18587321317366642
1.0578800439834595,-0.4145249128341675,159.21127319335938,0.7524660771733358,-1.3811897631608812,0.3481801155954599,0.18587321317366642
0.46731069684028625,-0.42315438389778137,159.1888427734375,0.7524660771733358,-1.3811897631608812,0.3481801155954599,0.18587321317366642
0.6336876153945923,0.22031749784946442,159.16500854492188,0.7524660771733358,-1.3811897631608812,0.3481801155954599,0.18587321317366642
1.271283745765686,-0.513873815536499,159.21534729003906,0.7524660771733358,-1.3811897631608812,0.3481801155954599,0.18587321317366642
0.6146213412284851,0.010152915492653847,159.1884002685547,0.7524660771733358,-1.3811897631608812,0.3481801155954599,0.18587321317366642
-0.303117960691452,0.0915571078658104,159.17095947265625,0.7524660771733358,-1.3811897631608812,0.3481801155954599,0.18587321317366642
-0.2930343449115753,0.39429107308387756,159.20904541015625,0.7524660771733358,-1.3811897631608812,0.3481801155954599,0.18587321317366642
-0.6236644983291626,0.18003515899181366,159.1949462890625,0.7524660771733358,-1.3811897631608812,0.3481801155954599,0.18587321317366642
-0.3358977138996124,0.4037645757198334,159.18649291992188,0.7524660771733358,-1.3811897631608812,0.3481801155954599,0.18587321317366642
-0.11912961304187775,0.17704389989376068,159.20632934570312,0.7524660771733358,-1.3811897631608812,0.3481801155954599,0.18587321317366642
0.00041123872506432235,0.010631083510816097,159.1961212158203,0.7524660771733358,-1.3811897631608812,0.3481801155954599,0.18587321317366642
0.08940431475639343,0.19727502763271332,159.18246459960938,0.7524660771733358,-1.3811897631608812,0.3481801155954599,0.18587321317366642
0.07985084503889084,0.07523836195468903,159.19395446777344,0.7524660771733358,-1.3811897631608812,0.3481801155954599,0.18587321317366642
0.08579137921333313,0.05238165706396103,159.18670654296875,0.7524660771733358,-1.3811897631608812,0.3481801155954599,0.18587321317366642
0.020182190462946892,0.14028924703598022,159.1835479736328,0.7524660771733358,-1.3811897631608812,0.3481801155954599,0.18587321317366642
-0.08795719593763351,0.1592928171157837,159.18553161621094,0.7524660771733358,-1.3811897631608812,0.3481801155954599,0.18587321317366642
-0.1148376539349556,0.1550670564174652,159.18214416503906,0.7524660771733358,-1.3811897631608812,0.3481801155954599,0.18587321317366642
-0.07105673849582672,0.16261081397533417,159.18362426757812,0.7524660771733358,-1.3811897631608812,0.3481801155954599,0.18587321317366642
-0.03830648213624954,0.12341362982988358,159.1850128173828,0.7524660771733358,-1.3811897631608812,0.3481801155954599,0.18587321317366642
0.03002290241420269,0.12765511870384216,159.18470764160156,0.7524660771733358,-1.3811897631608812,0.3481801155954599,0.18587321317366642
0.0018320546951144934,0.12729749083518982,159.185546875,0.7524660771733358,-1.3811897631608812,0.3481801155954599,0.18587321317366642
-0.06479545682668686,0.13775771856307983,159.1834716796875,0.7524660771733358,-1.3811897631608812,0.3481801155954599,0.18587321317366642
-0.06973496079444885,0.16333264112472534,159.18304443359375,0.7524660771733358,-1.3811897631608812,0.3481801155954599,0.18587321317366642
-0.05588227137923241,0.13217297196388245,159.1842498779297,0.7524660771733358,-1.3811897631608812,0.3481801155954599,0.18587321317366642
-0.0312249306589365,0.13212084770202637,159.18260192871094,0.7524660771733358,-1.3811897631608812,0.3481801155954599,0.18587321317366642
0.003884298028424382,0.13058215379714966,159.18321228027344,0.7524660771733358,-1.3811897631608812,0.3481801155954599,0.18587321317366642
-0.0177089162170887,0.1257423460483551,159.18304443359375,0.7524660771733358,-1.3811897631608812,0.3481801155954599,0.18587321317366642
-0.04490341618657112,0.13992123305797577,159.1828155517578,0.7524660771733358,-1.3811897631608812,0.3481801155954599,0.18587321317366642
-0.06874070316553116,0.13750161230564117,159.18209838867188,0.7524660771733358,-1.3811897631608812,0.3481801155954599,0.18587321317366642
-0.04266688972711563,0.14228321611881256,159.18284606933594,0.7524660771733358,-1.3811897631608812,0.3481801155954599,0.18587321317366642
-0.040310028940439224,0.13027428090572357,159.1827850341797,0.7524660771733358,-1.3811897631608812,0.3481801155954599,0.18587321317366642
-0.022752398625016212,0.1324339658021927,159.18292236328125,0.7524660771733358,-1.3811897631608812,0.3481801155954599,0.18587321317366642
-0.04935408756136894,0.1336313784122467,159.18292236328125,0.7524660771733358,-1.3811897631608812,0.3481801155954599,0.18587321317366642
-0.05754987895488739,0.13856914639472961,159.18197631835938,0.7524660771733358,-1.3811897631608812,0.3481801155954599,0.18587321317366642
-0.04956495389342308,0.14181430637836456,159.1827392578125,0.7524660771733358,-1.3811897631608812,0.3481801155954599,0.18587321317366642
-0.039876263588666916,0.1520947366952896,159.18214416503906,0.7524660771733358,-1.3811897631608812,0.3481801155954599,0.18587321317366642
-0.04060731455683708,0.1192251667380333,159.18170166015625,0.7524660771733358,-1.3811897631608812,0.3481801155954599,0.18587321317366642
-0.058742836117744446,0.1261310875415802,159.18067932128906,0.7524660771733358,-1.3811897631608812,0.3481801155954599,0.18587321317366642
-0.04661552980542183,0.13597063720226288,159.17991638183594,0.7524660771733358,-1.3811897631608812,0.3481801155954599,0.18587321317366642
-0.03584704548120499,0.1303745061159134,159.1802215576172,0.7524660771733358,-1.3811897631608812,0.3481801155954599,0.18587321317366642
-0.045232146978378296,0.1212036982178688,159.18002319335938,0.7524660771733358,-1.3811897631608812,0.3481801155954599,0.18587321317366642
-0.04973415657877922,0.12150024622678757,159.18019104003906,0.7524660771733358,-1.3811897631608812,0.3481801155954599,0.18587321317366642
-0.04110532999038696,0.1306331604719162,159.17930603027344,0.7524660771733358,-1.3811897631608812,0.3481801155954599,0.18587321317366642
-0.036064788699150085,0.12594127655029297,159.17991638183594,0.7524660771733358,-1.3811897631608812,0.3481801155954599,0.18587321317366642
-0.02221558429300785,0.127437025308609,159.1798553466797,0.7524660771733358,-1.3811897631608812,0.3481801155954599,0.18587321317366642
-0.04802848398685455,0.12838652729988098,159.18023681640625,0.7524660771733358,-1.3811897631608812,0.3481801155954599,0.18587321317366642
-0.027821078896522522,0.11240945011377335,159.17922973632812,0.7524660771733358,-1.3811897631608812,0.3481801155954599,0.18587321317366642
-0.0367300845682621,0.12620967626571655,159.178466796875,0.7524660771733358,-1.3811897631608812,0.3481801155954599,0.18587321317366642
-0.041634999215602875,0.12278328090906143,159.1787567138672,0.7524660771733358,-1.3811897631608812,0.3481801155954599,0.18587321317366642
-0.04270263761281967,0.12640735507011414,159.17803955078125,0.7524660771733358,-1.3811897631608812,0.3481801155954599,0.18587321317366642
-0.05808302387595177,0.1368381828069687,159.1781005859375,0.7524660771733358,-1.3811897631608812,0.3481801155954599,0.18587321317366642
-0.06043339893221855,0.130906879901886,159.17745971679688,0.7524660771733358,-1.3811897631608812,0.3481801155954599,0.18587321317366642
-0.047061800956726074,0.12539707124233246,159.1771697998047,0.7524660771733358,-1.3811897631608812,0.3481801155954599,0.18587321317366642
-0.04609252139925957,0.12577517330646515,159.1781005859375,0.7524660771733358,-1.3811897631608812,0.3481801155954599,0.18587321317366642
-0.041275445371866226,0.12233690917491913,159.1774444580078,0.7524660771733358,-1.3811897631608812,0.3481801155954599,0.18587321317366642
-0.04407064616680145,0.1168733760714531,159.17581176757812,0.7524660771733358,-1.3811897631608812,0.3481801155954599,0.18587321317366642
-0.056733787059783936,0.12361765652894974,159.1754150390625,0.7524660771733358,-1.3811897631608812,0.3481801155954599,0.18587321317366642
-0.05969550460577011,0.12633419036865234,159.1761016845703,0.7524660771733358,-1.3811897631608812,0.3481801155954599,0.18587321317366642
-0.03842800110578537,0.11485180258750916,159.17544555664062,0.7524660771733358,-1.3811897631608812,0.3481801155954599,0.18587321317366642
-0.05893317982554436,0.11810418963432312,159.1754150390625,0.7524660771733358,-1.3811897631608812,0.3481801155954599,0.18587321317366642
-0.040359534323215485,0.12394776940345764,159.17454528808594,0.7524660771733358,-1.3811897631608812,0.3481801155954599,0.18587321317366642
-0.0439365990459919,0.11068795621395111,159.17245483398438,0.7524660771733358,-1.3811897631608812,0.3481801155954599,0.18587321317366642
-0.04291783273220062,0.11920620501041412,159.17279052734375,0.7524660771733358,-1.3811897631608812,0.3481801155954599,0.18587321317366642
-0.03108992986381054,0.12140979617834091,159.17262268066406,0.7524660771733358,-1.3811897631608812,0.3481801155954599,0.18587321317366642
-0.047053322196006775,0.12284478545188904,159.17279052734375,0.7524660771733358,-1.3811897631608812,0.3481801155954599,0.18587321317366642
-0.06059622764587402,0.11912926286458969,159.1729736328125,0.7524660771733358,-1.3811897631608812,0.3481801155954599,0.18587321317366642
-0.04427625983953476,0.11557140201330185,159.172119140625,0.7524660771733358,-1.3811897631608812,0.3481801155954599,0.18587321317366642
-0.06904768943786621,0.10074424743652344,159.1718292236328,0.7524660771733358,-1.3811897631608812,0.3481801155954599,0.18587321317366642
-0.052712228149175644,0.1258312612771988,159.17137145996094,0.7524660771733358,-1.3811897631608812,0.3481801155954599,0.18587321317366642
-0.048599664121866226,0.1263156682252884,159.17030334472656,0.7524660771733358,-1.3811897631608812,0.3481801155954599,0.18587321317366642
-0.03903084993362427,0.11768864095211029,159.1701202392578,0.7524660771733358,-1.3811897631608812,0.3481801155954599,0.18587321317366642
-0.04080980271100998,0.10813269019126892,159.1705780029297,0.7524660771733358,-1.3811897631608812,0.3481801155954599,0.18587321317366642
-0.046682149171829224,0.1129579171538353,159.16941833496094,0.7524660771733358,-1.3811897631608812,0.3481801155954599,0.18587321317366642
-0.04607737809419632,0.12744037806987762,159.16860961914062,0.7524660771733358,-1.3811897631608812,0.3481801155954599,0.18587321317366642
-0.05572108179330826,0.12214609980583191,159.1696319580078,0.7524660771733358,-1.3811897631608812,0.3481801155954599,0.18587321317366642
-0.029231639578938484,0.1225930005311966,159.170166015625,0.7524660771733358,-1.3811897631608812,0.3481801155954599,0.18587321317366642
-0.05403905734419823,0.11853457987308502,159.169921875,0.7524660771733358,-1.3811897631608812,0.3481801155954599,0.18587321317366642
-0.04600856453180313,0.11973031610250473,159.1693878173828,0.7524660771733358,-1.3811897631608812,0.3481801155954599,0.18587321317366642
-0.050439730286598206,0.12330257147550583,159.16883850097656,0.7524660771733358,-1.3811897631608812,0.3481801155954599,0.18587321317366642
-0.05036454275250435,0.12107113003730774,159.16909790039062,0.7524660771733358,-1.3811897631608812,0.3481801155954599,0.18587321317366642
-0.05978784337639809,0.12254776805639267,159.16773986816406,0.7524660771733358,-1.3811897631608812,0.3481801155954599,0.18587321317366642
-0.05265875905752182,0.11989934742450714,159.16714477539062,0.7524660771733358,-1.3811897631608812,0.3481801155954599,0.18587321317366642
-0.04768146201968193,0.11491376161575317,159.16673278808594,0.7524660771733358,-1.3811897631608812,0.3481801155954599,0.18587321317366642
-0.03987903892993927,0.1213950514793396,159.16726684570312,0.7524660771733358,-1.3811897631608812,0.3481801155954599,0.18587321317366642
-0.057215865701436996,0.11473287642002106,159.16738891601562,0.7524660771733358,-1.3811897631608812,0.3481801155954599,0.18587321317366642
-0.055929671972990036,0.10308579355478287,159.16757202148438,0.7524660771733358,-1.3811897631608812,0.3481801155954599,0.18587321317366642
-0.04302455484867096,0.11729595065116882,159.1669921875,0.7524660771733358,-1.3811897631608812,0.3481801155954599,0.18587321317366642
-0.05803142115473747,0.10961739718914032,159.1669158935547,0.7524660771733358,-1.3811897631608812,0.3481801155954599,0.18587321317366642
-0.06266503036022186,0.1063627153635025,159.16561889648438,0.7524660771733358,-1.3811897631608812,0.3481801155954599,0.18587321317366642
-0.06186889484524727,0.10062994062900543,159.1655731201172,0.7524660771733358,-1.3811897631608812,0.3481801155954599,0.18587321317366642
-0.0473385788500309,0.11225653439760208,159.1661376953125,0.7524660771733358,-1.3811897631608812,0.3481801155954599,0.18587321317366642
-0.060510825365781784,0.11504393815994263,159.16563415527344,0.7524660771733358,-1.3811897631608812,0.3481801155954599,0.18587321317366642
-0.04551108181476593,0.11451765894889832,159.1638641357422,0.7524660771733358,-1.3811897631608812,0.3481801155954599,0.18587321317366642
-0.05235720053315163,0.110450878739357,159.1634979248047,0.7524660771733358,-1.3811897631608812,0.3481801155954599,0.18587321317366642
-0.051479704678058624,0.1166941449046135,159.16384887695312,0.7524660771733358,-1.3811897631608812,0.3481801155954599,0.18587321317366642
-0.06560563296079636,0.11088936775922775,159.16424560546875,0.7524660771733358,-1.3811897631608812,0.3481801155954599,0.18587321317366642
-0.04614951089024544,0.10715517401695251,159.16360473632812,0.7524660771733358,-1.3811897631608812,0.3481801155954599,0.18587321317366642
-0.05645749345421791,0.09578248113393784,159.16172790527344,0.7524660771733358,-1.3811897631608812,0.3481801155954599,0.18587321317366642
-0.05395113676786423,0.09955289214849472,159.16232299804688,0.7524660771733358,-1.3811897631608812,0.3481801155954599,0.18587321317366642
-0.058324165642261505,0.10172195732593536,159.1615753173828,0.7524660771733358,-1.3811897631608812,0.3481801155954599,0.18587321317366642
-0.06630735844373703,0.12361223250627518,159.16087341308594,0.7524660771733358,-1.3811897631608812,0.3481801155954599,0.18587321317366642
-0.06612151116132736,0.10512806475162506,159.16061401367188,0.7524660771733358,-1.3811897631608812,0.3481801155954599,0.18587321317366642
-0.0596093125641346,0.1217016726732254,159.1610565185547,0.7524660771733358,-1.3811897631608812,0.3481801155954599,0.18587321317366642
-0.0521700419485569,0.1030249297618866,159.1613311767578,0.7524660771733358,-1.3811897631608812,0.3481801155954599,0.18587321317366642
-0.05626184865832329,0.1166088730096817,159.16090393066406,0.7524660771733358,-1.3811897631608812,0.3481801155954599,0.18587321317366642
-0.05740109458565712,0.10243336111307144,159.16148376464844,0.7524660771733358,-1.3811897631608812,0.3481801155954599,0.18587321317366642
-0.07083401829004288,0.09829005599021912,159.1626739501953,0.7524660771733358,-1.3811897631608812,0.3481801155954599,0.18587321317366642
-0.06055304780602455,0.09907466918230057,159.16207885742188,0.7524660771733358,-1.3811897631608812,0.3481801155954599,0.18587321317366642
-0.05857296288013458,0.08728096634149551,159.16256713867188,0.7524660771733358,-1.3811897631608812,0.3481801155954599,0.18587321317366642
-0.06529735773801804,0.09225588291883469,159.1617431640625,0.7524660771733358,-1.3811897631608812,0.3481801155954599,0.18587321317366642
-0.05323634669184685,0.09504210948944092,159.1625213623047,0.7524660771733358,-1.3811897631608812,0.3481801155954599,0.18587321317366642
-0.05532245710492134,0.10289191454648972,159.16270446777344,0.7524660771733358,-1.3811897631608812,0.3481801155954599,0.18587321317366642
-0.062004562467336655,0.09134571254253387,159.16275024414062,0.7524660771733358,-1.3811897631608812,0.3481801155954599,0.18587321317366642
-0.06748633831739426,0.09119098633527756,159.16246032714844,0.7524660771733358,-1.3811897631608812,0.3481801155954599,0.18587321317366642
-0.05398023501038551,0.11412370949983597,159.16249084472656,0.7524660771733358,-1.3811897631608812,0.3481801155954599,0.18587321317366642
-0.051284708082675934,0.093889020383358,159.16270446777344,0.7524660771733358,-1.3811897631608812,0.3481801155954599,0.18587321317366642
-0.07175157219171524,0.09820939600467682,159.16307067871094,0.7524660771733358,-1.3811897631608812,0.3481801155954599,0.18587321317366642
-0.05427646264433861,0.09344208985567093,159.1621856689453,0.7524660771733358,-1.3811897631608812,0.3481801155954599,0.18587321317366642
-0.05327504873275757,0.09266525506973267,159.16168212890625,0.7524660771733358,-1.3811897631608812,0.3481801155954599,0.18587321317366642
-0.06489267945289612,0.10253746807575226,159.1615447998047,0.7524660771733358,-1.3811897631608812,0.3481801155954599,0.18587321317366642
-0.06428380310535431,0.09209848195314407,159.16116333007812,0.7524660771733358,-1.3811897631608812,0.3481801155954599,0.18587321317366642
-0.05354934185743332,0.09558244049549103,159.1610107421875,0.7524660771733358,-1.3811897631608812,0.3481801155954599,0.18587321317366642
-0.07716846466064453,0.11537925153970718,159.1611328125,0.7524660771733358,-1.3811897631608812,0.3481801155954599,0.18587321317366642
-0.06340483576059341,0.09808988869190216,159.16043090820312,0.7524660771733358,-1.3811897631608812,0.3481801155954599,0.18587321317366642
-0.06394865363836288,0.0944792628288269,159.16061401367188,0.7524660771733358,-1.3811897631608812,0.3481801155954599,0.18587321317366642
-0.06457889825105667,0.09875503927469254,159.16082763671875,0.7524660771733358,-1.3811897631608812,0.3481801155954599,0.18587321317366642
-0.07947761565446854,0.09507384896278381,159.16171264648438,0.7524660771733358,-1.3811897631608812,0.3481801155954599,0.18587321317366642
-0.049510758370161057,0.09447040408849716,159.1607208251953,0.7524660771733358,-1.3811897631608812,0.3481801155954599,0.18587321317366642
-0.04690743610262871,0.09748700261116028,159.16046142578125,0.7524660771733358,-1.3811897631608812,0.3481801155954599,0.18587321317366642
-0.07178226113319397,0.09193770587444305,159.16143798828125,0.7524660771733358,-1.3811897631608812,0.3481801155954599,0.18587321317366642
-0.04889431223273277,0.09725099056959152,159.1608428955078,0.7524660771733358,-1.3811897631608812,0.3481801155954599,0.18587321317366642
-0.06298461556434631,0.09670110046863556,159.16098022460938,0.7524660771733358,-1.3811897631608812,0.3481801155954599,0.18587321317366642
-0.057348597794771194,0.09777040779590607,159.16043090820312,0.7524660771733358,-1.3811897631608812,0.3481801155954599,0.18587321317366642
-0.06550650298595428,0.09929009526968002,159.1601104736328,0.7524660771733358,-1.3811897631608812,0.3481801155954599,0.18587321317366642
-0.05101184919476509,0.09038469940423965,159.16075134277344,0.7524660771733358,-1.3811897631608812,0.3481801155954599,0.18587321317366642
-0.06031005457043648,0.08668278157711029,159.15977478027344,0.7524660771733358,-1.3811897631608812,0.3481801155954599,0.18587321317366642
-0.06308773159980774,0.09452299773693085,159.15982055664062,0.7524660771733358,-1.3811897631608812,0.3481801155954599,0.18587321317366642
-0.06885384768247604,0.09842999279499054,159.15916442871094,0.7524660771733358,-1.3811897631608812,0.3481801155954599,0.18587321317366642
-0.05338427424430847,0.06762276589870453,159.15997314453125,0.7524660771733358,-1.3811897631608812,0.3481801155954599,0.18587321317366642
-0.05709414184093475,0.08368007093667984,159.1603240966797,0.7524660771733358,-1.3811897631608812,0.3481801155954599,0.18587321317366642
-0.05765519663691521,0.08821375668048859,159.15939331054688,0.7524660771733358,-1.3811897631608812,0.3481801155954599,0.18587321317366642
-0.06087206304073334,0.0805274099111557,159.15798950195312,0.7524660771733358,-1.3811897631608812,0.3481801155954599,0.18587321317366642
-0.06902569532394409,0.08613939583301544,159.1578826904297,0.7524660771733358,-1.3811897631608812,0.3481801155954599,0.18587321317366642
-0.068708635866642,0.08307811617851257,159.1576690673828,0.7524660771733358,-1.3811897631608812,0.3481801155954599,0.18587321317366642
-0.06636334955692291,0.08828666806221008,159.15689086914062,0.7524660771733358,-1.3811897631608812,0.3481801155954599,0.18587321317366642
-0.04963402450084686,0.10456465184688568,159.15621948242188,0.7524660771733358,-1.3811897631608812,0.3481801155954599,0.18587321317366642
-0.03650515154004097,0.10731664299964905,159.15499877929688,0.7524660771733358,-1.3811897631608812,0.3481801155954599,0.18587321317366642
-0.07389499992132187,0.1023632287979126,159.15390014648438,0.7524660771733358,-1.3811897631608812,0.3481801155954599,0.18587321317366642
-0.0570254772901535,0.09681277722120285,159.15341186523438,0.7524660771733358,-1.3811897631608812,0.3481801155954599,0.18587321317366642
-0.06037313491106033,0.09183445572853088,159.15176391601562,0.7524660771733358,-1.3811897631608812,0.3481801155954599,0.18587321317366642
-0.071987085044384,0.08393285423517227,159.1513214111328,0.7524660771733358,-1.3811897631608812,0.3481801155954599,0.18587321317366642
-0.06500554084777832,0.09987201541662216,159.15257263183594,0.7524660771733358,-1.3811897631608812,0.3481801155954599,0.18587321317366642
-0.062296461313962936,0.0887194573879242,159.1520538330078,0.7524660771733358,-1.3811897631608812,0.3481801155954599,0.18587321317366642
-0.0622100755572319,0.08370326459407806,159.15213012695312,0.7524660771733358,-1.3811897631608812,0.3481801155954599,0.18587321317366642
-0.06701934337615967,0.09323577582836151,159.15200805664062,0.7524660771733358,-1.3811897631608812,0.3481801155954599,0.18587321317366642
-0.06483954191207886,0.09138572961091995,159.15109252929688,0.7524660771733358,-1.3811897631608812,0.3481801155954599,0.18587321317366642
-0.06767211109399796,0.08316298574209213,159.15097045898438,0.7524660771733358,-1.3811897631608812,0.3481801155954599,0.18587321317366642
-0.05855930596590042,0.08961381018161774,159.15036010742188,0.7524660771733358,-1.3811897631608812,0.3481801155954599,0.18587321317366642
-0.07356344908475876,0.0896197110414505,159.15109252929688,0.7524660771733358,-1.3811897631608812,0.3481801155954599,0.18587321317366642
-0.07447995245456696,0.09345054626464844,159.1510772705078,0.7524660771733358,-1.3811897631608812,0.3481801155954599,0.18587321317366642
-0.05944380909204483,0.08859529346227646,159.1509552001953,0.7524660771733358,-1.3811897631608812,0.3481801155954599,0.18587321317366642
-0.061581820249557495,0.08300069719552994,159.15036010742188,0.7524660771733358,-1.3811897631608812,0.3481801155954599,0.18587321317366642
-0.06690604239702225,0.08803100138902664,159.15061950683594,0.7524660771733358,-1.3811897631608812,0.3481801155954599,0.18587321317366642
-0.05916197970509529,0.08438711613416672,159.1506805419922,0.7524660771733358,-1.3811897631608812,0.3481801155954599,0.18587321317366642
-0.06602748483419418,0.09458807110786438,159.14952087402344,0.7524660771733358,-1.3811897631608812,0.3481801155954599,0.18587321317366642
-0.06741886585950851,0.0818806067109108,159.15040588378906,0.7524660771733358,-1.3811897631608812,0.3481801155954599,0.18587321317366642
-0.07820215821266174,0.07690893113613129,159.14979553222656,0.7524660771733358,-1.3811897631608812,0.3481801155954599,0.18587321317366642
-0.06152253597974777,0.07638080418109894,159.14715576171875,0.7524660771733358,-1.3811897631608812,0.3481801155954599,0.18587321317366642
-0.06069352477788925,0.08854427188634872,159.14683532714844,0.7524660771733358,-1.3811897631608812,0.3481801155954599,0.18587321317366642
-0.057386379688978195,0.08431056141853333,159.14715576171875,0.7524660771733358,-1.3811897631608812,0.3481801155954599,0.18587321317366642
-0.05478671193122864,0.08203659951686859,159.1467742919922,0.7524660771733358,-1.3811897631608812,0.3481801155954599,0.18587321317366642
-0.06136716529726982,0.08792460709810257,159.14584350585938,0.7524660771733358,-1.3811897631608812,0.3481801155954599,0.18587321317366642
-0.0689738467335701,0.07043265551328659,159.14401245117188,0.7524660771733358,-1.3811897631608812,0.3481801155954599,0.18587321317366642
-0.06718012690544128,0.0747564509510994,159.14276123046875,0.7524660771733358,-1.3811897631608812,0.3481801155954599,0.18587321317366642
-0.06530844420194626,0.07770649343729019,159.14193725585938,0.7524660771733358,-1.3811897631608812,0.3481801155954599,0.18587321317366642
-0.07017707079648972,0.07938419282436371,159.1421661376953,0.7524660771733358,-1.3811897631608812,0.3481801155954599,0.18587321317366642
-0.07382435351610184,0.07937131077051163,159.14146423339844,0.7524660771733358,-1.3811897631608812,0.3481801155954599,0.18587321317366642
-0.06491205096244812,0.07872271537780762,159.14158630371094,0.7524660771733358,-1.3811897631608812,0.3481801155954599,0.18587321317366642
-0.05502362921833992,0.07520081847906113,159.14158630371094,0.7524660771733358,-1.3811897631608812,0.3481801155954599,0.18587321317366642
-0.04898572713136673,0.07756303995847702,159.14231872558594,0.7524660771733358,-1.3811897631608812,0.3481801155954599,0.18587321317366642
-0.06323916465044022,0.0725117176771164,159.14312744140625,0.7524660771733358,-1.3811897631608812,0.3481801155954599,0.18587321317366642
-0.0728406086564064,0.0740889310836792,159.14239501953125,0.7524660771733358,-1.3811897631608812,0.3481801155954599,0.18587321317366642
-0.06864333897829056,0.0726034864783287,159.14154052734375,0.7524660771733358,-1.3811897631608812,0.3481801155954599,0.18587321317366642
-0.06836479902267456,0.08502868562936783,159.14060974121094,0.7524660771733358,-1.3811897631608812,0.3481801155954599,0.18587321317366642
-0.06942925602197647,0.08179131150245667,159.14093017578125,0.7524660771733358,-1.3811897631608812,0.3481801155954599,0.18587321317366642
-0.06236385926604271,0.07828317582607269,159.14028930664062,0.7524660771733358,-1.3811897631608812,0.3481801155954599,0.18587321317366642
-0.06651399284601212,0.06938356161117554,159.1407012939453,0.7524660771733358,-1.3811897631608812,0.3481801155954599,0.18587321317366642
-0.051117949187755585,0.0681595727801323,159.1409149169922,0.7524660771733358,-1.3811897631608812,0.3481801155954599,0.18587321317366642
-0.06525122374296188,0.08051953464746475,159.14024353027344,0.7524660771733358,-1.3811897631608812,0.3481801155954599,0.18587321317366642
-0.05488394573330879,0.08738644421100616,159.14036560058594,0.7524660771733358,-1.3811897631608812,0.3481801155954599,0.18587321317366642
-0.06350348144769669,0.05844186246395111,159.14041137695312,0.7524660771733358,-1.3811897631608812,0.3481801155954599,0.18587321317366642
-0.056939005851745605,0.06987114995718002,159.1388397216797,0.7524660771733358,-1.3811897631608812,0.3481801155954599,0.18587321317366642
-0.058982301503419876,0.08236820995807648,159.13848876953125,0.7524660771733358,-1.3811897631608812,0.3481801155954599,0.18587321317366642
-0.06617242842912674,0.06748911738395691,159.13868713378906,0.7524660771733358,-1.3811897631608812,0.3481801155954599,0.18587321317366642
-0.06120156869292259,0.07512021064758301,159.1385498046875,0.7524660771733358,-1.3811897631608812,0.3481801155954599,0.18587321317366642
-0.05788573622703552,0.07683112472295761,159.13963317871094,0.7524660771733358,-1.3811897631608812,0.3481801155954599,0.18587321317366642
-0.06848537176847458,0.07881514728069305,159.1390380859375,0.7524660771733358,-1.3811897631608812,0.3481801155954599,0.18587321317366642
-0.06776703894138336,0.07626316696405411,159.14015197753906,0.7524660771733358,-1.3811897631608812,0.3481801155954599,0.18587321317366642
-0.0525805838406086,0.0798698365688324,159.14024353027344,0.7524660771733358,-1.3811897631608812,0.3481801155954599,0.18587321317366642
-0.06450603157281876,0.07297933846712112,159.14089965820312,0.7524660771733358,-1.3811897631608812,0.3481801155954599,0.18587321317366642
-0.0611572302877903,0.06890511512756348,159.1394500732422,0.7524660771733358,-1.3811897631608812,0.3481801155954599,0.18587321317366642
-0.06379271298646927,0.07463240623474121,159.13824462890625,0.7524660771733358,-1.3811897631608812,0.3481801155954599,0.18587321317366642
-0.07061393558979034,0.05868169292807579,159.13748168945312,0.7524660771733358,-1.3811897631608812,0.3481801155954599,0.18587321317366642
-0.07053794711828232,0.07501808553934097,159.13751220703125,0.7524660771733358,-1.3811897631608812,0.3481801155954599,0.18587321317366642
-0.07469011098146439,0.07050550729036331,159.13714599609375,0.7524660771733358,-1.3811897631608812,0.3481801155954599,0.18587321317366642
-0.06238602101802826,0.06523481756448746,159.13661193847656,0.7524660771733358,-1.3811897631608812,0.3481801155954599,0.18587321317366642
-0.061337828636169434,0.06354574114084244,159.13754272460938,0.7524660771733358,-1.3811897631608812,0.3481801155954599,0.18587321317366642
-0.0720532014966011,0.07004693895578384,159.13693237304688,0.7524660771733358,-1.3811897631608812,0.3481801155954599,0.18587321317366642
-0.06182262301445007,0.060980383306741714,159.13735961914062,0.7524660771733358,-1.3811897631608812,0.3481801155954599,0.18587321317366642
-0.07631079852581024,0.06506072729825974,159.13803100585938,0.7524660771733358,-1.3811897631608812,0.3481801155954599,0.18587321317366642
-0.0659291222691536,0.07140638679265976,159.1368865966797,0.7524660771733358,-1.3811897631608812,0.3481801155954599,0.18587321317366642
-0.08699429780244827,0.058520734310150146,159.13619995117188,0.7524660771733358,-1.3811897631608812,0.3481801155954599,0.18587321317366642
-0.06832657754421234,0.065711110830307,159.13597106933594,0.7524660771733358,-1.3811897631608812,0.3481801155954599,0.18587321317366642
-0.06752519309520721,0.05067044869065285,159.13534545898438,0.7524660771733358,-1.3811897631608812,0.3481801155954599,0.18587321317366642
-0.05823105573654175,0.07147378474473953,159.1344451904297,0.7524660771733358,-1.3811897631608812,0.3481801155954599,0.18587321317366642
-0.05557944253087044,0.06604408472776413,159.13479614257812,0.7524660771733358,-1.3811897631608812,0.3481801155954599,0.18587321317366642
-0.07662895321846008,0.05389148369431496,159.1338348388672,0.7524660771733358,-1.3811897631608812,0.3481801155954599,0.18587321317366642
-0.06426257640123367,0.06229332461953163,159.13327026367188,0.7524660771733358,-1.3811897631608812,0.3481801155954599,0.18587321317366642
-0.055874645709991455,0.06104715168476105,159.13206481933594,0.7524660771733358,-1.3811897631608812,0.3481801155954599,0.18587321317366642
-0.05965317785739899,0.06677580624818802,159.13253784179688,0.7524660771733358,-1.3811897631608812,0.3481801155954599,0.18587321317366642
-0.06574016809463501,0.049980178475379944,159.1318817138672,0.7524660771733358,-1.3811897631608812,0.3481801155954599,0.18587321317366642
-0.07892174273729324,0.06644553691148758,159.13204956054688,0.7524660771733358,-1.3811897631608812,0.3481801155954599,0.18587321317366642
-0.0666779950261116,0.06735105812549591,159.1305389404297,0.7524660771733358,-1.3811897631608812,0.3481801155954599,0.18587321317366642
-0.060430172830820084,0.050023723393678665,159.13050842285156,0.7524660771733358,-1.3811897631608812,0.3481801155954599,0.18587321317366642
-0.06954022496938705,0.053376227617263794,159.12986755371094,0.7524660771733358,-1.3811897631608812,0.3481801155954599,0.18587321317366642
-0.06530167162418365,0.0729428231716156,159.12930297851562,0.7524660771733358,-1.3811897631608812,0.3481801155954599,0.18587321317366642
-0.07797721773386002,0.06484395265579224,159.1291961669922,0.7524660771733358,-1.3811897631608812,0.3481801155954599,0.18587321317366642
-0.06410051882266998,0.05169365182518959,159.12831115722656,0.7524660771733358,-1.3811897631608812,0.3481801155954599,0.18587321317366642
-0.08478693664073944,0.05732063204050064,159.1280517578125,0.7524660771733358,-1.3811897631608812,0.3481801155954599,0.18587321317366642
-0.06976881623268127,0.05511694401502609,159.12814331054688,0.7524660771733358,-1.3811897631608812,0.3481801155954599,0.18587321317366642
-0.07662584632635117,0.056733064353466034,159.1272430419922,0.7524660771733358,-1.3811897631608812,0.3481801155954599,0.18587321317366642
-0.07010345906019211,0.043243616819381714,159.12753295898438,0.7524660771733358,-1.3811897631608812,0.3481801155954599,0.18587321317366642
-0.07052881270647049,0.05648006126284599,159.1271209716797,0.7524660771733358,-1.3811897631608812,0.3481801155954599,0.18587321317366642
-0.0579632930457592,0.04370252788066864,159.12754821777344,0.7524660771733358,-1.3811897631608812,0.3481801155954599,0.18587321317366642
-0.06294561922550201,0.05164917930960655,159.1276397705078,0.7524660771733358,-1.3811897631608812,0.3481801155954599,0.18587321317366642
-0.0675453394651413,0.05993512645363808,159.12716674804688,0.7524660771733358,-1.3811897631608812,0.3481801155954599,0.18587321317366642
-0.05970480293035507,0.04770085588097572,159.25929260253906,0.7524660771733358,-1.3811897631608812,0.3481801155954599,0.18587321317366642
-0.0711502879858017,0.06157620623707771,159.26071166992188,0.7524660771733358,-1.3811897631608812,0.3481801155954599,0.18587321317366642
-0.06637243181467056,0.056178975850343704,159.26161193847656,0.7524660771733358,-1.3811897631608812,0.3481801155954599,0.18587321317366642
-0.05100937560200691,0.05400487035512924,159.26113891601562,0.7524660771733358,-1.3811897631608812,0.3481801155954599,0.18587321317366642
-0.04847893491387367,0.068367138504982,159.26162719726562,0.7524660771733358,-1.3811897631608812,0.3481801155954599,0.18587321317366642
-0.055574510246515274,0.06890729069709778,159.26150512695312,0.7524660771733358,-1.3811897631608812,0.3481801155954599,0.18587321317366642
-0.05856139212846756,0.06491710245609283,159.26312255859375,0.7524660771733358,-1.3811897631608812,0.3481801155954599,0.18587321317366642
-0.07094477862119675,0.054946642369031906,159.26373291015625,0.7524660771733358,-1.3811897631608812,0.3481801155954599,0.18587321317366642
-0.055933400988578796,0.05880210921168327,159.2638702392578,0.7524660771733358,-1.3811897631608812,0.3481801155954599,0.18587321317366642
-0.051845043897628784,0.057956669479608536,159.262939453125,0.7524660771733358,-1.3811897631608812,0.3481801155954599,0.18587321317366642
-0.06775908172130585,0.05643173307180405,159.26211547851562,0.7524660771733358,-1.3811897631608812,0.3481801155954599,0.18587321317366642
-0.0638202577829361,0.0494975745677948,159.2613525390625,0.7524660771733358,-1.3811897631608812,0.3481801155954599,0.18587321317366642
-0.05710751935839653,0.06176862120628357,159.26046752929688,0.7524660771733358,-1.3811897631608812,0.3481801155954599,0.18587321317366642
-0.05899191275238991,0.051727522164583206,159.2613067626953,0.7524660771733358,-1.3811897631608812,0.3481801155954599,0.18587321317366642
-0.05325016751885414,0.044849496334791183,159.26141357421875,0.7524660771733358,-1.3811897631608812,0.3481801155954599,0.18587321317366642
-0.07473741471767426,0.059268854558467865,159.26129150390625,0.7524660771733358,-1.3811897631608812,0.3481801155954599,0.18587321317366642
-0.06764724850654602,0.045003727078437805,159.26104736328125,0.7524660771733358,-1.3811897631608812,0.3481801155954599,0.18587321317366642
-0.05935489386320114,0.0508602000772953,159.2613525390625,0.7524660771733358,-1.3811897631608812,0.3481801155954599,0.18587321317366642
-0.07030042260885239,0.051268622279167175,159.2609100341797,0.7524660771733358,-1.3811897631608812,0.3481801155954599,0.18587321317366642
-0.046183373779058456,0.05688394978642464,159.2625274658203,0.7524660771733358,-1.3811897631608812,0.3481801155954599,0.18587321317366642
-0.06447900086641312,0.05600559338927269,159.26194763183594,0.7524660771733358,-1.3811897631608812,0.3481801155954599,0.18587321317366642
-0.05252015218138695,0.04866071045398712,159.26283264160156,0.7524660771733358,-1.3811897631608812,0.3481801155954599,0.18587321317366642
-0.06024014204740524,0.05864531546831131,159.26319885253906,0.7524660771733358,-1.3811897631608812,0.3481801155954599,0.18587321317366642
-0.06256941705942154,0.06000490114092827,159.26344299316406,0.7524660771733358,-1.3811897631608812,0.3481801155954599,0.18587321317366642
-0.07346497476100922,0.051392294466495514,159.2631072998047,0.7524660771733358,-1.3811897631608812,0.3481801155954599,0.18587321317366642
-0.06837454438209534,0.053954724222421646,159.26336669921875,0.7524660771733358,-1.3811897631608812,0.3481801155954599,0.18587321317366642
-0.05932243540883064,0.05612326040863991,159.26429748535156,0.7524660771733358,-1.3811897631608812,0.3481801155954599,0.18587321317366642
-0.05443751811981201,0.05931360647082329,159.26356506347656,0.7524660771733358,-1.3811897631608812,0.3481801155954599,0.18587321317366642
-0.04991206154227257,0.029198629781603813,159.26296997070312,0.7524660771733358,-1.3811897631608812,0.3481801155954599,0.18587321317366642
-0.05907052755355835,0.047763578593730927,159.2628936767578,0.7524660771733358,-1.3811897631608812,0.3481801155954599,0.18587321317366642
-0.053349681198596954,0.04195069894194603,159.26341247558594,0.7524660771733358,-1.3811897631608812,0.3481801155954599,0.18587321317366642
-0.06096799299120903,0.045696526765823364,159.26206970214844,0.7524660771733358,-1.3811897631608812,0.3481801155954599,0.18587321317366642
-0.05662023276090622,0.05361750349402428,159.262451171875,0.7524660771733358,-1.3811897631608812,0.3481801155954599,0.18587321317366642
-0.061874546110630035,0.048367224633693695,159.2627716064453,0.7524660771733358,-1.3811897631608812,0.3481801155954599,0.18587321317366642
-0.06128909811377525,0.04986528307199478,159.26243591308594,0.7524660771733358,-1.3811897631608812,0.3481801155954599,0.18587321317366642
-0.0643295869231224,0.06362093985080719,159.26181030273438,0.7524660771733358,-1.3811897631608812,0.3481801155954599,0.18587321317366642
-0.0640910342335701,0.051669321954250336,159.2624053955078,0.7524660771733358,-1.3811897631608812,0.3481801155954599,0.18587321317366642
-0.05582353472709656,0.04346681758761406,159.26220703125,0.7524660771733358,-1.3811897631608812,0.3481801155954599,0.18587321317366642
-0.06653505563735962,0.037046439945697784,159.2628631591797,0.7524660771733358,-1.3811897631608812,0.3481801155954599,0.18587321317366642
-0.049869224429130554,0.035616885870695114,159.26356506347656,0.7524660771733358,-1.3811897631608812,0.3481801155954599,0.18587321317366642
-0.054075151681900024,0.047358471900224686,159.26284790039062,0.7524660771733358,-1.3811897631608812,0.3481801155954599,0.18587321317366642
-0.051801759749650955,0.04900896176695824,159.2649383544922,0.7524660771733358,-1.3811897631608812,0.3481801155954599,0.18587321317366642
-0.06116652861237526,0.0457131490111351,159.26515197753906,0.7524660771733358,-1.3811897631608812,0.3481801155954599,0.18587321317366642
-0.054479457437992096,0.053216543048620224,159.26466369628906,0.7524660771733358,-1.3811897631608812,0.3481801155954599,0.18587321317366642
-0.06607779860496521,0.04602670669555664,159.2640380859375,0.7524660771733358,-1.3811897631608812,0.3481801155954599,0.18587321317366642
-0.06286322325468063,0.0639386847615242,159.26441955566406,0.7524660771733358,-1.3811897631608812,0.3481801155954599,0.18587321317366642
-0.05136419087648392,0.041656799614429474,159.2652587890625,0.7524660771733358,-1.3811897631608812,0.3481801155954599,0.18587321317366642
-0.06258121877908707,0.04250235855579376,159.2638397216797,0.7524660771733358,-1.3811897631608812,0.3481801155954599,0.18587321317366642
-0.06185472384095192,0.040578585118055344,159.26373291015625,0.7524660771733358,-1.3811897631608812,0.3481801155954599,0.18587321317366642
-0.0606868602335453,0.04257732629776001,159.26414489746094,0.7524660771733358,-1.3811897631608812,0.3481801155954599,0.18587321317366642
-0.0622534304857254,0.03165840357542038,159.26449584960938,0.7524660771733358,-1.3811897631608812,0.3481801155954599,0.18587321317366642
-0.055151380598545074,0.03359042853116989,159.26416015625,0.7524660771733358,-1.3811897631608812,0.3481801155954599,0.18587321317366642
-0.07280492037534714,0.04544152319431305,159.26429748535156,0.7524660771733358,-1.3811897631608812,0.3481801155954599,0.18587321317366642
-0.06045259162783623,0.05739487335085869,159.2649383544922,0.7524660771733358,-1.3811897631608812,0.3481801155954599,0.18587321317366642
-0.04249086230993271,0.0384429506957531,159.26527404785156,0.7524660771733358,-1.3811897631608812,0.3481801155954599,0.18587321317366642
-0.06682316958904266,0.046867337077856064,159.26513671875,0.7524660771733358,-1.3811897631608812,0.3481801155954599,0.18587321317366642
-0.06623714417219162,0.05307258293032646,159.26475524902344,0.7524660771733358,-1.3811897631608812,0.3481801155954599,0.18587321317366642
-0.062069106847047806,0.025882981717586517,159.26556396484375,0.7524660771733358,-1.3811897631608812,0.3481801155954599,0.18587321317366642
-0.05473257601261139,0.04074784740805626,159.2652130126953,0.7524660771733358,-1.3811897631608812,0.3481801155954599,0.18587321317366642
-0.06022106111049652,0.04302136227488518,159.26600646972656,0.7524660771733358,-1.3811897631608812,0.3481801155954599,0.18587321317366642
-0.07025600224733353,0.04468539357185364,159.26698303222656,0.7524660771733358,-1.3811897631608812,0.3481801155954599,0.18587321317366642
-0.04527037590742111,0.04763384163379669,159.26632690429688,0.7524660771733358,-1.3811897631608812,0.3481801155954599,0.18587321317366642
-0.06181608512997627,0.040109142661094666,159.26681518554688,0.7524660771733358,-1.3811897631608812,0.3481801155954599,0.18587321317366642
-0.051911093294620514,0.05286714807152748,159.26644897460938,0.7524660771733358,-1.3811897631608812,0.3481801155954599,0.18587321317366642
-0.05320454016327858,0.048305463045835495,159.2672119140625,0.7524660771733358,-1.3811897631608812,0.3481801155954599,0.18587321317366642
-0.05450783297419548,0.04130768030881882,159.26808166503906,0.7524660771733358,-1.3811897631608812,0.3481801155954599,0.18587321317366642
-0.05517064779996872,0.03686952218413353,159.2691192626953,0.7524660771733358,-1.3811897631608812,0.3481801155954599,0.18587321317366642
-0.049009982496500015,0.05344627797603607,159.2699737548828,0.7524660771733358,-1.3811897631608812,0.3481801155954599,0.18587321317366642
-0.06630633771419525,0.058700501918792725,159.2705535888672,0.7524660771733358,-1.3811897631608812,0.3481801155954599,0.18587321317366642
-0.06672719120979309,0.054366327822208405,159.27102661132812,0.7524660771733358,-1.3811897631608812,0.3481801155954599,0.18587321317366642
-0.06170349568128586,0.038903024047613144,159.27145385742188,0.7524660771733358,-1.3811897631608812,0.3481801155954599,0.18587321317366642
-0.06018497794866562,0.05545502156019211,159.2703399658203,0.7524660771733358,-1.3811897631608812,0.3481801155954599,0.18587321317366642
-0.07069535553455353,0.04600236937403679,159.2706756591797,0.7524660771733358,-1.3811897631608812,0.3481801155954599,0.18587321317366642
-0.05675452575087547,0.040492646396160126,159.27281188964844,0.7524660771733358,-1.3811897631608812,0.3481801155954599,0.18587321317366642
-0.06080983579158783,0.04290379583835602,159.27381896972656,0.7524660771733358,-1.3811897631608812,0.3481801155954599,0.18587321317366642
-0.06056170165538788,0.040380850434303284,159.2743377685547,0.7524660771733358,-1.3811897631608812,0.3481801155954599,0.18587321317366642
-0.06360764056444168,0.04387645795941353,159.27511596679688,0.7524660771733358,-1.3811897631608812,0.3481801155954599,0.18587321317366642
-0.05401311442255974,0.03503914549946785,159.27586364746094,0.7524660771733358,-1.3811897631608812,0.3481801155954599,0.18587321317366642
-0.06624724715948105,0.04380249232053757,159.27767944335938,0.7524660771733358,-1.3811897631608812,0.3481801155954599,0.18587321317366642
-0.06357192993164062,0.028631985187530518,159.27842712402344,0.7524660771733358,-1.3811897631608812,0.3481801155954599,0.18587321317366642
-0.06235119327902794,0.03758493438363075,159.27833557128906,0.7524660771733358,-1.3811897631608812,0.3481801155954599,0.18587321317366642
-0.06227896362543106,0.01989436335861683,159.2786407470703,0.7524660771733358,-1.3811897631608812,0.3481801155954599,0.18587321317366642
-0.049782466143369675,0.034045107662677765,159.2796173095703,0.7524660771733358,-1.3811897631608812,0.3481801155954599,0.18587321317366642
-0.05748097226023674,0.034273914992809296,159.27955627441406,0.7524660771733358,-1.3811897631608812,0.3481801155954599,0.18587321317366642
-0.05700308829545975,0.03828231245279312,159.27969360351562,0.7524660771733358,-1.3811897631608812,0.3481801155954599,0.18587321317366642
-0.06295311450958252,0.04165161773562431,159.27981567382812,0.7524660771733358,-1.3811897631608812,0.3481801155954599,0.18587321317366642
-0.056902918964624405,0.04098442569375038,159.27978515625,0.7524660771733358,-1.3811897631608812,0.3481801155954599,0.18587321317366642
-0.07514339685440063,0.03499715402722359,159.28060913085938,0.7524660771733358,-1.3811897631608812,0.3481801155954599,0.18587321317366642
