faccX,faccY,yaw,posX,posY,velX,velY
0,0,-88.2058334350586,0.0,0.0,0.0,0.0
0,0,-88.20588684082031,0.0,0.0,0.0,0.0
0,0,-88.20667266845703,0.0,0.0,0.0,0.0
0,-0.22043906152248383,-88.20106506347656,0.0,-1.5308268161283597e-05,0.0,-0.0018369921793540318
0.11898879706859589,-0.9273311495780945,-88.17242431640625,8.26311090754138e-06,-0.0001256310691436132,0.0009915733089049658,-0.011401743938525518
0.368947297334671,-1.7058709859848022,-88.10161590576172,5.867378372285101e-05,-0.0004985213941997952,0.00505770742893219,-0.03334509506821633
0.16170412302017212,-2.7807462215423584,-87.91806030273438,0.00017981970061858494,-0.0013658436180816757,0.009479802598555883,-0.07073357179760933
-0.19120585918426514,-2.434464454650879,-87.89625549316406,0.0003357676789164543,-0.0029069038894441396,0.009233954797188441,-0.11419366076588632
-0.7223125100135803,-0.37364837527275085,-87.91842651367188,0.0004262281498975224,-0.005005139404286941,0.001621301720539729,-0.1375946010152499
1.0286214351654053,-1.3383643627166748,-87.8826904296875,0.00047452129837539464,-0.007417272528012594,0.004173876096804937,-0.15186137383182843
-0.5550039410591125,-1.791459560394287,-87.79447174072266,0.0005769760037461917,-0.010165644308759107,0.00812068854769071,-0.17794323985775312
-0.12049254029989243,-1.1243194341659546,-87.6669921875,0.0006654113350022171,-0.013333849625455009,0.0024915512030323347,-0.20224139814575515
-0.4201785922050476,-1.455557942390442,-87.60091400146484,0.0006693905819621352,-0.016883697745700678,-0.002014041567842166,-0.22374037628372512
0.21758633852005005,-0.4935915470123291,-87.6351547241211,0.0006217543159921966,-0.020748061620526843,-0.0037023103485504787,-0.23998328869541488
0.6963594555854797,-1.8603882789611816,-87.5736083984375,0.0006235176014403504,-0.02491125392003192,0.003913904602328936,-0.2595997872451941
-0.46772587299346924,-0.6931731104850769,-87.37760925292969,0.0007046266769369445,-0.029415247692830035,0.005819184457262357,-0.2808794654905796
0.3428296446800232,0,-87.24303436279297,0.0007929397353695501,-0.034144709139234494,0.004778382554650307,-0.28665590807795527
0.14958757162094116,-1.835792064666748,-87.21855163574219,0.0009067750846346222,-0.039049793167246716,0.008881859357158343,-0.3019541752835115
0.7809454798698425,-1.3822866678237915,-87.09185028076172,0.0011194264247185656,-0.04430584044506153,0.016636301452914875,-0.328771498054266
-0.4800964891910553,0.2773946225643158,-87.04136657714844,0.0014175904066198405,-0.04986209402688676,0.0191433763752381,-0.3379789317647616
-0.05955217033624649,-1.2674371004104614,-87.00396728515625,0.001699171078184413,-0.05556382917281655,0.014646304212510586,-0.34622928574681283
-0.06251802295446396,-0.5259149074554443,-87.00640106201172,0.0019347990516366234,-0.06145885560247634,0.013629052601754666,-0.36117388581236204
-0.6672996878623962,-0.6677714586257935,-87.00273895263672,0.0021112681428591415,-0.06756131525254913,0.007547238344947498,-0.37112127219637236
0.25365468859672546,0.5234829783439636,-86.98200988769531,0.0022083301014370394,-0.07375668982250824,0.004100196684400242,-0.3723236761987209
-0.6096370220184326,-1.0129328966140747,-86.94697570800781,0.002251945717467203,-0.0799960740034779,0.0011336772392193488,-0.37640242551763853
0.7953372001647949,-0.22287972271442413,-86.85671997070312,0.002283736183825467,-0.08635526808289191,0.0026811787237723678,-0.3867008640120427
1.9409527778625488,-0.8263847231864929,-86.80175018310547,0.00251844263325135,-0.09287314806961353,0.025483595207333565,-0.3954447343945503
-1.1330163478851318,-1.1994160413742065,-86.83364868164062,0.002999275916566452,-0.09960457425150608,0.032216398790478704,-0.4123264074325561
-1.0210412740707397,-0.41201940178871155,-86.86824035644531,0.0033866285615497174,-0.10658858628115722,0.014265918607513108,-0.4257550361255804
-0.3935222327709198,0.4726175367832184,-86.89161682128906,0.0033866285615497174,-0.10658858628115722,0.014265918607513108,-0.4257550361255804
0.4773460626602173,-0.11272310465574265,-86.970458984375,0.0036302149709728036,-0.11365951088101915,0.014964450523257254,-0.42275591585785144
0.4172986149787903,-1.079248309135437,-87.0267333984375,0.003941750582307578,-0.12078821860460773,0.02241982283691565,-0.43268901097277795
0.20804134011268616,-0.414241224527359,-87.03767395019531,0.004358840682026414,-0.1281034166717695,0.02763098912934462,-0.4451347570866346
-0.3868851065635681,0.32367652654647827,-87.10523986816406,0.004806937461511957,-0.13552861850501763,0.026140624408920603,-0.4458894629031419
-1.1444182395935059,0.8994672894477844,-87.12055206298828,0.00513627402484417,-0.14287516901062594,0.013379763190944987,-0.43569659776985636
0.08973496407270432,1.4423511028289795,-87.20374298095703,0.0052860281838931975,-0.14997415269621545,0.004590735894938308,-0.41618144450088335
1.0443230867385864,1.2711082696914673,-87.39095306396484,0.005441294480115175,-0.15672207542591624,0.014041219651699063,-0.393569283063213
0.07689210772514343,-0.6522482633590698,-87.51133728027344,0.005753176973925697,-0.16323858708764113,0.02338467960556348,-0.3884121163437763
-0.1882157325744629,-1.3244836330413818,-87.57638549804688,0.006135190826737218,-0.16984939540839855,0.02245698273181915,-0.40488488214711343
0.7113400101661682,-1.375185489654541,-87.52640533447266,0.006545801947100294,-0.17678495379992654,0.02681635171175003,-0.4273821248362461
-0.09004080295562744,0.1456572264432907,-87.41569519042969,0.007035886920574638,-0.18399337312103142,0.031993845105171205,-0.4376281936963399
0.08578900247812271,0.2643365263938904,-87.35494232177734,0.0075688224084054425,-0.1912587045609123,0.03195841343452533,-0.43421157908936336
-1.3690807819366455,0.6022033095359802,-87.33201599121094,0.008012345147629578,-0.19843538783490655,0.021264315272370972,-0.4269904137899478
-0.09892504662275314,-1.3075482845306396,-87.28388977050781,0.00826480555296358,-0.20560087702133586,0.009030933367709316,-0.43286828858156995
0.17836366593837738,0.482206791639328,-87.11005401611328,0.008420837679877875,-0.21287266387914616,0.009692921862006184,-0.43974613435566423
0.23623408377170563,-0.8932327032089233,-86.92122650146484,0.008420837679877875,-0.21287266387914616,0.009692921862006184,-0.43974613435566423
0.625775158405304,0.4998474419116974,-86.83491516113281,0.008642248130506937,-0.22022908453933066,0.01687633221348126,-0.44302434486647446
0.5768159031867981,-0.13400132954120636,-86.76970672607422,0.009007033602231075,-0.22758741764041285,0.026897924393415443,-0.439975627263387
0,1.8363116979599,-86.75028228759766,0.00949538900206486,-0.23480212876366244,0.03170472358663876,-0.4257897075265646
-0.38481613993644714,0.38244250416755676,-86.82674407958984,0.00999707771879103,-0.24174454373617965,0.028497922420501705,-0.4073000891755024
-1.007734775543213,-0.06412146985530853,-86.83857727050781,0.010375338167779972,-0.24851077292838855,0.016893331458171207,-0.40464741388956704
0.9153604507446289,-0.10999558866024017,-86.72389221191406,0.010650478808416257,-0.2552669879556116,0.01612354541818301,-0.4060983893771966
-0.6976266503334045,-0.8275078535079956,-86.62186431884766,0.01093432496819231,-0.26210039885093767,0.01793799375494321,-0.4139109180619319
-0.22626028954982758,-0.44529908895492554,-86.51094818115234,0.011169132715505029,-0.2690873035229742,0.010238935922582945,-0.4245176425824563
1.8337432146072388,-0.17388466000556946,-86.50436401367188,0.01145141240623262,-0.2762055964374707,0.02363462696472804,-0.42967750715712705
-0.21671995520591736,-0.15053503215312958,-86.5849838256836,0.011957616137547623,-0.28338941736871165,0.03710982079307239,-0.43238100459178286
-0.1913498193025589,-1.2491834163665771,-86.55557250976562,0.012547774971980185,-0.29069297011527745,0.03370923933883509,-0.44404532499611377
0.22142772376537323,-0.6165148019790649,-86.55712127685547,0.01311168437099291,-0.29822328790815333,0.03395988854269187,-0.4595928101489941
-1.4591535329818726,0.17019037902355194,-86.651123046875,0.013591729332175518,-0.3059141628288974,0.023645506799221044,-0.46331218034029004
0.5403648018836975,-0.09730864316225052,-86.68421936035156,0.013922016339169606,-0.3136309712695785,0.015988934040069586,-0.46270483254144584
1.2965497970581055,0.4849110245704651,-86.77152252197266,0.013922016339169606,-0.3136309712695785,0.015988934040069586,-0.46270483254144584
-1.4231230020523071,0.6830688118934631,-86.88279724121094,0.01417970876726839,-0.3212616087677371,0.014934157331784572,-0.45297166723757976
-0.8172107338905334,0.06667916476726532,-86.8416976928711,0.014273032657802102,-0.3287590707233175,-0.0037352904677390997,-0.4467237674320737
0.8682021498680115,0.07207770645618439,-86.8877182006836,0.01421431888722711,-0.33619483095335045,-0.003310362001260116,-0.4455674601718783
0.4414895176887512,0.06147561967372894,-87.09931945800781,0.014250096997453105,-0.34361168075301163,0.0076037352283795726,-0.44445451578746237
-0.5245771408081055,1.0262761116027832,-87.24717712402344,0.014371055944098364,-0.35094371770146404,0.00691133836905162,-0.43538991802682475
0.32442548871040344,-0.18058012425899506,-87.24128723144531,0.014472345496631329,-0.35814148744723445,0.005243407934904103,-0.4283424514656265
-0.5883373618125916,0.44154998660087585,-87.12407684326172,0.014541408415469857,-0.3652624053978878,0.003044142325719202,-0.4261677026127775
1.3384054899215698,-0.611649751663208,-87.12870025634766,0.014644232185350523,-0.372377012925119,0.009294710059960687,-0.4275852006549636
-1.72874116897583,-0.07453913986682892,-87.24256896972656,0.014772037375304433,-0.3795510849423913,0.006041912734508518,-0.4333034414177139
-0.3198186159133911,-0.7585529685020447,-87.18315124511719,0.014730474824706713,-0.3868306625846566,-0.011029418806234993,-0.44024587565412115
0.23312820494174957,-0.8512410521507263,-87.05166625976562,0.014540631010507543,-0.39427988509699285,-0.011751838897665338,-0.4536608258262276
0.2160927653312683,0.18334361910820007,-86.97117614746094,0.014375962929593191,-0.40188728062694684,-0.008008330812056857,-0.4592266377682486
0.7780951857566833,0.43847236037254333,-86.89848327636719,0.014311531579328907,-0.4094978762578426,0.0002765687803427397,-0.45404483793924244
0.08550906926393509,-0.6024275422096252,-86.8797378540039,0.014376113576711052,-0.41707667600001314,0.00747327090551456,-0.4554111311212181
0.09769289940595627,-0.00715917581692338,-86.83233642578125,0.014376113576711052,-0.41707667600001314,0.00747327090551456,-0.4554111311212181
-0.6531376242637634,-0.31220290064811707,-86.77596282958984,0.014376113576711052,-0.41707667600001314,0.00747327090551456,-0.4554111311212181
0.8058621883392334,1.8690804243087769,-86.79679870605469,0.014376113576711052,-0.41707667600001314,0.00747327090551456,-0.4554111311212181
-0.46221989393234253,0.8042628765106201,-86.83793640136719,0.014376113576711052,-0.41707667600001314,0.00747327090551456,-0.4554111311212181
-0.7010841369628906,2.522170066833496,-87.0674819946289,0.014376113576711052,-0.41707667600001314,0.00747327090551456,-0.4554111311212181
-0.5354377627372742,2.4259653091430664,-87.53160858154297,0.014376113576711052,-0.41707667600001314,0.00747327090551456,-0.4554111311212181
-0.9594902992248535,1.6793118715286255,-88.22959899902344,0.014376113576711052,-0.41707667600001314,0.00747327090551456,-0.4554111311212181
-0.18034565448760986,1.508830189704895,-89.23478698730469,0.014376113576711052,-0.41707667600001314,0.00747327090551456,-0.4554111311212181
-0.5654799342155457,0.9379164576530457,-90.49797058105469,0.014376113576711052,-0.41707667600001314,0.00747327090551456,-0.4554111311212181
-0.0520419105887413,1.434495449066162,-91.89874267578125,0.014376113576711052,-0.41707667600001314,0.00747327090551456,-0.4554111311212181
-0.8931989669799805,1.4701943397521973,-93.36668395996094,0.014376113576711052,-0.41707667600001314,0.00747327090551456,-0.4554111311212181
0.22990946471691132,1.8411668539047241,-94.9035415649414,0.014376113576711052,-0.41707667600001314,0.00747327090551456,-0.4554111311212181
-1.285561203956604,1.1095566749572754,-96.55422973632812,0.014376113576711052,-0.41707667600001314,0.00747327090551456,-0.4554111311212181
0.3464784026145935,2.114591360092163,-98.34466552734375,0.014376113576711052,-0.41707667600001314,0.00747327090551456,-0.4554111311212181
-0.7002093195915222,0.4207419157028198,-100.25088500976562,0.014376113576711052,-0.41707667600001314,0.00747327090551456,-0.4554111311212181
0.7466964721679688,1.6173787117004395,-102.26929473876953,0.014376113576711052,-0.41707667600001314,0.00747327090551456,-0.4554111311212181
-0.8268517851829529,0.1687839925289154,-104.38653564453125,0.014376113576711052,-0.41707667600001314,0.00747327090551456,-0.4554111311212181
-0.6575350165367126,1.9755985736846924,-106.53705596923828,0.014376113576711052,-0.41707667600001314,0.00747327090551456,-0.4554111311212181
-0.3649006485939026,0.9722471833229065,-108.68476867675781,0.014376113576711052,-0.41707667600001314,0.00747327090551456,-0.4554111311212181
-0.09881168603897095,1.0693984031677246,-110.77195739746094,0.014376113576711052,-0.41707667600001314,0.00747327090551456,-0.4554111311212181
-0.23744119703769684,0.6741524934768677,-112.85243225097656,0.014376113576711052,-0.41707667600001314,0.00747327090551456,-0.4554111311212181
-0.09902114421129227,0.9589292407035828,-114.94593811035156,0.014376113576711052,-0.41707667600001314,0.00747327090551456,-0.4554111311212181
0.0706963837146759,0.7035307884216309,-117.04153442382812,0.014376113576711052,-0.41707667600001314,0.00747327090551456,-0.4554111311212181
0.9787453413009644,0.870806097984314,-119.1830062866211,0.014376113576711052,-0.41707667600001314,0.00747327090551456,-0.4554111311212181
-0.49735739827156067,1.0002648830413818,-121.46659851074219,0.014376113576711052,-0.41707667600001314,0.00747327090551456,-0.4554111311212181
0.3079628050327301,1.5107096433639526,-123.83831024169922,0.014376113576711052,-0.41707667600001314,0.00747327090551456,-0.4554111311212181
-0.30490463972091675,0.7863742709159851,-126.30469512939453,0.014376113576711052,-0.41707667600001314,0.00747327090551456,-0.4554111311212181
-0.3379417955875397,0.770933210849762,-128.77371215820312,0.014376113576711052,-0.41707667600001314,0.00747327090551456,-0.4554111311212181
-0.18881307542324066,0.34943586587905884,-131.26254272460938,0.014376113576711052,-0.41707667600001314,0.00747327090551456,-0.4554111311212181
0.6241270303726196,1.7798129320144653,-133.79241943359375,0.014376113576711052,-0.41707667600001314,0.00747327090551456,-0.4554111311212181
0.978550136089325,0.656366229057312,-136.27200317382812,0.014376113576711052,-0.41707667600001314,0.00747327090551456,-0.4554111311212181
0.12411664426326752,-0.04253169521689415,-138.77476501464844,0.014376113576711052,-0.41707667600001314,0.00747327090551456,-0.4554111311212181
-0.43999364972114563,0.44178885221481323,-141.31666564941406,0.014376113576711052,-0.41707667600001314,0.00747327090551456,-0.4554111311212181
0.9967905879020691,0.8041008114814758,-143.8585662841797,0.014376113576711052,-0.41707667600001314,0.00747327090551456,-0.4554111311212181
-0.057138893753290176,0.628485918045044,-146.3764190673828,0.014376113576711052,-0.41707667600001314,0.00747327090551456,-0.4554111311212181
0.08164575695991516,0.7887983322143555,-148.90267944335938,0.014376113576711052,-0.41707667600001314,0.00747327090551456,-0.4554111311212181
0.8067749738693237,0.4928494095802307,-151.4975128173828,0.014376113576711052,-0.41707667600001314,0.00747327090551456,-0.4554111311212181
-1.214832067489624,0.8992183804512024,-154.03677368164062,0.014376113576711052,-0.41707667600001314,0.00747327090551456,-0.4554111311212181
0.9344045519828796,0.20017299056053162,-156.6623077392578,0.014376113576711052,-0.41707667600001314,0.00747327090551456,-0.4554111311212181
-0.2699331045150757,0.4909263849258423,-159.28427124023438,0.014376113576711052,-0.41707667600001314,0.00747327090551456,-0.4554111311212181
1.6858958005905151,0.26890355348587036,-162.0016326904297,0.014376113576711052,-0.41707667600001314,0.00747327090551456,-0.4554111311212181
0.29725897312164307,0.23462314903736115,-164.72557067871094,0.014376113576711052,-0.41707667600001314,0.00747327090551456,-0.4554111311212181
0.7993614077568054,-0.04672696068882942,-167.5669708251953,0.014376113576711052,-0.41707667600001314,0.00747327090551456,-0.4554111311212181
-0.46686482429504395,0.17822565138339996,-170.4544677734375,0.014376113576711052,-0.41707667600001314,0.00747327090551456,-0.4554111311212181
0.017590399831533432,1.046947956085205,-173.34811401367188,0.014376113576711052,-0.41707667600001314,0.00747327090551456,-0.4554111311212181
-0.06991185247898102,0.49965372681617737,-176.220458984375,0.014376113576711052,-0.41707667600001314,0.00747327090551456,-0.4554111311212181
1.0447230339050293,0.7977383136749268,-179.02621459960938,0.014376113576711052,-0.41707667600001314,0.00747327090551456,-0.4554111311212181
1.0417492389678955,0.2907818555831909,178.2884521484375,0.014376113576711052,-0.41707667600001314,0.00747327090551456,-0.4554111311212181
0.8977379202842712,-1.971130132675171,175.6265106201172,0.014376113576711052,-0.41707667600001314,0.00747327090551456,-0.4554111311212181
-0.7568148970603943,0.7979087829589844,172.93460083007812,0.014376113576711052,-0.41707667600001314,0.00747327090551456,-0.4554111311212181
0.8166665434837341,-0.25422942638397217,170.09683227539062,0.014376113576711052,-0.41707667600001314,0.00747327090551456,-0.4554111311212181
0.8129194974899292,0.4530443847179413,167.25558471679688,0.014376113576711052,-0.41707667600001314,0.00747327090551456,-0.4554111311212181
1.134325385093689,0.14092886447906494,164.44351196289062,0.014376113576711052,-0.41707667600001314,0.00747327090551456,-0.4554111311212181
0.25503867864608765,-0.8501790761947632,161.60923767089844,0.014376113576711052,-0.41707667600001314,0.00747327090551456,-0.4554111311212181
-0.06310965865850449,-0.3662961423397064,158.7125244140625,0.014376113576711052,-0.41707667600001314,0.00747327090551456,-0.4554111311212181
0.3202075958251953,0.8621077537536621,155.92213439941406,0.014376113576711052,-0.41707667600001314,0.00747327090551456,-0.4554111311212181
0.27467626333236694,-0.39293041825294495,153.10589599609375,0.014376113576711052,-0.41707667600001314,0.00747327090551456,-0.4554111311212181
0.2799421548843384,0.41087257862091064,150.270263671875,0.014376113576711052,-0.41707667600001314,0.00747327090551456,-0.4554111311212181
0.9223985075950623,-0.6771821975708008,147.35369873046875,0.014376113576711052,-0.41707667600001314,0.00747327090551456,-0.4554111311212181
0.5433474779129028,0.2804943323135376,144.3992919921875,0.014376113576711052,-0.41707667600001314,0.00747327090551456,-0.4554111311212181
0.204672172665596,-0.24682806432247162,141.33944702148438,0.014376113576711052,-0.41707667600001314,0.00747327090551456,-0.4554111311212181
0.34382376074790955,1.0843043327331543,138.4001922607422,0.014376113576711052,-0.41707667600001314,0.00747327090551456,-0.4554111311212181
-0.0892709270119667,-0.30013126134872437,135.42860412597656,0.014376113576711052,-0.41707667600001314,0.00747327090551456,-0.4554111311212181
-0.3544563353061676,-0.1502818614244461,132.4410858154297,0.014376113576711052,-0.41707667600001314,0.00747327090551456,-0.4554111311212181
0.4599859118461609,-0.47250276803970337,129.46791076660156,0.014376113576711052,-0.41707667600001314,0.00747327090551456,-0.4554111311212181
1.0708900690078735,0.9097421169281006,126.508544921875,0.014376113576711052,-0.41707667600001314,0.00747327090551456,-0.4554111311212181
1.224741816520691,0.1402668058872223,123.542236328125,0.014376113576711052,-0.41707667600001314,0.00747327090551456,-0.4554111311212181
0.33772093057632446,-0.4103512465953827,120.56375122070312,0.014376113576711052,-0.41707667600001314,0.00747327090551456,-0.4554111311212181
-0.05980023369193077,-0.3058677911758423,117.63008117675781,0.014376113576711052,-0.41707667600001314,0.00747327090551456,-0.4554111311212181
-0.5170117020606995,-0.5793638229370117,114.65602111816406,0.014376113576711052,-0.41707667600001314,0.00747327090551456,-0.4554111311212181
0.014245331287384033,0.3344520628452301,111.67494201660156,0.014376113576711052,-0.41707667600001314,0.00747327090551456,-0.4554111311212181
0.9719345569610596,0.6550624966621399,108.69861602783203,0.014376113576711052,-0.41707667600001314,0.00747327090551456,-0.4554111311212181
0.43914794921875,-0.5200392603874207,105.59136962890625,0.014376113576711052,-0.41707667600001314,0.00747327090551456,-0.4554111311212181
0.5729292035102844,-0.6531378030776978,102.59687042236328,0.014376113576711052,-0.41707667600001314,0.00747327090551456,-0.4554111311212181
-0.7017869353294373,-1.4822661876678467,99.69400024414062,0.014376113576711052,-0.41707667600001314,0.00747327090551456,-0.4554111311212181
-0.4517200291156769,0.03545697405934334,96.74874114990234,0.014376113576711052,-0.41707667600001314,0.00747327090551456,-0.4554111311212181
-0.17825309932231903,-0.27213427424430847,93.72052764892578,0.014376113576711052,-0.41707667600001314,0.00747327090551456,-0.4554111311212181
0.9664504528045654,-0.08177068084478378,90.72676849365234,0.014376113576711052,-0.41707667600001314,0.00747327090551456,-0.4554111311212181
-0.2830001711845398,-1.1564196348190308,87.71774291992188,0.014376113576711052,-0.41707667600001314,0.00747327090551456,-0.4554111311212181
0.4793553948402405,0.5622633695602417,84.76651000976562,0.014376113576711052,-0.41707667600001314,0.00747327090551456,-0.4554111311212181
-0.7199596762657166,-0.9653065204620361,81.81429290771484,0.014376113576711052,-0.41707667600001314,0.00747327090551456,-0.4554111311212181
1.2182154655456543,0.3627837896347046,78.90516662597656,0.014376113576711052,-0.41707667600001314,0.00747327090551456,-0.4554111311212181
-1.7948228120803833,-0.6851046085357666,75.96800231933594,0.014376113576711052,-0.41707667600001314,0.00747327090551456,-0.4554111311212181
0.5462800860404968,-0.2889529764652252,73.12227630615234,0.014376113576711052,-0.41707667600001314,0.00747327090551456,-0.4554111311212181
-1.2936124801635742,-0.8612067103385925,70.23946380615234,0.014376113576711052,-0.41707667600001314,0.00747327090551456,-0.4554111311212181
1.28432035446167,-0.11702947318553925,67.43600463867188,0.014376113576711052,-0.41707667600001314,0.00747327090551456,-0.4554111311212181
-1.5482585430145264,-0.3323719799518585,64.57809448242188,0.014376113576711052,-0.41707667600001314,0.00747327090551456,-0.4554111311212181
0.3565293550491333,-0.39405229687690735,61.655818939208984,0.014376113576711052,-0.41707667600001314,0.00747327090551456,-0.4554111311212181
-0.8261869549751282,-0.011485227383673191,58.63214111328125,0.014376113576711052,-0.41707667600001314,0.00747327090551456,-0.4554111311212181
1.459890365600586,-0.626031756401062,55.66314697265625,0.014376113576711052,-0.41707667600001314,0.00747327090551456,-0.4554111311212181
-0.2509671747684479,-0.24143612384796143,52.64374542236328,0.014376113576711052,-0.41707667600001314,0.00747327090551456,-0.4554111311212181
0.11296216398477554,-0.3408215343952179,49.67958450317383,0.014376113576711052,-0.41707667600001314,0.00747327090551456,-0.4554111311212181
-0.8500137329101562,0.605053186416626,46.69523239135742,0.014376113576711052,-0.41707667600001314,0.00747327090551456,-0.4554111311212181
0.023687275126576424,-0.4142257273197174,43.7152214050293,0.014376113576711052,-0.41707667600001314,0.00747327090551456,-0.4554111311212181
0.24458441138267517,-1.169265627861023,40.797794342041016,0.014376113576711052,-0.41707667600001314,0.00747327090551456,-0.4554111311212181
0.06071658059954643,-0.6410921216011047,37.879730224609375,0.014376113576711052,-0.41707667600001314,0.00747327090551456,-0.4554111311212181
-1.077653408050537,0.08214966207742691,34.884979248046875,0.014376113576711052,-0.41707667600001314,0.00747327090551456,-0.4554111311212181
0.19860103726387024,0.38246268033981323,31.86574935913086,0.014376113576711052,-0.41707667600001314,0.00747327090551456,-0.4554111311212181
-0.9152846932411194,-0.2051989734172821,28.841522216796875,0.014376113576711052,-0.41707667600001314,0.00747327090551456,-0.4554111311212181
0.07065732777118683,-0.1701793074607849,25.91402816772461,0.014376113576711052,-0.41707667600001314,0.00747327090551456,-0.4554111311212181
-1.4043424129486084,0.7013931274414062,23.099355697631836,0.014376113576711052,-0.41707667600001314,0.00747327090551456,-0.4554111311212181
-0.26631560921669006,0.662706732749939,20.319713592529297,0.014376113576711052,-0.41707667600001314,0.00747327090551456,-0.4554111311212181
0.7956952452659607,-0.5130916833877563,17.584775924682617,0.014376113576711052,-0.41707667600001314,0.00747327090551456,-0.4554111311212181
0.8140979409217834,-0.30152440071105957,14.914133071899414,0.014376113576711052,-0.41707667600001314,0.00747327090551456,-0.4554111311212181
-0.9284607768058777,-0.11415080726146698,12.20230770111084,0.014376113576711052,-0.41707667600001314,0.00747327090551456,-0.4554111311212181
-1.1191761493682861,2.2071280479431152,9.501879692077637,0.014376113576711052,-0.41707667600001314,0.00747327090551456,-0.4554111311212181
0.5025821328163147,-0.7794185876846313,6.783979892730713,0.014376113576711052,-0.41707667600001314,0.00747327090551456,-0.4554111311212181
-1.3416554927825928,0.35336101055145264,3.958422899246216,0.014376113576711052,-0.41707667600001314,0.00747327090551456,-0.4554111311212181
0.09721562266349792,-1.634832739830017,1.0866873264312744,0.014376113576711052,-0.41707667600001314,0.00747327090551456,-0.4554111311212181
-1.1329295635223389,0.6445183753967285,-1.8324174880981445,0.014376113576711052,-0.41707667600001314,0.00747327090551456,-0.4554111311212181
0.33355095982551575,0.2992151975631714,-4.7184367179870605,0.014376113576711052,-0.41707667600001314,0.00747327090551456,-0.4554111311212181
-0.5115200281143188,0.6239203214645386,-7.599847316741943,0.014376113576711052,-0.41707667600001314,0.00747327090551456,-0.4554111311212181
-0.4375019371509552,-0.6246087551116943,-10.61005973815918,0.014376113576711052,-0.41707667600001314,0.00747327090551456,-0.4554111311212181
-0.8614785671234131,-0.451801061630249,-13.579629898071289,0.014376113576711052,-0.41707667600001314,0.00747327090551456,-0.4554111311212181
-0.22320972383022308,0.07080049812793732,-16.615203857421875,0.014376113576711052,-0.41707667600001314,0.00747327090551456,-0.4554111311212181
-0.35927560925483704,-0.3865092098712921,-19.70255470275879,0.014376113576711052,-0.41707667600001314,0.00747327090551456,-0.4554111311212181
-0.15681922435760498,0.7918448448181152,-22.78769302368164,0.014376113576711052,-0.41707667600001314,0.00747327090551456,-0.4554111311212181
0.311349481344223,-0.24266614019870758,-25.888456344604492,0.014376113576711052,-0.41707667600001314,0.00747327090551456,-0.4554111311212181
-1.0256634950637817,2.0167744159698486,-29.044769287109375,0.014376113576711052,-0.41707667600001314,0.00747327090551456,-0.4554111311212181
-0.4171092212200165,-0.23069673776626587,-32.13271713256836,0.014376113576711052,-0.41707667600001314,0.00747327090551456,-0.4554111311212181
0.028552653267979622,1.2928178310394287,-35.21577453613281,0.014376113576711052,-0.41707667600001314,0.00747327090551456,-0.4554111311212181
0.1327913999557495,-0.5152760148048401,-38.34025573730469,0.014376113576711052,-0.41707667600001314,0.00747327090551456,-0.4554111311212181
-0.15796032547950745,-0.4524116814136505,-41.488685607910156,0.014376113576711052,-0.41707667600001314,0.00747327090551456,-0.4554111311212181
-0.4023193120956421,-0.48758724331855774,-44.70008087158203,0.014376113576711052,-0.41707667600001314,0.00747327090551456,-0.4554111311212181
0.6147496700286865,0.8775404095649719,-47.86246109008789,0.014376113576711052,-0.41707667600001314,0.00747327090551456,-0.4554111311212181
-1.1742744445800781,1.4301351308822632,-51.01603317260742,0.014376113576711052,-0.41707667600001314,0.00747327090551456,-0.4554111311212181
-0.247175931930542,0.7847870588302612,-54.06117630004883,0.014376113576711052,-0.41707667600001314,0.00747327090551456,-0.4554111311212181
-0.17355456948280334,0.26572781801223755,-57.174156188964844,0.014376113576711052,-0.41707667600001314,0.00747327090551456,-0.4554111311212181
-0.38241758942604065,-0.1006593406200409,-60.27271270751953,0.014376113576711052,-0.41707667600001314,0.00747327090551456,-0.4554111311212181
-0.7491495013237,0.6083638668060303,-63.315555572509766,0.014376113576711052,-0.41707667600001314,0.00747327090551456,-0.4554111311212181
0.2776755392551422,0.7758395671844482,-66.35708618164062,0.014376113576711052,-0.41707667600001314,0.00747327090551456,-0.4554111311212181
1.183910608291626,1.0647920370101929,-69.36592102050781,0.014376113576711052,-0.41707667600001314,0.00747327090551456,-0.4554111311212181
0.9617009162902832,1.6559484004974365,-72.42465209960938,0.014376113576711052,-0.41707667600001314,0.00747327090551456,-0.4554111311212181
-1.1016124486923218,-0.4930468797683716,-75.46568298339844,0.014376113576711052,-0.41707667600001314,0.00747327090551456,-0.4554111311212181
-0.5410265326499939,0.36287081241607666,-78.56685638427734,0.014376113576711052,-0.41707667600001314,0.00747327090551456,-0.4554111311212181
0.7240243554115295,1.9911832809448242,-81.68685913085938,0.014376113576711052,-0.41707667600001314,0.00747327090551456,-0.4554111311212181
0.8882758021354675,0.18259283900260925,-84.748779296875,0.014376113576711052,-0.41707667600001314,0.00747327090551456,-0.4554111311212181
-0.7490329742431641,0.4228336215019226,-87.78038787841797,0.014376113576711052,-0.41707667600001314,0.00747327090551456,-0.4554111311212181
0.5362404584884644,0.3405750095844269,-90.82223510742188,0.014376113576711052,-0.41707667600001314,0.00747327090551456,-0.4554111311212181
-0.9466372728347778,0.835408091545105,-93.91021728515625,0.014376113576711052,-0.41707667600001314,0.00747327090551456,-0.4554111311212181
0.1890915483236313,0.4268355369567871,-96.98556518554688,0.014376113576711052,-0.41707667600001314,0.00747327090551456,-0.4554111311212181
-0.1620136797428131,-0.11733496934175491,-100.05830383300781,0.014376113576711052,-0.41707667600001314,0.00747327090551456,-0.4554111311212181
0.43277445435523987,0.7518488168716431,-103.13213348388672,0.014376113576711052,-0.41707667600001314,0.00747327090551456,-0.4554111311212181
-0.1533634513616562,0.37824782729148865,-106.24195861816406,0.014376113576711052,-0.41707667600001314,0.00747327090551456,-0.4554111311212181
-0.32710516452789307,0.03289565443992615,-109.31721496582031,0.014376113576711052,-0.41707667600001314,0.00747327090551456,-0.4554111311212181
0.16800040006637573,0.9025325775146484,-112.4234848022461,0.014376113576711052,-0.41707667600001314,0.00747327090551456,-0.4554111311212181
0.9321082830429077,0.9233408570289612,-115.55091857910156,0.014376113576711052,-0.41707667600001314,0.00747327090551456,-0.4554111311212181
0.35215118527412415,0.26617199182510376,-118.64955139160156,0.014376113576711052,-0.41707667600001314,0.00747327090551456,-0.4554111311212181
0.6494222283363342,0.6526792049407959,-121.7686538696289,0.014376113576711052,-0.41707667600001314,0.00747327090551456,-0.4554111311212181
-1.4292346239089966,0.1862647980451584,-124.8692626953125,0.014376113576711052,-0.41707667600001314,0.00747327090551456,-0.4554111311212181
1.0176031589508057,-0.33974045515060425,-128.11717224121094,0.014376113576711052,-0.41707667600001314,0.00747327090551456,-0.4554111311212181
0.4246768653392792,1.3929921388626099,-131.25315856933594,0.014376113576711052,-0.41707667600001314,0.00747327090551456,-0.4554111311212181
0.9053063988685608,0.4888817369937897,-134.18896484375,0.014376113576711052,-0.41707667600001314,0.00747327090551456,-0.4554111311212181
0.08166556805372238,0.40547382831573486,-137.14524841308594,0.014376113576711052,-0.41707667600001314,0.00747327090551456,-0.4554111311212181
0.467733770608902,-0.768405556678772,-140.1026611328125,0.014376113576711052,-0.41707667600001314,0.00747327090551456,-0.4554111311212181
0.8646023869514465,0.3751949667930603,-143.10073852539062,0.014376113576711052,-0.41707667600001314,0.00747327090551456,-0.4554111311212181
-1.364806890487671,0.8552875518798828,-146.01541137695312,0.014376113576711052,-0.41707667600001314,0.00747327090551456,-0.4554111311212181
0.3096510171890259,0.012173587456345558,-148.88499450683594,0.014376113576711052,-0.41707667600001314,0.00747327090551456,-0.4554111311212181
1.9070534706115723,-0.4834348261356354,-151.66883850097656,0.014376113576711052,-0.41707667600001314,0.00747327090551456,-0.4554111311212181
0.5985550880432129,-1.5869649648666382,-154.302001953125,0.014376113576711052,-0.41707667600001314,0.00747327090551456,-0.4554111311212181
-0.17454659938812256,0.7944769263267517,-156.9749298095703,0.014376113576711052,-0.41707667600001314,0.00747327090551456,-0.4554111311212181
0.02168232388794422,1.5149078369140625,-159.5919189453125,0.014376113576711052,-0.41707667600001314,0.00747327090551456,-0.4554111311212181
1.1770013570785522,0.09906435012817383,-162.2921905517578,0.014376113576711052,-0.41707667600001314,0.00747327090551456,-0.4554111311212181
1.3716082572937012,-0.5388263463973999,-165.06275939941406,0.014376113576711052,-0.41707667600001314,0.00747327090551456,-0.4554111311212181
-0.24741652607917786,0.030397705733776093,-167.9157257080078,0.014376113576711052,-0.41707667600001314,0.00747327090551456,-0.4554111311212181
0.30680200457572937,0.8584643006324768,-170.7422637939453,0.014376113576711052,-0.41707667600001314,0.00747327090551456,-0.4554111311212181
1.6149849891662598,0.22873274981975555,-173.6349639892578,0.014376113576711052,-0.41707667600001314,0.00747327090551456,-0.4554111311212181
-0.6610826253890991,0.45587193965911865,-176.48968505859375,0.014376113576711052,-0.41707667600001314,0.00747327090551456,-0.4554111311212181
1.0624243021011353,-0.21506081521511078,-179.4445343017578,0.014376113576711052,-0.41707667600001314,0.00747327090551456,-0.4554111311212181
0.3525785803794861,0.4156759977340698,177.5399169921875,0.014376113576711052,-0.41707667600001314,0.00747327090551456,-0.4554111311212181
0.46708112955093384,-0.14531701803207397,174.4825897216797,0.014376113576711052,-0.41707667600001314,0.00747327090551456,-0.4554111311212181
0.4948214888572693,0.4437738358974457,171.4541778564453,0.014376113576711052,-0.41707667600001314,0.00747327090551456,-0.4554111311212181
0.5225024819374084,-0.3058028817176819,168.393798828125,0.014376113576711052,-0.41707667600001314,0.00747327090551456,-0.4554111311212181
-0.15297433733940125,0.7216293215751648,165.32403564453125,0.014376113576711052,-0.41707667600001314,0.00747327090551456,-0.4554111311212181
0.843995988368988,0.5395539402961731,162.29660034179688,0.014376113576711052,-0.41707667600001314,0.00747327090551456,-0.4554111311212181
0.14129409193992615,-0.42586827278137207,159.24969482421875,0.014376113576711052,-0.41707667600001314,0.00747327090551456,-0.4554111311212181
0.5430455207824707,-0.6556527018547058,156.23265075683594,0.014376113576711052,-0.41707667600001314,0.00747327090551456,-0.4554111311212181
0.8845096230506897,-0.3909498453140259,153.31854248046875,0.014376113576711052,-0.41707667600001314,0.00747327090551456,-0.4554111311212181
0.5959861278533936,0.17623582482337952,150.34939575195312,0.014376113576711052,-0.41707667600001314,0.00747327090551456,-0.4554111311212181
0.06450925022363663,0.15325972437858582,147.3216094970703,0.014376113576711052,-0.41707667600001314,0.00747327090551456,-0.4554111311212181
0.9822208881378174,-0.2804238796234131,144.32791137695312,0.014376113576711052,-0.41707667600001314,0.00747327090551456,-0.4554111311212181
1.2918436527252197,-0.22822754085063934,141.36337280273438,0.014376113576711052,-0.41707667600001314,0.00747327090551456,-0.4554111311212181
-0.488336980342865,-0.3868521749973297,138.4001922607422,0.014376113576711052,-0.41707667600001314,0.00747327090551456,-0.4554111311212181
-0.2138400673866272,-0.8017910122871399,135.42428588867188,0.014376113576711052,-0.41707667600001314,0.00747327090551456,-0.4554111311212181
0.3236876130104065,-0.30563393235206604,132.4132843017578,0.014376113576711052,-0.41707667600001314,0.00747327090551456,-0.4554111311212181
-0.2561010420322418,-0.29761987924575806,129.44908142089844,0.014376113576711052,-0.41707667600001314,0.00747327090551456,-0.4554111311212181
0.927147626876831,0.06275387108325958,126.45310974121094,0.014376113576711052,-0.41707667600001314,0.00747327090551456,-0.4554111311212181
0.05703407898545265,0.6796854138374329,123.54547119140625,0.014376113576711052,-0.41707667600001314,0.00747327090551456,-0.4554111311212181
1.037042498588562,-0.3817029297351837,120.70034790039062,0.014376113576711052,-0.41707667600001314,0.00747327090551456,-0.4554111311212181
0.06832204014062881,-0.43117567896842957,117.75939178466797,0.014376113576711052,-0.41707667600001314,0.00747327090551456,-0.4554111311212181
-0.05774484574794769,0.12111640721559525,114.78083801269531,0.014376113576711052,-0.41707667600001314,0.00747327090551456,-0.4554111311212181
0.353601336479187,-1.1018328666687012,111.8897933959961,0.014376113576711052,-0.41707667600001314,0.00747327090551456,-0.4554111311212181
0.8166557550430298,-0.10268861800432205,108.94937133789062,0.014376113576711052,-0.41707667600001314,0.00747327090551456,-0.4554111311212181
-0.14909259974956512,-0.24055349826812744,106.06804656982422,0.014376113576711052,-0.41707667600001314,0.00747327090551456,-0.4554111311212181
-0.5370953679084778,-0.9155507683753967,103.15425109863281,0.014376113576711052,-0.41707667600001314,0.00747327090551456,-0.4554111311212181
0.5900707244873047,0.2764038145542145,100.25909423828125,0.014376113576711052,-0.41707667600001314,0.00747327090551456,-0.4554111311212181
-0.35315582156181335,-0.9557071924209595,97.35130310058594,0.014376113576711052,-0.41707667600001314,0.00747327090551456,-0.4554111311212181
1.1143490076065063,-0.2336161732673645,94.50784301757812,0.014376113576711052,-0.41707667600001314,0.00747327090551456,-0.4554111311212181
-0.5115695595741272,-0.35459429025650024,91.6412582397461,0.014376113576711052,-0.41707667600001314,0.00747327090551456,-0.4554111311212181
-0.3373415470123291,-0.8645719289779663,88.70721435546875,0.014376113576711052,-0.41707667600001314,0.00747327090551456,-0.4554111311212181
0.6103111505508423,0.5574104189872742,85.82208251953125,0.014376113576711052,-0.41707667600001314,0.00747327090551456,-0.4554111311212181
-0.5771946310997009,-0.2316187173128128,82.83600616455078,0.014376113576711052,-0.41707667600001314,0.00747327090551456,-0.4554111311212181
0.6718214750289917,-0.49037283658981323,79.82693481445312,0.014376113576711052,-0.41707667600001314,0.00747327090551456,-0.4554111311212181
-0.8125953078269958,-0.31144019961357117,76.82707977294922,0.014376113576711052,-0.41707667600001314,0.00747327090551456,-0.4554111311212181
0.3678521513938904,-0.7499648928642273,73.84933471679688,0.014376113576711052,-0.41707667600001314,0.00747327090551456,-0.4554111311212181
0.4279104173183441,-0.20319241285324097,70.93460083007812,0.014376113576711052,-0.41707667600001314,0.00747327090551456,-0.4554111311212181
0.4939102828502655,-0.3538033366203308,68.02192687988281,0.014376113576711052,-0.41707667600001314,0.00747327090551456,-0.4554111311212181
-0.086021289229393,-0.2150493562221527,65.14178466796875,0.014376113576711052,-0.41707667600001314,0.00747327090551456,-0.4554111311212181
-0.7605202794075012,-0.593743622303009,62.26752853393555,0.014376113576711052,-0.41707667600001314,0.00747327090551456,-0.4554111311212181
0.2276594042778015,-0.8531204462051392,59.408870697021484,0.014376113576711052,-0.41707667600001314,0.00747327090551456,-0.4554111311212181
-1.3223599195480347,-0.07212591171264648,56.5985107421875,0.014376113576711052,-0.41707667600001314,0.00747327090551456,-0.4554111311212181
-0.1682378053665161,0.7982451915740967,53.783443450927734,0.014376113576711052,-0.41707667600001314,0.00747327090551456,-0.4554111311212181
0.06742539256811142,-0.49777430295944214,50.89675521850586,0.014376113576711052,-0.41707667600001314,0.00747327090551456,-0.4554111311212181
0.667395830154419,-0.8227274417877197,48.15325927734375,0.014376113576711052,-0.41707667600001314,0.00747327090551456,-0.4554111311212181
-0.8941430449485779,-0.6778380870819092,45.50376510620117,0.014376113576711052,-0.41707667600001314,0.00747327090551456,-0.4554111311212181
-1.649854302406311,1.8692227602005005,42.86480712890625,0.014376113576711052,-0.41707667600001314,0.00747327090551456,-0.4554111311212181
-0.6746528148651123,-0.4156089425086975,40.200443267822266,0.014376113576711052,-0.41707667600001314,0.00747327090551456,-0.4554111311212181
2.7811505794525146,-0.8556709885597229,37.71294021606445,0.014376113576711052,-0.41707667600001314,0.00747327090551456,-0.4554111311212181
-1.2414007186889648,-1.1267366409301758,35.11631774902344,0.014376113576711052,-0.41707667600001314,0.00747327090551456,-0.4554111311212181
-0.9706817865371704,0.6945629119873047,32.35773849487305,0.014376113576711052,-0.41707667600001314,0.00747327090551456,-0.4554111311212181
-1.647112488746643,0.8367674946784973,29.550800323486328,0.014376113576711052,-0.41707667600001314,0.00747327090551456,-0.4554111311212181
-0.21158665418624878,-0.6838598847389221,26.73314666748047,0.014376113576711052,-0.41707667600001314,0.00747327090551456,-0.4554111311212181
-0.16124476492404938,0.2637830078601837,23.881900787353516,0.014376113576711052,-0.41707667600001314,0.00747327090551456,-0.4554111311212181
-0.544701874256134,-1.1866389513015747,21.00748062133789,0.014376113576711052,-0.41707667600001314,0.00747327090551456,-0.4554111311212181
-0.4890154004096985,0.43116143345832825,18.084131240844727,0.014376113576711052,-0.41707667600001314,0.00747327090551456,-0.4554111311212181
0.6727690100669861,-0.4204109311103821,15.182482719421387,0.014376113576711052,-0.41707667600001314,0.00747327090551456,-0.4554111311212181
0.2120567113161087,-0.711789608001709,12.271140098571777,0.014376113576711052,-0.41707667600001314,0.00747327090551456,-0.4554111311212181
-0.49438127875328064,0.7430874705314636,9.332165718078613,0.014376113576711052,-0.41707667600001314,0.00747327090551456,-0.4554111311212181
-0.007881601341068745,-0.6976379156112671,6.410159587860107,0.014376113576711052,-0.41707667600001314,0.00747327090551456,-0.4554111311212181
-0.3916374742984772,-0.44193628430366516,3.4901106357574463,0.014376113576711052,-0.41707667600001314,0.00747327090551456,-0.4554111311212181
-1.234770655632019,-0.1736467182636261,0.5975073575973511,0.014376113576711052,-0.41707667600001314,0.00747327090551456,-0.4554111311212181
-0.5579505562782288,-0.14969827234745026,-2.211184024810791,0.014376113576711052,-0.41707667600001314,0.00747327090551456,-0.4554111311212181
-0.7794712781906128,0.6075539588928223,-5.1121296882629395,0.014376113576711052,-0.41707667600001314,0.00747327090551456,-0.4554111311212181
-0.6601219177246094,0.28301742672920227,-8.062583923339844,0.014376113576711052,-0.41707667600001314,0.00747327090551456,-0.4554111311212181
-0.06715697050094604,0.26867538690567017,-11.031949996948242,0.014376113576711052,-0.41707667600001314,0.00747327090551456,-0.4554111311212181
-0.458395779132843,-0.5471203327178955,-13.997751235961914,0.014376113576711052,-0.41707667600001314,0.00747327090551456,-0.4554111311212181
-0.277395635843277,0.22143639624118805,-17.05154037475586,0.014376113576711052,-0.41707667600001314,0.00747327090551456,-0.4554111311212181
-0.20391730964183807,-0.2682053744792938,-20.037879943847656,0.014376113576711052,-0.41707667600001314,0.00747327090551456,-0.4554111311212181
-0.44321098923683167,0.6062657237052917,-23.054161071777344,0.014376113576711052,-0.41707667600001314,0.00747327090551456,-0.4554111311212181
-0.5249012112617493,0.15031039714813232,-26.065868377685547,0.014376113576711052,-0.41707667600001314,0.00747327090551456,-0.4554111311212181
-0.13902372121810913,0.8890803456306458,-29.088768005371094,0.014376113576711052,-0.41707667600001314,0.00747327090551456,-0.4554111311212181
-0.26984062790870667,1.3161249160766602,-32.15419006347656,0.014376113576711052,-0.41707667600001314,0.00747327090551456,-0.4554111311212181
-0.2633085548877716,-0.0028331559151411057,-35.16316223144531,0.014376113576711052,-0.41707667600001314,0.00747327090551456,-0.4554111311212181
0.07950030267238617,0.4757389426231384,-38.213199615478516,0.014376113576711052,-0.41707667600001314,0.00747327090551456,-0.4554111311212181
-0.8976299166679382,-1.1603453159332275,-41.183956146240234,0.014376113576711052,-0.41707667600001314,0.00747327090551456,-0.4554111311212181
-0.5454105138778687,0.003587400773540139,-44.14936447143555,0.014376113576711052,-0.41707667600001314,0.00747327090551456,-0.4554111311212181
0.013720285147428513,1.4119741916656494,-47.217124938964844,0.014376113576711052,-0.41707667600001314,0.00747327090551456,-0.4554111311212181
0.16663625836372375,-0.14828114211559296,-50.22187423706055,0.014376113576711052,-0.41707667600001314,0.00747327090551456,-0.4554111311212181
-0.10535408556461334,2.1521196365356445,-53.20521926879883,0.014376113576711052,-0.41707667600001314,0.00747327090551456,-0.4554111311212181
-0.6694772243499756,-0.3515184819698334,-56.17019271850586,0.014376113576711052,-0.41707667600001314,0.00747327090551456,-0.4554111311212181
0.0032511879689991474,0.46391573548316956,-59.204532623291016,0.014376113576711052,-0.41707667600001314,0.00747327090551456,-0.4554111311212181
-0.7932929396629333,0.7360494136810303,-62.288265228271484,0.014376113576711052,-0.41707667600001314,0.00747327090551456,-0.4554111311212181
0.4917448163032532,0.48275965452194214,-65.32244110107422,0.014376113576711052,-0.41707667600001314,0.00747327090551456,-0.4554111311212181
0.11203495413064957,0.2073783278465271,-68.44672393798828,0.014376113576711052,-0.41707667600001314,0.00747327090551456,-0.4554111311212181
-0.3572228252887726,-0.6215988993644714,-71.58001708984375,0.014376113576711052,-0.41707667600001314,0.00747327090551456,-0.4554111311212181
0.3221251666545868,1.2254432439804077,-74.71653747558594,0.014376113576711052,-0.41707667600001314,0.00747327090551456,-0.4554111311212181
-1.4937676191329956,-0.7308263182640076,-77.76853942871094,0.014376113576711052,-0.41707667600001314,0.00747327090551456,-0.4554111311212181
0.9345865249633789,1.2394903898239136,-80.85291290283203,0.014376113576711052,-0.41707667600001314,0.00747327090551456,-0.4554111311212181
-0.3158722221851349,0.8203219771385193,-83.90007019042969,0.014376113576711052,-0.41707667600001314,0.00747327090551456,-0.4554111311212181
0.08776212483644485,-0.07748991996049881,-86.88235473632812,0.014376113576711052,-0.41707667600001314,0.00747327090551456,-0.4554111311212181
0.13395275175571442,0.3108753561973572,-89.86161041259766,0.014376113576711052,-0.41707667600001314,0.00747327090551456,-0.4554111311212181
0.25895363092422485,0.3049240708351135,-93.13201141357422,0.014376113576711052,-0.41707667600001314,0.00747327090551456,-0.4554111311212181
0.1520271748304367,0.5053211450576782,-96.04349517822266,0.014376113576711052,-0.41707667600001314,0.00747327090551456,-0.4554111311212181
-0.3163622319698334,0.014047851786017418,-98.95963287353516,0.014376113576711052,-0.41707667600001314,0.00747327090551456,-0.4554111311212181
0.39678463339805603,0.1869104951620102,-102.06183624267578,0.014376113576711052,-0.41707667600001314,0.00747327090551456,-0.4554111311212181
0.6014854907989502,0.69749915599823,-105.08856964111328,0.014376113576711052,-0.41707667600001314,0.00747327090551456,-0.4554111311212181
-0.6554257869720459,0.7447789907455444,-108.06013488769531,0.014376113576711052,-0.41707667600001314,0.00747327090551456,-0.4554111311212181
0.9911744594573975,0.5553429126739502,-111.03653717041016,0.014376113576711052,-0.41707667600001314,0.00747327090551456,-0.4554111311212181
0.06182429939508438,-0.1997990608215332,-114.06214904785156,0.014376113576711052,-0.41707667600001314,0.00747327090551456,-0.4554111311212181
0.7109637260437012,0.5414911508560181,-117.11264038085938,0.014376113576711052,-0.41707667600001314,0.00747327090551456,-0.4554111311212181
0.8159769177436829,-0.15925388038158417,-120.18290710449219,0.014376113576711052,-0.41707667600001314,0.00747327090551456,-0.4554111311212181
-0.274372398853302,0.7968279123306274,-123.26081848144531,0.014376113576711052,-0.41707667600001314,0.00747327090551456,-0.4554111311212181
-0.8278570771217346,0.24130229651927948,-126.22928619384766,0.014376113576711052,-0.41707667600001314,0.00747327090551456,-0.4554111311212181
1.1512930393218994,0.7948561906814575,-129.24632263183594,0.014376113576711052,-0.41707667600001314,0.00747327090551456,-0.4554111311212181
-0.07093392312526703,-0.43300896883010864,-132.32261657714844,0.014376113576711052,-0.41707667600001314,0.00747327090551456,-0.4554111311212181
0.4986127018928528,0.3607719838619232,-135.4149169921875,0.014376113576711052,-0.41707667600001314,0.00747327090551456,-0.4554111311212181
2.1113944053649902,1.1778868436813354,-138.42112731933594,0.014376113576711052,-0.41707667600001314,0.00747327090551456,-0.4554111311212181
-0.523337721824646,0.01021615881472826,-141.41258239746094,0.014376113576711052,-0.41707667600001314,0.00747327090551456,-0.4554111311212181
1.2996572256088257,-0.054237909615039825,-144.4375,0.014376113576711052,-0.41707667600001314,0.00747327090551456,-0.4554111311212181
-0.9942148923873901,0.008464631624519825,-147.4839324951172,0.014376113576711052,-0.41707667600001314,0.00747327090551456,-0.4554111311212181
0.0777166411280632,-0.22640912234783173,-150.57774353027344,0.014376113576711052,-0.41707667600001314,0.00747327090551456,-0.4554111311212181
1.112741231918335,0.5870450139045715,-153.5523681640625,0.014376113576711052,-0.41707667600001314,0.00747327090551456,-0.4554111311212181
0.34283170104026794,0.5951102375984192,-156.44403076171875,0.014376113576711052,-0.41707667600001314,0.00747327090551456,-0.4554111311212181
0.545149564743042,-0.500549852848053,-159.35337829589844,0.014376113576711052,-0.41707667600001314,0.00747327090551456,-0.4554111311212181
0.13508576154708862,0.5012937784194946,-162.22647094726562,0.014376113576711052,-0.41707667600001314,0.00747327090551456,-0.4554111311212181
1.2827861309051514,-0.17365361750125885,-165.13272094726562,0.014376113576711052,-0.41707667600001314,0.00747327090551456,-0.4554111311212181
0.3575649857521057,0.0006280714296735823,-168.08042907714844,0.014376113576711052,-0.41707667600001314,0.00747327090551456,-0.4554111311212181
0.18835261464118958,0.39467915892601013,-171.02821350097656,0.014376113576711052,-0.41707667600001314,0.00747327090551456,-0.4554111311212181
0.9898450970649719,-1.5094200372695923,-174.02317810058594,0.014376113576711052,-0.41707667600001314,0.00747327090551456,-0.4554111311212181
0.17335423827171326,0.6132117509841919,-176.9696502685547,0.014376113576711052,-0.41707667600001314,0.00747327090551456,-0.4554111311212181
0.13749633729457855,-0.11772096157073975,-179.9893035888672,0.014376113576711052,-0.41707667600001314,0.00747327090551456,-0.4554111311212181
-0.11729195713996887,0.12303938716650009,177.0255889892578,0.014376113576711052,-0.41707667600001314,0.00747327090551456,-0.4554111311212181
0.9078004360198975,0.5562335848808289,174.07708740234375,0.014376113576711052,-0.41707667600001314,0.00747327090551456,-0.4554111311212181
0.42609381675720215,0.028045644983649254,171.07595825195312,0.014376113576711052,-0.41707667600001314,0.00747327090551456,-0.4554111311212181
0.8408592939376831,-1.049121379852295,168.10708618164062,0.014376113576711052,-0.41707667600001314,0.00747327090551456,-0.4554111311212181
0.2870969772338867,0.31457650661468506,165.15716552734375,0.014376113576711052,-0.41707667600001314,0.00747327090551456,-0.4554111311212181
0.42746949195861816,-0.4123166799545288,162.19287109375,0.014376113576711052,-0.41707667600001314,0.00747327090551456,-0.4554111311212181
0.3195209205150604,0.5656790733337402,159.24986267089844,0.014376113576711052,-0.41707667600001314,0.00747327090551456,-0.4554111311212181
0.24416658282279968,-0.4273460805416107,156.37600708007812,0.014376113576711052,-0.41707667600001314,0.00747327090551456,-0.4554111311212181
0.4055001139640808,0.044606421142816544,153.49569702148438,0.014376113576711052,-0.41707667600001314,0.00747327090551456,-0.4554111311212181
-0.8541615009307861,-2.243319034576416,150.64076232910156,0.014376113576711052,-0.41707667600001314,0.00747327090551456,-0.4554111311212181
-0.6625850796699524,0.3461977243423462,147.79808044433594,0.014376113576711052,-0.41707667600001314,0.00747327090551456,-0.4554111311212181
1.4084076881408691,1.5928447246551514,145.00897216796875,0.014376113576711052,-0.41707667600001314,0.00747327090551456,-0.4554111311212181
1.7330752611160278,-0.18602240085601807,142.22337341308594,0.014376113576711052,-0.41707667600001314,0.00747327090551456,-0.4554111311212181
-1.1128482818603516,-1.694824457168579,139.3173370361328,0.014376113576711052,-0.41707667600001314,0.00747327090551456,-0.4554111311212181
-0.5747767686843872,-2.758058786392212,136.34573364257812,0.014376113576711052,-0.41707667600001314,0.00747327090551456,-0.4554111311212181
0.8270555734634399,2.9454832077026367,133.4813690185547,0.014376113576711052,-0.41707667600001314,0.00747327090551456,-0.4554111311212181
0.025363938882946968,0.5351437926292419,130.58221435546875,0.014376113576711052,-0.41707667600001314,0.00747327090551456,-0.4554111311212181
0.533025860786438,-1.2562944889068604,127.64859771728516,0.014376113576711052,-0.41707667600001314,0.00747327090551456,-0.4554111311212181
-0.3263218402862549,0.38034477829933167,124.7845230102539,0.014376113576711052,-0.41707667600001314,0.00747327090551456,-0.4554111311212181
0.9725124835968018,-1.0873790979385376,122.01075744628906,0.014376113576711052,-0.41707667600001314,0.00747327090551456,-0.4554111311212181
0.6009790301322937,-0.11137384921312332,119.15347290039062,0.014376113576711052,-0.41707667600001314,0.00747327090551456,-0.4554111311212181
0.5861433744430542,-0.41260817646980286,116.30469512939453,0.014376113576711052,-0.41707667600001314,0.00747327090551456,-0.4554111311212181
-0.22206661105155945,-1.0141593217849731,113.37071228027344,0.014376113576711052,-0.41707667600001314,0.00747327090551456,-0.4554111311212181
0.827544093132019,-0.43437618017196655,110.41532135009766,0.014376113576711052,-0.41707667600001314,0.00747327090551456,-0.4554111311212181
-0.43506771326065063,-0.2744046747684479,107.46896362304688,0.014376113576711052,-0.41707667600001314,0.00747327090551456,-0.4554111311212181
0.43437597155570984,0.5141018033027649,104.52376556396484,0.014376113576711052,-0.41707667600001314,0.00747327090551456,-0.4554111311212181
-0.7477043867111206,-1.6061595678329468,101.52626037597656,0.014376113576711052,-0.41707667600001314,0.00747327090551456,-0.4554111311212181
0.9260633587837219,0.1905413269996643,98.61468505859375,0.014376113576711052,-0.41707667600001314,0.00747327090551456,-0.4554111311212181
-1.0460774898529053,-1.4664808511734009,95.6929702758789,0.014376113576711052,-0.41707667600001314,0.00747327090551456,-0.4554111311212181
0.9221517443656921,0.12950190901756287,92.69676208496094,0.014376113576711052,-0.41707667600001314,0.00747327090551456,-0.4554111311212181
0.1650772988796234,0.002145287813618779,89.73562622070312,0.014376113576711052,-0.41707667600001314,0.00747327090551456,-0.4554111311212181
-0.3271655738353729,-1.10102117061615,86.76258087158203,0.014376113576711052,-0.41707667600001314,0.00747327090551456,-0.4554111311212181
-0.3885653018951416,-0.642749547958374,83.7876205444336,0.014376113576711052,-0.41707667600001314,0.00747327090551456,-0.4554111311212181
-0.06154933571815491,-0.3411763310432434,80.85098266601562,0.014376113576711052,-0.41707667600001314,0.00747327090551456,-0.4554111311212181
-0.1257169246673584,-0.44514739513397217,77.9243392944336,0.014376113576711052,-0.41707667600001314,0.00747327090551456,-0.4554111311212181
0.8392395377159119,-0.1478458046913147,74.92854309082031,0.014376113576711052,-0.41707667600001314,0.00747327090551456,-0.4554111311212181
0.6455267667770386,-0.5610232353210449,72.03748321533203,0.014376113576711052,-0.41707667600001314,0.00747327090551456,-0.4554111311212181
-1.2278603315353394,-1.0011903047561646,69.1819076538086,0.014376113576711052,-0.41707667600001314,0.00747327090551456,-0.4554111311212181
-2.0301666259765625,-0.27313876152038574,66.37125396728516,0.014376113576711052,-0.41707667600001314,0.00747327090551456,-0.4554111311212181
-1.16416335105896,0.3407060503959656,63.65911102294922,0.014376113576711052,-0.41707667600001314,0.00747327090551456,-0.4554111311212181
1.967892050743103,-0.7210788130760193,60.90689468383789,0.014376113576711052,-0.41707667600001314,0.00747327090551456,-0.4554111311212181
-2.5174243450164795,-0.8869078755378723,58.107601165771484,0.014376113576711052,-0.41707667600001314,0.00747327090551456,-0.4554111311212181
0.2657908797264099,-0.7668212652206421,55.276885986328125,0.014376113576711052,-0.41707667600001314,0.00747327090551456,-0.4554111311212181
-0.533541738986969,0.38555973768234253,52.440921783447266,0.014376113576711052,-0.41707667600001314,0.00747327090551456,-0.4554111311212181
0.6008316874504089,-0.5320454835891724,49.55923080444336,0.014376113576711052,-0.41707667600001314,0.00747327090551456,-0.4554111311212181
-0.8551784753799438,-0.33309659361839294,46.62908172607422,0.014376113576711052,-0.41707667600001314,0.00747327090551456,-0.4554111311212181
0.22351676225662231,-0.6986076831817627,43.78751754760742,0.014376113576711052,-0.41707667600001314,0.00747327090551456,-0.4554111311212181
-0.44237685203552246,-0.3161424398422241,41.02840042114258,0.014376113576711052,-0.41707667600001314,0.00747327090551456,-0.4554111311212181
-0.022397005930542946,-0.23053570091724396,38.289493560791016,0.014376113576711052,-0.41707667600001314,0.00747327090551456,-0.4554111311212181
-0.28464174270629883,0.5079160928726196,35.52616500854492,0.014376113576711052,-0.41707667600001314,0.00747327090551456,-0.4554111311212181
-0.5910112857818604,-0.5970860719680786,32.747310638427734,0.014376113576711052,-0.41707667600001314,0.00747327090551456,-0.4554111311212181
-0.07723812013864517,-1.0505616664886475,30.030866622924805,0.014376113576711052,-0.41707667600001314,0.00747327090551456,-0.4554111311212181
-0.48516130447387695,-0.2617725729942322,27.228551864624023,0.014376113576711052,-0.41707667600001314,0.00747327090551456,-0.4554111311212181
-0.3761086165904999,0.15751999616622925,24.38551139831543,0.014376113576711052,-0.41707667600001314,0.00747327090551456,-0.4554111311212181
-0.3648536503314972,0.2965581715106964,21.57240867614746,0.014376113576711052,-0.41707667600001314,0.00747327090551456,-0.4554111311212181
0.1845802366733551,-1.1002857685089111,18.806055068969727,0.014376113576711052,-0.41707667600001314,0.00747327090551456,-0.4554111311212181
-0.8485094308853149,-0.34089118242263794,16.02018928527832,0.014376113576711052,-0.41707667600001314,0.00747327090551456,-0.4554111311212181
-0.4395420551300049,0.2161351591348648,13.108739852905273,0.014376113576711052,-0.41707667600001314,0.00747327090551456,-0.4554111311212181
-0.2671997547149658,-0.18563923239707947,10.161415100097656,0.014376113576711052,-0.41707667600001314,0.00747327090551456,-0.4554111311212181
-0.2913977801799774,-0.4116295278072357,7.211174488067627,0.014376113576711052,-0.41707667600001314,0.00747327090551456,-0.4554111311212181
-0.7757195234298706,0.021215863525867462,4.210110187530518,0.014376113576711052,-0.41707667600001314,0.00747327090551456,-0.4554111311212181
-0.40914031863212585,-0.06530498713254929,1.2172797918319702,0.014376113576711052,-0.41707667600001314,0.00747327090551456,-0.4554111311212181
-0.14330001175403595,-0.09338780492544174,-1.869667887687683,0.014376113576711052,-0.41707667600001314,0.00747327090551456,-0.4554111311212181
-0.6001100540161133,0.2932502031326294,-4.897246360778809,0.014376113576711052,-0.41707667600001314,0.00747327090551456,-0.4554111311212181
-0.1084514781832695,-0.3472238779067993,-7.952279090881348,0.014376113576711052,-0.41707667600001314,0.00747327090551456,-0.4554111311212181
-0.32999730110168457,-0.10933000594377518,-11.029529571533203,0.014376113576711052,-0.41707667600001314,0.00747327090551456,-0.4554111311212181
-1.0884374380111694,1.03293776512146,-14.043511390686035,0.014376113576711052,-0.41707667600001314,0.00747327090551456,-0.4554111311212181
0.05709327012300491,1.610476016998291,-17.103309631347656,0.014376113576711052,-0.41707667600001314,0.00747327090551456,-0.4554111311212181
-0.20263274013996124,-1.66339910030365,-20.221725463867188,0.014376113576711052,-0.41707667600001314,0.00747327090551456,-0.4554111311212181
0.7355509996414185,-1.921252727508545,-23.32379150390625,0.014376113576711052,-0.41707667600001314,0.00747327090551456,-0.4554111311212181
-0.7617702484130859,3.0060875415802,-26.494150161743164,0.014376113576711052,-0.41707667600001314,0.00747327090551456,-0.4554111311212181
-0.016425862908363342,-0.7624017000198364,-29.5422420501709,0.014376113576711052,-0.41707667600001314,0.00747327090551456,-0.4554111311212181
-1.2177226543426514,0.36700791120529175,-32.586971282958984,0.014376113576711052,-0.41707667600001314,0.00747327090551456,-0.4554111311212181
-0.40575629472732544,-0.8839294910430908,-35.598960876464844,0.014376113576711052,-0.41707667600001314,0.00747327090551456,-0.4554111311212181
0.016776319593191147,1.5972198247909546,-38.631134033203125,0.014376113576711052,-0.41707667600001314,0.00747327090551456,-0.4554111311212181
-0.8652323484420776,-0.13005946576595306,-41.67306900024414,0.014376113576711052,-0.41707667600001314,0.00747327090551456,-0.4554111311212181
0.058841168880462646,0.4866907298564911,-44.715301513671875,0.014376113576711052,-0.41707667600001314,0.00747327090551456,-0.4554111311212181
-0.6052861213684082,0.38144683837890625,-47.78702163696289,0.014376113576711052,-0.41707667600001314,0.00747327090551456,-0.4554111311212181
-0.3045841455459595,0.1201881691813469,-50.91565704345703,0.014376113576711052,-0.41707667600001314,0.00747327090551456,-0.4554111311212181
-0.7209413647651672,0.7619115114212036,-54.079471588134766,0.014376113576711052,-0.41707667600001314,0.00747327090551456,-0.4554111311212181
-0.15269483625888824,0.2980589270591736,-57.17237854003906,0.014376113576711052,-0.41707667600001314,0.00747327090551456,-0.4554111311212181
0.5819011330604553,0.8053501844406128,-60.32963562011719,0.014376113576711052,-0.41707667600001314,0.00747327090551456,-0.4554111311212181
-0.10769646614789963,0.5435127019882202,-63.523582458496094,0.014376113576711052,-0.41707667600001314,0.00747327090551456,-0.4554111311212181
-0.2165975123643875,-0.06289777904748917,-66.65379333496094,0.014376113576711052,-0.41707667600001314,0.00747327090551456,-0.4554111311212181
-0.5871310234069824,0.9281085133552551,-69.80998229980469,0.014376113576711052,-0.41707667600001314,0.00747327090551456,-0.4554111311212181
-0.7807986736297607,-0.15666726231575012,-72.96672058105469,0.014376113576711052,-0.41707667600001314,0.00747327090551456,-0.4554111311212181
-0.07327628135681152,-0.09295961260795593,-76.1511459350586,0.014376113576711052,-0.41707667600001314,0.00747327090551456,-0.4554111311212181
-0.4344913065433502,0.7422305345535278,-79.34185028076172,0.014376113576711052,-0.41707667600001314,0.00747327090551456,-0.4554111311212181
0.15059244632720947,0.533684253692627,-82.49198150634766,0.014376113576711052,-0.41707667600001314,0.00747327090551456,-0.4554111311212181
0.3724939227104187,0.405853807926178,-85.62694549560547,0.014376113576711052,-0.41707667600001314,0.00747327090551456,-0.4554111311212181
0.9068244099617004,0.49795088171958923,-88.76573944091797,0.014376113576711052,-0.41707667600001314,0.00747327090551456,-0.4554111311212181
-1.0558019876480103,-0.18853166699409485,-91.92428588867188,0.014376113576711052,-0.41707667600001314,0.00747327090551456,-0.4554111311212181
-0.015783021226525307,0.9948651194572449,-95.02703857421875,0.014376113576711052,-0.41707667600001314,0.00747327090551456,-0.4554111311212181
0.8893786072731018,1.2686491012573242,-98.0688705444336,0.014376113576711052,-0.41707667600001314,0.00747327090551456,-0.4554111311212181
0.7042537927627563,0.09120839089155197,-101.14736938476562,0.014376113576711052,-0.41707667600001314,0.00747327090551456,-0.4554111311212181
0.12957513332366943,0.1760057955980301,-104.27970886230469,0.014376113576711052,-0.41707667600001314,0.00747327090551456,-0.4554111311212181
-0.615326464176178,-0.42459651827812195,-107.6086196899414,0.014376113576711052,-0.41707667600001314,0.00747327090551456,-0.4554111311212181
0.498186856508255,0.16134782135486603,-110.7358627319336,0.014376113576711052,-0.41707667600001314,0.00747327090551456,-0.4554111311212181
0.36551031470298767,0.26654836535453796,-113.90988159179688,0.014376113576711052,-0.41707667600001314,0.00747327090551456,-0.4554111311212181
0.6584032773971558,0.43517550826072693,-117.00175476074219,0.014376113576711052,-0.41707667600001314,0.00747327090551456,-0.4554111311212181
-0.463395893573761,0.6089746952056885,-119.96510314941406,0.014376113576711052,-0.41707667600001314,0.00747327090551456,-0.4554111311212181
0.9323875904083252,0.23362161219120026,-122.97502899169922,0.014376113576711052,-0.41707667600001314,0.00747327090551456,-0.4554111311212181
0.0645904690027237,0.234627366065979,-125.92707824707031,0.014376113576711052,-0.41707667600001314,0.00747327090551456,-0.4554111311212181
0.7410715222358704,-0.40744948387145996,-128.9019317626953,0.014376113576711052,-0.41707667600001314,0.00747327090551456,-0.4554111311212181
-1.009703278541565,1.3787981271743774,-131.90011596679688,0.014376113576711052,-0.41707667600001314,0.00747327090551456,-0.4554111311212181
0.15931469202041626,0.44016119837760925,-134.84890747070312,0.014376113576711052,-0.41707667600001314,0.00747327090551456,-0.4554111311212181
0.1562882363796234,0.008922085165977478,-137.77838134765625,0.014376113576711052,-0.41707667600001314,0.00747327090551456,-0.4554111311212181
1.3562496900558472,0.06931448727846146,-140.7184600830078,0.014376113576711052,-0.41707667600001314,0.00747327090551456,-0.4554111311212181
-0.44653791189193726,-0.22995805740356445,-143.64295959472656,0.014376113576711052,-0.41707667600001314,0.00747327090551456,-0.4554111311212181
1.094766616821289,0.020244423300027847,-146.65188598632812,0.014376113576711052,-0.41707667600001314,0.00747327090551456,-0.4554111311212181
0.518761932849884,0.914995014667511,-149.57122802734375,0.014376113576711052,-0.41707667600001314,0.00747327090551456,-0.4554111311212181
0.9999722838401794,0.045549359172582626,-152.5172882080078,0.014376113576711052,-0.41707667600001314,0.00747327090551456,-0.4554111311212181
0.06318958103656769,0.289363831281662,-155.50732421875,0.014376113576711052,-0.41707667600001314,0.00747327090551456,-0.4554111311212181
-0.7016263604164124,0.37352100014686584,-158.50592041015625,0.014376113576711052,-0.41707667600001314,0.00747327090551456,-0.4554111311212181
0.9183651804924011,-0.8099625110626221,-161.573486328125,0.014376113576711052,-0.41707667600001314,0.00747327090551456,-0.4554111311212181
-0.1949612945318222,1.109419345855713,-164.5966796875,0.014376113576711052,-0.41707667600001314,0.00747327090551456,-0.4554111311212181
2.034329891204834,-1.471822738647461,-167.67990112304688,0.014376113576711052,-0.41707667600001314,0.00747327090551456,-0.4554111311212181
-0.7694835066795349,0.7667284607887268,-170.74598693847656,0.014376113576711052,-0.41707667600001314,0.00747327090551456,-0.4554111311212181
0.925160825252533,-0.7091118693351746,-173.8856964111328,0.014376113576711052,-0.41707667600001314,0.00747327090551456,-0.4554111311212181
0.1971171498298645,0.6179261803627014,-176.9853515625,0.014376113576711052,-0.41707667600001314,0.00747327090551456,-0.4554111311212181
1.0372425317764282,-0.6295758485794067,-179.9943084716797,0.014376113576711052,-0.41707667600001314,0.00747327090551456,-0.4554111311212181
-0.3652164936065674,0.6813076138496399,176.93946838378906,0.014376113576711052,-0.41707667600001314,0.00747327090551456,-0.4554111311212181
-0.22796005010604858,0.737957775592804,173.83155822753906,0.014376113576711052,-0.41707667600001314,0.00747327090551456,-0.4554111311212181
0.8869695067405701,-0.27315643429756165,170.7939453125,0.014376113576711052,-0.41707667600001314,0.00747327090551456,-0.4554111311212181
-0.03742701932787895,-0.13408400118350983,167.8636016845703,0.014376113576711052,-0.41707667600001314,0.00747327090551456,-0.4554111311212181
0.5167471170425415,-0.9024550914764404,165.03009033203125,0.014376113576711052,-0.41707667600001314,0.00747327090551456,-0.4554111311212181
0.44863221049308777,-2.2214345932006836,162.13961791992188,0.014376113576711052,-0.41707667600001314,0.00747327090551456,-0.4554111311212181
0.8767327666282654,0.6085668206214905,159.31210327148438,0.014376113576711052,-0.41707667600001314,0.00747327090551456,-0.4554111311212181
0.30171090364456177,-1.2485977411270142,156.53855895996094,0.014376113576711052,-0.41707667600001314,0.00747327090551456,-0.4554111311212181
-0.1126696839928627,0.4918334484100342,153.7281494140625,0.014376113576711052,-0.41707667600001314,0.00747327090551456,-0.4554111311212181
0.7829706072807312,-1.5568578243255615,150.81234741210938,0.014376113576711052,-0.41707667600001314,0.00747327090551456,-0.4554111311212181
0.0304708294570446,1.272780418395996,147.8829803466797,0.014376113576711052,-0.41707667600001314,0.00747327090551456,-0.4554111311212181
0.3833908140659332,-0.2958182692527771,144.97842407226562,0.014376113576711052,-0.41707667600001314,0.00747327090551456,-0.4554111311212181
1.579341173171997,-0.3495131731033325,141.99307250976562,0.014376113576711052,-0.41707667600001314,0.00747327090551456,-0.4554111311212181
0.004660877399146557,0.09333174675703049,139.0603790283203,0.014376113576711052,-0.41707667600001314,0.00747327090551456,-0.4554111311212181
-0.36000022292137146,0.3902057409286499,136.0776824951172,0.014376113576711052,-0.41707667600001314,0.00747327090551456,-0.4554111311212181
0.7603567242622375,-0.12618447840213776,133.10682678222656,0.014376113576711052,-0.41707667600001314,0.00747327090551456,-0.4554111311212181
-0.9753502011299133,-1.6425256729125977,130.14804077148438,0.014376113576711052,-0.41707667600001314,0.00747327090551456,-0.4554111311212181
0.34317994117736816,1.036531925201416,127.33525848388672,0.014376113576711052,-0.41707667600001314,0.00747327090551456,-0.4554111311212181
0.14682051539421082,-2.0271732807159424,124.46237182617188,0.014376113576711052,-0.41707667600001314,0.00747327090551456,-0.4554111311212181
1.4956520795822144,1.351073145866394,121.57040405273438,0.014376113576711052,-0.41707667600001314,0.00747327090551456,-0.4554111311212181
-0.14765053987503052,-0.7711681723594666,118.73458862304688,0.014376113576711052,-0.41707667600001314,0.00747327090551456,-0.4554111311212181
-0.3484662175178528,-0.5531343817710876,115.91680908203125,0.014376113576711052,-0.41707667600001314,0.00747327090551456,-0.4554111311212181
-0.20124955475330353,-0.5398553013801575,113.00299835205078,0.014376113576711052,-0.41707667600001314,0.00747327090551456,-0.4554111311212181
0.37217283248901367,-0.44387128949165344,110.11444854736328,0.014376113576711052,-0.41707667600001314,0.00747327090551456,-0.4554111311212181
0.3219560384750366,-0.39323487877845764,107.28033447265625,0.014376113576711052,-0.41707667600001314,0.00747327090551456,-0.4554111311212181
-0.34528595209121704,-1.5127716064453125,104.43441009521484,0.014376113576711052,-0.41707667600001314,0.00747327090551456,-0.4554111311212181
0.28395363688468933,0.1962711364030838,101.54222869873047,0.014376113576711052,-0.41707667600001314,0.00747327090551456,-0.4554111311212181
-0.40824413299560547,0.20698757469654083,98.70390319824219,0.014376113576711052,-0.41707667600001314,0.00747327090551456,-0.4554111311212181
-0.5285860896110535,-1.099466323852539,95.788330078125,0.014376113576711052,-0.41707667600001314,0.00747327090551456,-0.4554111311212181
-0.5494850873947144,-0.016441090032458305,92.84416198730469,0.014376113576711052,-0.41707667600001314,0.00747327090551456,-0.4554111311212181
0.2997068762779236,-0.679884135723114,89.97747802734375,0.014376113576711052,-0.41707667600001314,0.00747327090551456,-0.4554111311212181
0.7617778778076172,-0.4084261953830719,87.0924072265625,0.014376113576711052,-0.41707667600001314,0.00747327090551456,-0.4554111311212181
-0.9672679901123047,-1.2358139753341675,84.27173614501953,0.014376113576711052,-0.41707667600001314,0.00747327090551456,-0.4554111311212181
0.1380673497915268,-0.23492440581321716,81.47531127929688,0.014376113576711052,-0.41707667600001314,0.00747327090551456,-0.4554111311212181
0.2706946134567261,-0.49817734956741333,78.7042236328125,0.014376113576711052,-0.41707667600001314,0.00747327090551456,-0.4554111311212181
-0.48971280455589294,-0.11310011148452759,75.92120361328125,0.014376113576711052,-0.41707667600001314,0.00747327090551456,-0.4554111311212181
-0.19893518090248108,-0.7683393359184265,73.15373229980469,0.014376113576711052,-0.41707667600001314,0.00747327090551456,-0.4554111311212181
-0.9130042791366577,-0.54933100938797,70.44873046875,0.014376113576711052,-0.41707667600001314,0.00747327090551456,-0.4554111311212181
1.6152757406234741,-0.023220712319016457,67.76370239257812,0.014376113576711052,-0.41707667600001314,0.00747327090551456,-0.4554111311212181
-0.5445146560668945,-0.540477991104126,65.03666687011719,0.014376113576711052,-0.41707667600001314,0.00747327090551456,-0.4554111311212181
-0.6294541358947754,-0.4894125163555145,62.34392547607422,0.014376113576711052,-0.41707667600001314,0.00747327090551456,-0.4554111311212181
0.3421494960784912,-0.3526156544685364,59.79235076904297,0.014376113576711052,-0.41707667600001314,0.00747327090551456,-0.4554111311212181
-0.22992825508117676,-0.608938992023468,57.264686584472656,0.014376113576711052,-0.41707667600001314,0.00747327090551456,-0.4554111311212181
-0.2920464277267456,0.1215534582734108,54.65280532836914,0.014376113576711052,-0.41707667600001314,0.00747327090551456,-0.4554111311212181
-0.11051355302333832,-0.3926454186439514,52.087650299072266,0.014376113576711052,-0.41707667600001314,0.00747327090551456,-0.4554111311212181
-0.9596912264823914,-0.4932323396205902,49.51446533203125,0.014376113576711052,-0.41707667600001314,0.00747327090551456,-0.4554111311212181
0.63934725522995,-0.36353132128715515,46.950626373291016,0.014376113576711052,-0.41707667600001314,0.00747327090551456,-0.4554111311212181
-0.055605240166187286,0.32870998978614807,44.229469299316406,0.014376113576711052,-0.41707667600001314,0.00747327090551456,-0.4554111311212181
0.15221206843852997,-0.5033247470855713,41.53691482543945,0.014376113576711052,-0.41707667600001314,0.00747327090551456,-0.4554111311212181
-0.8131415843963623,-0.4224543571472168,38.84986877441406,0.014376113576711052,-0.41707667600001314,0.00747327090551456,-0.4554111311212181
0.339979887008667,-0.9210047721862793,36.10816192626953,0.014376113576711052,-0.41707667600001314,0.00747327090551456,-0.4554111311212181
-0.9297236800193787,-0.1362909972667694,33.33066940307617,0.014376113576711052,-0.41707667600001314,0.00747327090551456,-0.4554111311212181
-0.8337235450744629,-0.3387358784675598,30.532861709594727,0.014376113576711052,-0.41707667600001314,0.00747327090551456,-0.4554111311212181
0.09635534882545471,-0.14912492036819458,27.71697235107422,0.014376113576711052,-0.41707667600001314,0.00747327090551456,-0.4554111311212181
0.10418577492237091,-0.20418094098567963,24.738563537597656,0.014376113576711052,-0.41707667600001314,0.00747327090551456,-0.4554111311212181
-1.6483594179153442,-0.23496080935001373,21.761505126953125,0.014376113576711052,-0.41707667600001314,0.00747327090551456,-0.4554111311212181
-0.10249050706624985,1.0500885248184204,18.882301330566406,0.014376113576711052,-0.41707667600001314,0.00747327090551456,-0.4554111311212181
-1.8787529468536377,-0.5212348699569702,16.003570556640625,0.014376113576711052,-0.41707667600001314,0.00747327090551456,-0.4554111311212181
1.0746060609817505,-0.036833520978689194,13.148554801940918,0.014376113576711052,-0.41707667600001314,0.00747327090551456,-0.4554111311212181
0.14474083483219147,-1.3717039823532104,10.313714027404785,0.014376113576711052,-0.41707667600001314,0.00747327090551456,-0.4554111311212181
-0.34057706594467163,-0.2875066101551056,7.5235090255737305,0.014376113576711052,-0.41707667600001314,0.00747327090551456,-0.4554111311212181
-0.7907233238220215,-0.022822823375463486,4.654423236846924,0.014376113576711052,-0.41707667600001314,0.00747327090551456,-0.4554111311212181
-0.009561185725033283,0.7904856204986572,1.695509672164917,0.014376113576711052,-0.41707667600001314,0.00747327090551456,-0.4554111311212181
-1.666272521018982,1.1043469905853271,-1.2917107343673706,0.014376113576711052,-0.41707667600001314,0.00747327090551456,-0.4554111311212181
0.45635104179382324,-0.9233391880989075,-4.245336055755615,0.014376113576711052,-0.41707667600001314,0.00747327090551456,-0.4554111311212181
-0.6999223828315735,-0.5308603644371033,-7.313240051269531,0.014376113576711052,-0.41707667600001314,0.00747327090551456,-0.4554111311212181
-0.580123245716095,-0.45764049887657166,-10.303187370300293,0.014376113576711052,-0.41707667600001314,0.00747327090551456,-0.4554111311212181
0.1336541473865509,0.27719828486442566,-13.29572582244873,0.014376113576711052,-0.41707667600001314,0.00747327090551456,-0.4554111311212181
-0.37002408504486084,0.17808540165424347,-16.314483642578125,0.014376113576711052,-0.41707667600001314,0.00747327090551456,-0.4554111311212181
-0.293832004070282,-0.5496966242790222,-19.288055419921875,0.014376113576711052,-0.41707667600001314,0.00747327090551456,-0.4554111311212181
-0.7370666265487671,1.3546828031539917,-22.29859733581543,0.014376113576711052,-0.41707667600001314,0.00747327090551456,-0.4554111311212181
-0.38230884075164795,-0.7266654372215271,-25.353208541870117,0.014376113576711052,-0.41707667600001314,0.00747327090551456,-0.4554111311212181
-0.7120574116706848,0.4324721395969391,-28.353281021118164,0.014376113576711052,-0.41707667600001314,0.00747327090551456,-0.4554111311212181
-0.7281895875930786,0.0962432399392128,-31.278806686401367,0.014376113576711052,-0.41707667600001314,0.00747327090551456,-0.4554111311212181
0.17333391308784485,1.7703739404678345,-34.29437255859375,0.014376113576711052,-0.41707667600001314,0.00747327090551456,-0.4554111311212181
-0.8098544478416443,-1.6872562170028687,-37.25796127319336,0.014376113576711052,-0.41707667600001314,0.00747327090551456,-0.4554111311212181
0.015511331148445606,0.6387442350387573,-40.27147674560547,0.014376113576711052,-0.41707667600001314,0.00747327090551456,-0.4554111311212181
-1.2230160236358643,0.020350966602563858,-43.34524154663086,0.014376113576711052,-0.41707667600001314,0.00747327090551456,-0.4554111311212181
0.029329495504498482,0.2600972056388855,-46.424720764160156,0.014376113576711052,-0.41707667600001314,0.00747327090551456,-0.4554111311212181
-0.3238556981086731,0.5839223265647888,-49.48933029174805,0.014376113576711052,-0.41707667600001314,0.00747327090551456,-0.4554111311212181
-0.13754570484161377,1.2538650035858154,-52.57417678833008,0.014376113576711052,-0.41707667600001314,0.00747327090551456,-0.4554111311212181
-0.2589290142059326,-0.15971650183200836,-55.71746063232422,0.014376113576711052,-0.41707667600001314,0.00747327090551456,-0.4554111311212181
-0.48141801357269287,-0.6881795525550842,-58.811946868896484,0.014376113576711052,-0.41707667600001314,0.00747327090551456,-0.4554111311212181
0.29611873626708984,1.4071704149246216,-61.91752243041992,0.014376113576711052,-0.41707667600001314,0.00747327090551456,-0.4554111311212181
-0.0020200498402118683,0.00791577436029911,-64.96737670898438,0.014376113576711052,-0.41707667600001314,0.00747327090551456,-0.4554111311212181
-1.4065021276474,0.41853803396224976,-67.87699890136719,0.014376113576711052,-0.41707667600001314,0.00747327090551456,-0.4554111311212181
-0.0935433879494667,0.22364476323127747,-70.66593170166016,0.014376113576711052,-0.41707667600001314,0.00747327090551456,-0.4554111311212181
1.3042389154434204,0.6470905542373657,-73.5112075805664,0.014376113576711052,-0.41707667600001314,0.00747327090551456,-0.4554111311212181
-0.12167365103960037,0.41010820865631104,-76.49541473388672,0.014376113576711052,-0.41707667600001314,0.00747327090551456,-0.4554111311212181
0.15997745096683502,0.8206700682640076,-79.28573608398438,0.014376113576711052,-0.41707667600001314,0.00747327090551456,-0.4554111311212181
0.23175518214702606,0.9993888139724731,-82.5254898071289,0.014376113576711052,-0.41707667600001314,0.00747327090551456,-0.4554111311212181
-0.07304225116968155,-0.1819743514060974,-85.386962890625,0.014376113576711052,-0.41707667600001314,0.00747327090551456,-0.4554111311212181
0.19601809978485107,0.2129824012517929,-88.31864929199219,0.014376113576711052,-0.41707667600001314,0.00747327090551456,-0.4554111311212181
-0.3683934807777405,0.43151190876960754,-91.24527740478516,0.014376113576711052,-0.41707667600001314,0.00747327090551456,-0.4554111311212181
-0.051232874393463135,0.7996131181716919,-94.10687255859375,0.014376113576711052,-0.41707667600001314,0.00747327090551456,-0.4554111311212181
-0.04103050008416176,-0.3374846577644348,-97.13008117675781,0.014376113576711052,-0.41707667600001314,0.00747327090551456,-0.4554111311212181
0.24652059376239777,0.8382611870765686,-100.23047637939453,0.014376113576711052,-0.41707667600001314,0.00747327090551456,-0.4554111311212181
-0.6573879718780518,0.01201052125543356,-103.31143951416016,0.014376113576711052,-0.41707667600001314,0.00747327090551456,-0.4554111311212181
0.4813839793205261,0.9526703357696533,-106.49127197265625,0.014376113576711052,-0.41707667600001314,0.00747327090551456,-0.4554111311212181
-1.0677560567855835,-0.11938077211380005,-109.64555358886719,0.014376113576711052,-0.41707667600001314,0.00747327090551456,-0.4554111311212181
0.8678322434425354,0.4962013363838196,-112.80784606933594,0.014376113576711052,-0.41707667600001314,0.00747327090551456,-0.4554111311212181
0.04559018090367317,-0.1129002496600151,-115.6255111694336,0.014376113576711052,-0.41707667600001314,0.00747327090551456,-0.4554111311212181
0.11518992483615875,-0.017094654962420464,-118.68537139892578,0.014376113576711052,-0.41707667600001314,0.00747327090551456,-0.4554111311212181
-0.5444377064704895,0.7626894116401672,-121.78201293945312,0.014376113576711052,-0.41707667600001314,0.00747327090551456,-0.4554111311212181
0.5737283825874329,0.8273693919181824,-124.8438949584961,0.014376113576711052,-0.41707667600001314,0.00747327090551456,-0.4554111311212181
0.12050202488899231,-0.030590977519750595,-127.86544799804688,0.014376113576711052,-0.41707667600001314,0.00747327090551456,-0.4554111311212181
1.0443954467773438,-0.28434592485427856,-130.9553985595703,0.014376113576711052,-0.41707667600001314,0.00747327090551456,-0.4554111311212181
1.1082004308700562,0.3958760201931,-134.13174438476562,0.014376113576711052,-0.41707667600001314,0.00747327090551456,-0.4554111311212181
-0.7079187631607056,-0.13612553477287292,-137.2884979248047,0.014376113576711052,-0.41707667600001314,0.00747327090551456,-0.4554111311212181
1.9179065227508545,0.3566098213195801,-140.54794311523438,0.014376113576711052,-0.41707667600001314,0.00747327090551456,-0.4554111311212181
-1.428046464920044,0.6689702272415161,-143.63816833496094,0.014376113576711052,-0.41707667600001314,0.00747327090551456,-0.4554111311212181
1.842807412147522,-0.19781358540058136,-146.7152862548828,0.014376113576711052,-0.41707667600001314,0.00747327090551456,-0.4554111311212181
-0.7040102481842041,0.5704442262649536,-149.7595672607422,0.014376113576711052,-0.41707667600001314,0.00747327090551456,-0.4554111311212181
0.451042115688324,0.23908580839633942,-152.668701171875,0.014376113576711052,-0.41707667600001314,0.00747327090551456,-0.4554111311212181
-0.24310772120952606,0.9049385786056519,-155.55404663085938,0.014376113576711052,-0.41707667600001314,0.00747327090551456,-0.4554111311212181
1.3000097274780273,-1.8759618997573853,-158.51368713378906,0.014376113576711052,-0.41707667600001314,0.00747327090551456,-0.4554111311212181
0.030591128394007683,1.2823342084884644,-161.59112548828125,0.014376113576711052,-0.41707667600001314,0.00747327090551456,-0.4554111311212181
2.523026943206787,-0.9582470059394836,-164.68275451660156,0.014376113576711052,-0.41707667600001314,0.00747327090551456,-0.4554111311212181
-0.9249415397644043,0.9241071343421936,-167.63929748535156,0.014376113576711052,-0.41707667600001314,0.00747327090551456,-0.4554111311212181
0.8702436089515686,-1.5553187131881714,-170.59278869628906,0.014376113576711052,-0.41707667600001314,0.00747327090551456,-0.4554111311212181
0.35700148344039917,1.5335980653762817,-173.5752716064453,0.014376113576711052,-0.41707667600001314,0.00747327090551456,-0.4554111311212181
1.318318247795105,-0.6317131519317627,-176.51214599609375,0.014376113576711052,-0.41707667600001314,0.00747327090551456,-0.4554111311212181
0.634273886680603,-0.2773766815662384,-179.38214111328125,0.014376113576711052,-0.41707667600001314,0.00747327090551456,-0.4554111311212181
-0.7263877987861633,0.18318089842796326,177.7462921142578,0.014376113576711052,-0.41707667600001314,0.00747327090551456,-0.4554111311212181
0.10955271869897842,-0.4100632667541504,174.77774047851562,0.014376113576711052,-0.41707667600001314,0.00747327090551456,-0.4554111311212181
0.5138857960700989,-0.4316766858100891,171.7701416015625,0.014376113576711052,-0.41707667600001314,0.00747327090551456,-0.4554111311212181
0.8043567538261414,0.7324576377868652,168.79664611816406,0.014376113576711052,-0.41707667600001314,0.00747327090551456,-0.4554111311212181
1.0326844453811646,-1.0000896453857422,165.8240509033203,0.014376113576711052,-0.41707667600001314,0.00747327090551456,-0.4554111311212181
-0.6882539987564087,0.642890989780426,162.90396118164062,0.014376113576711052,-0.41707667600001314,0.00747327090551456,-0.4554111311212181
0.4341326057910919,-0.1982772946357727,159.92257690429688,0.014376113576711052,-0.41707667600001314,0.00747327090551456,-0.4554111311212181
0.3609541058540344,0.5083393454551697,156.9519805908203,0.014376113576711052,-0.41707667600001314,0.00747327090551456,-0.4554111311212181
0.4943143129348755,-0.2754904329776764,154.01339721679688,0.014376113576711052,-0.41707667600001314,0.00747327090551456,-0.4554111311212181
0.6137953400611877,-0.22652676701545715,151.1333465576172,0.014376113576711052,-0.41707667600001314,0.00747327090551456,-0.4554111311212181
-0.33241939544677734,-0.7267748713493347,148.144287109375,0.014376113576711052,-0.41707667600001314,0.00747327090551456,-0.4554111311212181
-0.2682032585144043,1.2262940406799316,145.1478271484375,0.014376113576711052,-0.41707667600001314,0.00747327090551456,-0.4554111311212181
1.2132248878479004,-1.6077460050582886,142.100830078125,0.014376113576711052,-0.41707667600001314,0.00747327090551456,-0.4554111311212181
-0.17811554670333862,0.6415554285049438,139.12469482421875,0.014376113576711052,-0.41707667600001314,0.00747327090551456,-0.4554111311212181
0.6086253523826599,-0.34592723846435547,136.16305541992188,0.014376113576711052,-0.41707667600001314,0.00747327090551456,-0.4554111311212181
0.33684241771698,-1.0310944318771362,133.2984619140625,0.014376113576711052,-0.41707667600001314,0.00747327090551456,-0.4554111311212181
1.001427173614502,0.08645682036876678,130.40621948242188,0.014376113576711052,-0.41707667600001314,0.00747327090551456,-0.4554111311212181
-0.8065040111541748,-0.9658707976341248,127.54325103759766,0.014376113576711052,-0.41707667600001314,0.00747327090551456,-0.4554111311212181
-0.35938140749931335,-0.857634961605072,124.68933868408203,0.014376113576711052,-0.41707667600001314,0.00747327090551456,-0.4554111311212181
-0.20614223182201385,0.23967646062374115,121.87811279296875,0.014376113576711052,-0.41707667600001314,0.00747327090551456,-0.4554111311212181
0.5068130493164062,0.18812836706638336,119.10347747802734,0.014376113576711052,-0.41707667600001314,0.00747327090551456,-0.4554111311212181
1.033496618270874,0.15584781765937805,116.28685760498047,0.014376113576711052,-0.41707667600001314,0.00747327090551456,-0.4554111311212181
-0.20845602452754974,-0.526282787322998,113.3473129272461,0.014376113576711052,-0.41707667600001314,0.00747327090551456,-0.4554111311212181
-1.0660808086395264,-1.813660979270935,110.40621185302734,0.014376113576711052,-0.41707667600001314,0.00747327090551456,-0.4554111311212181
1.289985179901123,-0.24500520527362823,107.5189437866211,0.014376113576711052,-0.41707667600001314,0.00747327090551456,-0.4554111311212181
-0.546157717704773,0.4517909586429596,104.58917236328125,0.014376113576711052,-0.41707667600001314,0.00747327090551456,-0.4554111311212181
0.7307848334312439,-0.20688512921333313,101.67855834960938,0.014376113576711052,-0.41707667600001314,0.00747327090551456,-0.4554111311212181
-0.5694149732589722,-1.2834770679473877,98.77279663085938,0.014376113576711052,-0.41707667600001314,0.00747327090551456,-0.4554111311212181
-0.02386932633817196,0.016739362850785255,95.84977722167969,0.014376113576711052,-0.41707667600001314,0.00747327090551456,-0.4554111311212181
0.013218135572969913,-1.0178158283233643,92.95475006103516,0.014376113576711052,-0.41707667600001314,0.00747327090551456,-0.4554111311212181
0.8057759404182434,-0.09481783211231232,90.04976654052734,0.014376113576711052,-0.41707667600001314,0.00747327090551456,-0.4554111311212181
-0.9249396324157715,-0.8609769940376282,87.1541976928711,0.014376113576711052,-0.41707667600001314,0.00747327090551456,-0.4554111311212181
0.259716272354126,0.2810274064540863,84.24109649658203,0.014376113576711052,-0.41707667600001314,0.00747327090551456,-0.4554111311212181
-0.2346767783164978,-0.6605255603790283,81.26293182373047,0.014376113576711052,-0.41707667600001314,0.00747327090551456,-0.4554111311212181
0.40780141949653625,-1.0167948007583618,78.23524475097656,0.014376113576711052,-0.41707667600001314,0.00747327090551456,-0.4554111311212181
-0.19329681992530823,-0.6947996020317078,75.2962646484375,0.014376113576711052,-0.41707667600001314,0.00747327090551456,-0.4554111311212181
-0.952370285987854,-0.5819260478019714,72.30455017089844,0.014376113576711052,-0.41707667600001314,0.00747327090551456,-0.4554111311212181
0.7453397512435913,0.3162703514099121,69.30217742919922,0.014376113576711052,-0.41707667600001314,0.00747327090551456,-0.4554111311212181
-0.030977750197052956,-0.645456850528717,66.28914642333984,0.014376113576711052,-0.41707667600001314,0.00747327090551456,-0.4554111311212181
0.4380848705768585,0.11774037033319473,63.20551300048828,0.014376113576711052,-0.41707667600001314,0.00747327090551456,-0.4554111311212181
-0.9694434404373169,-0.28547683358192444,60.08653259277344,0.014376113576711052,-0.41707667600001314,0.00747327090551456,-0.4554111311212181
-0.32646915316581726,-1.1539127826690674,57.118011474609375,0.014376113576711052,-0.41707667600001314,0.00747327090551456,-0.4554111311212181
-1.0655865669250488,-0.768745481967926,54.26393127441406,0.014376113576711052,-0.41707667600001314,0.00747327090551456,-0.4554111311212181
0.3188987374305725,0.6031674146652222,51.52870559692383,0.014376113576711052,-0.41707667600001314,0.00747327090551456,-0.4554111311212181
-1.1845272779464722,0.32755741477012634,48.75511932373047,0.014376113576711052,-0.41707667600001314,0.00747327090551456,-0.4554111311212181
-0.1424313336610794,-0.18815197050571442,46.10300064086914,0.014376113576711052,-0.41707667600001314,0.00747327090551456,-0.4554111311212181
-0.5313732028007507,-0.11438309401273727,43.40480041503906,0.014376113576711052,-0.41707667600001314,0.00747327090551456,-0.4554111311212181
-1.6984020471572876,-0.29845330119132996,40.76052474975586,0.014376113576711052,-0.41707667600001314,0.00747327090551456,-0.4554111311212181
-0.6756787896156311,0.014774007722735405,38.27093505859375,0.014376113576711052,-0.41707667600001314,0.00747327090551456,-0.4554111311212181
0.9482314586639404,-0.11763855814933777,35.94879913330078,0.014376113576711052,-0.41707667600001314,0.00747327090551456,-0.4554111311212181
-0.3521912097930908,-0.19016188383102417,33.54209899902344,0.014376113576711052,-0.41707667600001314,0.00747327090551456,-0.4554111311212181
-0.8744516968727112,-0.9385892152786255,30.93893051147461,0.014376113576711052,-0.41707667600001314,0.00747327090551456,-0.4554111311212181
-0.24690581858158112,0.6712895035743713,28.32086944580078,0.014376113576711052,-0.41707667600001314,0.00747327090551456,-0.4554111311212181
-1.6136258840560913,-0.38995230197906494,25.68917465209961,0.014376113576711052,-0.41707667600001314,0.00747327090551456,-0.4554111311212181
0.33234167098999023,-0.489982932806015,23.0164852142334,0.014376113576711052,-0.41707667600001314,0.00747327090551456,-0.4554111311212181
0.8081428408622742,-0.2398616373538971,20.23978042602539,0.014376113576711052,-0.41707667600001314,0.00747327090551456,-0.4554111311212181
-1.0318251848220825,-0.246220201253891,17.41204833984375,0.014376113576711052,-0.41707667600001314,0.00747327090551456,-0.4554111311212181
1.2031787633895874,-0.47356075048446655,14.647656440734863,0.014376113576711052,-0.41707667600001314,0.00747327090551456,-0.4554111311212181
-0.6992679834365845,-0.5493403077125549,11.769037246704102,0.014376113576711052,-0.41707667600001314,0.00747327090551456,-0.4554111311212181
-0.5440219044685364,-0.4357714056968689,8.894330024719238,0.014376113576711052,-0.41707667600001314,0.00747327090551456,-0.4554111311212181
-0.39426594972610474,0.08960212767124176,6.06126594543457,0.014376113576711052,-0.41707667600001314,0.00747327090551456,-0.4554111311212181
-0.9444718956947327,0.3667711615562439,3.1298978328704834,0.014376113576711052,-0.41707667600001314,0.00747327090551456,-0.4554111311212181
0.3164682984352112,-0.22629845142364502,0.1798548400402069,0.014376113576711052,-0.41707667600001314,0.00747327090551456,-0.4554111311212181
0.05288480594754219,-0.01146263163536787,-2.8041436672210693,0.014376113576711052,-0.41707667600001314,0.00747327090551456,-0.4554111311212181
0.05666742101311684,0.4958640933036804,-5.821202754974365,0.014376113576711052,-0.41707667600001314,0.00747327090551456,-0.4554111311212181
0.030544498935341835,-1.3319716453552246,-8.852519989013672,0.014376113576711052,-0.41707667600001314,0.00747327090551456,-0.4554111311212181
-0.4432848393917084,-0.015072881244122982,-11.915318489074707,0.014376113576711052,-0.41707667600001314,0.00747327090551456,-0.4554111311212181
-0.7310299873352051,0.4229222536087036,-14.931791305541992,0.014376113576711052,-0.41707667600001314,0.00747327090551456,-0.4554111311212181
-0.8270793557167053,0.13567210733890533,-17.96858787536621,0.014376113576711052,-0.41707667600001314,0.00747327090551456,-0.4554111311212181
-0.10100984573364258,-0.36788278818130493,-20.979093551635742,0.014376113576711052,-0.41707667600001314,0.00747327090551456,-0.4554111311212181
-1.17067289352417,0.939172625541687,-24.038164138793945,0.014376113576711052,-0.41707667600001314,0.00747327090551456,-0.4554111311212181
-0.621872067451477,0.05248135328292847,-27.06266212463379,0.014376113576711052,-0.41707667600001314,0.00747327090551456,-0.4554111311212181
-0.33879920840263367,1.1321310997009277,-30.148649215698242,0.014376113576711052,-0.41707667600001314,0.00747327090551456,-0.4554111311212181
0.008369874209165573,-0.378162145614624,-33.25245666503906,0.014376113576711052,-0.41707667600001314,0.00747327090551456,-0.4554111311212181
0.17596830427646637,1.7670069932937622,-36.372901916503906,0.014376113576711052,-0.41707667600001314,0.00747327090551456,-0.4554111311212181
-0.8282094597816467,-0.9544670581817627,-39.525108337402344,0.014376113576711052,-0.41707667600001314,0.00747327090551456,-0.4554111311212181
-0.4665658175945282,-0.7046182751655579,-42.62856674194336,0.014376113576711052,-0.41707667600001314,0.00747327090551456,-0.4554111311212181
-0.7289894223213196,0.0329250767827034,-45.75989532470703,0.014376113576711052,-0.41707667600001314,0.00747327090551456,-0.4554111311212181
-1.1025906801223755,0.6103052496910095,-48.875701904296875,0.014376113576711052,-0.41707667600001314,0.00747327090551456,-0.4554111311212181
0.9968060851097107,0.8165520429611206,-51.96358108520508,0.014376113576711052,-0.41707667600001314,0.00747327090551456,-0.4554111311212181
-0.20959040522575378,2.1180760860443115,-55.036495208740234,0.014376113576711052,-0.41707667600001314,0.00747327090551456,-0.4554111311212181
0.4125876724720001,0.060339439660310745,-58.125518798828125,0.014376113576711052,-0.41707667600001314,0.00747327090551456,-0.4554111311212181
-0.13966883718967438,0.6309252381324768,-61.25545883178711,0.014376113576711052,-0.41707667600001314,0.00747327090551456,-0.4554111311212181
-1.040108323097229,-0.4705844521522522,-64.3967056274414,0.014376113576711052,-0.41707667600001314,0.00747327090551456,-0.4554111311212181
0.2302829772233963,0.7491703629493713,-67.54206848144531,0.014376113576711052,-0.41707667600001314,0.00747327090551456,-0.4554111311212181
-0.9259061813354492,-0.9068724513053894,-70.74687957763672,0.014376113576711052,-0.41707667600001314,0.00747327090551456,-0.4554111311212181
-0.044894058257341385,1.1702232360839844,-73.96597290039062,0.014376113576711052,-0.41707667600001314,0.00747327090551456,-0.4554111311212181
-0.8432766199111938,0.019247712567448616,-77.12003326416016,0.014376113576711052,-0.41707667600001314,0.00747327090551456,-0.4554111311212181
0.8047601580619812,1.7845306396484375,-80.31429290771484,0.014376113576711052,-0.41707667600001314,0.00747327090551456,-0.4554111311212181
-0.6679186224937439,-1.086540937423706,-83.52540588378906,0.014376113576711052,-0.41707667600001314,0.00747327090551456,-0.4554111311212181
-0.2578732371330261,0.23748715221881866,-86.76725769042969,0.014376113576711052,-0.41707667600001314,0.00747327090551456,-0.4554111311212181
0.6556578278541565,0.22201651334762573,-90.00352478027344,0.014376113576711052,-0.41707667600001314,0.00747327090551456,-0.4554111311212181
-0.4792843163013458,-0.5410076975822449,-93.20100402832031,0.014376113576711052,-0.41707667600001314,0.00747327090551456,-0.4554111311212181
0.37716442346572876,0.7898045182228088,-97.01558685302734,0.014376113576711052,-0.41707667600001314,0.00747327090551456,-0.4554111311212181
-0.3454904854297638,0.9282088279724121,-100.23719787597656,0.014376113576711052,-0.41707667600001314,0.00747327090551456,-0.4554111311212181
0.45587044954299927,0.9936037063598633,-103.42913818359375,0.014376113576711052,-0.41707667600001314,0.00747327090551456,-0.4554111311212181
0.8944873213768005,0.7521116137504578,-106.56952667236328,0.014376113576711052,-0.41707667600001314,0.00747327090551456,-0.4554111311212181
0.5728018283843994,0.16752314567565918,-109.75480651855469,0.014376113576711052,-0.41707667600001314,0.00747327090551456,-0.4554111311212181
-0.2734552025794983,-0.11879616975784302,-113.17745971679688,0.014376113576711052,-0.41707667600001314,0.00747327090551456,-0.4554111311212181
-0.04171285033226013,1.2121161222457886,-116.1612319946289,0.014376113576711052,-0.41707667600001314,0.00747327090551456,-0.4554111311212181
1.0306503772735596,0.08397214114665985,-119.12895202636719,0.014376113576711052,-0.41707667600001314,0.00747327090551456,-0.4554111311212181
0.21218068897724152,0.43761229515075684,-122.05732727050781,0.014376113576711052,-0.41707667600001314,0.00747327090551456,-0.4554111311212181
1.6842459440231323,-0.10897038877010345,-125.03621673583984,0.014376113576711052,-0.41707667600001314,0.00747327090551456,-0.4554111311212181
-0.7451422810554504,0.2190697193145752,-128.00579833984375,0.014376113576711052,-0.41707667600001314,0.00747327090551456,-0.4554111311212181
-0.7921801805496216,0.1967330425977707,-130.95242309570312,0.014376113576711052,-0.41707667600001314,0.00747327090551456,-0.4554111311212181
0.6668479442596436,2.0514090061187744,-133.90411376953125,0.014376113576711052,-0.41707667600001314,0.00747327090551456,-0.4554111311212181
0.028308724984526634,-0.883741021156311,-136.94454956054688,0.014376113576711052,-0.41707667600001314,0.00747327090551456,-0.4554111311212181
1.9564024209976196,0.02815861627459526,-140.03176879882812,0.014376113576711052,-0.41707667600001314,0.00747327090551456,-0.4554111311212181
-0.30905258655548096,0.3070008456707001,-143.07456970214844,0.014376113576711052,-0.41707667600001314,0.00747327090551456,-0.4554111311212181
0.744478166103363,0.5903750061988831,-146.07810974121094,0.014376113576711052,-0.41707667600001314,0.00747327090551456,-0.4554111311212181
-0.9018411040306091,0.41744542121887207,-149.1480255126953,0.014376113576711052,-0.41707667600001314,0.00747327090551456,-0.4554111311212181
0.5465548038482666,0.19526807963848114,-152.25767517089844,0.014376113576711052,-0.41707667600001314,0.00747327090551456,-0.4554111311212181
0.984822690486908,0.38718244433403015,-155.38197326660156,0.014376113576711052,-0.41707667600001314,0.00747327090551456,-0.4554111311212181
0.5185959935188293,0.512564480304718,-158.54502868652344,0.014376113576711052,-0.41707667600001314,0.00747327090551456,-0.4554111311212181
1.0744377374649048,0.2520938813686371,-161.64901733398438,0.014376113576711052,-0.41707667600001314,0.00747327090551456,-0.4554111311212181
0.399370014667511,-0.019295034930109978,-164.77008056640625,0.014376113576711052,-0.41707667600001314,0.00747327090551456,-0.4554111311212181
-0.06730788201093674,-0.4828476011753082,-167.94174194335938,0.014376113576711052,-0.41707667600001314,0.00747327090551456,-0.4554111311212181
0.33427542448043823,-0.4504670798778534,-171.1754913330078,0.014376113576711052,-0.41707667600001314,0.00747327090551456,-0.4554111311212181
0.370866596698761,1.0468741655349731,-174.35281372070312,0.014376113576711052,-0.41707667600001314,0.00747327090551456,-0.4554111311212181
1.2076449394226074,0.09399653971195221,-177.44921875,0.014376113576711052,-0.41707667600001314,0.00747327090551456,-0.4554111311212181
0.25226500630378723,0.2577844560146332,179.48374938964844,0.014376113576711052,-0.41707667600001314,0.00747327090551456,-0.4554111311212181
0.0036284064408391714,-0.8991160988807678,176.5081787109375,0.014376113576711052,-0.41707667600001314,0.00747327090551456,-0.4554111311212181
-0.487185001373291,0.8273256421089172,173.4969482421875,0.014376113576711052,-0.41707667600001314,0.00747327090551456,-0.4554111311212181
0.022715581580996513,-0.2028958946466446,170.50942993164062,0.014376113576711052,-0.41707667600001314,0.00747327090551456,-0.4554111311212181
1.2029259204864502,-0.6504636406898499,167.462646484375,0.014376113576711052,-0.41707667600001314,0.00747327090551456,-0.4554111311212181
0.9391574263572693,-0.12242603302001953,164.51048278808594,0.014376113576711052,-0.41707667600001314,0.00747327090551456,-0.4554111311212181
0.2935102880001068,-0.6527854800224304,161.65708923339844,0.014376113576711052,-0.41707667600001314,0.00747327090551456,-0.4554111311212181
-0.06431524455547333,-1.2317428588867188,158.75576782226562,0.014376113576711052,-0.41707667600001314,0.00747327090551456,-0.4554111311212181
-0.01634625345468521,-0.07701971381902695,155.84268188476562,0.014376113576711052,-0.41707667600001314,0.00747327090551456,-0.4554111311212181
1.1254957914352417,0.4186127483844757,152.88031005859375,0.014376113576711052,-0.41707667600001314,0.00747327090551456,-0.4554111311212181
0.3905295729637146,-0.5371817350387573,150.0502166748047,0.014376113576711052,-0.41707667600001314,0.00747327090551456,-0.4554111311212181
-0.4024200141429901,-1.9383267164230347,147.22145080566406,0.014376113576711052,-0.41707667600001314,0.00747327090551456,-0.4554111311212181
0.19406992197036743,-0.24125854671001434,144.36929321289062,0.014376113576711052,-0.41707667600001314,0.00747327090551456,-0.4554111311212181
-0.05459693446755409,2.457878828048706,141.51612854003906,0.014376113576711052,-0.41707667600001314,0.00747327090551456,-0.4554111311212181
1.1896973848342896,0.12125604599714279,138.61819458007812,0.014376113576711052,-0.41707667600001314,0.00747327090551456,-0.4554111311212181
-0.6397966742515564,0.04711005091667175,135.64797973632812,0.014376113576711052,-0.41707667600001314,0.00747327090551456,-0.4554111311212181
0.20420297980308533,-2.4882144927978516,132.6433563232422,0.014376113576711052,-0.41707667600001314,0.00747327090551456,-0.4554111311212181
1.3625982999801636,0.23682312667369843,129.64405822753906,0.014376113576711052,-0.41707667600001314,0.00747327090551456,-0.4554111311212181
-0.4410468637943268,-0.5983494520187378,126.62699890136719,0.014376113576711052,-0.41707667600001314,0.00747327090551456,-0.4554111311212181
0.37083595991134644,-0.12426740676164627,123.53860473632812,0.014376113576711052,-0.41707667600001314,0.00747327090551456,-0.4554111311212181
-0.048591360449790955,0.4233056604862213,120.55729675292969,0.014376113576711052,-0.41707667600001314,0.00747327090551456,-0.4554111311212181
-0.16451585292816162,0.5673843622207642,117.6133041381836,0.014376113576711052,-0.41707667600001314,0.00747327090551456,-0.4554111311212181
0.06930075585842133,-0.5243843793869019,114.64108276367188,0.014376113576711052,-0.41707667600001314,0.00747327090551456,-0.4554111311212181
0.03497873991727829,-0.8181474804878235,111.70005798339844,0.014376113576711052,-0.41707667600001314,0.00747327090551456,-0.4554111311212181
0.7598270177841187,-0.21873146295547485,108.72895812988281,0.014376113576711052,-0.41707667600001314,0.00747327090551456,-0.4554111311212181
0.5980319976806641,-0.546475350856781,105.8025131225586,0.014376113576711052,-0.41707667600001314,0.00747327090551456,-0.4554111311212181
-0.23834510147571564,-0.9208609461784363,102.92601013183594,0.014376113576711052,-0.41707667600001314,0.00747327090551456,-0.4554111311212181
0.5068609714508057,-0.25118327140808105,100.04790496826172,0.014376113576711052,-0.41707667600001314,0.00747327090551456,-0.4554111311212181
-1.1744614839553833,-0.9120527505874634,97.16100311279297,0.014376113576711052,-0.41707667600001314,0.00747327090551456,-0.4554111311212181
0.2944040894508362,-0.196175679564476,94.29511260986328,0.014376113576711052,-0.41707667600001314,0.00747327090551456,-0.4554111311212181
0.7431390881538391,-0.3316933810710907,91.31036376953125,0.014376113576711052,-0.41707667600001314,0.00747327090551456,-0.4554111311212181
0.6485086679458618,-0.3980267643928528,88.3221664428711,0.014376113576711052,-0.41707667600001314,0.00747327090551456,-0.4554111311212181
-0.9004793167114258,-0.22331160306930542,85.3630599975586,0.014376113576711052,-0.41707667600001314,0.00747327090551456,-0.4554111311212181
-0.18338355422019958,-0.43407949805259705,82.36064147949219,0.014376113576711052,-0.41707667600001314,0.00747327090551456,-0.4554111311212181
0.03786033019423485,-0.9184192419052124,79.39929962158203,0.014376113576711052,-0.41707667600001314,0.00747327090551456,-0.4554111311212181
-0.6846676468849182,-0.9068549871444702,76.4533920288086,0.014376113576711052,-0.41707667600001314,0.00747327090551456,-0.4554111311212181
-0.5020416975021362,0.014931701123714447,73.54613494873047,0.014376113576711052,-0.41707667600001314,0.00747327090551456,-0.4554111311212181
0.575986921787262,-0.49212148785591125,70.72913360595703,0.014376113576711052,-0.41707667600001314,0.00747327090551456,-0.4554111311212181
0.3937838077545166,0.33426380157470703,68.03299713134766,0.014376113576711052,-0.41707667600001314,0.00747327090551456,-0.4554111311212181
-0.06027810648083687,-0.5506352782249451,65.33110046386719,0.014376113576711052,-0.41707667600001314,0.00747327090551456,-0.4554111311212181
-1.0010424852371216,-0.2123190462589264,62.63926315307617,0.014376113576711052,-0.41707667600001314,0.00747327090551456,-0.4554111311212181
-1.0601129531860352,0.6044752597808838,60.01493835449219,0.014376113576711052,-0.41707667600001314,0.00747327090551456,-0.4554111311212181
0.842604398727417,-0.6143192648887634,57.379417419433594,0.014376113576711052,-0.41707667600001314,0.00747327090551456,-0.4554111311212181
0.22895626723766327,-0.650456428527832,54.692527770996094,0.014376113576711052,-0.41707667600001314,0.00747327090551456,-0.4554111311212181
-0.788870632648468,-0.6423166394233704,52.05167770385742,0.014376113576711052,-0.41707667600001314,0.00747327090551456,-0.4554111311212181
-0.21402184665203094,-0.738389790058136,49.456912994384766,0.014376113576711052,-0.41707667600001314,0.00747327090551456,-0.4554111311212181
-0.17603658139705658,0.1576155722141266,46.8414192199707,0.014376113576711052,-0.41707667600001314,0.00747327090551456,-0.4554111311212181
-0.5956335067749023,0.06808055192232132,44.028480529785156,0.014376113576711052,-0.41707667600001314,0.00747327090551456,-0.4554111311212181
0.7238207459449768,-0.6600315570831299,41.27104187011719,0.014376113576711052,-0.41707667600001314,0.00747327090551456,-0.4554111311212181
-1.2780171632766724,-0.08906549960374832,38.446720123291016,0.014376113576711052,-0.41707667600001314,0.00747327090551456,-0.4554111311212181
0.18870195746421814,-0.48296496272087097,35.659149169921875,0.014376113576711052,-0.41707667600001314,0.00747327090551456,-0.4554111311212181
-0.07655446231365204,-0.6129623055458069,32.87269973754883,0.014376113576711052,-0.41707667600001314,0.00747327090551456,-0.4554111311212181
-0.5612281560897827,0.02546745352447033,30.029285430908203,0.014376113576711052,-0.41707667600001314,0.00747327090551456,-0.4554111311212181
-0.22388969361782074,-0.20868277549743652,27.225000381469727,0.014376113576711052,-0.41707667600001314,0.00747327090551456,-0.4554111311212181
-0.7608206272125244,-0.26578354835510254,24.390291213989258,0.014376113576711052,-0.41707667600001314,0.00747327090551456,-0.4554111311212181
0.31611528992652893,-0.37304842472076416,21.598657608032227,0.014376113576711052,-0.41707667600001314,0.00747327090551456,-0.4554111311212181
-0.6436437964439392,-0.039045605808496475,18.753925323486328,0.014376113576711052,-0.41707667600001314,0.00747327090551456,-0.4554111311212181
-1.2186319828033447,0.7031992673873901,15.863056182861328,0.014376113576711052,-0.41707667600001314,0.00747327090551456,-0.4554111311212181
-0.09327255934476852,-0.6284079551696777,12.907567977905273,0.014376113576711052,-0.41707667600001314,0.00747327090551456,-0.4554111311212181
-1.2927361726760864,0.15870964527130127,9.914669036865234,0.014376113576711052,-0.41707667600001314,0.00747327090551456,-0.4554111311212181
0.5516337156295776,-0.37056615948677063,6.903346061706543,0.014376113576711052,-0.41707667600001314,0.00747327090551456,-0.4554111311212181
-0.20834796130657196,0.18023470044136047,3.8431763648986816,0.014376113576711052,-0.41707667600001314,0.00747327090551456,-0.4554111311212181
-0.5022867321968079,-0.056911226361989975,0.6796044707298279,0.014376113576711052,-0.41707667600001314,0.00747327090551456,-0.4554111311212181
-1.025652527809143,-0.023106547072529793,-2.459430456161499,0.014376113576711052,-0.41707667600001314,0.00747327090551456,-0.4554111311212181
0.18869434297084808,-0.8788647055625916,-5.639235496520996,0.014376113576711052,-0.41707667600001314,0.00747327090551456,-0.4554111311212181
-0.8661276698112488,0.616459846496582,-8.909770965576172,0.014376113576711052,-0.41707667600001314,0.00747327090551456,-0.4554111311212181
-0.4293915033340454,-0.2208431363105774,-12.200124740600586,0.014376113576711052,-0.41707667600001314,0.00747327090551456,-0.4554111311212181
-0.06893975287675858,0.4239627718925476,-15.404176712036133,0.014376113576711052,-0.41707667600001314,0.00747327090551456,-0.4554111311212181
-0.41890251636505127,1.0337131023406982,-18.657146453857422,0.014376113576711052,-0.41707667600001314,0.00747327090551456,-0.4554111311212181
-0.30056098103523254,-1.111088514328003,-21.888208389282227,0.014376113576711052,-0.41707667600001314,0.00747327090551456,-0.4554111311212181
-0.8503333330154419,0.9726598858833313,-25.205467224121094,0.014376113576711052,-0.41707667600001314,0.00747327090551456,-0.4554111311212181
-1.0662461519241333,-1.9866209030151367,-28.510744094848633,0.014376113576711052,-0.41707667600001314,0.00747327090551456,-0.4554111311212181
0.2526922821998596,2.516105890274048,-31.771421432495117,0.014376113576711052,-0.41707667600001314,0.00747327090551456,-0.4554111311212181
-0.7520018219947815,-0.6102890372276306,-35.014217376708984,0.014376113576711052,-0.41707667600001314,0.00747327090551456,-0.4554111311212181
-0.6480082869529724,-0.5973026752471924,-38.29766845703125,0.014376113576711052,-0.41707667600001314,0.00747327090551456,-0.4554111311212181
-0.4128855764865875,1.9875057935714722,-41.57407760620117,0.014376113576711052,-0.41707667600001314,0.00747327090551456,-0.4554111311212181
0.017403818666934967,0.1929607391357422,-44.801937103271484,0.014376113576711052,-0.41707667600001314,0.00747327090551456,-0.4554111311212181
-0.6907346248626709,0.40983930230140686,-48.058502197265625,0.014376113576711052,-0.41707667600001314,0.00747327090551456,-0.4554111311212181
-0.5741525888442993,0.3359527289867401,-51.27888870239258,0.014376113576711052,-0.41707667600001314,0.00747327090551456,-0.4554111311212181
0.3677508533000946,0.4721868336200714,-54.56154251098633,0.014376113576711052,-0.41707667600001314,0.00747327090551456,-0.4554111311212181
-0.7705879807472229,0.055874139070510864,-57.887699127197266,0.014376113576711052,-0.41707667600001314,0.00747327090551456,-0.4554111311212181
-0.15690727531909943,0.46452704071998596,-61.17756271362305,0.014376113576711052,-0.41707667600001314,0.00747327090551456,-0.4554111311212181
0.06152145937085152,-0.08391772955656052,-64.44853210449219,0.014376113576711052,-0.41707667600001314,0.00747327090551456,-0.4554111311212181
0.48250100016593933,0.5264318585395813,-67.78311157226562,0.014376113576711052,-0.41707667600001314,0.00747327090551456,-0.4554111311212181
-0.30210986733436584,-0.35664334893226624,-70.99647521972656,0.014376113576711052,-0.41707667600001314,0.00747327090551456,-0.4554111311212181
-0.6032446622848511,1.1712678670883179,-74.25686645507812,0.014376113576711052,-0.41707667600001314,0.00747327090551456,-0.4554111311212181
-0.3482207953929901,0.05110204219818115,-77.54508209228516,0.014376113576711052,-0.41707667600001314,0.00747327090551456,-0.4554111311212181
-0.6407445669174194,0.4140472412109375,-80.78315734863281,0.014376113576711052,-0.41707667600001314,0.00747327090551456,-0.4554111311212181
0.9849568605422974,1.5104525089263916,-84.0641860961914,0.014376113576711052,-0.41707667600001314,0.00747327090551456,-0.4554111311212181
-0.9553511738777161,0.4737849831581116,-87.38080596923828,0.014376113576711052,-0.41707667600001314,0.00747327090551456,-0.4554111311212181
0.5411057472229004,0.7830438017845154,-90.65419006347656,0.014376113576711052,-0.41707667600001314,0.00747327090551456,-0.4554111311212181
-0.22463375329971313,0.6675016283988953,-93.9294662475586,0.014376113576711052,-0.41707667600001314,0.00747327090551456,-0.4554111311212181
0.34618452191352844,-0.20255692303180695,-97.20804595947266,0.014376113576711052,-0.41707667600001314,0.00747327090551456,-0.4554111311212181
-0.5161581039428711,-0.03117082081735134,-100.50977325439453,0.014376113576711052,-0.41707667600001314,0.00747327090551456,-0.4554111311212181
2.2437727451324463,0.8986548781394958,-103.73484802246094,0.014376113576711052,-0.41707667600001314,0.00747327090551456,-0.4554111311212181
0.7703925967216492,0.23701313138008118,-106.92897033691406,0.014376113576711052,-0.41707667600001314,0.00747327090551456,-0.4554111311212181
-1.628705620765686,-0.40253448486328125,-110.07569122314453,0.014376113576711052,-0.41707667600001314,0.00747327090551456,-0.4554111311212181
-0.23238243162631989,1.2208449840545654,-113.29660034179688,0.014376113576711052,-0.41707667600001314,0.00747327090551456,-0.4554111311212181
0.2938559055328369,-0.32005494832992554,-116.59996032714844,0.014376113576711052,-0.41707667600001314,0.00747327090551456,-0.4554111311212181
1.038909912109375,1.0249398946762085,-119.89425659179688,0.014376113576711052,-0.41707667600001314,0.00747327090551456,-0.4554111311212181
-0.8483061194419861,0.6422281861305237,-123.13477325439453,0.014376113576711052,-0.41707667600001314,0.00747327090551456,-0.4554111311212181
0.5968242883682251,0.1516987532377243,-126.36943054199219,0.014376113576711052,-0.41707667600001314,0.00747327090551456,-0.4554111311212181
1.54439115524292,0.17139479517936707,-129.57742309570312,0.014376113576711052,-0.41707667600001314,0.00747327090551456,-0.4554111311212181
-0.6157152652740479,1.0457053184509277,-132.75125122070312,0.014376113576711052,-0.41707667600001314,0.00747327090551456,-0.4554111311212181
0.33350539207458496,-0.13859261572360992,-135.92726135253906,0.014376113576711052,-0.41707667600001314,0.00747327090551456,-0.4554111311212181
-0.12133117020130157,0.6224552392959595,-139.12442016601562,0.014376113576711052,-0.41707667600001314,0.00747327090551456,-0.4554111311212181
0.9361231923103333,0.34863004088401794,-142.3973846435547,0.014376113576711052,-0.41707667600001314,0.00747327090551456,-0.4554111311212181
0.6428824663162231,0.8129615187644958,-145.66712951660156,0.014376113576711052,-0.41707667600001314,0.00747327090551456,-0.4554111311212181
0.8476663827896118,0.0353400893509388,-148.93450927734375,0.014376113576711052,-0.41707667600001314,0.00747327090551456,-0.4554111311212181
0.044984493404626846,0.04415931552648544,-152.23094177246094,0.014376113576711052,-0.41707667600001314,0.00747327090551456,-0.4554111311212181
0.5047403573989868,-0.2463964968919754,-155.51658630371094,0.014376113576711052,-0.41707667600001314,0.00747327090551456,-0.4554111311212181
0.658210039138794,0.1589689701795578,-158.7893829345703,0.014376113576711052,-0.41707667600001314,0.00747327090551456,-0.4554111311212181
0.06823466718196869,1.286920189857483,-162.0099639892578,0.014376113576711052,-0.41707667600001314,0.00747327090551456,-0.4554111311212181
1.2409001588821411,-0.46515771746635437,-165.23162841796875,0.014376113576711052,-0.41707667600001314,0.00747327090551456,-0.4554111311212181
-0.09489038586616516,0.4782506823539734,-168.4768524169922,0.014376113576711052,-0.41707667600001314,0.00747327090551456,-0.4554111311212181
0.6805557608604431,-0.42217501997947693,-171.71429443359375,0.014376113576711052,-0.41707667600001314,0.00747327090551456,-0.4554111311212181
1.5169137716293335,-0.5618259906768799,-174.90969848632812,0.014376113576711052,-0.41707667600001314,0.00747327090551456,-0.4554111311212181
-0.34806013107299805,0.9304314851760864,-178.07078552246094,0.014376113576711052,-0.41707667600001314,0.00747327090551456,-0.4554111311212181
0.5312015414237976,-0.890869140625,178.79261779785156,0.014376113576711052,-0.41707667600001314,0.00747327090551456,-0.4554111311212181
0.3447413146495819,0.5889702439308167,175.7774658203125,0.014376113576711052,-0.41707667600001314,0.00747327090551456,-0.4554111311212181
