faccX,faccY,yaw,posX,posY,velX,velY
0,0,-84.95787048339844,0.0,0.0,0.0,0.0
0,0,-84.95811462402344,0.0,0.0,0.0,0.0
0,0,-84.9590835571289,0.0,0.0,0.0,0.0
0,0,-84.96031188964844,0.0,0.0,0.0,0.0
0,0,-84.96195983886719,0.0,0.0,0.0,0.0
0.1992393583059311,-0.6730484366416931,-84.95869445800781,1.3836066549022992e-05,-4.6739474766784244e-05,0.001660327985882759,-0.005608736972014109
0.33663704991340637,-2.5238122940063477,-84.92981719970703,7.872183910674518e-05,-0.00036222264170646665,0.0061259647210439045,-0.03224924306074778
0,-1.5134881734848022,-84.81603240966797,0.0002041988240347968,-0.0011800781140724817,0.008931273470322292,-0.06589341362317402
0.43263787031173706,-1.2631020545959473,-84.80459594726562,0.00038309767842292786,-0.0024711204402976562,0.012536589056253433,-0.08903166552384693
0,-2.464463710784912,-84.87056732177734,0.0006220851259099113,-0.0042138402660687755,0.016141904642184575,-0.12009471356868742
0.6459303498268127,-1.698833703994751,-84.7722396850586,0.0009359731442398495,-0.006504536701573265,0.021524657557408015,-0.15478885869185127
0.714206337928772,-1.180769443511963,-84.6236801147461,0.0013891713735130098,-0.009284323453903197,0.03285912995537122,-0.17878555158774057
-0.677333652973175,-0.878443717956543,-84.56843566894531,0.00193938414255778,-0.012407083561023075,0.0331664023300012,-0.19594566126664478
-0.19096739590168,-1.061690330505371,-84.61024475097656,0.002431858830774824,-0.01580757611327701,0.025930560256044073,-0.2121134450038274
-0.06186099722981453,-1.228638768196106,-84.61302947998047,0.0028464773077414266,-0.019501850828528403,0.023823656979948284,-0.2311995208263397
0.6299256086349487,-1.3625199794769287,-84.52311706542969,0.00328298718875481,-0.02353511775533358,0.028557528741657734,-0.25279251039028167
0.15954968333244324,-1.4730302095413208,-84.51920318603516,0.0038137706741690636,-0.027945239469408988,0.03513648950805267,-0.2764220952987671
-0.4864470064640045,-0.4471653699874878,-84.5409164428711,0.004376677629641361,-0.032685621306300164,0.03241234514862299,-0.29242372512817383
1.0118660926818848,-1.2310080528259277,-84.43385314941406,0.004953370818661319,-0.0376758898794651,0.03679083753377199,-0.306408503651619
-0.7874054908752441,-0.9552932381629944,-84.36643981933594,0.005582138986016313,-0.04293452475219965,0.03866134254882733,-0.3246276810765267
0.7787670493125916,-0.3907162547111511,-84.237060546875,0.006225894803388251,-0.04843845898492469,0.038589355535805225,-0.3358444268504779
-0.5059582591056824,-1.3712396621704102,-84.255859375,0.006887995783860484,-0.05415822414888276,0.0408627621208628,-0.3505273928244909
0.3110620379447937,-0.30386853218078613,-84.32301330566406,0.007555507359405358,-0.060116674320565326,0.03923862694452206,-0.3644866277774175
0,-0.9265866279602051,-84.34241485595703,0.008231086005560226,-0.06627689972519875,0.04183081059406201,-0.37474042077859243
0.1451391875743866,0,-84.33123779296875,0.008938345292376148,-0.0725869196984503,0.04304030382384857,-0.38246197601159415
0.7542051076889038,-0.5573682188987732,-84.38140869140625,0.009718138154389131,-0.07899999209162262,0.05053483961770932,-0.3871067111690839
-0.9481804966926575,-1.0126888751983643,-84.36807250976562,0.010546914968225692,-0.08556080235375298,0.04891837804267804,-0.40019052028656005
1.0545045137405396,-1.1800775527954102,-84.29341125488281,0.011369604881231983,-0.09238291980491743,0.04980441151807706,-0.41846357385317484
-0.16603441536426544,-0.5419889092445374,-84.42623901367188,0.012261377718920509,-0.09947690065122312,0.05720832900454601,-0.43281412770350774
-1.8811326026916504,0.508266031742096,-84.62972259521484,0.013072685492742393,-0.1066928113127748,0.04014860385408005,-0.43309515168269475
1.469910979270935,-0.8140472173690796,-84.82380676269531,0.013713271833128399,-0.11393229864537714,0.036721756992240756,-0.4356433282295863
0.6846069693565369,0,-84.97261810302734,0.014474920418320431,-0.12124955183929866,0.05467607323080302,-0.4424270550409953
-0.6112728118896484,-0.22662758827209473,-84.92193603515625,0.015391280955324571,-0.12863907411694525,0.055287191209693755,-0.44431561827659605
0.3869308531284332,-0.4708667993545532,-84.81822967529297,0.01629715483946105,-0.13609277153180704,0.05341767488668363,-0.4501280715068181
1.2645208835601807,0.513597846031189,-84.8106918334961,0.01730213356928693,-0.1435919386231237,0.06717977269242208,-0.44977197945117947
-1.3829840421676636,0.05060869827866554,-84.90362548828125,0.018413569839257335,-0.15104895727062184,0.06619257970402638,-0.44507025824859736
-0.35764360427856445,-0.4833083152770996,-84.93339538574219,0.01939590258109901,-0.15849684349261225,0.05168734931697448,-0.44867608839025097
-0.6965713500976562,-0.9142446517944336,-85.04428100585938,0.020184149031216903,-0.1660718305884964,0.04290222469717264,-0.46032236311584707
1.724118709564209,-0.39131736755371094,-85.09671020507812,0.020970543565021624,-0.1738345340028819,0.051465119359393914,-0.4712020466104149
-0.9823317527770996,-0.345819354057312,-85.00653076171875,0.02187980853745507,-0.1817390914965007,0.05764667733261983,-0.47734485262384013
1.8467249870300293,0.4313136339187622,-84.81615447998047,0.022900613800932966,-0.1896889019374632,0.06484995428472758,-0.4766324002916614
-0.5055528283119202,0.7156829237937927,-84.63243103027344,0.02407458332781163,-0.19755312273692752,0.07602638894071181,-0.4670740956440568
-0.5690745115280151,-1.363077998161316,-84.5656967163086,0.02526706291155683,-0.20538264898893732,0.06707116110871235,-0.47246905459711946
-1.0908308029174805,1.0235779285430908,-84.55992126464844,0.026269644394309986,-0.21328070962594614,0.05323861682166655,-0.475298221843938
0.765757143497467,-1.673384428024292,-84.36021423339844,0.02713438011498915,-0.2212474721080313,0.050529669659833104,-0.48071327600628133
1.1311006546020508,-0.44243836402893066,-84.18647766113281,0.0281082675119655,-0.22940629217980635,0.06633681797732909,-0.49834513260672486
-1.8091042041778564,0.13466255366802216,-84.15874481201172,0.02916679756508933,-0.23773341771008238,0.06068678839753071,-0.5009099310263991
0.33918941020965576,-0.20289123058319092,-84.22914123535156,0.030076166622133717,-0.24608665466308594,0.0484374984477957,-0.5014785033340255
0.39875277876853943,0.07363530993461609,-84.35800170898438,0.03093470424827602,-0.25445360582425364,0.05458701668928066,-0.502555636006097
0.34602805972099304,0.7718651294708252,-84.32852935791016,0.0318962087513258,-0.26277081778272987,0.06079352367669343,-0.49550979901105163
0,0.23646606504917145,-84.27057647705078,0.032933463872306876,-0.2709592914332946,0.06367709084103504,-0.4871070390567183
-0.5117355585098267,-0.35045117139816284,-84.38844299316406,0.03395921152809428,-0.27908565771662525,0.05941262785345315,-0.4880569149429599
0.38325756788253784,-0.6388976573944092,-84.39167022705078,0.03494049990963605,-0.2872886444121185,0.058341977931559076,-0.4963014885162313
0.07130009680986404,-0.7654783129692078,-84.46844482421875,0.03594443271298789,-0.29565786199644206,0.062129958470662425,-0.5080046216025947
0.4615205228328705,-0.5262808799743652,-84.60203552246094,0.0370169334527519,-0.3042143111893286,0.06657013030101855,-0.5187692815437912
-0.15519307553768158,0.44899290800094604,-84.74247741699219,0.038147708363831044,-0.31286583310200106,0.06912285902847845,-0.5194133479769031
-0.2987837791442871,0,-84.83184814453125,0.03926822984384166,-0.3214915421718938,0.06533971857279537,-0.5156717404102286
0,0.38609078526496887,-84.75035095214844,0.04033647627983656,-0.3300592593186431,0.06284985374659298,-0.5124543171996871
0.5863851308822632,0.2885349690914154,-84.721923828125,0.04142469503192438,-0.33855331559458535,0.06773639650394517,-0.5068324359133839
-1.6803562641143799,0.5271506309509277,-84.88988494873047,0.04247766475607123,-0.34694387802647214,0.05861997039367753,-0.500035055913031
0.7161645293235779,-0.43066737055778503,-84.99223327636719,0.043387706503272054,-0.35527109539860646,0.050585039270420844,-0.4992310287430881
0,-1.2125447988510132,-85.01704406738281,0.04428052413898209,-0.36370572450053357,0.056553077014783994,-0.5129244634881615
0.612130343914032,-0.39489153027534485,-84.80912780761719,0.04526558447422252,-0.3723660930815256,0.061654163214067595,-0.5263197662308811
-0.17496933043003082,0.256969153881073,-84.62345123291016,0.046323512264837816,-0.38114766712817877,0.0652971716597676,-0.5274691193675
1.122446060180664,1.3041338920593262,-84.486083984375,0.04747759545428885,-0.3898304091838912,0.07319281107435621,-0.5144599273179966
-0.5085482001304626,0.050813838839530945,-84.52833557128906,0.04874010743469827,-0.39831064771343433,0.07830862657477455,-0.5031686962271728
-1.1280192136764526,0.18210627138614655,-84.60891723632812,0.04874010743469827,-0.39831064771343433,0.07830862657477455,-0.5031686962271728
0.578478217124939,0.23982149362564087,-84.58515930175781,0.04874010743469827,-0.39831064771343433,0.07830862657477455,-0.5031686962271728
-0.050532277673482895,-1.1834698915481567,-84.49044036865234,0.04874010743469827,-0.39831064771343433,0.07830862657477455,-0.5031686962271728
-0.9590103030204773,1.3246694803237915,-84.57645416259766,0.04874010743469827,-0.39831064771343433,0.07830862657477455,-0.5031686962271728
-0.3921480178833008,3.3724148273468018,-85.07270812988281,0.04874010743469827,-0.39831064771343433,0.07830862657477455,-0.5031686962271728
-0.6546544432640076,0.8832316994667053,-85.83724212646484,0.04874010743469827,-0.39831064771343433,0.07830862657477455,-0.5031686962271728
-1.0516384840011597,1.817553997039795,-86.70708465576172,0.04874010743469827,-0.39831064771343433,0.07830862657477455,-0.5031686962271728
-1.0075377225875854,2.2833638191223145,-87.71361541748047,0.04874010743469827,-0.39831064771343433,0.07830862657477455,-0.5031686962271728
-0.4548617899417877,1.8344422578811646,-88.92351531982422,0.04874010743469827,-0.39831064771343433,0.07830862657477455,-0.5031686962271728
-1.1788442134857178,0.6053364276885986,-90.3243179321289,0.04874010743469827,-0.39831064771343433,0.07830862657477455,-0.5031686962271728
0.13861261308193207,2.5489542484283447,-91.94435119628906,0.04874010743469827,-0.39831064771343433,0.07830862657477455,-0.5031686962271728
0.14382773637771606,1.6306120157241821,-93.66287994384766,0.04874010743469827,-0.39831064771343433,0.07830862657477455,-0.5031686962271728
-1.3152446746826172,0.21867604553699493,-95.46945190429688,0.04874010743469827,-0.39831064771343433,0.07830862657477455,-0.5031686962271728
1.7248808145523071,3.024193286895752,-97.31476593017578,0.04874010743469827,-0.39831064771343433,0.07830862657477455,-0.5031686962271728
-2.6269359588623047,0.6796314716339111,-99.29297637939453,0.04874010743469827,-0.39831064771343433,0.07830862657477455,-0.5031686962271728
1.398727536201477,2.8383705615997314,-101.32868194580078,0.04874010743469827,-0.39831064771343433,0.07830862657477455,-0.5031686962271728
-1.3324973583221436,0.5838813781738281,-103.44096374511719,0.04874010743469827,-0.39831064771343433,0.07830862657477455,-0.5031686962271728
0.47459521889686584,1.086702823638916,-105.6111068725586,0.04874010743469827,-0.39831064771343433,0.07830862657477455,-0.5031686962271728
-0.3175947964191437,1.55836021900177,-107.94222259521484,0.04874010743469827,-0.39831064771343433,0.07830862657477455,-0.5031686962271728
0.7270598411560059,0.9543080925941467,-110.33368682861328,0.04874010743469827,-0.39831064771343433,0.07830862657477455,-0.5031686962271728
-0.993119478225708,0.793370246887207,-112.83309936523438,0.04874010743469827,-0.39831064771343433,0.07830862657477455,-0.5031686962271728
0.6186912655830383,1.0305054187774658,-115.33415222167969,0.04874010743469827,-0.39831064771343433,0.07830862657477455,-0.5031686962271728
-0.693636953830719,1.0900816917419434,-117.87425994873047,0.04874010743469827,-0.39831064771343433,0.07830862657477455,-0.5031686962271728
0.11974573880434036,0.25323864817619324,-120.3818359375,0.04874010743469827,-0.39831064771343433,0.07830862657477455,-0.5031686962271728
0.8724600672721863,1.0708245038986206,-122.87533569335938,0.04874010743469827,-0.39831064771343433,0.07830862657477455,-0.5031686962271728
-1.4382706880569458,1.202832579612732,-125.45472717285156,0.04874010743469827,-0.39831064771343433,0.07830862657477455,-0.5031686962271728
2.3099756240844727,0.7106500267982483,-128.00904846191406,0.04874010743469827,-0.39831064771343433,0.07830862657477455,-0.5031686962271728
-0.07490947097539902,1.446023941040039,-130.62840270996094,0.04874010743469827,-0.39831064771343433,0.07830862657477455,-0.5031686962271728
-2.2008557319641113,0.7459245920181274,-133.19566345214844,0.04874010743469827,-0.39831064771343433,0.07830862657477455,-0.5031686962271728
1.9226577281951904,-0.49906593561172485,-135.781005859375,0.04874010743469827,-0.39831064771343433,0.07830862657477455,-0.5031686962271728
-1.5075814723968506,2.1038129329681396,-138.34359741210938,0.04874010743469827,-0.39831064771343433,0.07830862657477455,-0.5031686962271728
0.870596706867218,0.0641283392906189,-140.88351440429688,0.04874010743469827,-0.39831064771343433,0.07830862657477455,-0.5031686962271728
0.22309575974941254,0.520622730255127,-143.39356994628906,0.04874010743469827,-0.39831064771343433,0.07830862657477455,-0.5031686962271728
-0.7564868927001953,1.1116913557052612,-145.84445190429688,0.04874010743469827,-0.39831064771343433,0.07830862657477455,-0.5031686962271728
0.5618805289268494,0.36789700388908386,-148.25375366210938,0.04874010743469827,-0.39831064771343433,0.07830862657477455,-0.5031686962271728
0.21984103322029114,0.47366344928741455,-150.65155029296875,0.04874010743469827,-0.39831064771343433,0.07830862657477455,-0.5031686962271728
0.036362726241350174,0.47422876954078674,-152.93142700195312,0.04874010743469827,-0.39831064771343433,0.07830862657477455,-0.5031686962271728
-0.36993643641471863,0.16151928901672363,-155.1361541748047,0.04874010743469827,-0.39831064771343433,0.07830862657477455,-0.5031686962271728
-0.10902861505746841,0.9320996403694153,-157.3032989501953,0.04874010743469827,-0.39831064771343433,0.07830862657477455,-0.5031686962271728
0.16314448416233063,0.8330150246620178,-159.39996337890625,0.04874010743469827,-0.39831064771343433,0.07830862657477455,-0.5031686962271728
0.3276160657405853,0.3546949028968811,-161.5849609375,0.04874010743469827,-0.39831064771343433,0.07830862657477455,-0.5031686962271728
-0.04556557163596153,-0.3213686943054199,-163.72677612304688,0.04874010743469827,-0.39831064771343433,0.07830862657477455,-0.5031686962271728
0.6657454967498779,0.529819667339325,-165.90882873535156,0.04874010743469827,-0.39831064771343433,0.07830862657477455,-0.5031686962271728
-0.1856524497270584,0.7780672907829285,-168.05592346191406,0.04874010743469827,-0.39831064771343433,0.07830862657477455,-0.5031686962271728
1.0057746171951294,0.01071937382221222,-170.3302459716797,0.04874010743469827,-0.39831064771343433,0.07830862657477455,-0.5031686962271728
-0.6587565541267395,1.5062572956085205,-172.70718383789062,0.04874010743469827,-0.39831064771343433,0.07830862657477455,-0.5031686962271728
1.0881617069244385,-1.9668675661087036,-175.20225524902344,0.04874010743469827,-0.39831064771343433,0.07830862657477455,-0.5031686962271728
-0.5406701564788818,2.0446252822875977,-177.74334716796875,0.04874010743469827,-0.39831064771343433,0.07830862657477455,-0.5031686962271728
0.8927250504493713,-1.6998536586761475,-179.96453857421875,0.04874010743469827,-0.39831064771343433,0.07830862657477455,-0.5031686962271728
-1.2739267349243164,1.2507344484329224,178.16900634765625,0.04874010743469827,-0.39831064771343433,0.07830862657477455,-0.5031686962271728
1.5701364278793335,-2.5861525535583496,176.77947998046875,0.04874010743469827,-0.39831064771343433,0.07830862657477455,-0.5031686962271728
-1.0694913864135742,-1.1599829196929932,175.71438598632812,0.04874010743469827,-0.39831064771343433,0.07830862657477455,-0.5031686962271728
-0.1253068447113037,-1.2964792251586914,174.99017333984375,0.04874010743469827,-0.39831064771343433,0.07830862657477455,-0.5031686962271728
-0.3796932101249695,-1.1581755876541138,174.6355743408203,0.04874010743469827,-0.39831064771343433,0.07830862657477455,-0.5031686962271728
-0.7565368413925171,-0.8003778457641602,174.61607360839844,0.04874010743469827,-0.39831064771343433,0.07830862657477455,-0.5031686962271728
-0.3827873170375824,0.06823320686817169,174.69464111328125,0.04874010743469827,-0.39831064771343433,0.07830862657477455,-0.5031686962271728
0.6331438422203064,0.7927681803703308,174.72158813476562,0.04874010743469827,-0.39831064771343433,0.07830862657477455,-0.5031686962271728
0.6754441857337952,-0.3917170464992523,174.68930053710938,0.04874010743469827,-0.39831064771343433,0.07830862657477455,-0.5031686962271728
0.31759747862815857,0.6208623647689819,174.70343017578125,0.04874010743469827,-0.39831064771343433,0.07830862657477455,-0.5031686962271728
-0.1949116736650467,-0.044090352952480316,174.71754455566406,0.04874010743469827,-0.39831064771343433,0.07830862657477455,-0.5031686962271728
-0.479024738073349,0.3025323152542114,174.71641540527344,0.04874010743469827,-0.39831064771343433,0.07830862657477455,-0.5031686962271728
-0.21711523830890656,0.2278560996055603,174.7168731689453,0.04874010743469827,-0.39831064771343433,0.07830862657477455,-0.5031686962271728
0.000252278900006786,0.18551945686340332,174.72494506835938,0.04874010743469827,-0.39831064771343433,0.07830862657477455,-0.5031686962271728
0.2246682047843933,0.1595516949892044,174.71432495117188,0.04874010743469827,-0.39831064771343433,0.07830862657477455,-0.5031686962271728
0.17288029193878174,0.21767742931842804,174.7185821533203,0.04874010743469827,-0.39831064771343433,0.07830862657477455,-0.5031686962271728
-0.05256497859954834,0.16840243339538574,174.71961975097656,0.04874010743469827,-0.39831064771343433,0.07830862657477455,-0.5031686962271728
-0.16891394555568695,0.19244809448719025,174.72032165527344,0.04874010743469827,-0.39831064771343433,0.07830862657477455,-0.5031686962271728
-0.08759336173534393,0.20297135412693024,174.72088623046875,0.04874010743469827,-0.39831064771343433,0.07830862657477455,-0.5031686962271728
0.06355265527963638,0.17608493566513062,174.7194061279297,0.04874010743469827,-0.39831064771343433,0.07830862657477455,-0.5031686962271728
0.07958830147981644,0.18654902279376984,174.7191162109375,0.04874010743469827,-0.39831064771343433,0.07830862657477455,-0.5031686962271728
-0.00016248933388851583,0.17774607241153717,174.72169494628906,0.04874010743469827,-0.39831064771343433,0.07830862657477455,-0.5031686962271728
-0.08831938356161118,0.19842466711997986,174.7208251953125,0.04874010743469827,-0.39831064771343433,0.07830862657477455,-0.5031686962271728
-0.042584724724292755,0.2106131762266159,174.72100830078125,0.04874010743469827,-0.39831064771343433,0.07830862657477455,-0.5031686962271728
0.0289346631616354,0.1842937022447586,174.72154235839844,0.04874010743469827,-0.39831064771343433,0.07830862657477455,-0.5031686962271728
0.04816141724586487,0.17999306321144104,174.72193908691406,0.04874010743469827,-0.39831064771343433,0.07830862657477455,-0.5031686962271728
-0.007019722834229469,0.1965228021144867,174.72315979003906,0.04874010743469827,-0.39831064771343433,0.07830862657477455,-0.5031686962271728
-0.03913761302828789,0.18499600887298584,174.7235565185547,0.04874010743469827,-0.39831064771343433,0.07830862657477455,-0.5031686962271728
-0.027841858565807343,0.2004927098751068,174.72373962402344,0.04874010743469827,-0.39831064771343433,0.07830862657477455,-0.5031686962271728
0.019613688811659813,0.20120377838611603,174.7236785888672,0.04874010743469827,-0.39831064771343433,0.07830862657477455,-0.5031686962271728
0.0061225323006510735,0.1862877458333969,174.72479248046875,0.04874010743469827,-0.39831064771343433,0.07830862657477455,-0.5031686962271728
-0.00960428174585104,0.1953032910823822,174.7254638671875,0.04874010743469827,-0.39831064771343433,0.07830862657477455,-0.5031686962271728
-0.030213160440325737,0.17931222915649414,174.72544860839844,0.04874010743469827,-0.39831064771343433,0.07830862657477455,-0.5031686962271728
-0.02349831722676754,0.1860475391149521,174.72633361816406,0.04874010743469827,-0.39831064771343433,0.07830862657477455,-0.5031686962271728
-0.009261230938136578,0.18863482773303986,174.72674560546875,0.04874010743469827,-0.39831064771343433,0.07830862657477455,-0.5031686962271728
0.00382520561106503,0.17870308458805084,174.72694396972656,0.04874010743469827,-0.39831064771343433,0.07830862657477455,-0.5031686962271728
-0.02567153237760067,0.18951141834259033,174.72727966308594,0.04874010743469827,-0.39831064771343433,0.07830862657477455,-0.5031686962271728
-0.012988228350877762,0.1937086582183838,174.72824096679688,0.04874010743469827,-0.39831064771343433,0.07830862657477455,-0.5031686962271728
-0.016288261860609055,0.18740275502204895,174.72830200195312,0.04874010743469827,-0.39831064771343433,0.07830862657477455,-0.5031686962271728
0.006597364787012339,0.18765881657600403,174.72779846191406,0.04874010743469827,-0.39831064771343433,0.07830862657477455,-0.5031686962271728
-0.00698875542730093,0.18534137308597565,174.7278594970703,0.04874010743469827,-0.39831064771343433,0.07830862657477455,-0.5031686962271728
-0.014497935771942139,0.1914716213941574,174.7269287109375,0.04874010743469827,-0.39831064771343433,0.07830862657477455,-0.5031686962271728
-0.016295067965984344,0.19813130795955658,174.7268524169922,0.04874010743469827,-0.39831064771343433,0.07830862657477455,-0.5031686962271728
-0.0006812768988311291,0.18928822875022888,174.72647094726562,0.04874010743469827,-0.39831064771343433,0.07830862657477455,-0.5031686962271728
0.001533079077489674,0.1757567971944809,174.72674560546875,0.04874010743469827,-0.39831064771343433,0.07830862657477455,-0.5031686962271728
-0.009479276835918427,0.19423933327198029,174.72642517089844,0.04874010743469827,-0.39831064771343433,0.07830862657477455,-0.5031686962271728
0.0018325872952118516,0.1778479665517807,174.72772216796875,0.04874010743469827,-0.39831064771343433,0.07830862657477455,-0.5031686962271728
-0.008001912385225296,0.18428859114646912,174.72845458984375,0.04874010743469827,-0.39831064771343433,0.07830862657477455,-0.5031686962271728
-0.011087067425251007,0.18841272592544556,174.72979736328125,0.04874010743469827,-0.39831064771343433,0.07830862657477455,-0.5031686962271728
-0.026238007470965385,0.18695440888404846,174.72930908203125,0.04874010743469827,-0.39831064771343433,0.07830862657477455,-0.5031686962271728
0.005638379603624344,0.18255390226840973,174.7294158935547,0.04874010743469827,-0.39831064771343433,0.07830862657477455,-0.5031686962271728
-0.005739015527069569,0.1923978477716446,174.72885131835938,0.04874010743469827,-0.39831064771343433,0.07830862657477455,-0.5031686962271728
-0.014893255196511745,0.18721412122249603,174.72882080078125,0.04874010743469827,-0.39831064771343433,0.07830862657477455,-0.5031686962271728
-0.01181202381849289,0.18929564952850342,174.72930908203125,0.04874010743469827,-0.39831064771343433,0.07830862657477455,-0.5031686962271728
-0.0015056554693728685,0.18499784171581268,174.72909545898438,0.04874010743469827,-0.39831064771343433,0.07830862657477455,-0.5031686962271728
0.003992750775068998,0.1843763142824173,174.73013305664062,0.04874010743469827,-0.39831064771343433,0.07830862657477455,-0.5031686962271728
-0.00817534513771534,0.18053412437438965,174.72943115234375,0.04874010743469827,-0.39831064771343433,0.07830862657477455,-0.5031686962271728
-0.019574616104364395,0.1980639100074768,174.7306671142578,0.04874010743469827,-0.39831064771343433,0.07830862657477455,-0.5031686962271728
-0.010672397911548615,0.18637171387672424,174.73085021972656,0.04874010743469827,-0.39831064771343433,0.07830862657477455,-0.5031686962271728
0.003950334619730711,0.18782943487167358,174.7303466796875,0.04874010743469827,-0.39831064771343433,0.07830862657477455,-0.5031686962271728
-0.010082865133881569,0.19528992474079132,174.7301025390625,0.04874010743469827,-0.39831064771343433,0.07830862657477455,-0.5031686962271728
-0.009707591496407986,0.17132502794265747,174.72970581054688,0.04874010743469827,-0.39831064771343433,0.07830862657477455,-0.5031686962271728
-0.007076927460730076,0.19138525426387787,174.72987365722656,0.04874010743469827,-0.39831064771343433,0.07830862657477455,-0.5031686962271728
-0.012429919093847275,0.18349041044712067,174.7307586669922,0.04874010743469827,-0.39831064771343433,0.07830862657477455,-0.5031686962271728
-0.015411855652928352,0.17800304293632507,174.73025512695312,0.04874010743469827,-0.39831064771343433,0.07830862657477455,-0.5031686962271728
-0.004739228170365095,0.1850331872701645,174.72959899902344,0.04874010743469827,-0.39831064771343433,0.07830862657477455,-0.5031686962271728
-0.010930076241493225,0.18346376717090607,174.73033142089844,0.04874010743469827,-0.39831064771343433,0.07830862657477455,-0.5031686962271728
0.007391214370727539,0.18906532227993011,174.7303466796875,0.04874010743469827,-0.39831064771343433,0.07830862657477455,-0.5031686962271728
-0.0002280041662743315,0.17384280264377594,174.73072814941406,0.04874010743469827,-0.39831064771343433,0.07830862657477455,-0.5031686962271728
-0.007859592325985432,0.174283966422081,174.73178100585938,0.04874010743469827,-0.39831064771343433,0.07830862657477455,-0.5031686962271728
-0.011636831797659397,0.18672025203704834,174.7324981689453,0.04874010743469827,-0.39831064771343433,0.07830862657477455,-0.5031686962271728
0.0018436441896483302,0.18395087122917175,174.73196411132812,0.04874010743469827,-0.39831064771343433,0.07830862657477455,-0.5031686962271728
-0.008229558356106281,0.18057681620121002,174.73220825195312,0.04874010743469827,-0.39831064771343433,0.07830862657477455,-0.5031686962271728
0.009853579103946686,0.1906065195798874,174.7336883544922,0.04874010743469827,-0.39831064771343433,0.07830862657477455,-0.5031686962271728
-0.017974115908145905,0.18259422481060028,174.7334747314453,0.04874010743469827,-0.39831064771343433,0.07830862657477455,-0.5031686962271728
0.0066513498313724995,0.18462511897087097,174.7336883544922,0.04874010743469827,-0.39831064771343433,0.07830862657477455,-0.5031686962271728
0.0023174008820205927,0.1841980665922165,174.7337646484375,0.04874010743469827,-0.39831064771343433,0.07830862657477455,-0.5031686962271728
0.004320234060287476,0.18377438187599182,174.73399353027344,0.04874010743469827,-0.39831064771343433,0.07830862657477455,-0.5031686962271728
-0.01599827967584133,0.18362359702587128,174.734375,0.04874010743469827,-0.39831064771343433,0.07830862657477455,-0.5031686962271728
-0.0021105646155774593,0.17900004982948303,174.73410034179688,0.04874010743469827,-0.39831064771343433,0.07830862657477455,-0.5031686962271728
-9.765289723873138e-05,0.1721983104944229,174.73477172851562,0.04874010743469827,-0.39831064771343433,0.07830862657477455,-0.5031686962271728
-0.006363075692206621,0.19483612477779388,174.73541259765625,0.04874010743469827,-0.39831064771343433,0.07830862657477455,-0.5031686962271728
-0.015805767849087715,0.17759039998054504,174.73516845703125,0.04874010743469827,-0.39831064771343433,0.07830862657477455,-0.5031686962271728
0.0026014018803834915,0.16707104444503784,174.7350311279297,0.04874010743469827,-0.39831064771343433,0.07830862657477455,-0.5031686962271728
-0.006532825063914061,0.1887747049331665,174.7344512939453,0.04874010743469827,-0.39831064771343433,0.07830862657477455,-0.5031686962271728
-0.01010925229638815,0.1849619299173355,174.73402404785156,0.04874010743469827,-0.39831064771343433,0.07830862657477455,-0.5031686962271728
0.007860628888010979,0.17691995203495026,174.73411560058594,0.04874010743469827,-0.39831064771343433,0.07830862657477455,-0.5031686962271728
0,0.18290060758590698,174.73410034179688,0.05004579708795062,-0.4066718051116913,0.07837413181550798,-0.5001701915636656
-0.2708815336227417,0.1354912519454956,174.7334747314453,0.051333221400596395,-0.41498586442528496,0.07611678570198513,-0.4975169260675706
-1.4407528638839722,0.2175738662481308,174.76710510253906,0.052482970995802625,-0.4232532947820921,0.06185316572276251,-0.4945747167492904
-2.228477954864502,0,174.9893798828125,0.053259049395435576,-0.43148109743164637,0.03127624223319189,-0.4927616011972226
-2.7419402599334717,0.3062326908111572,175.00035095214844,0.05343515216773891,-0.4396725246258493,-0.010143909556791224,-0.49020966210712963
-2.0289063453674316,1.3493928909301758,175.01260375976562,0.052934778216424276,-0.4477277116622361,-0.049900964600965415,-0.4764127822592852
-1.3400168418884277,-1.3750543594360352,175.14907836914062,0.051869142473959864,-0.4556697067463149,-0.07797532449476424,-0.47662662783016735
-1.7463173866271973,0.3023064434528351,175.30438232421875,0.05035522496651132,-0.46368798025987207,-0.10369477639906112,-0.485566193796694
-1.237500548362732,0.8451860547065735,175.27833557128906,0.048419769114374886,-0.4717010631774448,-0.12855992585731052,-0.4760037563120323
-1.0698330402374268,1.0224716663360596,175.2665252685547,0.046116872184211365,-0.4795047606631285,-0.14778770576231184,-0.46043994197001037
-1.2812011241912842,-0.24074406921863556,175.3307342529297,0.04349047749342084,-0.4871244730572733,-0.1673796571325511,-0.4539255453273652
-1.683327317237854,0.40916895866394043,175.31985473632812,0.04049494651055685,-0.49467820263985124,-0.19208406081112725,-0.45252200458198766
-0.3356013894081116,0.8607253432273865,175.29920959472656,0.037153342114632094,-0.502132048945253,-0.20890846669984364,-0.4419395520662266
-1.030215859413147,0.44456854462623596,175.1515350341797,0.03357668591624433,-0.509407062737478,-0.22029027710668747,-0.43106210300077974
-1.2367860078811646,-0.9861697554588318,175.07525634765625,0.02974775061257077,-0.5166290423160211,-0.23918195933414008,-0.4355754464243847
-0.20067155361175537,0.32665959000587463,175.060791015625,0.025661561181898093,-0.5239344324068063,-0.2511607723465811,-0.44107136446982603
-1.3730521202087402,1.5216816663742065,175.0360565185547,0.021366261943217543,-0.5311572647829437,-0.2642751362950852,-0.42566852066665867
0,-0.5841178297996521,175.0414581298828,0.016866325496618293,-0.5381866315276259,-0.2757172372968247,-0.41785548869520406
-1.3075557947158813,0.9184340238571167,175.0171356201172,0.012180235722593724,-0.5451276732701809,-0.2866135355861237,-0.41506952041139183
-0.9147776961326599,-1.1031030416488647,175.054443359375,0.007249014748182736,-0.5520583228477174,-0.30513298134319483,-0.4166084288929897
-0.98236483335495,1.2520227432250977,175.1703338623047,0.002031719050137294,-0.5589914550166577,-0.32094250242225825,-0.41536743137985443
-1.031313180923462,-0.7279787063598633,175.18756103515625,-0.0034571614078919,-0.5658778535926507,-0.337723152541245,-0.4110003977393108
-0.09652366489171982,-0.4286291301250458,175.06272888183594,-0.00916420262009426,-0.572808180210284,-0.3471217929230382,-0.42063879637668505
-0.5276899933815002,0.6326924562454224,174.9293212890625,-0.014992914006191647,-0.5798046557522482,-0.35232357340864834,-0.41893826865901523
0.20485363900661469,0.15667212009429932,174.93341064453125,-0.020887392754278488,-0.5867321432454303,-0.3550138763617724,-0.41236023052285087
-1.1624486446380615,0.5907911658287048,174.88604736328125,-0.02687079034681021,-0.5935529065815109,-0.36299383474203445,-0.40613136980682585
0.2964474558830261,1.2028748989105225,174.86404418945312,-0.032980826563952105,-0.6001972026015734,-0.37021051131499305,-0.39118415260066564
0,-1.341673493385315,174.9822998046875,-0.039130415123654554,-0.6067265772695342,-0.36774011584930116,-0.39234080755462225
-0.09523425996303558,0.22642120718955994,175.03134155273438,-0.04526603054475145,-0.6133430388042082,-0.3685337346823265,-0.40163457660625357
-0.3689091205596924,1.3377599716186523,174.92333984375,-0.051440491635326525,-0.6199283247213396,-0.37240159618668256,-0.3885997334495185
-0.701977014541626,0.1083306148648262,174.89334106445312,-0.05772155199781994,-0.6263045639881036,-0.3813256473125269,-0.37654897856215613
-1.145573377609253,-1.2027806043624878,174.9527587890625,-0.06420528156359476,-0.6326563837689658,-0.39672190058045087,-0.38566939514130333
0.24531200528144836,0.9144743084907532,175.0716094970703,-0.07087983139079171,-0.6391042282918675,-0.40422407868318255,-0.3880719476069011
-0.2664741575717926,0.27123862504959106,175.1838836669922,-0.0776183689627538,-0.6454897529093756,-0.40440042995226877,-0.3781910064940649
0.19936899840831757,0.40565547347068787,175.17083740234375,-0.08436303620912242,-0.6517459298163238,-0.4049596396119644,-0.37255022233972923
-0.1722135990858078,0.32884660363197327,175.0,-0.09111047774436887,-0.657904093099965,-0.4047333446176102,-0.3664293716972071
-0.7816600203514099,-0.3059159517288208,174.8197021484375,-0.09792227471156773,-0.6640096568885363,-0.4126822914462537,-0.36623828293134747
-0.7345086336135864,0,174.90951538085938,-0.1049056023921973,-0.6701348724340399,-0.4253170302292953,-0.36878758252908767
0.47470027208328247,0.5904348492622375,174.980712890625,-0.11201226181001406,-0.6762403297227704,-0.4274820999087145,-0.363867292118569
0.30577021837234497,0.4091549515724182,174.93089294433594,-0.11908276413554432,-0.6822353686330219,-0.4209781791549176,-0.35553737711161354
-0.24915209412574768,1.1208399534225464,174.79244995117188,-0.1260951353072758,-0.688054741938702,-0.42050636145286263,-0.3427874195699888
-0.35868340730667114,-1.0822666883468628,174.7984161376953,-0.13314578546353412,-0.6937651868992382,-0.4255716572981328,-0.3424659756943581
0.4492086172103882,0.28011590242385864,174.79409790039062,-0.14023235994559302,-0.6995286580764999,-0.42481728054893514,-0.3491505655770498
0.6008319854736328,0.7648839354515076,174.7484893798828,-0.14723972846844444,-0.7052752647362649,-0.416066942193235,-0.3404422335947551
-1.090640902519226,-0.13625603914260864,174.69342041015625,-0.15420819201312652,-0.7109056472478227,-0.4201486831686149,-0.33520366779218097
-0.210534930229187,0.07603107392787933,174.7041473388672,-0.1613010294987665,-0.7164965573336101,-0.430991815108185,-0.3357055425023037
-0.8536133766174316,0,174.7509307861328,-0.16855812560521172,-0.722086369772959,-0.4398597176652402,-0.33507195021957137
-0.27706271409988403,-0.11662318557500839,174.69602966308594,-0.17596764007259888,-0.7276790011089501,-0.4492820184212178,-0.3360438100993631
0,1.009717345237732,174.64720153808594,-0.18347491417920944,-0.7332177108495185,-0.45159087437205014,-0.32860135876884045
-0.30982911586761475,-0.8405386209487915,174.65562438964844,-0.18347491417920944,-0.7332177108495185,-0.45159087437205014,-0.32860135876884045
0.4177521765232086,1.4969041347503662,174.6416778564453,-0.18347491417920944,-0.7332177108495185,-0.45159087437205014,-0.32860135876884045
1.1207314729690552,-1.119228720664978,174.74916076660156,-0.18347491417920944,-0.7332177108495185,-0.45159087437205014,-0.32860135876884045
1.0006229877471924,0.1573479026556015,174.7028350830078,-0.18347491417920944,-0.7332177108495185,-0.45159087437205014,-0.32860135876884045
1.6648708581924438,1.136383295059204,174.26300048828125,-0.18347491417920944,-0.7332177108495185,-0.45159087437205014,-0.32860135876884045
1.6361783742904663,-0.4462231695652008,173.51417541503906,-0.18347491417920944,-0.7332177108495185,-0.45159087437205014,-0.32860135876884045
1.3560117483139038,1.5209888219833374,172.63206481933594,-0.18347491417920944,-0.7332177108495185,-0.45159087437205014,-0.32860135876884045
3.413160562515259,0.04915532469749451,171.5699005126953,-0.18347491417920944,-0.7332177108495185,-0.45159087437205014,-0.32860135876884045
0.5495115518569946,0.6976855993270874,170.31436157226562,-0.18347491417920944,-0.7332177108495185,-0.45159087437205014,-0.32860135876884045
3.111039876937866,-0.09531949460506439,168.87872314453125,-0.18347491417920944,-0.7332177108495185,-0.45159087437205014,-0.32860135876884045
1.583136796951294,0.32939544320106506,167.26150512695312,-0.18347491417920944,-0.7332177108495185,-0.45159087437205014,-0.32860135876884045
1.984461784362793,1.0458698272705078,165.49891662597656,-0.18347491417920944,-0.7332177108495185,-0.45159087437205014,-0.32860135876884045
-0.018413782119750977,0.3315378427505493,163.66043090820312,-0.18347491417920944,-0.7332177108495185,-0.45159087437205014,-0.32860135876884045
2.4216530323028564,-1.196428894996643,161.71319580078125,-0.18347491417920944,-0.7332177108495185,-0.45159087437205014,-0.32860135876884045
0.24720893800258636,1.924752950668335,159.8140106201172,-0.18347491417920944,-0.7332177108495185,-0.45159087437205014,-0.32860135876884045
1.1628974676132202,-1.169569730758667,157.76669311523438,-0.18347491417920944,-0.7332177108495185,-0.45159087437205014,-0.32860135876884045
1.8323906660079956,-0.1886608600616455,155.66928100585938,-0.18347491417920944,-0.7332177108495185,-0.45159087437205014,-0.32860135876884045
1.3691368103027344,1.2406744956970215,153.48963928222656,-0.18347491417920944,-0.7332177108495185,-0.45159087437205014,-0.32860135876884045
1.587488055229187,-1.8430290222167969,151.29437255859375,-0.18347491417920944,-0.7332177108495185,-0.45159087437205014,-0.32860135876884045
1.1333221197128296,2.391972780227661,148.98272705078125,-0.18347491417920944,-0.7332177108495185,-0.45159087437205014,-0.32860135876884045
0.5224006175994873,-2.7912955284118652,146.6207733154297,-0.18347491417920944,-0.7332177108495185,-0.45159087437205014,-0.32860135876884045
1.2248469591140747,2.189540386199951,144.17982482910156,-0.18347491417920944,-0.7332177108495185,-0.45159087437205014,-0.32860135876884045
0.6051603555679321,-1.185121774673462,141.738037109375,-0.18347491417920944,-0.7332177108495185,-0.45159087437205014,-0.32860135876884045
0.8677021861076355,-0.3692133128643036,139.22023010253906,-0.18347491417920944,-0.7332177108495185,-0.45159087437205014,-0.32860135876884045
1.1423964500427246,2.2256247997283936,136.7638702392578,-0.18347491417920944,-0.7332177108495185,-0.45159087437205014,-0.32860135876884045
-0.3143059313297272,-2.1597607135772705,134.25962829589844,-0.18347491417920944,-0.7332177108495185,-0.45159087437205014,-0.32860135876884045
1.2904140949249268,1.1906930208206177,131.75413513183594,-0.18347491417920944,-0.7332177108495185,-0.45159087437205014,-0.32860135876884045
0.5574170351028442,0.07358501851558685,129.21400451660156,-0.18347491417920944,-0.7332177108495185,-0.45159087437205014,-0.32860135876884045
0.8343603014945984,-0.28035983443260193,126.7545394897461,-0.18347491417920944,-0.7332177108495185,-0.45159087437205014,-0.32860135876884045
0.9641057848930359,0.04837268218398094,124.25121307373047,-0.18347491417920944,-0.7332177108495185,-0.45159087437205014,-0.32860135876884045
0.5603674650192261,0.1226215660572052,121.75080108642578,-0.18347491417920944,-0.7332177108495185,-0.45159087437205014,-0.32860135876884045
1.2589867115020752,1.0427383184432983,119.28031921386719,-0.18347491417920944,-0.7332177108495185,-0.45159087437205014,-0.32860135876884045
0.22274455428123474,-0.4270838499069214,116.76212310791016,-0.18347491417920944,-0.7332177108495185,-0.45159087437205014,-0.32860135876884045
0.20225632190704346,-1.340103268623352,114.1923599243164,-0.18347491417920944,-0.7332177108495185,-0.45159087437205014,-0.32860135876884045
2.224900007247925,2.1673338413238525,111.66022491455078,-0.18347491417920944,-0.7332177108495185,-0.45159087437205014,-0.32860135876884045
-1.177229642868042,-0.547258734703064,109.0946044921875,-0.18347491417920944,-0.7332177108495185,-0.45159087437205014,-0.32860135876884045
2.6549057960510254,0.7807453870773315,106.55177307128906,-0.18347491417920944,-0.7332177108495185,-0.45159087437205014,-0.32860135876884045
-1.6035220623016357,-1.5136152505874634,104.01534271240234,-0.18347491417920944,-0.7332177108495185,-0.45159087437205014,-0.32860135876884045
2.084451198577881,0.20571619272232056,101.48332214355469,-0.18347491417920944,-0.7332177108495185,-0.45159087437205014,-0.32860135876884045
-0.21256403625011444,-1.0313133001327515,99.02539825439453,-0.18347491417920944,-0.7332177108495185,-0.45159087437205014,-0.32860135876884045
0.7225348949432373,0.2830639183521271,96.56702423095703,-0.18347491417920944,-0.7332177108495185,-0.45159087437205014,-0.32860135876884045
0.30169641971588135,0.04192887991666794,94.19510650634766,-0.18347491417920944,-0.7332177108495185,-0.45159087437205014,-0.32860135876884045
-0.26823297142982483,0.4599985182285309,91.86233520507812,-0.18347491417920944,-0.7332177108495185,-0.45159087437205014,-0.32860135876884045
-0.3602796196937561,-0.3554622530937195,89.85990905761719,-0.18347491417920944,-0.7332177108495185,-0.45159087437205014,-0.32860135876884045
0.30076128244400024,0.5747528076171875,88.31671142578125,-0.18347491417920944,-0.7332177108495185,-0.45159087437205014,-0.32860135876884045
-2.755944013595581,-1.057951807975769,87.11656188964844,-0.18347491417920944,-0.7332177108495185,-0.45159087437205014,-0.32860135876884045
-0.805980384349823,0.5588842630386353,86.28988647460938,-0.18347491417920944,-0.7332177108495185,-0.45159087437205014,-0.32860135876884045
-1.3259813785552979,0.4082583785057068,85.87261962890625,-0.18347491417920944,-0.7332177108495185,-0.45159087437205014,-0.32860135876884045
-1.1462256908416748,1.0295964479446411,85.82763671875,-0.18347491417920944,-0.7332177108495185,-0.45159087437205014,-0.32860135876884045
-0.14856983721256256,0.6785722970962524,86.04927825927734,-0.18347491417920944,-0.7332177108495185,-0.45159087437205014,-0.32860135876884045
0.6515021920204163,0.5251896381378174,86.30770874023438,-0.18347491417920944,-0.7332177108495185,-0.45159087437205014,-0.32860135876884045
1.0892221927642822,0.2840406000614166,86.3000259399414,-0.18347491417920944,-0.7332177108495185,-0.45159087437205014,-0.32860135876884045
-0.5357386469841003,-0.18412277102470398,86.21504974365234,-0.18347491417920944,-0.7332177108495185,-0.45159087437205014,-0.32860135876884045
0.21589647233486176,-0.6815760135650635,86.25020599365234,-0.18347491417920944,-0.7332177108495185,-0.45159087437205014,-0.32860135876884045
0.29790207743644714,-0.5282763838768005,86.27367401123047,-0.18347491417920944,-0.7332177108495185,-0.45159087437205014,-0.32860135876884045
0.002945579355582595,0.22452740371227264,86.2444839477539,-0.18347491417920944,-0.7332177108495185,-0.45159087437205014,-0.32860135876884045
0.19893477857112885,0.3522420823574066,86.25053405761719,-0.18347491417920944,-0.7332177108495185,-0.45159087437205014,-0.32860135876884045
0.2155236303806305,0.40682587027549744,86.27462005615234,-0.18347491417920944,-0.7332177108495185,-0.45159087437205014,-0.32860135876884045
0.13524283468723297,0.38154879212379456,86.26619720458984,-0.18347491417920944,-0.7332177108495185,-0.45159087437205014,-0.32860135876884045
0.21800702810287476,0.2531393766403198,86.2627182006836,-0.18347491417920944,-0.7332177108495185,-0.45159087437205014,-0.32860135876884045
0.11610709130764008,0.11705982685089111,86.26751708984375,-0.18347491417920944,-0.7332177108495185,-0.45159087437205014,-0.32860135876884045
0.1726313829421997,0.03990819305181503,86.26091766357422,-0.18347491417920944,-0.7332177108495185,-0.45159087437205014,-0.32860135876884045
0.15223559737205505,0.016356859356164932,86.26123046875,-0.18347491417920944,-0.7332177108495185,-0.45159087437205014,-0.32860135876884045
0.14438210427761078,0.041484005749225616,86.26304626464844,-0.18347491417920944,-0.7332177108495185,-0.45159087437205014,-0.32860135876884045
0.16776132583618164,0.11940641701221466,86.26117706298828,-0.18347491417920944,-0.7332177108495185,-0.45159087437205014,-0.32860135876884045
0.17844296991825104,0.1877361536026001,86.26245880126953,-0.18347491417920944,-0.7332177108495185,-0.45159087437205014,-0.32860135876884045
0.1655372977256775,0.18207165598869324,86.26140594482422,-0.18347491417920944,-0.7332177108495185,-0.45159087437205014,-0.32860135876884045
0.16303260624408722,0.13439811766147614,86.26020050048828,-0.18347491417920944,-0.7332177108495185,-0.45159087437205014,-0.32860135876884045
0.1564646065235138,0.10992544889450073,86.25988006591797,-0.18347491417920944,-0.7332177108495185,-0.45159087437205014,-0.32860135876884045
0.1590525507926941,0.09611693024635315,86.25904083251953,-0.18347491417920944,-0.7332177108495185,-0.45159087437205014,-0.32860135876884045
0.17454063892364502,0.12421261519193649,86.25949096679688,-0.18347491417920944,-0.7332177108495185,-0.45159087437205014,-0.32860135876884045
0.16136115789413452,0.14443829655647278,86.25995635986328,-0.18347491417920944,-0.7332177108495185,-0.45159087437205014,-0.32860135876884045
0.16682764887809753,0.13843870162963867,86.25729370117188,-0.18347491417920944,-0.7332177108495185,-0.45159087437205014,-0.32860135876884045
0.1548280268907547,0.12040645629167557,86.25638580322266,-0.18347491417920944,-0.7332177108495185,-0.45159087437205014,-0.32860135876884045
0.16604265570640564,0.11399970948696136,86.2571792602539,-0.18347491417920944,-0.7332177108495185,-0.45159087437205014,-0.32860135876884045
0.17253892123699188,0.11900409311056137,86.25724792480469,-0.18347491417920944,-0.7332177108495185,-0.45159087437205014,-0.32860135876884045
0.17111000418663025,0.1307692974805832,86.25775146484375,-0.18347491417920944,-0.7332177108495185,-0.45159087437205014,-0.32860135876884045
0.1583479791879654,0.14294502139091492,86.25843048095703,-0.18347491417920944,-0.7332177108495185,-0.45159087437205014,-0.32860135876884045
0.15640473365783691,0.11909306794404984,86.25916290283203,-0.18347491417920944,-0.7332177108495185,-0.45159087437205014,-0.32860135876884045
0.17701148986816406,0.1202409565448761,86.25920867919922,-0.18347491417920944,-0.7332177108495185,-0.45159087437205014,-0.32860135876884045
0.17654067277908325,0.11427498608827591,86.26012420654297,-0.18347491417920944,-0.7332177108495185,-0.45159087437205014,-0.32860135876884045
0.16895785927772522,0.11976384371519089,86.25959014892578,-0.18347491417920944,-0.7332177108495185,-0.45159087437205014,-0.32860135876884045
0.1680826097726822,0.12497270107269287,86.2590103149414,-0.18347491417920944,-0.7332177108495185,-0.45159087437205014,-0.32860135876884045
0.16917549073696136,0.12245422601699829,86.2589111328125,-0.18347491417920944,-0.7332177108495185,-0.45159087437205014,-0.32860135876884045
0.17536284029483795,0.11757777631282806,86.25926208496094,-0.18347491417920944,-0.7332177108495185,-0.45159087437205014,-0.32860135876884045
0.16342855989933014,0.121638722717762,86.25886535644531,-0.18347491417920944,-0.7332177108495185,-0.45159087437205014,-0.32860135876884045
0.16354383528232574,0.10743769258260727,86.25928497314453,-0.18347491417920944,-0.7332177108495185,-0.45159087437205014,-0.32860135876884045
0.15117400884628296,0.13303488492965698,86.25968170166016,-0.18347491417920944,-0.7332177108495185,-0.45159087437205014,-0.32860135876884045
0.16784417629241943,0.13130393624305725,86.25995635986328,-0.18347491417920944,-0.7332177108495185,-0.45159087437205014,-0.32860135876884045
0.16383977234363556,0.12405727803707123,86.25917053222656,-0.18347491417920944,-0.7332177108495185,-0.45159087437205014,-0.32860135876884045
0.17629297077655792,0.12489569932222366,86.25970458984375,-0.18347491417920944,-0.7332177108495185,-0.45159087437205014,-0.32860135876884045
0.15925027430057526,0.11034838855266571,86.26039123535156,-0.18347491417920944,-0.7332177108495185,-0.45159087437205014,-0.32860135876884045
0.16533461213111877,0.110960952937603,86.26103973388672,-0.18347491417920944,-0.7332177108495185,-0.45159087437205014,-0.32860135876884045
0.15799638628959656,0.12174253165721893,86.2615966796875,-0.18347491417920944,-0.7332177108495185,-0.45159087437205014,-0.32860135876884045
0.1704966127872467,0.12571720778942108,86.26171112060547,-0.18347491417920944,-0.7332177108495185,-0.45159087437205014,-0.32860135876884045
0.1527939885854721,0.12276147305965424,86.26229858398438,-0.18347491417920944,-0.7332177108495185,-0.45159087437205014,-0.32860135876884045
0.15925666689872742,0.11725366860628128,86.262939453125,-0.18347491417920944,-0.7332177108495185,-0.45159087437205014,-0.32860135876884045
0.16010378301143646,0.13205957412719727,86.26321411132812,-0.18347491417920944,-0.7332177108495185,-0.45159087437205014,-0.32860135876884045
0.15134605765342712,0.12400392442941666,86.2630615234375,-0.18347491417920944,-0.7332177108495185,-0.45159087437205014,-0.32860135876884045
0.1691506803035736,0.11495444923639297,86.26203155517578,-0.18347491417920944,-0.7332177108495185,-0.45159087437205014,-0.32860135876884045
0.15915094316005707,0.11838288605213165,86.26105499267578,-0.18347491417920944,-0.7332177108495185,-0.45159087437205014,-0.32860135876884045
0.15422919392585754,0.1189107671380043,86.26188659667969,-0.18347491417920944,-0.7332177108495185,-0.45159087437205014,-0.32860135876884045
0.16423897445201874,0.12780064344406128,86.2625732421875,-0.18347491417920944,-0.7332177108495185,-0.45159087437205014,-0.32860135876884045
0.15774933993816376,0.10797366499900818,86.26285552978516,-0.18347491417920944,-0.7332177108495185,-0.45159087437205014,-0.32860135876884045
0.16712526977062225,0.1135164201259613,86.26207733154297,-0.18347491417920944,-0.7332177108495185,-0.45159087437205014,-0.32860135876884045
0.16756153106689453,0.10367628931999207,86.262451171875,-0.18347491417920944,-0.7332177108495185,-0.45159087437205014,-0.32860135876884045
0.14722202718257904,0.11085021495819092,86.26335144042969,-0.18347491417920944,-0.7332177108495185,-0.45159087437205014,-0.32860135876884045
0.16375447809696198,0.12711991369724274,86.2625503540039,-0.18347491417920944,-0.7332177108495185,-0.45159087437205014,-0.32860135876884045
0.1397808939218521,0.10964103788137436,86.26174926757812,-0.18347491417920944,-0.7332177108495185,-0.45159087437205014,-0.32860135876884045
0.15206217765808105,0.09531877934932709,86.2612533569336,-0.18347491417920944,-0.7332177108495185,-0.45159087437205014,-0.32860135876884045
0.13273079693317413,0.11154551059007645,86.26068878173828,-0.18347491417920944,-0.7332177108495185,-0.45159087437205014,-0.32860135876884045
0.14595577120780945,0.11339813470840454,86.26161193847656,-0.18347491417920944,-0.7332177108495185,-0.45159087437205014,-0.32860135876884045
0.1588420569896698,0.11056000739336014,86.26187133789062,-0.18347491417920944,-0.7332177108495185,-0.45159087437205014,-0.32860135876884045
0.15291069447994232,0.12156953662633896,86.26232147216797,-0.18347491417920944,-0.7332177108495185,-0.45159087437205014,-0.32860135876884045
0.16095028817653656,0.10882715880870819,86.26244354248047,-0.18347491417920944,-0.7332177108495185,-0.45159087437205014,-0.32860135876884045
0.17501786351203918,0.11070683598518372,86.26187133789062,-0.18347491417920944,-0.7332177108495185,-0.45159087437205014,-0.32860135876884045
0.1431623101234436,0.10975099354982376,86.260498046875,-0.18347491417920944,-0.7332177108495185,-0.45159087437205014,-0.32860135876884045
0.14482319355010986,0.11442135274410248,86.26104736328125,-0.18347491417920944,-0.7332177108495185,-0.45159087437205014,-0.32860135876884045
0.1421274095773697,0.10892637073993683,86.26188659667969,-0.18347491417920944,-0.7332177108495185,-0.45159087437205014,-0.32860135876884045
0.15120700001716614,0.10421058535575867,86.26072692871094,-0.18347491417920944,-0.7332177108495185,-0.45159087437205014,-0.32860135876884045
0.14332565665245056,0.09771546721458435,86.26000213623047,-0.18347491417920944,-0.7332177108495185,-0.45159087437205014,-0.32860135876884045
0.148576557636261,0.11115085333585739,86.26016235351562,-0.18347491417920944,-0.7332177108495185,-0.45159087437205014,-0.32860135876884045
0.15127111971378326,0.08210809528827667,86.25975036621094,-0.18347491417920944,-0.7332177108495185,-0.45159087437205014,-0.32860135876884045
0.15577079355716705,0.09285886585712433,86.25981903076172,-0.18347491417920944,-0.7332177108495185,-0.45159087437205014,-0.32860135876884045
0.15402258932590485,0.0977645143866539,86.25981140136719,-0.18347491417920944,-0.7332177108495185,-0.45159087437205014,-0.32860135876884045
0.151309996843338,0.10762942582368851,86.26016998291016,-0.18347491417920944,-0.7332177108495185,-0.45159087437205014,-0.32860135876884045
0.15868355333805084,0.10158565640449524,86.26065063476562,-0.18347491417920944,-0.7332177108495185,-0.45159087437205014,-0.32860135876884045
0.15261614322662354,0.10854590684175491,86.25951385498047,-0.18347491417920944,-0.7332177108495185,-0.45159087437205014,-0.32860135876884045
0.16046419739723206,0.09582322090864182,86.2591552734375,-0.18347491417920944,-0.7332177108495185,-0.45159087437205014,-0.32860135876884045
0.15642552077770233,0.11558672785758972,86.26011657714844,-0.18347491417920944,-0.7332177108495185,-0.45159087437205014,-0.32860135876884045
0.1579144299030304,0.10720828175544739,86.26007080078125,-0.19097959958883523,-0.7386789282866649,-0.44897137478304405,-0.3267447336887318
0.1557735651731491,0.10431074351072311,86.25929260253906,-0.19844067194667234,-0.7441099850269447,-0.4463573081574092,-0.32498207514484706
0,0.356650710105896,86.2622299194336,-0.20586914280726992,-0.7494943417339688,-0.44505919511429964,-0.3211407296980419
0.48242947459220886,1.5986751317977905,86.25558471679688,-0.21325329401232823,-0.7547109007121373,-0.4410389494926979,-0.3048463476821779
0.7484563589096069,2.107659339904785,86.38463592529297,-0.2205184649876578,-0.7595342888351942,-0.43078156754684943,-0.27396022708465645
-1.2730469703674316,3.564373016357422,86.44049072265625,-0.22773458768367874,-0.763706401484087,-0.4351531559756646,-0.22669329078247138
1.3100104331970215,2.953948736190796,86.43619537353516,-0.2349845733761322,-0.7670319617643123,-0.4348451271187514,-0.17237394284456958
-0.07611491531133652,1.2706553936004639,86.61697387695312,-0.24214630497270268,-0.7696114855249307,-0.42456266446970403,-0.1371689084296424
-0.11075380444526672,1.2745344638824463,86.61709594726562,-0.24923532637495863,-0.7717208847030996,-0.42611990380100906,-0.11595899295061816
1.3652280569076538,0.853202223777771,86.56927490234375,-0.25625020850411,-0.7735057750934113,-0.4156659516971558,-0.09822785388678301
0,1.7211699485778809,86.4690170288086,-0.26308316686177735,-0.7749641301462219,-0.40428905122292536,-0.07677475245048591
-0.22671866416931152,1.474143624305725,86.56204223632812,-0.2698370620671712,-0.7760218125778353,-0.40617837342433627,-0.05014713934312253
-0.1599510759115219,1.087586522102356,86.61231231689453,-0.27663355368952686,-0.7766797003067202,-0.4094006212583432,-0.02879938812305519
0.6241737008094788,1.2573111057281494,86.60664367675781,-0.28342465969488134,-0.7769968499957273,-0.40553209938419355,-0.009258574557800978
-0.8805138468742371,0.274090975522995,86.58605194091797,-0.2902013294169835,-0.777044812204937,-0.40766826726806654,0.0035031094526252263
1.2165412902832031,1.742651343345642,86.64423370361328,-0.29697246529899235,-0.7768463754974718,-0.4048680385729918,0.020309295443197203
-0.223964124917984,0.6542065143585205,86.59166717529297,-0.30365133697205854,-0.7763414387777446,-0.3965965621949483,0.040283110924065224
-0.23118452727794647,0.9026234149932861,86.54656982421875,-0.31029288722059906,-0.7755619404061386,-0.4003894676299144,0.05325669366866361
1.912355661392212,0.6617162227630615,86.41287994384766,-0.3168492970190064,-0.7745656941479278,-0.38637970817896217,0.06629285731663317
-0.9899553060531616,0.9342139959335327,86.33218383789062,-0.32322490324175723,-0.7733499847052411,-0.37869303855113673,0.07959227580577147
-0.5006060004234314,0.366009384393692,86.30872344970703,-0.3296399650861148,-0.7719331534848444,-0.391114382771775,0.09042747064183168
1.0981806516647339,0.8913931846618652,86.28054809570312,-0.3361170398926415,-0.7703387093512961,-0.38613459401143085,0.10090582538396133
0.3296249806880951,-0.08090189099311829,86.26787567138672,-0.3424534632905853,-0.7686006614772809,-0.3742362137418239,0.10765991949786755
0.5622629523277283,1.1206178665161133,86.28182983398438,-0.3486287968576007,-0.7667341269873496,-0.3668038143000254,0.1163242192938925
0.45941466093063354,0.11476901918649673,86.35122680664062,-0.35467124392834704,-0.7647095992431664,-0.358289834189539,0.1266191100080809
-0.12643125653266907,1.265668511390686,86.38971710205078,-0.36061961731731174,-0.7625034170256305,-0.35551497248622266,0.1381227560962241
-1.991872787475586,1.1244614124298096,86.48502349853516,-0.36669197130624936,-0.7600353898459837,-0.37316750618629146,0.1580405054613949
0.8131059408187866,0.6770569682121277,86.59111022949219,-0.37299328855148317,-0.757276275978527,-0.3829905632417648,0.17305315863341103
0,-0.19341351091861725,86.65375518798828,-0.3793199989151779,-0.7543584703167692,-0.3762146804016082,0.17708352077752362
0.5818271040916443,0.29641884565353394,86.61866760253906,-0.3855498389285317,-0.751399925155565,-0.3713661212008445,0.17794189856698125
1.452337622642517,0.7573621273040771,86.53501892089844,-0.39159801284252255,-0.7483610476118822,-0.3544147484780598,0.18672340667496135
-0.7512362003326416,-0.7476564645767212,86.56840515136719,-0.39745623771838534,-0.74524831682961,-0.34857223662547754,0.18680428719768932
0.3687567710876465,0.42484280467033386,86.64798736572266,-0.403292336066952,-0.7421573296582531,-0.35175956520251916,0.1841141733651361
0.3284827470779419,1.0036773681640625,86.74943542480469,-0.40910657607601025,-0.7389895573123874,-0.3459492358844726,0.19601850813875607
-1.0304487943649292,0.5558224320411682,86.76715850830078,-0.4149211443162575,-0.735614283579505,-0.3517989529451975,0.209014339807133
0.3017982840538025,0.05522523447871208,86.78156280517578,-0.42083506092856016,-0.7320882773836556,-0.3578710405311235,0.21410640369479866
0.7649465799331665,0.80150306224823,86.82896423339844,-0.426725498766302,-0.7284603423014695,-0.3489814999978988,0.22124580616752318
0,-0.36181366443634033,86.69313049316406,-0.4324887358093272,-0.7247423782127183,-0.3426069451651224,0.22490988448262225
1.537946105003357,0.38953638076782227,86.50806427001953,-0.43809204974923177,-0.7209919549493737,-0.32979072762342776,0.22514090711871793
0,-0.9910316467285156,86.34211730957031,-0.4434817600634414,-0.7172813770019757,-0.3169745100817331,0.22012844656904548
-0.556229829788208,1.5054948329925537,86.2861557006836,-0.4488032956363167,-0.713576842949001,-0.3216097586633015,0.22441563978791246
-0.0594257190823555,0.12649571895599365,86.39574432373047,-0.4542062121382655,-0.7097232496086505,-0.3267402215705562,0.23801556105415034
-0.4361368715763092,0.16319683194160461,86.496337890625,-0.4596862965665705,-0.7057362060528246,-0.3308699098260451,0.24042966564496365
0.4892914891242981,0.25440189242362976,86.4345703125,-0.465197103770786,-0.7017000450473276,-0.33042695467981187,0.24390965501467393
0.7088266015052795,0.881554126739502,86.3100814819336,-0.4706210170369336,-0.6975559982957523,-0.32044263725789873,0.2533759551743667
-0.12419912219047546,0.11733737587928772,86.19599151611328,-0.4759211285273906,-0.6932636982440532,-0.31557074159694204,0.26170005102952326
0.49077707529067993,-0.906646728515625,86.18377685546875,-0.481155184085041,-0.6889568438763831,-0.312515925321107,0.2551224730908871
-0.11439439654350281,0.12904661893844604,86.20770263671875,-0.48633764515436867,-0.6847588026658112,-0.30937940299821387,0.24864247217774393
1.0231331586837769,-0.34229981899261475,86.20481872558594,-0.49143086167919026,-0.6806295707128526,-0.30180657998037824,0.24686536217729252
-0.18368276953697205,0.7587093710899353,86.27034759521484,-0.4964026761796169,-0.6764862306798909,-0.29481116007082153,0.2503354417781035
-0.6994128227233887,1.517345666885376,86.30792236328125,-0.5013775215969265,-0.6721559139392853,-0.30217029000632456,0.26930256709456446
-1.1981550455093384,0.7940596342086792,86.45109558105469,-0.506545468643437,-0.6675070235640221,-0.3179833555749306,0.2885642779370149
0,0,86.70062255859375,-0.5119283964478462,-0.6626424759015852,-0.3279679809541751,0.29518144155542053
1.5817420482635498,-0.7565485835075378,86.69869232177734,-0.517284686265953,-0.6577753233050718,-0.31478679721864555,0.28887687002619106
0,0,86.52825927734375,-0.5224212896884677,-0.6530132469007122,-0.301605613483116,0.2825722984969616
-0.06657685339450836,-0.8139706254005432,86.59049224853516,-0.5274526733057832,-0.6483602343303045,-0.3021604205947369,0.27578920995195705
0.7211770415306091,-0.21478375792503357,86.70317077636719,-0.532443221969297,-0.6438351887743917,-0.2967054190269361,0.26721625675757726
-0.27861887216567993,0.34215977787971497,86.78801727294922,-0.5373575790802068,-0.6393727389381575,-0.2930174342822284,0.2682777235905329
0.13378100097179413,0.3497741222381592,86.77207946777344,-0.5422512611704101,-0.634853392579696,-0.2942244165421774,0.27404383942484856
0.6554548740386963,0.9633578062057495,86.74657440185547,-0.5471001933992373,-0.6301948055386954,-0.28764745091709,0.2849866054952145
-0.26153090596199036,0.3490961194038391,86.7138671875,-0.5518669617500724,-0.6253538861467189,-0.28436475118311744,0.29592372154196106
0.7095121741294861,-0.480785071849823,86.62236022949219,-0.5565752644595017,-0.6204309691871617,-0.2806315739483883,0.2948263136049112
0.572331964969635,-0.5300757884979248,86.46809387207031,-0.5611634404045374,-0.615587395964604,-0.2699495394558956,0.2864024731020133
-1.0151779651641846,0.23039589822292328,86.28083038330078,-0.5656933525899269,-0.610834832516395,-0.2736399227908502,0.28390514068305495
0.9523004293441772,0.225420743227005,86.31768798828125,-0.5656933525899269,-0.610834832516395,-0.2736399227908502,0.28390514068305495
-0.6494932770729065,0.16920717060565948,86.39270782470703,-0.5656933525899269,-0.610834832516395,-0.2736399227908502,0.28390514068305495
1.0886965990066528,-0.6768055558204651,86.20808410644531,-0.5656933525899269,-0.610834832516395,-0.2736399227908502,0.28390514068305495
-0.6673542857170105,-3.649900436401367,85.54998016357422,-0.5656933525899269,-0.610834832516395,-0.2736399227908502,0.28390514068305495
0.9864810109138489,-1.7104567289352417,84.57644653320312,-0.5656933525899269,-0.610834832516395,-0.2736399227908502,0.28390514068305495
-0.6850595474243164,-3.099947214126587,83.5290298461914,-0.5656933525899269,-0.610834832516395,-0.2736399227908502,0.28390514068305495
1.5495909452438354,-2.573605537414551,82.2892074584961,-0.5656933525899269,-0.610834832516395,-0.2736399227908502,0.28390514068305495
-0.7019267082214355,-1.9816012382507324,80.81118774414062,-0.5656933525899269,-0.610834832516395,-0.2736399227908502,0.28390514068305495
0.4285598397254944,-1.4586460590362549,79.1042709350586,-0.5656933525899269,-0.610834832516395,-0.2736399227908502,0.28390514068305495
0.2876707911491394,-1.1381502151489258,77.27423858642578,-0.5656933525899269,-0.610834832516395,-0.2736399227908502,0.28390514068305495
0.41637498140335083,-0.9153255224227905,75.37859344482422,-0.5656933525899269,-0.610834832516395,-0.2736399227908502,0.28390514068305495
0.3581995368003845,-1.8821742534637451,73.37439727783203,-0.5656933525899269,-0.610834832516395,-0.2736399227908502,0.28390514068305495
-0.9563198685646057,-1.687680959701538,71.38337707519531,-0.5656933525899269,-0.610834832516395,-0.2736399227908502,0.28390514068305495
2.4440815448760986,0.016189808025956154,69.4206314086914,-0.5656933525899269,-0.610834832516395,-0.2736399227908502,0.28390514068305495
0.2894429564476013,-1.6459054946899414,67.4476318359375,-0.5656933525899269,-0.610834832516395,-0.2736399227908502,0.28390514068305495
0.8082206845283508,-0.9892765879631042,65.39801025390625,-0.5656933525899269,-0.610834832516395,-0.2736399227908502,0.28390514068305495
0.24972255527973175,-0.7291767001152039,63.31352615356445,-0.5656933525899269,-0.610834832516395,-0.2736399227908502,0.28390514068305495
0.8325034976005554,-0.6878565549850464,61.14668273925781,-0.5656933525899269,-0.610834832516395,-0.2736399227908502,0.28390514068305495
-1.0828518867492676,-1.2622272968292236,58.96642303466797,-0.5656933525899269,-0.610834832516395,-0.2736399227908502,0.28390514068305495
1.4613701105117798,-1.0968724489212036,56.692543029785156,-0.5656933525899269,-0.610834832516395,-0.2736399227908502,0.28390514068305495
-1.7870186567306519,-0.9003223180770874,54.38094711303711,-0.5656933525899269,-0.610834832516395,-0.2736399227908502,0.28390514068305495
2.008579969406128,-1.2694158554077148,52.01617431640625,-0.5656933525899269,-0.610834832516395,-0.2736399227908502,0.28390514068305495
-0.5140364170074463,-0.2995106875896454,49.68436050415039,-0.5656933525899269,-0.610834832516395,-0.2736399227908502,0.28390514068305495
-0.5578321218490601,-1.4248120784759521,47.36779022216797,-0.5656933525899269,-0.610834832516395,-0.2736399227908502,0.28390514068305495
0.4690318703651428,-0.5371009707450867,45.05036926269531,-0.5656933525899269,-0.610834832516395,-0.2736399227908502,0.28390514068305495
-0.9244503974914551,-0.28154489398002625,42.73566818237305,-0.5656933525899269,-0.610834832516395,-0.2736399227908502,0.28390514068305495
0.7228843569755554,-0.6001178026199341,40.37040710449219,-0.5656933525899269,-0.610834832516395,-0.2736399227908502,0.28390514068305495
-0.1269921362400055,-0.9239883422851562,38.061866760253906,-0.5656933525899269,-0.610834832516395,-0.2736399227908502,0.28390514068305495
-0.6121504306793213,-0.05096142366528511,35.69137191772461,-0.5656933525899269,-0.610834832516395,-0.2736399227908502,0.28390514068305495
1.6472405195236206,-1.0606991052627563,33.318511962890625,-0.5656933525899269,-0.610834832516395,-0.2736399227908502,0.28390514068305495
-1.3528603315353394,0.3416846692562103,30.978824615478516,-0.5656933525899269,-0.610834832516395,-0.2736399227908502,0.28390514068305495
0.9725309014320374,-1.529057502746582,28.65296745300293,-0.5656933525899269,-0.610834832516395,-0.2736399227908502,0.28390514068305495
-0.1202482357621193,-0.929680585861206,26.454370498657227,-0.5656933525899269,-0.610834832516395,-0.2736399227908502,0.28390514068305495
-1.228271484375,0.24568688869476318,24.30553436279297,-0.5656933525899269,-0.610834832516395,-0.2736399227908502,0.28390514068305495
1.224687099456787,-1.207991123199463,22.148021697998047,-0.5656933525899269,-0.610834832516395,-0.2736399227908502,0.28390514068305495
-2.2158262729644775,0.8396086692810059,19.88448143005371,-0.5656933525899269,-0.610834832516395,-0.2736399227908502,0.28390514068305495
1.8650864362716675,-1.9281400442123413,17.444896697998047,-0.5656933525899269,-0.610834832516395,-0.2736399227908502,0.28390514068305495
-1.229701042175293,1.3793245553970337,14.917768478393555,-0.5656933525899269,-0.610834832516395,-0.2736399227908502,0.28390514068305495
-0.9868494868278503,-1.0863721370697021,12.373703956604004,-0.5656933525899269,-0.610834832516395,-0.2736399227908502,0.28390514068305495
0.004016220569610596,-0.40837904810905457,9.840947151184082,-0.5656933525899269,-0.610834832516395,-0.2736399227908502,0.28390514068305495
-0.1235814318060875,0.3876537084579468,7.268972396850586,-0.5656933525899269,-0.610834832516395,-0.2736399227908502,0.28390514068305495
0.520097017288208,-1.9597638845443726,4.65519905090332,-0.5656933525899269,-0.610834832516395,-0.2736399227908502,0.28390514068305495
-1.5418076515197754,1.6035616397857666,2.0538501739501953,-0.5656933525899269,-0.610834832516395,-0.2736399227908502,0.28390514068305495
0.24156033992767334,-1.4775506258010864,-0.29815614223480225,-0.5656933525899269,-0.610834832516395,-0.2736399227908502,0.28390514068305495
0.7900696396827698,1.1848926544189453,-2.1270294189453125,-0.5656933525899269,-0.610834832516395,-0.2736399227908502,0.28390514068305495
0.8590871095657349,1.5901583433151245,-3.5711843967437744,-0.5656933525899269,-0.610834832516395,-0.2736399227908502,0.28390514068305495
0.004867321811616421,1.7973098754882812,-4.719624996185303,-0.5656933525899269,-0.610834832516395,-0.2736399227908502,0.28390514068305495
0.9484189748764038,-0.10614325851202011,-5.476023197174072,-0.5656933525899269,-0.610834832516395,-0.2736399227908502,0.28390514068305495
0.395230233669281,2.258375644683838,-5.900799751281738,-0.5656933525899269,-0.610834832516395,-0.2736399227908502,0.28390514068305495
0.3387669324874878,0.8236339092254639,-5.989808559417725,-0.5656933525899269,-0.610834832516395,-0.2736399227908502,0.28390514068305495
-0.47239914536476135,-0.5820367336273193,-5.882028579711914,-0.5656933525899269,-0.610834832516395,-0.2736399227908502,0.28390514068305495
-0.2477896511554718,0.20485030114650726,-5.9206318855285645,-0.5656933525899269,-0.610834832516395,-0.2736399227908502,0.28390514068305495
0.19021721184253693,-0.2991943955421448,-5.906885147094727,-0.5656933525899269,-0.610834832516395,-0.2736399227908502,0.28390514068305495
0.27102768421173096,-0.01714126579463482,-5.888786315917969,-0.5656933525899269,-0.610834832516395,-0.2736399227908502,0.28390514068305495
0.40411806106567383,-0.12266773730516434,-5.900519371032715,-0.5656933525899269,-0.610834832516395,-0.2736399227908502,0.28390514068305495
0.22886373102664948,-0.15628287196159363,-5.892163276672363,-0.5656933525899269,-0.610834832516395,-0.2736399227908502,0.28390514068305495
0.05855175852775574,-0.036525022238492966,-5.893035411834717,-0.5656933525899269,-0.610834832516395,-0.2736399227908502,0.28390514068305495
-0.008988899178802967,-0.17089678347110748,-5.896637916564941,-0.5656933525899269,-0.610834832516395,-0.2736399227908502,0.28390514068305495
0.058488667011260986,-0.09530091285705566,-5.890341281890869,-0.5656933525899269,-0.610834832516395,-0.2736399227908502,0.28390514068305495
0.16649658977985382,-0.1017264798283577,-5.894406318664551,-0.5656933525899269,-0.610834832516395,-0.2736399227908502,0.28390514068305495
0.17925210297107697,-0.13005660474300385,-5.88810920715332,-0.5656933525899269,-0.610834832516395,-0.2736399227908502,0.28390514068305495
0.11204969137907028,-0.08429093658924103,-5.889827728271484,-0.5656933525899269,-0.610834832516395,-0.2736399227908502,0.28390514068305495
0.06865761429071426,-0.14038041234016418,-5.88860559463501,-0.5656933525899269,-0.610834832516395,-0.2736399227908502,0.28390514068305495
0.07830315083265305,-0.08584631234407425,-5.888237953186035,-0.5656933525899269,-0.610834832516395,-0.2736399227908502,0.28390514068305495
0.1485034078359604,-0.1199665293097496,-5.888630390167236,-0.5656933525899269,-0.610834832516395,-0.2736399227908502,0.28390514068305495
0.15676677227020264,-0.11038947105407715,-5.886544704437256,-0.5656933525899269,-0.610834832516395,-0.2736399227908502,0.28390514068305495
0.10418102890253067,-0.10305219888687134,-5.887696266174316,-0.5656933525899269,-0.610834832516395,-0.2736399227908502,0.28390514068305495
0.08630800992250443,-0.11360007524490356,-5.8873748779296875,-0.5656933525899269,-0.610834832516395,-0.2736399227908502,0.28390514068305495
0.12234573811292648,-0.10749968141317368,-5.887747287750244,-0.5656933525899269,-0.610834832516395,-0.2736399227908502,0.28390514068305495
0.1392495185136795,-0.10419194400310516,-5.887352466583252,-0.5656933525899269,-0.610834832516395,-0.2736399227908502,0.28390514068305495
0.11119751632213593,-0.09831029921770096,-5.887711524963379,-0.5656933525899269,-0.610834832516395,-0.2736399227908502,0.28390514068305495
0.10090531408786774,-0.11159776896238327,-5.889110565185547,-0.5656933525899269,-0.610834832516395,-0.2736399227908502,0.28390514068305495
0.09346584230661392,-0.12627719342708588,-5.888944625854492,-0.5656933525899269,-0.610834832516395,-0.2736399227908502,0.28390514068305495
0.13597716391086578,-0.12094341963529587,-5.889432907104492,-0.5656933525899269,-0.610834832516395,-0.2736399227908502,0.28390514068305495
0.11825543642044067,-0.11882597208023071,-5.889045715332031,-0.5656933525899269,-0.610834832516395,-0.2736399227908502,0.28390514068305495
0.09775765240192413,-0.1122530996799469,-5.888273239135742,-0.5656933525899269,-0.610834832516395,-0.2736399227908502,0.28390514068305495
0.0964440107345581,-0.1061364933848381,-5.889061450958252,-0.5656933525899269,-0.610834832516395,-0.2736399227908502,0.28390514068305495
0.12740060687065125,-0.106511190533638,-5.889269828796387,-0.5656933525899269,-0.610834832516395,-0.2736399227908502,0.28390514068305495
0.11479475349187851,-0.11251816898584366,-5.889060020446777,-0.5656933525899269,-0.610834832516395,-0.2736399227908502,0.28390514068305495
0.10954541712999344,-0.12138061225414276,-5.888986587524414,-0.5656933525899269,-0.610834832516395,-0.2736399227908502,0.28390514068305495
0.10890220105648041,-0.12097584456205368,-5.888341426849365,-0.5656933525899269,-0.610834832516395,-0.2736399227908502,0.28390514068305495
0.08828868716955185,-0.11988197267055511,-5.8888630867004395,-0.5656933525899269,-0.610834832516395,-0.2736399227908502,0.28390514068305495
0.12324463576078415,-0.1029505729675293,-5.889216899871826,-0.5656933525899269,-0.610834832516395,-0.2736399227908502,0.28390514068305495
0.08842504024505615,-0.11892986297607422,-5.888543605804443,-0.5656933525899269,-0.610834832516395,-0.2736399227908502,0.28390514068305495
0.11170753836631775,-0.10729235410690308,-5.889390468597412,-0.5656933525899269,-0.610834832516395,-0.2736399227908502,0.28390514068305495
0.11982210725545883,-0.12547194957733154,-5.8901190757751465,-0.5656933525899269,-0.610834832516395,-0.2736399227908502,0.28390514068305495
0.10711701959371567,-0.11207697540521622,-5.889621734619141,-0.5656933525899269,-0.610834832516395,-0.2736399227908502,0.28390514068305495
0.10568024218082428,-0.13170655071735382,-5.888490200042725,-0.5656933525899269,-0.610834832516395,-0.2736399227908502,0.28390514068305495
0.10907743871212006,-0.11663532257080078,-5.888570785522461,-0.5656933525899269,-0.610834832516395,-0.2736399227908502,0.28390514068305495
0.0900835171341896,-0.12025400996208191,-5.888972282409668,-0.5656933525899269,-0.610834832516395,-0.2736399227908502,0.28390514068305495
0.10451124608516693,-0.11374881118535995,-5.888091087341309,-0.5656933525899269,-0.610834832516395,-0.2736399227908502,0.28390514068305495
0.10994897782802582,-0.12282820791006088,-5.887931823730469,-0.5656933525899269,-0.610834832516395,-0.2736399227908502,0.28390514068305495
0.09689810127019882,-0.1233426183462143,-5.887423515319824,-0.5656933525899269,-0.610834832516395,-0.2736399227908502,0.28390514068305495
0.1037764847278595,-0.1230393573641777,-5.886335849761963,-0.5656933525899269,-0.610834832516395,-0.2736399227908502,0.28390514068305495
0.1014818325638771,-0.11745700985193253,-5.886741638183594,-0.5656933525899269,-0.610834832516395,-0.2736399227908502,0.28390514068305495
0.1162000447511673,-0.11814788728952408,-5.886533260345459,-0.5656933525899269,-0.610834832516395,-0.2736399227908502,0.28390514068305495
0.0998300239443779,-0.11229529976844788,-5.887091636657715,-0.5656933525899269,-0.610834832516395,-0.2736399227908502,0.28390514068305495
0.08667079359292984,-0.11795422434806824,-5.885961055755615,-0.5656933525899269,-0.610834832516395,-0.2736399227908502,0.28390514068305495
0.10491945594549179,-0.13043919205665588,-5.885401725769043,-0.5656933525899269,-0.610834832516395,-0.2736399227908502,0.28390514068305495
0.11213277280330658,-0.13467450439929962,-5.8847198486328125,-0.5656933525899269,-0.610834832516395,-0.2736399227908502,0.28390514068305495
0.10209443420171738,-0.12927354872226715,-5.8838419914245605,-0.5656933525899269,-0.610834832516395,-0.2736399227908502,0.28390514068305495
0.10482589155435562,-0.12490437924861908,-5.883913516998291,-0.5656933525899269,-0.610834832516395,-0.2736399227908502,0.28390514068305495
0.0995117574930191,-0.11893585324287415,-5.883953094482422,-0.5656933525899269,-0.610834832516395,-0.2736399227908502,0.28390514068305495
0.09431636333465576,-0.10970952361822128,-5.883727073669434,-0.5656933525899269,-0.610834832516395,-0.2736399227908502,0.28390514068305495
0.10224544256925583,-0.11112453043460846,-5.883320331573486,-0.5656933525899269,-0.610834832516395,-0.2736399227908502,0.28390514068305495
0.10981929302215576,-0.12957268953323364,-5.883176803588867,-0.5656933525899269,-0.610834832516395,-0.2736399227908502,0.28390514068305495
0.11089347302913666,-0.11914853751659393,-5.882495403289795,-0.5656933525899269,-0.610834832516395,-0.2736399227908502,0.28390514068305495
0.09190855920314789,-0.11825349926948547,-5.88196325302124,-0.5656933525899269,-0.610834832516395,-0.2736399227908502,0.28390514068305495
0.09700951725244522,-0.11469588428735733,-5.8834333419799805,-0.5656933525899269,-0.610834832516395,-0.2736399227908502,0.28390514068305495
0.09662207961082458,-0.11721167713403702,-5.884352684020996,-0.5656933525899269,-0.610834832516395,-0.2736399227908502,0.28390514068305495
0.10871700197458267,-0.12667304277420044,-5.884316444396973,-0.5656933525899269,-0.610834832516395,-0.2736399227908502,0.28390514068305495
0.09750782698392868,-0.12464214116334915,-5.884590148925781,-0.5656933525899269,-0.610834832516395,-0.2736399227908502,0.28390514068305495
0.09984437376260757,-0.1283690333366394,-5.8849873542785645,-0.5656933525899269,-0.610834832516395,-0.2736399227908502,0.28390514068305495
0.09361913800239563,-0.12674641609191895,-5.8843607902526855,-0.5656933525899269,-0.610834832516395,-0.2736399227908502,0.28390514068305495
0.10736331343650818,-0.12524650990962982,-5.884002208709717,-0.5656933525899269,-0.610834832516395,-0.2736399227908502,0.28390514068305495
0.0994611456990242,-0.12478090077638626,-5.884150981903076,-0.5656933525899269,-0.610834832516395,-0.2736399227908502,0.28390514068305495
0.11002184450626373,-0.12597094476222992,-5.883843421936035,-0.5656933525899269,-0.610834832516395,-0.2736399227908502,0.28390514068305495
0.09596032649278641,-0.11879900842905045,-5.884032726287842,-0.5656933525899269,-0.610834832516395,-0.2736399227908502,0.28390514068305495
0.09058157354593277,-0.12091962993144989,-5.884976387023926,-0.5656933525899269,-0.610834832516395,-0.2736399227908502,0.28390514068305495
0.09585729986429214,-0.13086378574371338,-5.884754180908203,-0.5656933525899269,-0.610834832516395,-0.2736399227908502,0.28390514068305495
0.09859597682952881,-0.1195402592420578,-5.884791374206543,-0.5656933525899269,-0.610834832516395,-0.2736399227908502,0.28390514068305495
0.08167899399995804,-0.11265236139297485,-5.884619235992432,-0.5656933525899269,-0.610834832516395,-0.2736399227908502,0.28390514068305495
0.09061117470264435,-0.13098254799842834,-5.884616374969482,-0.5656933525899269,-0.610834832516395,-0.2736399227908502,0.28390514068305495
0.09252452105283737,-0.11993470788002014,-5.884237289428711,-0.5656933525899269,-0.610834832516395,-0.2736399227908502,0.28390514068305495
0.10236592590808868,-0.12589465081691742,-5.8837761878967285,-0.5656933525899269,-0.610834832516395,-0.2736399227908502,0.28390514068305495
0.08777020126581192,-0.12623265385627747,-5.883844375610352,-0.5656933525899269,-0.610834832516395,-0.2736399227908502,0.28390514068305495
0.08850252628326416,-0.11989591270685196,-5.884190082550049,-0.5656933525899269,-0.610834832516395,-0.2736399227908502,0.28390514068305495
0.09074383974075317,-0.1238214448094368,-5.8834333419799805,-0.5656933525899269,-0.610834832516395,-0.2736399227908502,0.28390514068305495
0.08883430063724518,-0.12862493097782135,-5.881979465484619,-0.5656933525899269,-0.610834832516395,-0.2736399227908502,0.28390514068305495
0.09549335390329361,-0.1167917251586914,-5.881855010986328,-0.5656933525899269,-0.610834832516395,-0.2736399227908502,0.28390514068305495
0.0905667096376419,-0.13220609724521637,-5.880671501159668,-0.5702410971320285,-0.6061203716871222,-0.2720894222613424,0.28183015882968904
0.0915595144033432,-0.13067521154880524,-5.879395961761475,-0.574763273181937,-0.601441458019738,-0.27057170372766753,0.27963948125640553
0.2535249590873718,0,-5.877417087554932,-0.5792488373778502,-0.5967898746662667,-0.26769599978191155,0.2785505211601655
0.943356454372406,-0.26955950260162354,-5.859705924987793,-0.5836273206093917,-0.5921660853901668,-0.25772198800308005,0.2763041919718186
3.446439027786255,-0.3379753828048706,-5.830197811126709,-0.5876178401676264,-0.5876032054465675,-0.2211403589850912,0.2712414012600978
2.783949613571167,-0.17290326952934265,-5.8217949867248535,-0.5908708469395059,-0.5831179931097558,-0.16922045364044602,0.2669840791573127
0.6483426094055176,-0.6358458995819092,-5.868372440338135,-0.5934528342069177,-0.5787244215938777,-0.14061801844897365,0.2602445027480523
1.2321797609329224,0.35971736907958984,-5.904885292053223,-0.5956658760164605,-0.5744061888071395,-0.12494699869615332,0.25794343166053296
1.950538992881775,-0.15756021440029144,-5.907084941864014,-0.5975273038590482,-0.5700930929215,-0.09842434241436418,0.2596280746161938
1.3241616487503052,-0.6747122406959534,-5.819598197937012,-0.5989402997991743,-0.565823755042834,-0.07113517040076352,0.2526924708237251
1.3992472887039185,-0.36928921937942505,-5.803597450256348,-0.5999367603518638,-0.5616847139638327,-0.048440095921978316,0.24399245865643027
0.8999959230422974,0,-5.81860876083374,-0.6005844256164145,-0.5576438180709047,-0.029279735824093184,0.24091504849493506
1.6797385215759277,-0.20702539384365082,-5.735391616821289,-0.600893272988162,-0.5536429440261171,-0.007781948785607975,0.2391898368795713
1.8989933729171753,0.42751574516296387,-5.570690631866455,-0.6007744490863601,-0.5496411349148382,0.02204081700183455,0.24102725647389892
0,-0.508033812046051,-5.48804235458374,-0.6002752275965436,-0.545629605506029,0.03786576177614434,0.24035627258320652
0.5068932771682739,-0.26322072744369507,-5.478098392486572,-0.5996089306449156,-0.5416772269726624,0.04208987241921329,0.23392915142079196
0.944111704826355,-0.37683582305908203,-5.29397439956665,-0.5988066685364013,-0.5378228561538786,0.05418158060250186,0.22859534683326882
0.9157883524894714,0.17856661975383759,-5.1809186935424805,-0.5977744824668237,-0.5340267024013314,0.06968074774680041,0.22694310347239177
1.8725861310958862,-0.39699745178222656,-5.121549129486084,-0.5964194995541281,-0.530259486151238,0.0929172017766784,0.22512284653882186
-0.39876019954681396,0.16326524317264557,-5.086685657501221,-0.5947685305014926,-0.5265236701123,0.10519908453958733,0.22317507813374202
1.427025556564331,-0.11935362964868546,-5.101208209991455,-0.5929438051093733,-0.5228010360591318,0.11376796251473331,0.22354100824644169
0.8629846572875977,-0.3691833019256592,-5.155581474304199,-0.5908886439137213,-0.5191092787641615,0.13285138096349938,0.2194698671499888
0.8734630346298218,-0.22276385128498077,-5.1574387550354,-0.5885538675857243,-0.5154925550861902,0.14732177839614455,0.2145369742065668
0.6097504496574402,-0.27020910382270813,-5.152730941772461,-0.5859955036760464,-0.5119511730824077,0.15968189076520506,0.21042886624733606
0.8463972806930542,-0.37570711970329285,-5.1950788497924805,-0.5832330174597964,-0.5084888806049191,0.17181645518479252,0.20504623105128605
1.2894989252090454,-0.10758844763040543,-5.20770788192749,-0.5802210837479733,-0.5051050056129069,0.18961559023397667,0.2010187679901719
-0.7055352330207825,0.09662175923585892,-5.1865034103393555,-0.5770202708765606,-0.5017554543886537,0.19448195433554552,0.20092737892021734
-0.15966050326824188,0.07251263409852982,-5.102084636688232,-0.5738389880082104,-0.4983949192960018,0.1872719898664703,0.2023368321980039
0.22558185458183289,0.41043055057525635,-5.194952487945557,-0.5707132103054836,-0.49498910103821053,0.18782133446075025,0.20636135873695213
1.3737304210662842,-0.6005085110664368,-5.379275321960449,-0.5674717913786622,-0.49156294491762875,0.2011489367578179,0.20477737573285895
1.1388044357299805,0.1519531011581421,-5.4924635887146,-0.5639448275120877,-0.48818113833665805,0.2220867272311201,0.20103941398362316
1.065389633178711,-0.1339913159608841,-5.599105358123779,-0.5600903130256727,-0.48482923409073675,0.24045501113869253,0.20118909552693365
-0.6482757329940796,-1.1301524639129639,-5.563498020172119,-0.5560537632636261,-0.4815638702611124,0.2439309603068978,0.19065456402798492
-0.3544272184371948,-0.5076021552085876,-5.449696063995361,-0.5520578794079161,-0.47850002715364054,0.23557510237830384,0.17700660886863867
0.3251633644104004,0.49778005480766296,-5.379297256469727,-0.5481336599136962,-0.4755505990961355,0.23533123692808056,0.1769247580319643
0.6053318977355957,0.17926670610904694,-5.40928316116333,-0.5441468549050237,-0.4725548359927613,0.24308536411263051,0.1825668143729369
0.552814245223999,0.19938746094703674,-5.458731651306152,-0.5400150053543299,-0.4694857603249446,0.25273658197062715,0.18572226576507092
1.2444995641708374,-0.4962012767791748,-5.481649875640869,-0.535677915529167,-0.466411001299404,0.26771419704891747,0.1832488172998031
-0.2166290283203125,0,-5.542573928833008,-0.5311446323466954,-0.4633913127664058,0.27627978484767185,0.17911380665997664
-0.3478204309940338,-0.15045246481895447,-5.553164958953857,-0.52657916714502,-0.46041653074324085,0.27157603935338565,0.17786003611981868
0.36221837997436523,-0.4656197726726532,-5.578052997589111,-0.5220518999648954,-0.4574949796021808,0.2716960222615551,0.17272610080738862
0.4722674489021301,-0.7717958688735962,-5.494564056396484,-0.5174656825224198,-0.454702142897165,0.2786500708355259,0.16241430379450322
0.4978068172931671,-0.4434748589992523,-5.506633758544922,-0.5127541484066752,-0.45207963163447,0.28673402305382006,0.15228704772889615
-1.2403961420059204,0.7120528817176819,-5.478474140167236,-0.50802681672555,-0.44952286292074406,0.2805457786812138,0.1545251979182164
0.3465993404388428,-1.046486258506775,-5.424655437469482,-0.5034131229698607,-0.44697066749549524,0.27309747200148815,0.15173825311164063
0.41785287857055664,1.504479169845581,-5.379761219024658,-0.4988084114768492,-0.4444098915470138,0.27946790715989983,0.15555486070613067
-0.11178849637508392,-0.22166676819324493,-5.429722785949707,-0.4941293585531984,-0.4417282263406858,0.28201844367819545,0.16624496405323347
1.4495792388916016,-0.3630492091178894,-5.468949794769287,-0.48933614902366485,-0.43899808221600073,0.2931666998658331,0.16137233090897402
0.4282047748565674,0,-5.468903541564941,-0.4843196356916129,-0.43633375511815103,0.3088148999804012,0.1583469208329916
0.20247848331928253,-0.4125933349132538,-5.4727606773376465,-0.47912892324345513,-0.433723292085859,0.31407059379853325,0.15490864304204782
-0.2057044953107834,-0.6363330483436584,-5.545754432678223,-0.4738946373754234,-0.43121432347843996,0.31404371036527073,0.14616758984824021
-0.4441103935241699,0,-5.532371997833252,-0.4687057015699491,-0.42882238677599316,0.30862858629164613,0.1408648144453764
-0.2308625727891922,0,-5.4141526222229,-0.46360876492108233,-0.4264746398685702,0.3030038115723681,0.1408648144453764
0,0.7518337368965149,-5.518374443054199,-0.45857473351798655,-0.4240746822849739,0.30107995679912486,0.1471300955861807
0.4439985752105713,0,-5.715396881103516,-0.4535259010036115,-0.42157030334903084,0.3047799449258796,0.153395376726985
1.534999966621399,-0.6478139758110046,-5.761226177215576,-0.44830880480055296,-0.41905870081856794,0.321271599441146,0.14799692692855995
0.1968623399734497,-1.6572911739349365,-5.737915992736816,-0.4428340099274648,-0.41675216211626875,0.33570378532943645,0.1287877173473438
-0.937864363193512,0,-5.576537132263184,-0.4372904053124756,-0.4147207898253363,0.32952876846926926,0.11497695756455265
0.6211196780204773,0.6752578616142273,-5.375413417816162,-0.43182025533001367,-0.41275761429220387,0.32688922942616067,0.12060410641133787
-0.374847412109375,-0.36942702531814575,-5.3780837059021,-0.42635499926555603,-0.41072630759949436,0.3289414983087532,0.12315269671380522
-0.1970391571521759,0.4746582508087158,-5.43146276473999,-0.42091235530549775,-0.40866645493027187,0.3241757768982403,0.1240296235928933
0.7085580229759216,0,-5.5181379318237305,-0.4154739035470671,-0.4065663321585286,0.32843843411343815,0.12798510901629925
-0.4585839807987213,0.11134795099496841,-5.594709396362305,-0.40998257033669194,-0.4044255145116601,0.3305215511315815,0.12891300860792398
0.5700066089630127,0,-5.611183166503906,-0.40446614013532084,-0.4022692318715978,0.3314500730329506,0.12984090819954872
0.386567622423172,-1.3696445226669312,-5.585690975189209,-0.39887554348536985,-0.40020033093790164,0.3394215249611688,0.11842720384399096
0.6226704120635986,0.43494531512260437,-5.522977352142334,-0.3931484320947332,-0.39829145387435905,0.3478318419152252,0.11063804378112156
-2.275907039642334,0,-5.409633636474609,-0.38746604282861685,-0.39641728194223463,0.33405487001873574,0.11426258807380993
0.0858224630355835,-0.25820308923721313,-5.316066265106201,-0.3820505508683467,-0.3945308362444237,0.3158041652136795,0.11211089566349981
0.5405371785163879,0.05712698772549629,-5.20713996887207,-0.3767436509174554,-0.39267628493485923,0.32102382889327924,0.1104352614842355
-0.7662972211837769,0.29756656289100647,-5.230507850646973,-0.37140893154997484,-0.39081106574688473,0.3191424952043843,0.11339104107270637
1.4031707048416138,-0.2832372188568115,-5.3187255859375,-0.3660456626379811,-0.38892021996900394,0.32444977423486626,0.11351045227299132
0.5036595463752747,-0.3772864043712616,-5.333643436431885,-0.36050574763328774,-0.38707424879384494,0.3403400263283403,0.10800608874609072
0.937987208366394,-0.24174244701862335,-5.345975399017334,-0.35473329950318055,-0.3853171354294233,0.3523537492845209,0.10284751498450834
0,-0.21742799878120422,-5.404592514038086,-0.3487955990145242,-0.38363489701619535,0.3601703093542408,0.09902109460284311
-1.0935852527618408,0.07784543931484222,-5.361827850341797,-0.3428687039456176,-0.3819942386727776,0.35105709891455883,0.0978579066072901
0,-0.508380115032196,-5.240991592407227,-0.3370936957173723,-0.3803931718040254,0.34194388847487683,0.09427011764297882
0.18294788897037506,1.0166395902633667,-5.383774757385254,-0.33138192619494583,-0.37878670737975134,0.3434684542162966,0.09850561326990524
0.1316242218017578,-0.06650009006261826,-5.561343669891357,-0.32563560667253727,-0.3770789652488501,0.3460898884727311,0.10642344243824481
1.7892216444015503,-0.12042104452848434,-5.657177448272705,-0.31973404979061654,-0.3753182218425593,0.36209693735775866,0.10486576631665229
-1.20041024684906,-1.4311935901641846,-5.732152462005615,-0.3136582111542683,-0.3736782100869132,0.3670036990040294,0.09193564436088004
0.32434478402137756,0.24544963240623474,-5.59559965133667,-0.30760232071689747,-0.3722282926779651,0.3597031534804654,0.08205444471289713
-0.5539193153381348,0.1014205664396286,-5.454731464385986,-0.3016232108346756,-0.3708366303911636,0.3577900323861591,0.08494502970327933
-0.4439236521720886,-0.33765408396720886,-5.458430767059326,-0.29572933827876113,-0.3694372850014928,0.3494746743235739,0.08297641705721616
0.46493029594421387,0.2904878854751587,-5.544229507446289,-0.28990330157866184,-0.3680576201476567,0.34964972968834157,0.08258336540311574
0.19474369287490845,-0.2861904501914978,-5.659869194030762,-0.28402999539018814,-0.36668093229126564,0.3551470129285009,0.08261917736381291
-0.06672614067792892,0.05346401780843735,-5.646186828613281,-0.278101988400255,-0.36532010755967315,0.3562138258634758,0.08067979042728742
0.4756101965904236,-0.24197456240653992,-5.657069683074951,-0.27213669657642536,-0.36398853539592657,0.3596211929960799,0.07910886922230323
-0.28668543696403503,-1.7626354694366455,-5.684986114501953,-0.2661298902515166,-0.36280926327221064,0.3611955659929665,0.062403785623610014
-0.35556671023368835,2.136904001235962,-5.624788761138916,-0.26015456499518924,-0.36174320930821996,0.3558434647663188,0.06552269005527099
0,-0.779465913772583,-5.46981143951416,-0.25424853271507236,-0.3605568979401138,0.3528804088477047,0.07683467411746582
-0.32575932145118713,-0.6996342539787292,-5.318548679351807,-0.2483898147427114,-0.3593790353275832,0.3501657478356115,0.06450883938620489
0.8499777317047119,-0.48176702857017517,-5.233185768127441,-0.2483898147427114,-0.3593790353275832,0.3501657478356115,0.06450883938620489
0.10243850201368332,1.643180251121521,-5.255980014801025,-0.2483898147427114,-0.3593790353275832,0.3501657478356115,0.06450883938620489
0.4397122859954834,-1.2960059642791748,-5.361027717590332,-0.2483898147427114,-0.3593790353275832,0.3501657478356115,0.06450883938620489
0.4571550786495209,-0.5271210074424744,-5.381942272186279,-0.2483898147427114,-0.3593790353275832,0.3501657478356115,0.06450883938620489
-0.3183977007865906,0.22259919345378876,-5.486705303192139,-0.2483898147427114,-0.3593790353275832,0.3501657478356115,0.06450883938620489
-0.041196130216121674,-0.1749218851327896,-5.538207054138184,-0.2483898147427114,-0.3593790353275832,0.3501657478356115,0.06450883938620489
-1.2457300424575806,-0.45605671405792236,-5.45454216003418,-0.2483898147427114,-0.3593790353275832,0.3501657478356115,0.06450883938620489
-0.38124144077301025,-0.006536573637276888,-5.441190719604492,-0.2483898147427114,-0.3593790353275832,0.3501657478356115,0.06450883938620489
-0.42992883920669556,0.7166914343833923,-5.729511737823486,-0.2483898147427114,-0.3593790353275832,0.3501657478356115,0.06450883938620489
-3.6485373973846436,0.46823737025260925,-6.341811656951904,-0.2483898147427114,-0.3593790353275832,0.3501657478356115,0.06450883938620489
-0.82405686378479,-2.1261518001556396,-7.249815464019775,-0.2483898147427114,-0.3593790353275832,0.3501657478356115,0.06450883938620489
-2.8861277103424072,1.6167254447937012,-8.2911958694458,-0.2483898147427114,-0.3593790353275832,0.3501657478356115,0.06450883938620489
-0.5883101224899292,-2.2251667976379395,-9.46430492401123,-0.2483898147427114,-0.3593790353275832,0.3501657478356115,0.06450883938620489
-2.70575213432312,0.6804681420326233,-10.851800918579102,-0.2483898147427114,-0.3593790353275832,0.3501657478356115,0.06450883938620489
-2.604090690612793,-0.3159939646720886,-12.453248023986816,-0.2483898147427114,-0.3593790353275832,0.3501657478356115,0.06450883938620489
-2.1019439697265625,0.023311614990234375,-14.231146812438965,-0.2483898147427114,-0.3593790353275832,0.3501657478356115,0.06450883938620489
-0.781826376914978,-1.3720237016677856,-16.08060073852539,-0.2483898147427114,-0.3593790353275832,0.3501657478356115,0.06450883938620489
-0.7163707613945007,0.8834541440010071,-18.035451889038086,-0.2483898147427114,-0.3593790353275832,0.3501657478356115,0.06450883938620489
-1.669222354888916,-0.30505797266960144,-20.083791732788086,-0.2483898147427114,-0.3593790353275832,0.3501657478356115,0.06450883938620489
-1.6455161571502686,0.053892623633146286,-22.260217666625977,-0.2483898147427114,-0.3593790353275832,0.3501657478356115,0.06450883938620489
-1.4636989831924438,-0.6832179427146912,-24.50450325012207,-0.2483898147427114,-0.3593790353275832,0.3501657478356115,0.06450883938620489
-1.701436996459961,0.3961479961872101,-26.821964263916016,-0.2483898147427114,-0.3593790353275832,0.3501657478356115,0.06450883938620489
-1.2965396642684937,-0.47933241724967957,-29.172056198120117,-0.2483898147427114,-0.3593790353275832,0.3501657478356115,0.06450883938620489
-0.5400984883308411,0.15145562589168549,-31.55067253112793,-0.2483898147427114,-0.3593790353275832,0.3501657478356115,0.06450883938620489
-0.8218644857406616,0.10967984050512314,-33.97345733642578,-0.2483898147427114,-0.3593790353275832,0.3501657478356115,0.06450883938620489
-1.6818938255310059,-0.05561267212033272,-36.40819549560547,-0.2483898147427114,-0.3593790353275832,0.3501657478356115,0.06450883938620489
0.06415490806102753,0.7956821918487549,-38.810550689697266,-0.2483898147427114,-0.3593790353275832,0.3501657478356115,0.06450883938620489
-1.3827921152114868,-0.5774345397949219,-41.16409683227539,-0.2483898147427114,-0.3593790353275832,0.3501657478356115,0.06450883938620489
-0.6766330003738403,0.2747443914413452,-43.51176452636719,-0.2483898147427114,-0.3593790353275832,0.3501657478356115,0.06450883938620489
-0.7623127102851868,-0.871174693107605,-45.87877655029297,-0.2483898147427114,-0.3593790353275832,0.3501657478356115,0.06450883938620489
0.022190896794199944,-0.13865508139133453,-48.207908630371094,-0.2483898147427114,-0.3593790353275832,0.3501657478356115,0.06450883938620489
-1.3687862157821655,-0.5370371341705322,-50.57822036743164,-0.2483898147427114,-0.3593790353275832,0.3501657478356115,0.06450883938620489
-0.45390745997428894,1.3750873804092407,-52.93474578857422,-0.2483898147427114,-0.3593790353275832,0.3501657478356115,0.06450883938620489
-1.9218388795852661,-1.1090056896209717,-55.249351501464844,-0.2483898147427114,-0.3593790353275832,0.3501657478356115,0.06450883938620489
0.2615979015827179,0.853703498840332,-57.608245849609375,-0.2483898147427114,-0.3593790353275832,0.3501657478356115,0.06450883938620489
-0.907373309135437,-0.9596424698829651,-59.96505355834961,-0.2483898147427114,-0.3593790353275832,0.3501657478356115,0.06450883938620489
-0.12936913967132568,0.3416347801685333,-62.407474517822266,-0.2483898147427114,-0.3593790353275832,0.3501657478356115,0.06450883938620489
-1.0007978677749634,-0.03271256014704704,-64.84601593017578,-0.2483898147427114,-0.3593790353275832,0.3501657478356115,0.06450883938620489
-0.5817574262619019,0.9838258028030396,-67.3172607421875,-0.2483898147427114,-0.3593790353275832,0.3501657478356115,0.06450883938620489
0.08856406062841415,0.9146503210067749,-69.69840240478516,-0.2483898147427114,-0.3593790353275832,0.3501657478356115,0.06450883938620489
-0.7094178199768066,-0.3576282262802124,-72.02938842773438,-0.2483898147427114,-0.3593790353275832,0.3501657478356115,0.06450883938620489
-0.13182328641414642,0.6444044709205627,-74.4071044921875,-0.2483898147427114,-0.3593790353275832,0.3501657478356115,0.06450883938620489
-1.1639378070831299,-1.3104242086410522,-76.72975158691406,-0.2483898147427114,-0.3593790353275832,0.3501657478356115,0.06450883938620489
0.9009391069412231,1.5736867189407349,-79.0964584350586,-0.2483898147427114,-0.3593790353275832,0.3501657478356115,0.06450883938620489
-1.8439812660217285,-1.623731017112732,-81.46491241455078,-0.2483898147427114,-0.3593790353275832,0.3501657478356115,0.06450883938620489
0.9577573537826538,2.385859251022339,-83.94427490234375,-0.2483898147427114,-0.3593790353275832,0.3501657478356115,0.06450883938620489
-1.120208740234375,-0.5593071579933167,-86.42716217041016,-0.2483898147427114,-0.3593790353275832,0.3501657478356115,0.06450883938620489
0.2886200249195099,0.201809361577034,-88.8592758178711,-0.2483898147427114,-0.3593790353275832,0.3501657478356115,0.06450883938620489
1.8244041204452515,0.5057632327079773,-90.79383850097656,-0.2483898147427114,-0.3593790353275832,0.3501657478356115,0.06450883938620489
-1.1667706966400146,-1.3822542428970337,-92.27442169189453,-0.2483898147427114,-0.3593790353275832,0.3501657478356115,0.06450883938620489
3.7656819820404053,0.3004195988178253,-93.37505340576172,-0.2483898147427114,-0.3593790353275832,0.3501657478356115,0.06450883938620489
-0.0459500327706337,-1.258023977279663,-94.08575439453125,-0.2483898147427114,-0.3593790353275832,0.3501657478356115,0.06450883938620489
1.8885722160339355,-0.28334078192710876,-94.40437316894531,-0.2483898147427114,-0.3593790353275832,0.3501657478356115,0.06450883938620489
0.9420228600502014,-0.6941775679588318,-94.37677001953125,-0.2483898147427114,-0.3593790353275832,0.3501657478356115,0.06450883938620489
-0.7513278126716614,0.06300391256809235,-94.23116302490234,-0.2483898147427114,-0.3593790353275832,0.3501657478356115,0.06450883938620489
0.33522507548332214,-0.3592100143432617,-94.21046447753906,-0.2483898147427114,-0.3593790353275832,0.3501657478356115,0.06450883938620489
-0.4995117783546448,-0.3866925537586212,-94.15625,-0.2483898147427114,-0.3593790353275832,0.3501657478356115,0.06450883938620489
0.09444864094257355,-0.2016220986843109,-94.0923080444336,-0.2483898147427114,-0.3593790353275832,0.3501657478356115,0.06450883938620489
-0.1946081817150116,0.03866947442293167,-94.06006622314453,-0.2483898147427114,-0.3593790353275832,0.3501657478356115,0.06450883938620489
-0.13754144310951233,0.03898780047893524,-94.00785827636719,-0.2483898147427114,-0.3593790353275832,0.3501657478356115,0.06450883938620489
-0.024186724796891212,0.00121794652659446,-93.96123504638672,-0.2483898147427114,-0.3593790353275832,0.3501657478356115,0.06450883938620489
-0.19417178630828857,-0.17412669956684113,-93.91900634765625,-0.2483898147427114,-0.3593790353275832,0.3501657478356115,0.06450883938620489
-0.07083959132432938,-0.1646907925605774,-93.86964416503906,-0.2483898147427114,-0.3593790353275832,0.3501657478356115,0.06450883938620489
-0.10617195814847946,-0.12525658309459686,-93.83192443847656,-0.2483898147427114,-0.3593790353275832,0.3501657478356115,0.06450883938620489
-0.1446613073348999,-0.03063018061220646,-93.78645324707031,-0.2483898147427114,-0.3593790353275832,0.3501657478356115,0.06450883938620489
-0.09418486058712006,-0.06807231158018112,-93.74559783935547,-0.2483898147427114,-0.3593790353275832,0.3501657478356115,0.06450883938620489
-0.14024440944194794,-0.11878607422113419,-93.70474243164062,-0.2483898147427114,-0.3593790353275832,0.3501657478356115,0.06450883938620489
-0.1140705868601799,-0.14977124333381653,-93.6626205444336,-0.2483898147427114,-0.3593790353275832,0.3501657478356115,0.06450883938620489
-0.13441340625286102,-0.09601528197526932,-93.62478637695312,-0.2483898147427114,-0.3593790353275832,0.3501657478356115,0.06450883938620489
-0.13155916333198547,-0.056883979588747025,-93.58612060546875,-0.2483898147427114,-0.3593790353275832,0.3501657478356115,0.06450883938620489
-0.10806383937597275,-0.08705116808414459,-93.5481185913086,-0.2483898147427114,-0.3593790353275832,0.3501657478356115,0.06450883938620489
-0.12262570112943649,-0.12454646080732346,-93.51222229003906,-0.2483898147427114,-0.3593790353275832,0.3501657478356115,0.06450883938620489
-0.11217810958623886,-0.10773425549268723,-93.47698974609375,-0.2483898147427114,-0.3593790353275832,0.3501657478356115,0.06450883938620489
-0.11864640563726425,-0.09024196118116379,-93.44241333007812,-0.2483898147427114,-0.3593790353275832,0.3501657478356115,0.06450883938620489
-0.11608513444662094,-0.0707486942410469,-93.40837860107422,-0.2483898147427114,-0.3593790353275832,0.3501657478356115,0.06450883938620489
-0.12177270650863647,-0.09975166618824005,-93.37540435791016,-0.2483898147427114,-0.3593790353275832,0.3501657478356115,0.06450883938620489
-0.10786602646112442,-0.11313137412071228,-93.34249877929688,-0.2483898147427114,-0.3593790353275832,0.3501657478356115,0.06450883938620489
-0.11663906276226044,-0.1187184751033783,-93.31281280517578,-0.2483898147427114,-0.3593790353275832,0.3501657478356115,0.06450883938620489
-0.11982154846191406,-0.09176867455244064,-93.281982421875,-0.2483898147427114,-0.3593790353275832,0.3501657478356115,0.06450883938620489
-0.12440425157546997,-0.08597089350223541,-93.25212097167969,-0.2483898147427114,-0.3593790353275832,0.3501657478356115,0.06450883938620489
-0.12973865866661072,-0.10538970679044724,-93.2247085571289,-0.2483898147427114,-0.3593790353275832,0.3501657478356115,0.06450883938620489
-0.11131060123443604,-0.1139957532286644,-93.19623565673828,-0.2483898147427114,-0.3593790353275832,0.3501657478356115,0.06450883938620489
-0.12032272666692734,-0.10814023017883301,-93.16712188720703,-0.2483898147427114,-0.3593790353275832,0.3501657478356115,0.06450883938620489
-0.1302291601896286,-0.09257989376783371,-93.14128112792969,-0.2483898147427114,-0.3593790353275832,0.3501657478356115,0.06450883938620489
-0.11759056895971298,-0.09226985275745392,-93.11328887939453,-0.2483898147427114,-0.3593790353275832,0.3501657478356115,0.06450883938620489
-0.12761548161506653,-0.10254053771495819,-93.08773040771484,-0.2483898147427114,-0.3593790353275832,0.3501657478356115,0.06450883938620489
-0.12233061343431473,-0.10526028275489807,-93.06014251708984,-0.2483898147427114,-0.3593790353275832,0.3501657478356115,0.06450883938620489
-0.10936170071363449,-0.08890984952449799,-93.03645324707031,-0.2483898147427114,-0.3593790353275832,0.3501657478356115,0.06450883938620489
-0.12259774655103683,-0.0901394635438919,-93.01136016845703,-0.2483898147427114,-0.3593790353275832,0.3501657478356115,0.06450883938620489
-0.12378551065921783,-0.11130820959806442,-92.98734283447266,-0.2483898147427114,-0.3593790353275832,0.3501657478356115,0.06450883938620489
-0.12376759946346283,-0.10139407962560654,-92.96371459960938,-0.2483898147427114,-0.3593790353275832,0.3501657478356115,0.06450883938620489
-0.11691886931657791,-0.09436313062906265,-92.94042205810547,-0.2483898147427114,-0.3593790353275832,0.3501657478356115,0.06450883938620489
-0.11210483312606812,-0.09490206092596054,-92.91748809814453,-0.2483898147427114,-0.3593790353275832,0.3501657478356115,0.06450883938620489
-0.10568161308765411,-0.09885842353105545,-92.89591217041016,-0.2483898147427114,-0.3593790353275832,0.3501657478356115,0.06450883938620489
-0.11028877645730972,-0.09966553002595901,-92.87544250488281,-0.2483898147427114,-0.3593790353275832,0.3501657478356115,0.06450883938620489
-0.1220199391245842,-0.10208774358034134,-92.85613250732422,-0.2483898147427114,-0.3593790353275832,0.3501657478356115,0.06450883938620489
-0.10833287239074707,-0.09020888060331345,-92.83562469482422,-0.2483898147427114,-0.3593790353275832,0.3501657478356115,0.06450883938620489
-0.11638971418142319,-0.08937174081802368,-92.81671905517578,-0.2483898147427114,-0.3593790353275832,0.3501657478356115,0.06450883938620489
-0.10816901177167892,-0.10767577588558197,-92.79757690429688,-0.2483898147427114,-0.3593790353275832,0.3501657478356115,0.06450883938620489
-0.11163569986820221,-0.09716102480888367,-92.77778625488281,-0.2483898147427114,-0.3593790353275832,0.3501657478356115,0.06450883938620489
-0.11511442810297012,-0.08676735311746597,-92.76104736328125,-0.2483898147427114,-0.3593790353275832,0.3501657478356115,0.06450883938620489
-0.1154756247997284,-0.09703448414802551,-92.7423324584961,-0.2483898147427114,-0.3593790353275832,0.3501657478356115,0.06450883938620489
-0.12527798116207123,-0.10088172554969788,-92.72618103027344,-0.2483898147427114,-0.3593790353275832,0.3501657478356115,0.06450883938620489
-0.1189052164554596,-0.08831056952476501,-92.70915985107422,-0.2483898147427114,-0.3593790353275832,0.3501657478356115,0.06450883938620489
-0.11860836297273636,-0.09298140555620193,-92.69071960449219,-0.2483898147427114,-0.3593790353275832,0.3501657478356115,0.06450883938620489
-0.10647169500589371,-0.08639854192733765,-92.67366027832031,-0.2483898147427114,-0.3593790353275832,0.3501657478356115,0.06450883938620489
-0.11466877907514572,-0.09846898168325424,-92.6565170288086,-0.2483898147427114,-0.3593790353275832,0.3501657478356115,0.06450883938620489
-0.10858013480901718,-0.08062185347080231,-92.63787841796875,-0.2483898147427114,-0.3593790353275832,0.3501657478356115,0.06450883938620489
-0.1152953952550888,-0.0880521833896637,-92.62342834472656,-0.2483898147427114,-0.3593790353275832,0.3501657478356115,0.06450883938620489
-0.10762853920459747,-0.09415068477392197,-92.60722351074219,-0.2483898147427114,-0.3593790353275832,0.3501657478356115,0.06450883938620489
-0.11947707831859589,-0.09524313360452652,-92.59127044677734,-0.2483898147427114,-0.3593790353275832,0.3501657478356115,0.06450883938620489
-0.11990085989236832,-0.08707397431135178,-92.57548522949219,-0.2483898147427114,-0.3593790353275832,0.3501657478356115,0.06450883938620489
-0.11191257834434509,-0.09591516107320786,-92.56060028076172,-0.2483898147427114,-0.3593790353275832,0.3501657478356115,0.06450883938620489
-0.11504589021205902,-0.08532550930976868,-92.54641723632812,-0.2483898147427114,-0.3593790353275832,0.3501657478356115,0.06450883938620489
-0.11021522432565689,-0.09057176113128662,-92.53305053710938,-0.2483898147427114,-0.3593790353275832,0.3501657478356115,0.06450883938620489
-0.12246343493461609,-0.09431547671556473,-92.51915740966797,-0.2483898147427114,-0.3593790353275832,0.3501657478356115,0.06450883938620489
-0.1120038703083992,-0.09907031804323196,-92.50657653808594,-0.2483898147427114,-0.3593790353275832,0.3501657478356115,0.06450883938620489
-0.1219695508480072,-0.09491943567991257,-92.4928970336914,-0.2483898147427114,-0.3593790353275832,0.3501657478356115,0.06450883938620489
-0.11108532547950745,-0.09866136312484741,-92.47955322265625,-0.2483898147427114,-0.3593790353275832,0.3501657478356115,0.06450883938620489
-0.127056285738945,-0.0902751237154007,-92.46687316894531,-0.2483898147427114,-0.3593790353275832,0.3501657478356115,0.06450883938620489
-0.13303536176681519,-0.09932667762041092,-92.45421600341797,-0.2483898147427114,-0.3593790353275832,0.3501657478356115,0.06450883938620489
-0.12250424921512604,-0.08058670163154602,-92.44181823730469,-0.2483898147427114,-0.3593790353275832,0.3501657478356115,0.06450883938620489
-0.11977313458919525,-0.09400693327188492,-92.43199920654297,-0.2483898147427114,-0.3593790353275832,0.3501657478356115,0.06450883938620489
-0.11869680881500244,-0.07688096165657043,-92.42110443115234,-0.2483898147427114,-0.3593790353275832,0.3501657478356115,0.06450883938620489
-0.10208386927843094,-0.09450343996286392,-92.40996551513672,-0.2483898147427114,-0.3593790353275832,0.3501657478356115,0.06450883938620489
-0.10960189998149872,-0.0951622873544693,-92.39873504638672,-0.2483898147427114,-0.3593790353275832,0.3501657478356115,0.06450883938620489
-0.10562369227409363,-0.09591154754161835,-92.38775634765625,-0.2483898147427114,-0.3593790353275832,0.3501657478356115,0.06450883938620489
-0.11070922762155533,-0.08899939805269241,-92.37818908691406,-0.2483898147427114,-0.3593790353275832,0.3501657478356115,0.06450883938620489
-0.10988710820674896,-0.08907340466976166,-92.36711883544922,-0.2483898147427114,-0.3593790353275832,0.3501657478356115,0.06450883938620489
-0.11291305720806122,-0.09924893081188202,-92.35556030273438,-0.2483898147427114,-0.3593790353275832,0.3501657478356115,0.06450883938620489
-0.10736506432294846,-0.08026457577943802,-92.34564971923828,-0.2483898147427114,-0.3593790353275832,0.3501657478356115,0.06450883938620489
-0.11392580717802048,-0.08647381514310837,-92.33694458007812,-0.2483898147427114,-0.3593790353275832,0.3501657478356115,0.06450883938620489
-0.1230543851852417,-0.09511954337358475,-92.32632446289062,-0.2483898147427114,-0.3593790353275832,0.3501657478356115,0.06450883938620489
-0.10997382551431656,-0.0676179975271225,-92.31692504882812,-0.2483898147427114,-0.3593790353275832,0.3501657478356115,0.06450883938620489
-0.12516650557518005,-0.06941817700862885,-92.30830383300781,-0.2425700481351102,-0.3583134044054892,0.34820624507653236,0.06336687126507362
-0.12328346073627472,-0.09565860033035278,-92.2979965209961,-0.23678386418705075,-0.3572687535494976,0.34613582869060355,0.06199123145391544
-0.09164562076330185,-0.2981454133987427,-92.29547119140625,-0.2310298593395337,-0.35626291385955244,0.3443447530114404,0.058709531339506314
-0.10066256672143936,-0.8732317686080933,-92.28986358642578,-0.22530413485791836,-0.3553657673082,0.34274218478240087,0.04894805482278268
0,-3.0240585803985596,-92.21868133544922,-0.21959875556756733,-0.35482061155761246,0.34190333005972223,0.01647063524772724
0,-3.3946926593780518,-92.13097381591797,-0.21390036673323862,-0.35499184758402375,0.34190333005972223,-0.037018958417077856
-1.1968046426773071,-1.2082332372665405,-92.08737182617188,-0.20828508933242917,-0.35592847785601983,0.3319299580374113,-0.07537667422244945
0.7025865316390991,-1.6544901132583618,-92.04524230957031,-0.20278724406729443,-0.3573835559924027,0.3278114737787596,-0.09923270214349031
-0.5440877676010132,-1.0712299346923828,-92.09353637695312,-0.19731271264570135,-0.3592267204759019,0.3291322968124103,-0.12194703587641317
-0.09175872802734375,-1.7261767387390137,-92.02722930908203,-0.19187133037213538,-0.3614534354261637,0.32383357601550733,-0.14525875815500813
0.2904709577560425,-1.5992783308029175,-91.95640563964844,-0.18646030464481245,-0.36410534910857645,0.3254895112632465,-0.17297088373452424
-0.5331661105155945,-0.7377746105194092,-92.02201843261719,-0.18105233328714443,-0.3671504925139659,0.3234670516569169,-0.1924463249122103
-0.30267030000686646,-1.646419644355774,-91.96492004394531,-0.17571925995470433,-0.3705235003079802,0.3165017482358964,-0.2123146103695035
0.859896183013916,-1.2126405239105225,-91.78762817382812,-0.1704055345755639,-0.3742606229924904,0.32114529726095514,-0.23614011177172264
-0.9678182601928711,-0.4664553999900818,-91.77979278564453,-0.16506060754324095,-0.37831289540562335,0.3202459466177972,-0.2501325778042277
0.5795524716377258,-1.1002140045166016,-91.90735626220703,-0.159750138001594,-0.38259056818878456,0.3170103983798377,-0.26318815617511676
-0.6672353744506836,-1.7991464138031006,-91.86609649658203,-0.15447272045240315,-0.38717838193186427,0.31627970752306306,-0.2873494929944476
0.6108716130256653,0,-91.894775390625,-0.14920530614378438,-0.3920924808716192,0.31581000951118793,-0.30234237977614015
0.07233669608831406,-1.0689723491668701,-91.89918518066406,-0.14389436096379835,-0.3972057547254692,0.32150341208713773,-0.3112504826858641
0.07472196221351624,-1.3845959901809692,-91.90819549560547,-0.13852575835551953,-0.4025636494604661,0.32272890090631967,-0.33169688551376275
-1.11004638671875,-0.36125215888023376,-91.88404846191406,-0.13321884086989372,-0.40821317034049137,0.31410119736877606,-0.3462456200892728
0.06799927353858948,-0.40678688883781433,-91.89506530761719,-0.12805618529660717,-0.414037266720293,0.30541747142560804,-0.3526459454869232
-0.8184638619422913,-0.23973798751831055,-92.00004577636719,-0.1230180097025973,-0.41995959670593314,0.2991635998555772,-0.3580336527898909
-1.2472476959228516,-0.9059312343597412,-92.09186553955078,-0.11817540189652276,-0.42600638461506174,0.2819493368733677,-0.36758089630554136
1.4434258937835693,-0.8183242082595825,-92.11752319335938,-0.11346262279600408,-0.43225247284811374,0.2835841551888737,-0.3819496916607024
0.6084966659545898,-1.0779855251312256,-92.1818618774414,-0.10859372558731882,-0.4387499892183887,0.30068350985335834,-0.39775227277229247
-1.1291009187698364,-0.46048465371131897,-92.10441589355469,-0.10361848682954168,-0.44548603197145764,0.29634514107989796,-0.41057285759598033
0.11151815205812454,-0.3697831928730011,-92.00588989257812,-0.09875006661478725,-0.45238657042073677,0.2878652846906337,-0.41749175631751634
0.25495126843452454,0.23395638167858124,-91.97068786621094,-0.09392686260463136,-0.4593541987768061,0.29091919652807247,-0.4186236464108032
-0.24040402472019196,-0.5511137843132019,-91.92138671875,-0.08907719910390555,-0.4663532843699469,0.29104042355902526,-0.42126662476609167
-0.1505248248577118,-0.8826190829277039,-91.82461547851562,-0.08425367321469804,-0.47347395956516236,0.2877826831458761,-0.4332143986597659
-0.19449710845947266,-0.508018434047699,-91.81497955322266,-0.07948125501874713,-0.4807907715926151,0.28490750036823287,-0.44480304463456094
-0.18326646089553833,-0.6068580150604248,-91.92582702636719,-0.07475903026048179,-0.48828157764549024,0.2817594706236078,-0.454093681710462
-0.5325998663902283,-0.9531532526016235,-92.13228607177734,-0.07011275202281651,-0.4959581397898078,0.2757939178962264,-0.46709377560764576
-0.2735307514667511,0.3874148428440094,-92.23480987548828,-0.0655721680174528,-0.5037823234395017,0.26907616274741825,-0.4718082623556259
-0.21446560323238373,0.6028071641921997,-92.23794555664062,-0.061121453940738826,-0.5115770290616068,0.2650095264582588,-0.4635564122969908
0.8453992009162903,-0.9146137237548828,-92.31184387207031,-0.05666081366659535,-0.5193246224998597,0.270267306438958,-0.4661548002933465
0.4773591458797455,-0.28841960430145264,-92.43251037597656,-0.052064500340751885,-0.5271774131525304,0.2812902926622583,-0.4761800780271493
-1.1803184747695923,-0.2354402244091034,-92.52610778808594,-0.04742514541644271,-0.5351501269410878,0.2754322982548429,-0.48054557659973723
-1.1819024085998535,-1.1295180320739746,-92.61572265625,-0.042998650229095985,-0.5432540086522281,0.25574712422676416,-0.49192022873709623
0.3587134778499603,0.6492202877998352,-92.548095703125,-0.03879336405661866,-0.5514860331411987,0.24888721647051504,-0.4959227099393807
0.5047918558120728,-0.6739600300788879,-92.47845458984375,-0.0345852781339391,-0.5597531296778466,0.256083094251032,-0.4961288744583728
0,-0.2821507751941681,-92.45896911621094,-0.03028217157310162,-0.5680883408358524,0.2602896930494659,-0.5040964645023149
-0.503972053527832,-0.11485228687524796,-92.5286865234375,-0.025979008081549952,-0.5765175182346458,0.25608992593673396,-0.5074048233528934
1.5756958723068237,0.41636326909065247,-92.6017074584961,-0.021636417384078066,-0.5849533270278735,0.2650209577598922,-0.5048922318344317
-0.6976451873779297,-0.9491866827011108,-92.62394714355469,-0.017158425679404246,-0.5934051991843925,0.27233804680096635,-0.5093324269478522
-0.9114963412284851,0.2300954908132553,-92.59271240234375,-0.01273120417220803,-0.6019440098551823,0.25892853406257954,-0.5153248535469177
-0.6288745403289795,-0.062111567705869675,-92.60763549804688,-0.00852269880460653,-0.6105210918640818,0.24609211004960066,-0.5139249875210228
-0.8826931118965149,0.17341357469558716,-92.66641998291016,-0.004526133612962178,-0.6190787790167245,0.23349571294772153,-0.5129974707961085
1.059948444366455,-1.242070198059082,-92.73651885986328,-0.0006222289990786291,-0.6277029491288376,0.23497284071830438,-0.521902942657471
0.5637349486351013,-1.1557508707046509,-92.71776580810547,0.0034067408040737743,-0.6365678468584596,0.248503535659984,-0.5418847848971687
-0.5367164015769958,0.8670840859413147,-92.57097625732422,0.007550342686396988,-0.6456193062445765,0.24872869021880156,-0.5442903414368632
0.20235256850719452,0,-92.51765441894531,0.0116726011460805,-0.654630597762556,0.24594232494321988,-0.5370646407206855
0,0.07903371751308441,-92.5580062866211,0.01578569215683605,-0.6635761866552957,0.2476285963474465,-0.5364060264080764
-0.7584303021430969,-0.1435084342956543,-92.57478332519531,0.01578569215683605,-0.6635761866552957,0.2476285963474465,-0.5364060264080764
0.4583079218864441,-0.6248096823692322,-92.59767150878906,0.01578569215683605,-0.6635761866552957,0.2476285963474465,-0.5364060264080764
-1.275348424911499,-0.6425971388816833,-92.64008331298828,0.01578569215683605,-0.6635761866552957,0.2476285963474465,-0.5364060264080764
0.08485637605190277,1.5311883687973022,-92.68032836914062,0.01578569215683605,-0.6635761866552957,0.2476285963474465,-0.5364060264080764
0.18616624176502228,2.822688579559326,-93.01313018798828,0.01578569215683605,-0.6635761866552957,0.2476285963474465,-0.5364060264080764
-0.31479591131210327,2.392167806625366,-93.68535614013672,0.01578569215683605,-0.6635761866552957,0.2476285963474465,-0.5364060264080764
-1.1841713190078735,1.7626252174377441,-94.5226058959961,0.01578569215683605,-0.6635761866552957,0.2476285963474465,-0.5364060264080764
-0.39261239767074585,3.4128623008728027,-95.59602355957031,0.01578569215683605,-0.6635761866552957,0.2476285963474465,-0.5364060264080764
-1.464219093322754,1.310994029045105,-96.89633178710938,0.01578569215683605,-0.6635761866552957,0.2476285963474465,-0.5364060264080764
0.8311644196510315,1.462701678276062,-98.3663101196289,0.01578569215683605,-0.6635761866552957,0.2476285963474465,-0.5364060264080764
-0.48782283067703247,1.7636100053787231,-100.0006332397461,0.01578569215683605,-0.6635761866552957,0.2476285963474465,-0.5364060264080764
0.15188777446746826,1.380752682685852,-101.72432708740234,0.01578569215683605,-0.6635761866552957,0.2476285963474465,-0.5364060264080764
