faccX,faccY,yaw,posX,posY,velX,velY
0,0,-156.31314086914062,0.0,0.0,0.0,0.0
0,0,-156.3125,0.0,0.0,0.0,0.0
0,0,-156.3129425048828,0.0,0.0,0.0,0.0
0,0,-156.3143310546875,0.0,0.0,0.0,0.0
-0.6185639500617981,-0.6625260710716248,-156.2999725341797,-4.2955829865402645e-05,-4.60087549355295e-05,-0.005154699583848317,-0.00552105059226354
-2.7136049270629883,-1.2932230234146118,-156.1320343017578,-0.00036026810606320695,-0.00027384217414591047,-0.0329227735598882,-0.02181895971298218
-2.7208850383758545,-1.6101986169815063,-155.9382781982422,-0.001286376135216819,-0.0008391180055008995,-0.07821018993854523,-0.0460141400496165
-1.62296462059021,-0.17026092112064362,-155.91220092773438,-0.0028915355271763275,-0.0017296633631404905,-0.11440893709659576,-0.060851302867134416
-1.2676420211791992,0,-155.7982940673828,-0.004999087717798022,-0.00275567541933722,-0.1384973257780075,-0.06227014387647311
-0.9827902913093567,-1.7004629373550415,-155.70130920410156,-0.007463656502465408,-0.003911598854594761,-0.1572509283820788,-0.07644066835443179
-0.8654482960700989,-0.7669469714164734,-155.6401824951172,-0.010212855210734739,-0.005356957904166646,-0.17265291661024093,-0.09700241759419442
-1.5679779052734375,-0.36279815435409546,-155.5546417236328,-0.013259391751554278,-0.007052119386692843,-0.19293146828810373,-0.10641696030894916
0,-0.1905328929424286,-155.57464599609375,-0.01658380357755555,-0.008864161159015366,-0.20599795083204905,-0.11102805236975354
-1.4013787508010864,-0.48448875546455383,-155.6342315673828,-0.020114420726895333,-0.010761505201872855,-0.21767610708872479,-0.11665323277314506
-1.9692177772521973,-0.8047405481338501,-155.5697021484375,-0.02397642504837778,-0.012795255560841828,-0.2457644114891688,-0.12739681030313177
-0.5755569934844971,-0.28809690475463867,-155.4842529296875,-0.028249219043387307,-0.014994427222344613,-0.2669708679119746,-0.1365037890772025
-0.510716438293457,-0.6952794194221497,-155.48382568359375,-0.03277416916357146,-0.017337780396143598,-0.2760231465101242,-0.14469859177867575
-0.9232884645462036,0.897419810295105,-155.4401092529297,-0.03747413861254851,-0.019735386065310907,-0.2879731873671214,-0.14301408852140113
-0.9840376973152161,0.33690860867500305,-155.37042236328125,-0.042406144941018686,-0.02203323695601689,-0.3038675720492999,-0.1327280183633169
-0.7606751322746277,-1.616873860359192,-155.3084716796875,-0.04759176508833965,-0.024334257071216905,-0.3184068456292153,-0.14339439546068514
-0.9729571342468262,-0.28343465924263,-155.2576904296875,-0.05301893697844612,-0.026856129531645116,-0.33285378118356074,-0.15923029979070033
-0.4404105842113495,0.09717274457216263,-155.29981994628906,-0.058664650534176174,-0.02952290271667557,-0.3446318455040455,-0.16078248241295423
-0.752734899520874,-0.885979175567627,-155.3258056640625,-0.06449137195116945,-0.03225738898126616,-0.3545747245351474,-0.16735586933791644
-0.10033059120178223,-1.0027499198913574,-155.36000061035156,-0.07046019135249987,-0.035177815212971635,-0.36168360362450286,-0.1830952784667413
-0.42130962014198303,0.10601558536291122,-155.31031799316406,-0.07652447642758489,-0.03829167640509291,-0.3660306053857009,-0.1905680645878117
-0.32495245337486267,0.13468118011951447,-155.28875732421875,-0.08267681027245191,-0.04145109576173127,-0.3722494559983413,-0.1885622582087915
-0.6381528973579407,-0.9380467534065247,-155.33499145507812,-0.08894785018844738,-0.04464958934113383,-0.3802753339211147,-0.19525697131951658
-1.1784571409225464,0.46318116784095764,-155.42234802246094,-0.09541192589534654,-0.0479368489732345,-0.3954137509067854,-0.19921418453256298
-0.5233284831047058,0.6084349751472473,-155.3912353515625,-0.10212033463435041,-0.051182667594403035,-0.40959529777367915,-0.19028405000766127
0.4917130768299103,0.4646318852901459,-155.33770751953125,-0.10894911844490304,-0.054279549895889234,-0.4098587594926358,-0.181341826170683
0.533876359462738,-0.19907380640506744,-155.46080017089844,-0.11570887628114887,-0.05728347213214471,-0.4013121808568637,-0.17912884217997402
-0.701992928981781,-0.6516127586364746,-155.5172119140625,-0.12240908739053542,-0.06032802829104994,-0.4027131522695224,-0.18621789688865353
-1.1819604635238647,-1.5169764757156372,-155.4103546142578,-0.12925180335839592,-0.06358225638046862,-0.41841276387373616,-0.2042894738415878
0.31935882568359375,-0.469535231590271,-155.28956604003906,-0.1362852523144749,-0.06712503314639133,-0.42560111085573843,-0.22084373806913704
0,-0.29443129897117615,-155.2057647705078,-0.1433564264658425,-0.07085881534549927,-0.42293978730837517,-0.22721012582381578
0.45607563853263855,0.403705894947052,-155.3049774169922,-0.15037375100163955,-0.07463806226228677,-0.41913915698726983,-0.22629950419068348
-1.1792709827423096,-0.2014547735452652,-155.35317993164062,-0.1574096255169975,-0.07839567544870081,-0.42516578485568374,-0.22461407817900192
-0.5315145254135132,0.4516317546367645,-155.2985382080078,-0.16461452648043637,-0.08212187001688616,-0.4394223307569823,-0.22252927000323944
0,-0.19573689997196198,-155.2367401123047,-0.17197514272398423,-0.08581292070758843,-0.44385161846876153,-0.22039681288103274
1.051580786705017,-0.21643126010894775,-155.1800079345703,-0.1792996432549424,-0.08951482371116681,-0.4350884452462197,-0.22383154754837367
-0.6073392033576965,-0.05784934014081955,-155.04380798339844,-0.18652026723242474,-0.09326439676754594,-0.4313864320516587,-0.22611721921712175
0.9911988377571106,-0.4370655417442322,-155.01077270507812,-0.19368338418089687,-0.0970673861768511,-0.42818760176499693,-0.23024150989949718
-0.6415481567382812,0,-155.09934997558594,-0.2007955629130205,-0.10093509644890829,-0.42527384608984004,-0.2338837227473658
-1.4517170190811157,-0.213830828666687,-155.10797119140625,-0.20802882598506084,-0.10484800785779957,-0.4427177225550017,-0.2356656463195882
-0.24308925867080688,2.169316053390503,-154.98214721679688,-0.2155251495747103,-0.10863997104474245,-0.4568411082029344,-0.2193699361135564
0.12809495627880096,-1.0547596216201782,-154.8236541748047,-0.2231471537602031,-0.11221873689442878,-0.4577993940562011,-0.2100819658488037
0.42835724353790283,-0.4564320743083954,-154.83084106445312,-0.23073850114726363,-0.11582504685968166,-0.4531622923910619,-0.22267522998154182
-0.3779963254928589,0.14727617800235748,-154.91299438476562,-0.23828770873447264,-0.11955776985217305,-0.4527426180740199,-0.22525152911742546
0.635958731174469,-0.544721782207489,-154.93272399902344,-0.24581550497975618,-0.12333956239331105,-0.45059293136000644,-0.2285635758191349
0.6807816028594971,-0.7417985796928406,-154.90313720703125,-0.25323394686811507,-0.1272382970154286,-0.43962009524305673,-0.23928457883497098
-0.7275038957595825,-0.06685566902160645,-154.92495727539062,-0.26056419305917294,-0.1312825298743944,-0.4400094476838908,-0.2460233642409247
0,0.3523266613483429,-154.99819946289062,-0.26794820495777666,-0.1353630949039427,-0.446071980148554,-0.24364443930486857
-1.6066851615905762,1.4815632104873657,-155.11050415039062,-0.27549431331869634,-0.13929648209570192,-0.45946102316180876,-0.22836202370623765
0.9058911204338074,0.5192071795463562,-155.0932159423828,-0.2832006632909179,-0.14296357343594243,-0.46530097350478183,-0.2116889371226233
0.0719301700592041,-0.5552745461463928,-155.10707092285156,-0.2908877752597134,-0.14649422706622225,-0.4571524627506734,-0.21198949851095694
-0.5892409086227417,-0.1561039686203003,-155.10215759277344,-0.2985429073290693,-0.15007678666048588,-0.4614633855720362,-0.21791765280067937
0.29663869738578796,-2.0660548210144043,-154.94583129882812,-0.3062542833532725,-0.1538630641231107,-0.46390173733234413,-0.2364356427143019
0.07774338126182556,0.31446728110313416,-154.78660583496094,-0.3139599802200166,-0.15792529619195403,-0.46078188667694736,-0.2510322055468958
0,-0.14632698893547058,-154.74151611328125,-0.3216342794853781,-0.162097489875224,-0.46013402516643215,-0.2496310364454986
0.4387235641479492,0.08509713411331177,-154.84487915039062,-0.3292727129906417,-0.16626225922256718,-0.45647799546519924,-0.25014128523568324
-0.05829277262091637,0.8589379191398621,-154.90478515625,-0.3368542607767612,-0.17036572265335265,-0.4533077388691406,-0.24227432645857347
-0.5928744673728943,0,-154.84695434570312,-0.34445460970513536,-0.17434397962772194,-0.4587341325357557,-0.23511651046574128
0.3861927390098572,-0.6214624643325806,-154.75735473632812,-0.3521145314785343,-0.17830574525106294,-0.46045648027211433,-0.24029536433517945
-0.7094109654426575,0.3732501268386841,-154.56036376953125,-0.35981125185990515,-0.1823279049578641,-0.4631499654923877,-0.24236380048096193
0.21138544380664825,-0.3632441759109497,-154.48426818847656,-0.35981125185990515,-0.1823279049578641,-0.4631499654923877,-0.24236380048096193
0.8361242413520813,-0.022009411826729774,-154.54122924804688,-0.35981125185990515,-0.1823279049578641,-0.4631499654923877,-0.24236380048096193
-0.9648944735527039,0.5639224052429199,-154.54151916503906,-0.35981125185990515,-0.1823279049578641,-0.4631499654923877,-0.24236380048096193
0.5000554919242859,1.5625308752059937,-154.51254272460938,-0.35981125185990515,-0.1823279049578641,-0.4631499654923877,-0.24236380048096193
1.456635594367981,0.5254693627357483,-154.7386932373047,-0.35981125185990515,-0.1823279049578641,-0.4631499654923877,-0.24236380048096193
1.6691421270370483,0.12850463390350342,-155.30917358398438,-0.35981125185990515,-0.1823279049578641,-0.4631499654923877,-0.24236380048096193
2.40059494972229,2.0852577686309814,-156.15545654296875,-0.35981125185990515,-0.1823279049578641,-0.4631499654923877,-0.24236380048096193
2.0292372703552246,1.1651610136032104,-157.20416259765625,-0.35981125185990515,-0.1823279049578641,-0.4631499654923877,-0.24236380048096193
1.3793355226516724,0.7158567905426025,-158.52149963378906,-0.35981125185990515,-0.1823279049578641,-0.4631499654923877,-0.24236380048096193
1.3699795007705688,0.33573341369628906,-160.05113220214844,-0.35981125185990515,-0.1823279049578641,-0.4631499654923877,-0.24236380048096193
0.6605896353721619,0.6362454891204834,-161.70965576171875,-0.35981125185990515,-0.1823279049578641,-0.4631499654923877,-0.24236380048096193
0.8159510493278503,1.5838589668273926,-163.4730682373047,-0.35981125185990515,-0.1823279049578641,-0.4631499654923877,-0.24236380048096193
0.8277080059051514,1.5758042335510254,-165.34396362304688,-0.35981125185990515,-0.1823279049578641,-0.4631499654923877,-0.24236380048096193
2.5356881618499756,0.18751001358032227,-167.30812072753906,-0.35981125185990515,-0.1823279049578641,-0.4631499654923877,-0.24236380048096193
0.17614760994911194,1.189848780632019,-169.36749267578125,-0.35981125185990515,-0.1823279049578641,-0.4631499654923877,-0.24236380048096193
0.8676815032958984,0.35328182578086853,-171.48902893066406,-0.35981125185990515,-0.1823279049578641,-0.4631499654923877,-0.24236380048096193
1.1224416494369507,0.35369673371315,-173.70179748535156,-0.35981125185990515,-0.1823279049578641,-0.4631499654923877,-0.24236380048096193
0.49891504645347595,1.350189208984375,-175.97596740722656,-0.35981125185990515,-0.1823279049578641,-0.4631499654923877,-0.24236380048096193
1.260961890220642,0.2721552848815918,-178.301513671875,-0.35981125185990515,-0.1823279049578641,-0.4631499654923877,-0.24236380048096193
1.3566268682479858,1.0673741102218628,179.25006103515625,-0.35981125185990515,-0.1823279049578641,-0.4631499654923877,-0.24236380048096193
0.7875610589981079,-0.2654796242713928,176.7051544189453,-0.35981125185990515,-0.1823279049578641,-0.4631499654923877,-0.24236380048096193
0.4488130807876587,1.0771178007125854,174.07359313964844,-0.35981125185990515,-0.1823279049578641,-0.4631499654923877,-0.24236380048096193
1.076708436012268,0.6452551484107971,171.4008331298828,-0.35981125185990515,-0.1823279049578641,-0.4631499654923877,-0.24236380048096193
0.9935559630393982,-0.1618180125951767,168.64251708984375,-0.35981125185990515,-0.1823279049578641,-0.4631499654923877,-0.24236380048096193
1.5152212381362915,0.05548896640539169,165.79620361328125,-0.35981125185990515,-0.1823279049578641,-0.4631499654923877,-0.24236380048096193
0.4240930676460266,0.03373854234814644,162.9355926513672,-0.35981125185990515,-0.1823279049578641,-0.4631499654923877,-0.24236380048096193
-0.024408673867583275,0.6359322667121887,160.12477111816406,-0.35981125185990515,-0.1823279049578641,-0.4631499654923877,-0.24236380048096193
1.338689923286438,0.23493659496307373,157.29217529296875,-0.35981125185990515,-0.1823279049578641,-0.4631499654923877,-0.24236380048096193
0.22456921637058258,0.7296655774116516,154.42575073242188,-0.35981125185990515,-0.1823279049578641,-0.4631499654923877,-0.24236380048096193
1.392203450202942,-0.0038558561354875565,151.4957733154297,-0.35981125185990515,-0.1823279049578641,-0.4631499654923877,-0.24236380048096193
0.5124525427818298,0.3055086135864258,148.57244873046875,-0.35981125185990515,-0.1823279049578641,-0.4631499654923877,-0.24236380048096193
0.8091426491737366,0.13763469457626343,145.59677124023438,-0.35981125185990515,-0.1823279049578641,-0.4631499654923877,-0.24236380048096193
1.2928543090820312,1.2176352739334106,142.6630859375,-0.35981125185990515,-0.1823279049578641,-0.4631499654923877,-0.24236380048096193
0.6753916144371033,1.6094688177108765,139.73280334472656,-0.35981125185990515,-0.1823279049578641,-0.4631499654923877,-0.24236380048096193
0.6788873672485352,0.1557474285364151,136.8341522216797,-0.35981125185990515,-0.1823279049578641,-0.4631499654923877,-0.24236380048096193
0.5447229743003845,-1.4300620555877686,133.90635681152344,-0.35981125185990515,-0.1823279049578641,-0.4631499654923877,-0.24236380048096193
0.7864303588867188,1.5331485271453857,131.01361083984375,-0.35981125185990515,-0.1823279049578641,-0.4631499654923877,-0.24236380048096193
0.7145392298698425,-1.0836124420166016,128.1005096435547,-0.35981125185990515,-0.1823279049578641,-0.4631499654923877,-0.24236380048096193
1.4139134883880615,0.07745340466499329,125.21064758300781,-0.35981125185990515,-0.1823279049578641,-0.4631499654923877,-0.24236380048096193
0.19975055754184723,-0.3419463038444519,122.29129791259766,-0.35981125185990515,-0.1823279049578641,-0.4631499654923877,-0.24236380048096193
-0.12560917437076569,1.0296306610107422,119.32777404785156,-0.35981125185990515,-0.1823279049578641,-0.4631499654923877,-0.24236380048096193
0.7747079133987427,-0.4567541778087616,116.29472351074219,-0.35981125185990515,-0.1823279049578641,-0.4631499654923877,-0.24236380048096193
0.9103169441223145,-0.9365333914756775,113.18174743652344,-0.35981125185990515,-0.1823279049578641,-0.4631499654923877,-0.24236380048096193
0.8646795153617859,0.4775792360305786,110.10115814208984,-0.35981125185990515,-0.1823279049578641,-0.4631499654923877,-0.24236380048096193
0.7069867849349976,-0.5993414521217346,107.02188110351562,-0.35981125185990515,-0.1823279049578641,-0.4631499654923877,-0.24236380048096193
-0.16379939019680023,-0.2305101752281189,103.95166778564453,-0.35981125185990515,-0.1823279049578641,-0.4631499654923877,-0.24236380048096193
0.8701618313789368,-0.750617504119873,101.06153106689453,-0.35981125185990515,-0.1823279049578641,-0.4631499654923877,-0.24236380048096193
0.03012409433722496,-0.2709466218948364,98.63356018066406,-0.35981125185990515,-0.1823279049578641,-0.4631499654923877,-0.24236380048096193
-0.6456193923950195,-0.7101327776908875,96.58621978759766,-0.35981125185990515,-0.1823279049578641,-0.4631499654923877,-0.24236380048096193
-0.33440521359443665,-0.8322149515151978,94.92269897460938,-0.35981125185990515,-0.1823279049578641,-0.4631499654923877,-0.24236380048096193
-1.7368741035461426,-0.027438554912805557,93.7153091430664,-0.35981125185990515,-0.1823279049578641,-0.4631499654923877,-0.24236380048096193
-1.718946933746338,-0.03578037768602371,92.8985824584961,-0.35981125185990515,-0.1823279049578641,-0.4631499654923877,-0.24236380048096193
-1.2001097202301025,0.34859952330589294,92.49811553955078,-0.35981125185990515,-0.1823279049578641,-0.4631499654923877,-0.24236380048096193
-0.9656237959861755,0.31522196531295776,92.48371887207031,-0.35981125185990515,-0.1823279049578641,-0.4631499654923877,-0.24236380048096193
-0.27808094024658203,0.6085800528526306,92.6688461303711,-0.35981125185990515,-0.1823279049578641,-0.4631499654923877,-0.24236380048096193
0.632563054561615,0.4821266531944275,92.91155242919922,-0.35981125185990515,-0.1823279049578641,-0.4631499654923877,-0.24236380048096193
1.0594193935394287,0.07373455911874771,92.9378890991211,-0.35981125185990515,-0.1823279049578641,-0.4631499654923877,-0.24236380048096193
-0.20319810509681702,-0.4850318431854248,92.87541961669922,-0.35981125185990515,-0.1823279049578641,-0.4631499654923877,-0.24236380048096193
0.3420168161392212,-0.5291610956192017,92.88732147216797,-0.35981125185990515,-0.1823279049578641,-0.4631499654923877,-0.24236380048096193
0.21409618854522705,-0.16923077404499054,92.90482330322266,-0.35981125185990515,-0.1823279049578641,-0.4631499654923877,-0.24236380048096193
0.04262197017669678,0.2274167686700821,92.91448974609375,-0.35981125185990515,-0.1823279049578641,-0.4631499654923877,-0.24236380048096193
0.42658352851867676,0.4552416503429413,92.90855407714844,-0.35981125185990515,-0.1823279049578641,-0.4631499654923877,-0.24236380048096193
0.01689351350069046,0.26552966237068176,92.91316986083984,-0.35981125185990515,-0.1823279049578641,-0.4631499654923877,-0.24236380048096193
0.32836124300956726,-0.1308262199163437,92.91439056396484,-0.35981125185990515,-0.1823279049578641,-0.4631499654923877,-0.24236380048096193
0.15726391971111298,-0.1284700483083725,92.90769958496094,-0.35981125185990515,-0.1823279049578641,-0.4631499654923877,-0.24236380048096193
0.2205003798007965,0.006900223903357983,92.91360473632812,-0.35981125185990515,-0.1823279049578641,-0.4631499654923877,-0.24236380048096193
0.20818838477134705,0.20212142169475555,92.91154479980469,-0.35981125185990515,-0.1823279049578641,-0.4631499654923877,-0.24236380048096193
0.181568905711174,0.1503106951713562,92.91385650634766,-0.35981125185990515,-0.1823279049578641,-0.4631499654923877,-0.24236380048096193
0.22509095072746277,-0.011464725248515606,92.91221618652344,-0.35981125185990515,-0.1823279049578641,-0.4631499654923877,-0.24236380048096193
0.20175202190876007,-0.0319804921746254,92.91376495361328,-0.35981125185990515,-0.1823279049578641,-0.4631499654923877,-0.24236380048096193
0.22838260233402252,0.06253612786531448,92.91390228271484,-0.35981125185990515,-0.1823279049578641,-0.4631499654923877,-0.24236380048096193
0.18558169901371002,0.14185239374637604,92.91592407226562,-0.35981125185990515,-0.1823279049578641,-0.4631499654923877,-0.24236380048096193
0.21718746423721313,0.0742419883608818,92.91636657714844,-0.35981125185990515,-0.1823279049578641,-0.4631499654923877,-0.24236380048096193
0.19948914647102356,0,92.91556549072266,-0.3675014820757013,-0.18636214593891062,-0.4596776604031524,-0.24174511724462125
0.3106328547000885,0.38879841566085815,92.89956665039062,-0.37512735127678365,-0.19036423133634453,-0.4554266437267265,-0.23850513044744742
0.3415846526622772,0.942334771156311,92.87399291992188,-0.38267250245644,-0.1942468770391619,-0.4499914978320401,-0.2274123538906377
-0.310840368270874,2.5177648067474365,92.83113861083984,-0.39017022573389126,-0.19779679824442922,-0.4497352954621118,-0.1985781907414398
-0.24840612709522247,2.95505952835083,92.96158599853516,-0.39770465055377135,-0.20072637751129363,-0.4543956829234959,-0.15297132128228758
-1.1844455003738403,2.040318012237549,93.09284210205078,-0.40537741552107054,-0.20292899831456868,-0.46633611315240475,-0.11134317511071776
1.3725886344909668,1.2931748628616333,93.22291564941406,-0.41313661857818584,-0.20455322533897652,-0.4647682537014287,-0.08356406781822458
0.24599553644657135,1.266513705253601,93.28939819335938,-0.420770354461339,-0.20576820365205004,-0.45128005227694923,-0.06223332975059762
-0.5541858673095703,1.1100445985794067,93.28312683105469,-0.4283130907722647,-0.2066403870434605,-0.45384830503414086,-0.04242867721865589
0.7171121835708618,2.1967382431030273,93.31932830810547,-0.43586591486198223,-0.20711789396643238,-0.45249058573196344,-0.01487215353796894
0.4086076319217682,1.1946877241134644,93.30481719970703,-0.4433292496369946,-0.2071302474998974,-0.4431095872695249,0.013389729522168492
0.10638342797756195,0.7937769889831543,93.16978454589844,-0.45067864615677145,-0.2067689975138962,-0.4388179951036971,0.029960268797973647
0.05044311285018921,0.9611743092536926,93.14288330078125,-0.4579813886764978,-0.20614778808266354,-0.43751110726346587,0.044584862949947374
0.05085219442844391,1.4176775217056274,93.14720153808594,-0.46526620606788344,-0.20523950898968113,-0.4366669797028106,0.06440862820794171
-0.46742746233940125,0.6417669653892517,93.08912658691406,-0.47257291790097966,-0.20402301487461164,-0.4401384402687352,0.08157066560039904
0.11366593837738037,0.13204865157604218,93.05474090576172,-0.4799331253446226,-0.20260976658564905,-0.44308645296841875,0.08801912907510982
0.33596158027648926,1.3036378622055054,93.0887222290039,-0.4872866754275231,-0.20104308064871795,-0.4393395569796365,0.09998318335662272
0,0.9350206255912781,93.1312255859375,-0.4945856707118867,-0.19922123186445503,-0.4365398771439991,0.11863867075492925
0.603578507900238,0.83174067735672,93.1587142944336,-0.5018194201567936,-0.19712122892805706,-0.43151005624483046,0.13336168161282924
0.3104398846626282,0.9178197383880615,93.17060852050781,-0.5089477809280573,-0.19477703698341653,-0.4238932363068066,0.14794135174403575
-0.8762858510017395,0.9971328973770142,93.18128967285156,-0.5160519630586109,-0.19217836496575447,-0.4286086193596325,0.16389929037541137
1.1091309785842896,-0.21884575486183167,93.19656372070312,-0.5231792702474115,-0.18939266240793406,-0.4266682432964446,0.1703850165630379
0.6264694333076477,0.7283759117126465,93.22257232666016,-0.5301698798293042,-0.18651752809321323,-0.4122049065306784,0.17463110120346134
0.6037845015525818,-0.7222113609313965,93.23626708984375,-0.5369545273037836,-0.18360658164601795,-0.4019527904068432,0.17468247245997176
-0.9362829327583313,1.2022593021392822,93.14836883544922,-0.5436768306460646,-0.18066187044243454,-0.4047236106668911,0.1786828719700375
0.7654711604118347,0.6745761632919312,93.12391662597656,-0.5504340860858147,-0.17755348678005675,-0.4061470421031119,0.1943231675152976
-0.7071886658668518,1.3761340379714966,93.2072525024414,-0.5571991560587454,-0.17417235689082516,-0.4056613546485704,0.21141241919249282
-0.1643017679452896,0.8149108290672302,93.40203857421875,-0.5640206988052363,-0.17049666067740593,-0.4129237749303382,0.22967112641781554
-0.46542635560035706,0.589552104473114,93.57313537597656,-0.5709464928404326,-0.1665712764222798,-0.4181715092932186,0.2413749841973184
0.49269530177116394,0.2873323857784271,93.73831939697266,-0.5779141243185022,-0.1624874652627237,-0.4179442680751286,0.24868235494941457
0.12761680781841278,0.2710643410682678,93.80332946777344,-0.5848367848899217,-0.15830398179642466,-0.4127750004952154,0.25333566100647037
1.0336414575576782,0.5767962336540222,93.79133605957031,-0.5916357252964131,-0.15402284157307222,-0.403097848283748,0.2604011657958228
-0.822547972202301,-0.07136920839548111,93.75450897216797,-0.5983393634979925,-0.14964772304416554,-0.4013387359057865,0.26461305767297727
-0.2015525847673416,-0.12027125805616379,93.72417449951172,-0.6050994605239897,-0.1452508137820084,-0.4098729072138669,0.2630160537858802
0.9012431502342224,0.3485512137413025,93.67591857910156,-0.6118820860216189,-0.1408513601108767,-0.4040421525016429,0.264918386749923
1.3979469537734985,0.855223536491394,93.67642974853516,-0.6184564559172012,-0.1363524581962785,-0.3848822349682452,0.27494984300186215
-1.055377721786499,1.0012131929397583,93.74114990234375,-0.6248473703033396,-0.13164104159559253,-0.3820274913683535,0.2904201490804551
-0.17467696964740753,0.3746432662010193,93.71582794189453,-0.6312999156241618,-0.1267051601901446,-0.39227794713030273,0.3018856195732949
2.0669445991516113,0.3106670379638672,93.65402221679688,-0.6377064739353957,-0.12162614220391157,-0.3765090502177677,0.30759653877466897
0.244924858212471,-0.8055108785629272,93.51771545410156,-0.6438210782822638,-0.11653389737993092,-0.35724347140640034,0.3034728401030101
-0.7986229062080383,-1.233790636062622,93.36463928222656,-0.6498135873923702,-0.1116176348722853,-0.3618576218063634,0.2864786608144639
0.11604931205511093,1.0023815631866455,93.37220001220703,-0.6558919486998479,-0.10685906059988286,-0.3675457350909711,0.28455025187383076
0.10877297073602676,0.19074903428554535,93.38614654541016,-0.662002098292837,-0.10203370011049455,-0.3656722160677116,0.2944930068527657
0.25580286979675293,0.25208064913749695,93.4041976928711,-0.6680713174605951,-0.0970947312682663,-0.3626340840632718,0.2981832542146244
0.9097514748573303,0.8435470461845398,93.46018981933594,-0.6740342775877153,-0.09204892510806964,-0.3529211311911544,0.3073134850089747
-0.5872178673744202,0.34500420093536377,93.45576477050781,-0.6798938982737148,-0.0868444954102034,-0.35023335112879683,0.31721807873497393
0,-0.3205314874649048,93.44147491455078,-0.6857718998110958,-0.08155582793729617,-0.355126833356917,0.3174220180138944
1.0456494092941284,-0.23098452389240265,93.46223449707031,-0.6916180658247323,-0.07630376069340886,-0.34641308827946593,0.3128260512525835
0.3799585998058319,-0.7175925970077515,93.44831085205078,-0.6972926167398692,-0.07115586658370608,-0.33453302153696624,0.3049212419117489
-0.5229371786117554,1.0708061456680298,93.3945541381836,-0.7028780961667913,-0.06604931716651997,-0.3357245096936823,0.30786468815058454
0.12286293506622314,1.058191180229187,93.39533233642578,-0.7085012875952655,-0.06077039199415626,-0.3390584617232284,0.32560633253306137
0.16161532700061798,-0.8270549178123474,93.65657806396484,-0.7141325065224536,-0.055327568655937395,-0.3366878095393381,0.3275324680532017
-0.31388556957244873,0.5866270065307617,93.95982360839844,-0.7197545443371768,-0.04988539057111192,-0.33795672822743666,0.3255289021258551
-0.07277633249759674,-0.27913936972618103,94.11627960205078,-0.7254140079952778,-0.04443855556090291,-0.34117891074468704,0.32809129909922663
-0.1622510403394699,0.8181372880935669,93.99821472167969,-0.7311166445196918,-0.03893293683158473,-0.3431374721849959,0.33258294841895486
0.1646684855222702,-1.1242133378982544,93.8660659790039,-0.7368354345113041,-0.033411142972505255,-0.34311732680847257,0.33003231467058247
-0.030771901831030846,1.0954852104187012,93.83992767333984,-0.7368354345113041,-0.033411142972505255,-0.34311732680847257,0.33003231467058247
1.0081688165664673,-1.0318787097930908,93.81790924072266,-0.7368354345113041,-0.033411142972505255,-0.34311732680847257,0.33003231467058247
1.4038712978363037,-2.100872755050659,93.6134262084961,-0.7368354345113041,-0.033411142972505255,-0.34311732680847257,0.33003231467058247
0.4010374844074249,-2.2419936656951904,93.14999389648438,-0.7368354345113041,-0.033411142972505255,-0.34311732680847257,0.33003231467058247
0.37349560856819153,-2.2894582748413086,92.42964172363281,-0.7368354345113041,-0.033411142972505255,-0.34311732680847257,0.33003231467058247
1.847493052482605,-1.187617301940918,91.52215576171875,-0.7368354345113041,-0.033411142972505255,-0.34311732680847257,0.33003231467058247
0.8107119798660278,-1.4950107336044312,90.3295669555664,-0.7368354345113041,-0.033411142972505255,-0.34311732680847257,0.33003231467058247
0.6272492408752441,-1.9514943361282349,88.91860961914062,-0.7368354345113041,-0.033411142972505255,-0.34311732680847257,0.33003231467058247
0.05074164271354675,-0.9279301166534424,87.41641998291016,-0.7368354345113041,-0.033411142972505255,-0.34311732680847257,0.33003231467058247
0.06312894821166992,-1.5167945623397827,85.83499145507812,-0.7368354345113041,-0.033411142972505255,-0.34311732680847257,0.33003231467058247
-0.28005996346473694,-1.6274139881134033,84.12199401855469,-0.7368354345113041,-0.033411142972505255,-0.34311732680847257,0.33003231467058247
1.7089699506759644,-1.2046784162521362,82.28108978271484,-0.7368354345113041,-0.033411142972505255,-0.34311732680847257,0.33003231467058247
-0.19422690570354462,-0.398121178150177,80.35033416748047,-0.7368354345113041,-0.033411142972505255,-0.34311732680847257,0.33003231467058247
0.20542168617248535,-1.3763660192489624,78.27654266357422,-0.7368354345113041,-0.033411142972505255,-0.34311732680847257,0.33003231467058247
0.4152147173881531,-1.5624467134475708,76.0778579711914,-0.7368354345113041,-0.033411142972505255,-0.34311732680847257,0.33003231467058247
0.9267675280570984,-1.6988526582717896,73.7823715209961,-0.7368354345113041,-0.033411142972505255,-0.34311732680847257,0.33003231467058247
-0.33483999967575073,-1.858202338218689,71.425537109375,-0.7368354345113041,-0.033411142972505255,-0.34311732680847257,0.33003231467058247
0.8826326727867126,-0.33849242329597473,68.94216918945312,-0.7368354345113041,-0.033411142972505255,-0.34311732680847257,0.33003231467058247
-0.6457937359809875,-0.27488651871681213,66.33390808105469,-0.7368354345113041,-0.033411142972505255,-0.34311732680847257,0.33003231467058247
1.047994613647461,-1.4571239948272705,63.650848388671875,-0.7368354345113041,-0.033411142972505255,-0.34311732680847257,0.33003231467058247
-0.023759087547659874,-0.5028221607208252,60.90011978149414,-0.7368354345113041,-0.033411142972505255,-0.34311732680847257,0.33003231467058247
0.705138087272644,-1.5432060956954956,58.11069107055664,-0.7368354345113041,-0.033411142972505255,-0.34311732680847257,0.33003231467058247
-0.22996416687965393,-0.7045703530311584,55.33513259887695,-0.7368354345113041,-0.033411142972505255,-0.34311732680847257,0.33003231467058247
0.631574273109436,-0.9226896166801453,52.55622482299805,-0.7368354345113041,-0.033411142972505255,-0.34311732680847257,0.33003231467058247
0.4643864631652832,-0.9314422011375427,49.7662353515625,-0.7368354345113041,-0.033411142972505255,-0.34311732680847257,0.33003231467058247
0.9908492565155029,-1.0060478448867798,46.95940017700195,-0.7368354345113041,-0.033411142972505255,-0.34311732680847257,0.33003231467058247
-0.8968006372451782,-0.8630114793777466,44.11262512207031,-0.7368354345113041,-0.033411142972505255,-0.34311732680847257,0.33003231467058247
1.4937138557434082,-1.3109629154205322,41.26470184326172,-0.7368354345113041,-0.033411142972505255,-0.34311732680847257,0.33003231467058247
-0.28772372007369995,-0.7488495111465454,38.352596282958984,-0.7368354345113041,-0.033411142972505255,-0.34311732680847257,0.33003231467058247
0.30705127120018005,-0.7721092700958252,35.43637466430664,-0.7368354345113041,-0.033411142972505255,-0.34311732680847257,0.33003231467058247
-0.7881879210472107,0.011288885027170181,32.481117248535156,-0.7368354345113041,-0.033411142972505255,-0.34311732680847257,0.33003231467058247
1.1054669618606567,-1.261752724647522,29.53622817993164,-0.7368354345113041,-0.033411142972505255,-0.34311732680847257,0.33003231467058247
-0.37820160388946533,-0.9664508104324341,26.54714584350586,-0.7368354345113041,-0.033411142972505255,-0.34311732680847257,0.33003231467058247
0.0966954454779625,-1.2272294759750366,23.5118408203125,-0.7368354345113041,-0.033411142972505255,-0.34311732680847257,0.33003231467058247
0.1956930160522461,-0.23760771751403809,20.45044708251953,-0.7368354345113041,-0.033411142972505255,-0.34311732680847257,0.33003231467058247
-1.2523324489593506,0.16400694847106934,17.34380531311035,-0.7368354345113041,-0.033411142972505255,-0.34311732680847257,0.33003231467058247
0.5970858335494995,-1.1679022312164307,14.196633338928223,-0.7368354345113041,-0.033411142972505255,-0.34311732680847257,0.33003231467058247
-0.17772552371025085,-0.452179491519928,11.06742000579834,-0.7368354345113041,-0.033411142972505255,-0.34311732680847257,0.33003231467058247
0.22836163640022278,-0.6063950061798096,8.36099910736084,-0.7368354345113041,-0.033411142972505255,-0.34311732680847257,0.33003231467058247
-0.17975682020187378,-0.11403647810220718,5.974447727203369,-0.7368354345113041,-0.033411142972505255,-0.34311732680847257,0.33003231467058247
0.42656755447387695,1.4521368741989136,3.9234859943389893,-0.7368354345113041,-0.033411142972505255,-0.34311732680847257,0.33003231467058247
-0.6699215173721313,0.9407548308372498,2.140547037124634,-0.7368354345113041,-0.033411142972505255,-0.34311732680847257,0.33003231467058247
0.8163014054298401,1.2111542224884033,0.7452281713485718,-0.7368354345113041,-0.033411142972505255,-0.34311732680847257,0.33003231467058247
0.9499498605728149,1.3515008687973022,-0.27519896626472473,-0.7368354345113041,-0.033411142972505255,-0.34311732680847257,0.33003231467058247
0.13433365523815155,1.7702854871749878,-0.8495145440101624,-0.7368354345113041,-0.033411142972505255,-0.34311732680847257,0.33003231467058247
0.20733177661895752,0.9364710450172424,-1.055930733680725,-0.7368354345113041,-0.033411142972505255,-0.34311732680847257,0.33003231467058247
0.002651826711371541,-0.017159856855869293,-1.0014094114303589,-0.7368354345113041,-0.033411142972505255,-0.34311732680847257,0.33003231467058247
-0.9492723941802979,-0.47566723823547363,-0.9849730730056763,-0.7368354345113041,-0.033411142972505255,-0.34311732680847257,0.33003231467058247
-0.5108190178871155,0.14302721619606018,-1.0240429639816284,-0.7368354345113041,-0.033411142972505255,-0.34311732680847257,0.33003231467058247
0.2363032102584839,-0.2933990955352783,-0.9845631122589111,-0.7368354345113041,-0.033411142972505255,-0.34311732680847257,0.33003231467058247
0.4053264856338501,-0.01679180935025215,-0.938520073890686,-0.7368354345113041,-0.033411142972505255,-0.34311732680847257,0.33003231467058247
0.8196803331375122,-0.1302923858165741,-0.9561790227890015,-0.7368354345113041,-0.033411142972505255,-0.34311732680847257,0.33003231467058247
0.4421369135379791,-0.19533532857894897,-0.9484099745750427,-0.7368354345113041,-0.033411142972505255,-0.34311732680847257,0.33003231467058247
0.02242082916200161,-0.09551490098237991,-0.9403282403945923,-0.7368354345113041,-0.033411142972505255,-0.34311732680847257,0.33003231467058247
-0.12277016043663025,-0.10909400880336761,-0.9570324420928955,-0.7368354345113041,-0.033411142972505255,-0.34311732680847257,0.33003231467058247
0.04849126189947128,-0.22862207889556885,-0.9483843445777893,-0.7368354345113041,-0.033411142972505255,-0.34311732680847257,0.33003231467058247
0.3050573468208313,-0.03567805141210556,-0.9480887651443481,-0.7368354345113041,-0.033411142972505255,-0.34311732680847257,0.33003231467058247
0.3511394262313843,-0.17594879865646362,-0.9534479975700378,-0.7368354345113041,-0.033411142972505255,-0.34311732680847257,0.33003231467058247
0.18212106823921204,-0.14158979058265686,-0.9480909705162048,-0.7368354345113041,-0.033411142972505255,-0.34311732680847257,0.33003231467058247
0.03346267342567444,-0.08876770734786987,-0.9489976167678833,-0.7368354345113041,-0.033411142972505255,-0.34311732680847257,0.33003231467058247
0.12279623001813889,-0.17207679152488708,-0.9535908699035645,-0.7368354345113041,-0.033411142972505255,-0.34311732680847257,0.33003231467058247
0.24011465907096863,-0.1371842473745346,-0.9498676657676697,-0.7368354345113041,-0.033411142972505255,-0.34311732680847257,0.33003231467058247
0.25270959734916687,-0.11285118758678436,-0.9517850279808044,-0.7368354345113041,-0.033411142972505255,-0.34311732680847257,0.33003231467058247
0.1416119486093521,-0.16263093054294586,-0.9505934119224548,-0.7368354345113041,-0.033411142972505255,-0.34311732680847257,0.33003231467058247
0.08364428579807281,-0.1183750331401825,-0.9498348236083984,-0.7425384138307225,-0.027930118697695763,-0.341240191521744,0.3276905983065564
0.20675112307071686,-0.14688731729984283,-0.953737199306488,-0.7482055840082468,-0.02248702972247816,-0.33882022978117077,0.3254800787195562
0.6186118125915527,-0.08816592395305634,-0.9617486000061035,-0.7537952709674008,-0.017078684885572563,-0.3319422053173185,0.32352130170911536
2.1614551544189453,-0.3571530878543854,-0.9044619798660278,-0.7591345808499804,-0.011717588121796157,-0.308774980592231,0.31981030994405335
3.0076324939727783,0,-0.9002697467803955,-0.7639218661064904,-0.0064122185871629345,-0.2656992501889667,0.31683403421193346
1.3197484016418457,0.7662655115127563,-0.8798465132713318,-0.7680496743807776,-0.0010784384675534353,-0.22963774272551146,0.32321958014120644
0.8773649334907532,-0.9082126021385193,-0.9726005792617798,-0.7717243927779297,0.004298697097950994,-0.2113284649327398,0.3220366877193251
1.3929972648620605,-0.8778171539306641,-1.0580682754516602,-0.7750888698185897,0.009541945382434941,-0.19240877994646635,0.30715310641874854
1.976225733757019,0.6583932042121887,-1.0966075658798218,-0.7780617089983489,0.014645926048461412,-0.1643319216246407,0.30532457350442793
1.1392414569854736,-0.13297055661678314,-1.158017873764038,-0.7805842224705136,0.019771156624062668,-0.13836969503511992,0.30970309556772296
1.1743041276931763,-0.2438390552997589,-1.2083383798599243,-0.7827297211666073,0.024906707549363846,-0.11909014849613117,0.30656301546841846
1.5394059419631958,0,-1.1932504177093506,-0.7845261048867056,0.029999157872775004,-0.0964758979156614,0.30453102334092047
0.7588424682617188,-0.3483857214450836,-1.2578091621398926,-0.7859744359345899,0.03505048147557888,-0.07732382783045377,0.30162780899554475
1.7899428606033325,-0.6194282174110413,-1.4205501079559326,-0.7870861674172597,0.04001040232419518,-0.05608395008991168,0.29356269283841036
2.2767844200134277,0.3727123737335205,-1.4114223718643188,-0.7877384883020487,0.04488598082680219,-0.022194556084772013,0.291506727474431
0.09383346140384674,0,-1.3004945516586304,-0.7879437713283631,0.049770309088440864,-0.0024394070729613915,0.29461266392221036
1.2315278053283691,0.5338916778564453,-1.2755095958709717,-0.7878923891360561,0.05471759596477329,0.008605270149807075,0.29906176123768075
0.8011079430580139,-0.21969299018383026,-1.2596107721328735,-0.787607812706588,0.059723778005378564,0.025543901386360267,0.3016800836349525
0.9403069615364075,-0.791503369808197,-1.1377168893814087,-0.7870611494262185,0.06468155742985054,0.040055692257980446,0.2932534473016856
1.479306697845459,0.19308844208717346,-1.0520007610321045,-0.7862255258289063,0.06952755829267579,0.060219139419496,0.28826665623734377
1.0299882888793945,-0.10919218510389328,-0.9529845118522644,-0.7850476169089476,0.07433782869225536,0.08112993097553645,0.28896579171220443
0.5933553576469421,0.3512133061885834,-0.9559581875801086,-0.7835827191950132,0.07917073224308965,0.09465779469658925,0.29098263438791017
0.9762691855430603,-0.5813683867454529,-0.9940702319145203,-0.7818960875790152,0.08400445982451615,0.1077379992231726,0.2890646753832696
0.5100501179695129,-0.10688076913356781,-0.9758176207542419,-0.7799972376403295,0.08877440933396794,0.12012399341911072,0.2833292657509444
0.6196171045303345,-0.2916707992553711,-0.8606648445129395,-0.7779167219706706,0.0934688865709011,0.12953788693994278,0.2800080026810366
-0.10970597714185715,-0.6235073804855347,-0.7128974199295044,-0.7757223466933807,0.09807213257532527,0.13378714633484676,0.27238151784986236
1.8590019941329956,0.8118737936019897,-0.6270073056221008,-0.7733710820310644,0.1026249055404005,0.14836461314310626,0.27395123795916615
0.06173911318182945,-1.09151291847229,-0.6275717616081238,-0.7707649536795602,0.10717134012271506,0.16437078903739646,0.2716209119185803
0.0522293895483017,0.7562025785446167,-0.46709808707237244,-0.7680175260495807,0.11167506988108532,0.16532052656014756,0.2688266590858497
0.500465989112854,0.17084378004074097,-0.23503175377845764,-0.7652238023167268,0.11621989241852902,0.16992632138232386,0.2765520454073943
0.43498748540878296,-0.6310781240463257,-0.08368518948554993,-0.762326734913513,0.1207971324569852,0.1777217670033375,0.2727167592073478
0.9937338829040527,-0.3307364284992218,-0.11156041920185089,-0.759265488701769,0.12527561909984755,0.18962777840594447,0.2647016379361349
0.9341670870780945,0,-0.18445396423339844,-0.7559711437165323,0.12966434525791512,0.20569361982246237,0.2619455010319747
0.22043415904045105,0.15662655234336853,-0.3274487853050232,-0.7524627360773997,0.13404098045236076,0.21531529687345025,0.2632507223015028
0.8364324569702148,-0.6984044909477234,-0.5867780447006226,-0.7488007542811748,0.13839086902276052,0.22412251867353913,0.2587359061464665
0.8344845771789551,-0.577335774898529,-0.7259628176689148,-0.7449493430647999,0.1426145410511845,0.23804682729144888,0.24810473726441443
-0.39300137758255005,0.48764267563819885,-0.761961817741394,-0.7409512373877482,0.1467433913181428,0.24172585395475227,0.24735729477057833
-0.19735614955425262,1.6718084812164307,-0.6164501309394836,-0.7369634702056646,0.15101597478354511,0.23680620789527893,0.26535272107770025
-0.17518387734889984,-0.36614301800727844,-0.48574310541152954,-0.7330425709092782,0.155529191347563,0.233701707671086,0.2762332666044432
-0.21978703141212463,-1.1424096822738647,-0.5317801833152771,-0.729174970983424,0.1600283185201175,0.2304102834314108,0.26366199410210034
0.11341147124767303,-0.5525368452072144,-0.7672712206840515,-0.7253421867845785,0.16430498046852188,0.22952382043004035,0.24953743970642467
1.1300734281539917,-0.44157490134239197,-0.8913154602050781,-0.7214304366593972,0.16839490225900747,0.2398861945917209,0.2412531751518446
1.3957921266555786,-0.40889397263526917,-0.8628309965133667,-0.7172569260860068,0.17235672817306755,0.26093507421513396,0.2341659345353641
-0.47573715448379517,0.10725177079439163,-0.8371850252151489,-0.7128441154760203,0.17623854637352912,0.2686021989832322,0.23165224952002347
1.1021199226379395,0.22857952117919922,-0.7675004005432129,-0.7083239133562891,0.180122738816361,0.2738220553845167,0.2344508436198034
-0.4803587794303894,-0.40711554884910583,-0.6080421805381775,-0.7037170345760466,0.1840178545414362,0.27900339824457965,0.23296304338922083
0.36084815859794617,-0.2718528211116791,-0.5041707158088684,-0.6990752772873059,0.1878534213500093,0.2780074764043093,0.22730497363954763
0.16469626128673553,0,-0.450053870677948,-0.6944053232069644,0.19162295890920233,0.28238701323668164,0.22503953346361696
0.13566209375858307,0.8440595269203186,-0.36129167675971985,-0.6896780147672527,0.19543223304518764,0.28488999952872596,0.23207336285461963
0.5396226644515991,0,-0.2593763470649719,-0.6848829533335649,0.199358737671023,0.2905173725138108,0.2391071922456223
-0.4621697664260864,-0.9239212870597839,-0.13923251628875732,-0.6800356184515274,0.20327969634129311,0.2911628133306901,0.23140784818679078
1.4052892923355103,0.9518824219703674,-0.08181525021791458,-0.6751174104844944,0.20713843555655287,0.29902214271326866,0.23164085764437897
-1.4109303951263428,-0.732872486114502,-0.02250848338007927,-0.6701340998491893,0.21101432554061583,0.29897513352334504,0.23346594044317784
-0.07748115807771683,-0.2344101369380951,0.1176372691988945,-0.6652545428705504,0.21483825214362348,0.2865717039133112,0.22540525191773952
0.5327630043029785,0,0.29471513628959656,-0.6604467310104518,0.21857872786052066,0.29036571929852173,0.22345183410992206
0.19175681471824646,0.4905489683151245,0.30573391914367676,-0.6555569884791556,0.22233699099626347,0.29640338445703196,0.22753974217921477
0.6337012648582458,0.49420541524887085,0.17857030034065247,-0.65055960859379,0.22619770575366455,0.30328220178683607,0.23574602870891473
0.9560100436210632,-0.26324009895324707,0.07131174206733704,-0.6453945086120317,0.23014284549022254,0.31652979602416365,0.23767073967804492
0.4719815254211426,-0.9144541621208191,-0.07535071671009064,-0.6400198459304455,0.23402224016117093,0.328429725766182,0.22785662083576103
0.5696374177932739,-1.4640029668807983,-0.2089005708694458,-0.6344736825188414,0.23765467987447517,0.3371098836263022,0.20803614476074755
-0.48254403471946716,1.0462226867675781,-0.2427861988544464,-0.6288491363068007,0.24109293643436866,0.3378356618185839,0.20455464242647073
0.5680985450744629,0.08305396139621735,-0.10140512138605118,-0.6232126006577163,0.24458060246426566,0.3385486160715422,0.21396528116116903
-0.44773244857788086,-0.3164675831794739,-0.027436379343271255,-0.6175617649664895,0.24813048120432799,0.3395516668756804,0.21202016764630857
-0.9233523607254028,-1.054552674293518,-0.16094492375850677,-0.6119977847414297,0.2515689409249975,0.32812596013148637,0.20059499883403364
1.4515726566314697,0,-0.3975003957748413,-0.6064923367742449,0.254838958080961,0.3325277959307036,0.19180705988158767
0.172825425863266,-0.23857948184013367,-0.5427141785621643,-0.600837401419671,0.2580191743927486,0.3460644466181597,0.1898188975329199
0.3319088816642761,0.07096150517463684,-0.4730431139469147,-0.5950346096491234,0.26117118254769545,0.3502705658475559,0.1884220810607074
0.29534396529197693,0,-0.34503138065338135,-0.5891532076595144,0.2643164784476777,0.35549767290552464,0.18901342693716272
-0.3148781359195709,0.1472914218902588,-0.24466007947921753,-0.5832296029840492,0.2674769308009283,0.3553348881502947,0.1902408554529149
-0.488530695438385,-0.6554109454154968,-0.18249087035655975,-0.5773631471281664,0.270612325647121,0.348639814555645,0.18600652609020457
0.33419960737228394,-0.17671483755111694,-0.24171319603919983,-0.5715632009889102,0.2736546479025851,0.3473537221550942,0.1790721445654828
-0.09507755935192108,0.8321410417556763,-0.2569100558757782,-0.5657573665885461,0.27668469935396844,0.3493464058885972,0.1845340296005208
-0.2644790709018707,0,-0.22306685149669647,-0.5599598957008372,0.27981805408632127,0.3463501006364823,0.1914685382818181
0.5576035976409912,-0.9301727414131165,-0.18120191991329193,-0.55416703815365,0.28294460106175345,0.348792805025975,0.1837170987700421
0.5941141843795776,-0.21276812255382538,-0.09717182070016861,-0.5482738443350212,0.28592718181458976,0.3583904532094797,0.1741925915703176
-0.7787933945655823,0.7447782754898071,0.015678079798817635,-0.542313495060015,0.2888673368236045,0.356851459791263,0.1786260095114508
0,0,0.175140842795372,-0.5364200536047833,0.2918961576957044,0.3503615148365498,0.18483249514053252
-0.08007413148880005,-0.606476902961731,0.4201950430870056,-0.5305862557277498,0.29493458282978535,0.3496942304074765,0.17977852094918476
0.4774424433708191,0.3273652195930481,0.49297600984573364,-0.5247304235326333,0.29791150875648226,0.3530056330064933,0.17745259025444574
0.6636942028999329,0.8094991445541382,0.4706558585166931,-0.5187677507154229,0.3009480008415666,0.36251510505874956,0.18692645995567228
-0.2993301451206207,-0.7037640810012817,0.35765865445137024,-0.5127005292382091,0.3040707845535745,0.3655514722069105,0.18780758548527943
1.1005316972732544,-0.39472559094429016,0.18017688393592834,-0.5127005292382091,0.3040707845535745,0.3655514722069105,0.18780758548527943
0.15129725635051727,-1.2040410041809082,0.06545448303222656,-0.5127005292382091,0.3040707845535745,0.3655514722069105,0.18780758548527943
0.26821812987327576,0.8016508221626282,0.1410984843969345,-0.5127005292382091,0.3040707845535745,0.3655514722069105,0.18780758548527943
-0.6537359356880188,0.5053460001945496,0.3081170916557312,-0.5127005292382091,0.3040707845535745,0.3655514722069105,0.18780758548527943
-0.1645989865064621,-0.9461694359779358,0.27943944931030273,-0.5127005292382091,0.3040707845535745,0.3655514722069105,0.18780758548527943
-3.555842876434326,-1.7033313512802124,-0.15560834109783173,-0.5127005292382091,0.3040707845535745,0.3655514722069105,0.18780758548527943
-1.6580125093460083,1.0962941646575928,-0.8535553216934204,-0.5127005292382091,0.3040707845535745,0.3655514722069105,0.18780758548527943
-0.7603967189788818,-0.4080493450164795,-1.7638523578643799,-0.5127005292382091,0.3040707845535745,0.3655514722069105,0.18780758548527943
-2.5185043811798096,-0.45734187960624695,-2.826737880706787,-0.5127005292382091,0.3040707845535745,0.3655514722069105,0.18780758548527943
-1.8494244813919067,-0.9869009852409363,-4.13539981842041,-0.5127005292382091,0.3040707845535745,0.3655514722069105,0.18780758548527943
-1.2706571817398071,-0.188973531126976,-5.630774021148682,-0.5127005292382091,0.3040707845535745,0.3655514722069105,0.18780758548527943
-1.6641035079956055,-0.10956113785505295,-7.279975891113281,-0.5127005292382091,0.3040707845535745,0.3655514722069105,0.18780758548527943
-1.0299232006072998,-1.1581306457519531,-9.03372573852539,-0.5127005292382091,0.3040707845535745,0.3655514722069105,0.18780758548527943
-0.8451566696166992,-1.7840874195098877,-10.86328411102295,-0.5127005292382091,0.3040707845535745,0.3655514722069105,0.18780758548527943
-2.22054123878479,0.609441876411438,-12.874713897705078,-0.5127005292382091,0.3040707845535745,0.3655514722069105,0.18780758548527943
-1.521821141242981,-0.5312294363975525,-15.007312774658203,-0.5127005292382091,0.3040707845535745,0.3655514722069105,0.18780758548527943
-1.0142077207565308,-0.048330508172512054,-17.24597930908203,-0.5127005292382091,0.3040707845535745,0.3655514722069105,0.18780758548527943
-1.1870101690292358,-0.6964909434318542,-19.59459114074707,-0.5127005292382091,0.3040707845535745,0.3655514722069105,0.18780758548527943
-1.0312649011611938,-0.5854771137237549,-22.020475387573242,-0.5127005292382091,0.3040707845535745,0.3655514722069105,0.18780758548527943
-1.1804156303405762,0.18145236372947693,-24.477977752685547,-0.5127005292382091,0.3040707845535745,0.3655514722069105,0.18780758548527943
-1.2686461210250854,-0.6668516993522644,-26.988920211791992,-0.5127005292382091,0.3040707845535745,0.3655514722069105,0.18780758548527943
-1.2111772298812866,-0.8529239296913147,-29.44632911682129,-0.5127005292382091,0.3040707845535745,0.3655514722069105,0.18780758548527943
-0.924784243106842,0.5531216263771057,-31.963680267333984,-0.5127005292382091,0.3040707845535745,0.3655514722069105,0.18780758548527943
-0.33436501026153564,-0.7700821757316589,-34.43440628051758,-0.5127005292382091,0.3040707845535745,0.3655514722069105,0.18780758548527943
-0.7009851932525635,-0.6009593605995178,-36.935760498046875,-0.5127005292382091,0.3040707845535745,0.3655514722069105,0.18780758548527943
-0.5701219439506531,-0.20774812996387482,-39.43360137939453,-0.5127005292382091,0.3040707845535745,0.3655514722069105,0.18780758548527943
-0.8125358819961548,0.3775057792663574,-41.90872573852539,-0.5127005292382091,0.3040707845535745,0.3655514722069105,0.18780758548527943
-0.30716028809547424,-0.3444196879863739,-44.44158935546875,-0.5127005292382091,0.3040707845535745,0.3655514722069105,0.18780758548527943
-1.1416771411895752,-1.2499312162399292,-46.907325744628906,-0.5127005292382091,0.3040707845535745,0.3655514722069105,0.18780758548527943
-1.11529541015625,1.404641032218933,-49.5213737487793,-0.5127005292382091,0.3040707845535745,0.3655514722069105,0.18780758548527943
0.29577717185020447,-1.3651926517486572,-51.93505096435547,-0.5127005292382091,0.3040707845535745,0.3655514722069105,0.18780758548527943
-1.0289207696914673,0.9153985381126404,-54.548526763916016,-0.5127005292382091,0.3040707845535745,0.3655514722069105,0.18780758548527943
-0.5168586373329163,-1.0815945863723755,-57.1522331237793,-0.5127005292382091,0.3040707845535745,0.3655514722069105,0.18780758548527943
-0.7528918385505676,2.0970373153686523,-59.953216552734375,-0.5127005292382091,0.3040707845535745,0.3655514722069105,0.18780758548527943
-0.5761871337890625,0.06380417197942734,-62.66500473022461,-0.5127005292382091,0.3040707845535745,0.3655514722069105,0.18780758548527943
-0.6261040568351746,-0.23294059932231903,-65.42060852050781,-0.5127005292382091,0.3040707845535745,0.3655514722069105,0.18780758548527943
-0.7635361552238464,-0.8831873536109924,-68.12665557861328,-0.5127005292382091,0.3040707845535745,0.3655514722069105,0.18780758548527943
-0.49427470564842224,0.3714810311794281,-70.8538818359375,-0.5127005292382091,0.3040707845535745,0.3655514722069105,0.18780758548527943
0.24875792860984802,0.9513859152793884,-73.59017944335938,-0.5127005292382091,0.3040707845535745,0.3655514722069105,0.18780758548527943
-1.2799029350280762,0.10837139934301376,-76.08866882324219,-0.5127005292382091,0.3040707845535745,0.3655514722069105,0.18780758548527943
0.6135510802268982,1.083577275276184,-78.25613403320312,-0.5127005292382091,0.3040707845535745,0.3655514722069105,0.18780758548527943
0.15271005034446716,-0.11683876067399979,-80.14214324951172,-0.5127005292382091,0.3040707845535745,0.3655514722069105,0.18780758548527943
0.33848240971565247,-0.7620916962623596,-81.7032470703125,-0.5127005292382091,0.3040707845535745,0.3655514722069105,0.18780758548527943
1.775286316871643,-0.4486997127532959,-82.96647644042969,-0.5127005292382091,0.3040707845535745,0.3655514722069105,0.18780758548527943
1.1363688707351685,-0.21906176209449768,-83.9286880493164,-0.5127005292382091,0.3040707845535745,0.3655514722069105,0.18780758548527943
0.957621693611145,-0.7805547118186951,-84.50181579589844,-0.5127005292382091,0.3040707845535745,0.3655514722069105,0.18780758548527943
1.6715881824493408,0.3599264621734619,-84.66968536376953,-0.5127005292382091,0.3040707845535745,0.3655514722069105,0.18780758548527943
-0.6382139921188354,0.460020512342453,-84.61165618896484,-0.5127005292382091,0.3040707845535745,0.3655514722069105,0.18780758548527943
-0.019598038867115974,0.7550777196884155,-84.6675796508789,-0.5127005292382091,0.3040707845535745,0.3655514722069105,0.18780758548527943
-0.08501538634300232,0.9228659272193909,-84.66139221191406,-0.5127005292382091,0.3040707845535745,0.3655514722069105,0.18780758548527943
-0.4004053771495819,0.25840523838996887,-84.64722442626953,-0.5127005292382091,0.3040707845535745,0.3655514722069105,0.18780758548527943
0.2251059114933014,-0.3907853066921234,-84.63482666015625,-0.5127005292382091,0.3040707845535745,0.3655514722069105,0.18780758548527943
-0.18334826827049255,-0.46654900908470154,-84.62771606445312,-0.5127005292382091,0.3040707845535745,0.3655514722069105,0.18780758548527943
0.03621178865432739,-0.5251749753952026,-84.62550354003906,-0.5127005292382091,0.3040707845535745,0.3655514722069105,0.18780758548527943
-0.08386307954788208,-0.2647698223590851,-84.62612915039062,-0.5127005292382091,0.3040707845535745,0.3655514722069105,0.18780758548527943
-0.09270714968442917,-0.004741666838526726,-84.63555908203125,-0.5127005292382091,0.3040707845535745,0.3655514722069105,0.18780758548527943
-0.13826772570610046,0.11498337984085083,-84.6334457397461,-0.5127005292382091,0.3040707845535745,0.3655514722069105,0.18780758548527943
-0.07745017111301422,0.012745972722768784,-84.63253021240234,-0.5127005292382091,0.3040707845535745,0.3655514722069105,0.18780758548527943
-0.06451477855443954,-0.20113424956798553,-84.62834167480469,-0.5127005292382091,0.3040707845535745,0.3655514722069105,0.18780758548527943
-0.06743815541267395,-0.2616859972476959,-84.6265869140625,-0.5127005292382091,0.3040707845535745,0.3655514722069105,0.18780758548527943
-0.05102783814072609,-0.16772902011871338,-84.62760162353516,-0.5127005292382091,0.3040707845535745,0.3655514722069105,0.18780758548527943
-0.11202479898929596,-0.0481041744351387,-84.62905883789062,-0.5127005292382091,0.3040707845535745,0.3655514722069105,0.18780758548527943
-0.0678495392203331,-0.057915106415748596,-84.62857055664062,-0.5127005292382091,0.3040707845535745,0.3655514722069105,0.18780758548527943
-0.08200352638959885,-0.13328558206558228,-84.6280746459961,-0.5127005292382091,0.3040707845535745,0.3655514722069105,0.18780758548527943
-0.05224023014307022,-0.17595495283603668,-84.62737274169922,-0.5127005292382091,0.3040707845535745,0.3655514722069105,0.18780758548527943
-0.0856691300868988,-0.1368984431028366,-84.62713623046875,-0.5127005292382091,0.3040707845535745,0.3655514722069105,0.18780758548527943
-0.0915147066116333,-0.056883253157138824,-84.62715911865234,-0.5066203091345313,0.30718745391608887,0.3640749402344227,0.18619273801644629
-0.08770091831684113,-0.0836763009428978,-84.62674713134766,-0.5005648389934665,0.31028090513621714,0.3625814766933521,0.18502140839894599
-0.05772263556718826,-0.21598191559314728,-84.6296157836914,-0.4945319132398192,0.313343785677829,0.36136961374431853,0.18252425659447893
0.06974021345376968,-0.8805593252182007,-84.6206283569336,-0.4885082517900607,0.31630970792379176,0.3614697602267067,0.17338641292105103
0.2929302752017975,-2.8466458320617676,-84.52581787109375,-0.4824585703356812,0.3189406477809982,0.36449201429883643,0.14232636994371797
0.3409174084663391,-3.7011733055114746,-84.4874267578125,-0.47633968623044587,0.32085804428439535,0.36977407832940423,0.08776121046394095
-0.06714361160993576,-1.696815848350525,-84.53504943847656,-0.4701577728557297,0.32194587076755393,0.3720555266365409,0.04277796751509095
-0.06144757941365242,-0.8669240474700928,-84.55023956298828,-0.4639657773556084,0.32248079940004015,0.370983933378011,0.02141346838325247
0.5443316698074341,-1.048658013343811,-84.48736572265625,-0.45774917818191974,0.32270466400776004,0.37500796746462584,0.005450284543136605
0.2357187718153,-1.8128721714019775,-84.49415588378906,-0.4514448752212855,0.3225967847095383,0.38150838781148194,-0.018395800329744968
-0.6559668779373169,-2.2771553993225098,-84.52228546142578,-0.4451155859873526,0.32200615834496443,0.37800632026046516,-0.0524793634191157
-0.14458036422729492,-0.811687171459198,-84.48352813720703,-0.43887107420816185,0.3209169993316749,0.37133509324242675,-0.07821971817562993
0.5487878918647766,-0.6699567437171936,-84.54850769042969,-0.4326540860202577,0.31951044542352713,0.37470348930607245,-0.09056675080209986
-0.5611168146133423,-1.0814300775527954,-84.5693359375,-0.42640988404034735,0.31787937549201506,0.37460074828316775,-0.10516164097934977
0.6901054978370667,-1.3265820741653442,-84.60576629638672,-0.4201575806881818,0.31595945840960105,0.3756756539766988,-0.12522840891033427
-0.6204000115394592,-1.0031236410140991,-84.57254028320312,-0.4138914791297995,0.31371053314198577,0.37625653302917883,-0.1446426232034963
0.3747471570968628,-1.517454981803894,-84.62889862060547,-0.40763759613864947,0.3111247825731207,0.37420942590882383,-0.16564744506031293
0.6482674479484558,0.217876136302948,-84.69082641601562,-0.4013297296925965,0.3082737432911779,0.38273454761753484,-0.1764772687728208
-0.24025943875312805,-0.40321803092956543,-84.69952392578125,-0.39492248667611013,0.3053195845133929,0.38613461436082924,-0.17802178456137593
0,-1.6522371768951416,-84.6598129272461,-0.38850359445334304,0.3022098148257155,0.38413245237121985,-0.19515057795991517
0,-0.9385256767272949,-84.55565643310547,-0.3821013869138227,0.29877739110599316,0.38413245237121985,-0.2167402684067688
-0.21849606931209564,-1.0151007175445557,-84.39982604980469,-0.3757143527124491,0.2950293847996115,0.38231165179361903,-0.23302048835903422
0.15667343139648438,-0.8976224064826965,-84.259521484375,-0.36934678508796626,0.29101288199890346,0.38179646314432225,-0.248959847725928
-0.3065778315067291,-0.243075430393219,-84.16756439208984,-0.36299392073001296,0.2867843360759105,0.3805472598100702,-0.25846566303322727
-0.6681890487670898,-0.6047843098640442,-84.07196807861328,-0.3567191585443086,0.2824176958767277,0.37242420247445507,-0.2655311608687045
0,-0.5285331606864929,-83.99860382080078,-0.35055849052034316,0.2779134739267944,0.366855960401396,-0.2749754731232923
0.7217679023742676,-0.8353205323219299,-84.07470703125,-0.344394101742655,0.27323583731272505,0.3728706929211816,-0.28634092056502913
0.754670262336731,-1.5352877378463745,-84.15332794189453,-0.3380770597658637,0.268298863062324,0.38517434429377323,-0.30609598948309835
1.3327839374542236,-0.5907815098762512,-84.08905029296875,-0.3315125252637598,0.2630496195398472,0.40256979595869785,-0.32381323321412026
-0.7531771659851074,0.057686079293489456,-84.00894165039062,-0.32476277819420724,0.25761571180359916,0.4073998523876072,-0.3282556951356433
-1.0139214992523193,-0.07034590095281601,-84.01411437988281,-0.3180954958394997,0.25214390439705653,0.3926740301772953,-0.32836119364947103
-1.209362506866455,-0.8741486072540283,-84.0362548828125,-0.31170532339252527,0.24660562793982876,0.3741466634596389,-0.3362319812178614
-0.41044455766677856,-0.3919529914855957,-84.01596069335938,-0.30558203226990166,0.24091383786406304,0.3606482712551953,-0.3467828278740249
1.0994548797607422,-0.1718103587627411,-84.05839538574219,-0.2995233798099474,0.2350949738335065,0.36639002393931164,-0.35148085579276106
1.3947365283966064,-0.117247074842453,-84.1661376953125,-0.2932436716742813,0.22921688613740457,0.3871749523406229,-0.353889667739471
-0.5962162613868713,-0.2999827265739441,-84.25373077392578,-0.28673530300561745,0.22328975071664836,0.3938292878990373,-0.3573665827512743
-0.4969984292984009,-1.0089051723480225,-84.283203125,-0.28024739922748665,0.21724274601114643,0.3847191654766601,-0.3682739819089574
-0.4544122517108917,0.6159173846244812,-84.29261016845703,-0.27390148332239017,0.2110775554940719,0.37679074313491595,-0.3715488801399869
0,-0.9425638318061829,-84.31877899169922,-0.2676531940098437,0.20486239037735116,0.3730039743706585,-0.37427093386650107
-1.1404082775115967,0.44500184059143066,-84.3515625,-0.2615156561229377,0.19858998856351956,0.36350057205806185,-0.37841728379329065
0.8337607979774475,-0.36682799458503723,-84.4206771850586,-0.25547860821915985,0.19228846257293739,0.3609451763952773,-0.3777658350765707
0.3707311451435089,0,-84.38835144042969,-0.24937921000541072,0.18596689115537057,0.37098260925461857,-0.380822735031446
-0.0754755511879921,-0.7017040252685547,-84.29947662353516,-0.24317566265714238,0.17957111612531393,0.3734430725375812,-0.3866702685753506
-0.1238514631986618,0,-84.22712707519531,-0.23696545360195956,0.17307788220285888,0.37178201408435907,-0.3925178021192552
0.5688167810440063,0.10024388879537582,-84.13298034667969,-0.23073818633125875,0.16654288021537098,0.3754900583997369,-0.39168243637929373
-0.4364548921585083,0.18182457983493805,-84.07948303222656,-0.22447082689342387,0.16003442769714873,0.3765930741404494,-0.38933186580737444
-0.6755600571632385,-0.2954745590686798,-84.005126953125,-0.21827149891811928,0.15353767090735682,0.36732628289610153,-0.39027894896765564
0.6158329248428345,-0.6478322744369507,-83.9033432006836,-0.2121535419207065,0.14696751433890246,0.3668285567934315,-0.39813983924686924
-0.909401535987854,0.15376728773117065,-83.77629089355469,-0.20606011934992327,0.1402975402829334,0.3643821517005564,-0.40225704746941743
-0.828460156917572,-0.2301628291606903,-83.67425537109375,-0.20010776832803243,0.1335879509125105,0.3498999709263445,-0.4028936769813301
0.2344294935464859,-0.8537725210189819,-83.66346740722656,-0.19431735427532745,0.12679778300794808,0.34494971539825214,-0.4119264715661607
0.7725159525871277,-0.22419840097427368,-83.74932861328125,-0.18849826558493063,0.11985748272337365,0.35334092744936557,-0.4209095625827712
1.9135913848876953,-0.38754817843437195,-83.72640991210938,-0.1824227148956721,0.11279984094564631,0.3757251552616558,-0.4260074507445099
-1.171617865562439,-0.5075054168701172,-83.56002044677734,-0.1761091030358025,0.10563756026689722,0.3819082679226996,-0.43346623070538065
-0.2145758420228958,0.4506087601184845,-83.41924285888672,-0.16984022868900647,0.09840917193175534,0.37035665369282184,-0.4339403695116443
-1.6631462574005127,-0.14277593791484833,-83.48176574707031,-0.16379801516214162,0.0911982097192143,0.3547089695309601,-0.43137509599328067
-0.3227006196975708,-0.26761701703071594,-83.623779296875,-0.16379801516214162,0.0911982097192143,0.3547089695309601,-0.43137509599328067
1.2929511070251465,0.3171263635158539,-83.7131576538086,-0.16379801516214162,0.0911982097192143,0.3547089695309601,-0.43137509599328067
0.44902220368385315,-0.5325487852096558,-83.81986236572266,-0.16379801516214162,0.0911982097192143,0.3547089695309601,-0.43137509599328067
-1.4374229907989502,1.9226537942886353,-83.99470520019531,-0.16379801516214162,0.0911982097192143,0.3547089695309601,-0.43137509599328067
-0.45743274688720703,0.8365383148193359,-84.3217544555664,-0.16379801516214162,0.0911982097192143,0.3547089695309601,-0.43137509599328067
-0.12535052001476288,2.0643768310546875,-85.00748443603516,-0.16379801516214162,0.0911982097192143,0.3547089695309601,-0.43137509599328067
-0.4144785404205322,2.722440004348755,-85.91095733642578,-0.16379801516214162,0.0911982097192143,0.3547089695309601,-0.43137509599328067
-0.7969926595687866,2.9197309017181396,-86.98379516601562,-0.16379801516214162,0.0911982097192143,0.3547089695309601,-0.43137509599328067
-0.5576408505439758,0.5044947862625122,-88.26231384277344,-0.16379801516214162,0.0911982097192143,0.3547089695309601,-0.43137509599328067
-0.19955280423164368,1.361609935760498,-89.71985626220703,-0.16379801516214162,0.0911982097192143,0.3547089695309601,-0.43137509599328067
-0.16233918070793152,1.4401986598968506,-91.3189926147461,-0.16379801516214162,0.0911982097192143,0.3547089695309601,-0.43137509599328067
-0.666915237903595,1.120618224143982,-92.99317932128906,-0.16379801516214162,0.0911982097192143,0.3547089695309601,-0.43137509599328067
-0.33352765440940857,2.252634286880493,-94.82492065429688,-0.16379801516214162,0.0911982097192143,0.3547089695309601,-0.43137509599328067
-1.1735457181930542,0.8169593811035156,-96.80538177490234,-0.16379801516214162,0.0911982097192143,0.3547089695309601,-0.43137509599328067
-0.5633248686790466,1.0152748823165894,-98.8714599609375,-0.16379801516214162,0.0911982097192143,0.3547089695309601,-0.43137509599328067
-0.15827041864395142,1.027239203453064,-101.10183715820312,-0.16379801516214162,0.0911982097192143,0.3547089695309601,-0.43137509599328067
-0.6926977634429932,1.5158103704452515,-103.474609375,-0.16379801516214162,0.0911982097192143,0.3547089695309601,-0.43137509599328067
-1.3511654138565063,0.6957291960716248,-105.89705657958984,-0.16379801516214162,0.0911982097192143,0.3547089695309601,-0.43137509599328067
0.2624669373035431,1.6963162422180176,-108.40840148925781,-0.16379801516214162,0.0911982097192143,0.3547089695309601,-0.43137509599328067
-1.282922387123108,0.7940284609794617,-110.97184753417969,-0.16379801516214162,0.0911982097192143,0.3547089695309601,-0.43137509599328067
0.39925459027290344,0.3418070673942566,-113.54682159423828,-0.16379801516214162,0.0911982097192143,0.3547089695309601,-0.43137509599328067
-1.2852873802185059,1.0616344213485718,-116.21047973632812,-0.16379801516214162,0.0911982097192143,0.3547089695309601,-0.43137509599328067
-0.31613659858703613,0.5970781445503235,-118.85531616210938,-0.16379801516214162,0.0911982097192143,0.3547089695309601,-0.43137509599328067
-0.18090826272964478,0.9717094898223877,-121.48545837402344,-0.16379801516214162,0.0911982097192143,0.3547089695309601,-0.43137509599328067
-0.15509337186813354,0.8358393311500549,-124.10790252685547,-0.16379801516214162,0.0911982097192143,0.3547089695309601,-0.43137509599328067
-0.9155616760253906,1.360518217086792,-126.71891784667969,-0.16379801516214162,0.0911982097192143,0.3547089695309601,-0.43137509599328067
-0.45650362968444824,0.3283136188983917,-129.3448028564453,-0.16379801516214162,0.0911982097192143,0.3547089695309601,-0.43137509599328067
0.20546552538871765,0.5293910503387451,-131.98770141601562,-0.16379801516214162,0.0911982097192143,0.3547089695309601,-0.43137509599328067
-0.6769797801971436,0.8380779027938843,-134.5712127685547,-0.16379801516214162,0.0911982097192143,0.3547089695309601,-0.43137509599328067
-0.39217081665992737,0.03896642476320267,-137.1092987060547,-0.16379801516214162,0.0911982097192143,0.3547089695309601,-0.43137509599328067
0.7689018249511719,1.4140121936798096,-139.66395568847656,-0.16379801516214162,0.0911982097192143,0.3547089695309601,-0.43137509599328067
-0.6757360696792603,-0.09548156708478928,-142.1477813720703,-0.16379801516214162,0.0911982097192143,0.3547089695309601,-0.43137509599328067
1.6149016618728638,0.6617551445960999,-144.71934509277344,-0.16379801516214162,0.0911982097192143,0.3547089695309601,-0.43137509599328067
-1.325926423072815,0.46254611015319824,-147.33409118652344,-0.16379801516214162,0.0911982097192143,0.3547089695309601,-0.43137509599328067
0.0013287567999213934,0.15427663922309875,-149.94810485839844,-0.16379801516214162,0.0911982097192143,0.3547089695309601,-0.43137509599328067
1.1617108583450317,0.5095979571342468,-152.6409454345703,-0.16379801516214162,0.0911982097192143,0.3547089695309601,-0.43137509599328067
-0.4997142255306244,0.09241682291030884,-155.461669921875,-0.16379801516214162,0.0911982097192143,0.3547089695309601,-0.43137509599328067
1.5227768421173096,0.3515056371688843,-158.40081787109375,-0.16379801516214162,0.0911982097192143,0.3547089695309601,-0.43137509599328067
0.05564137175679207,0.5463548302650452,-161.34033203125,-0.16379801516214162,0.0911982097192143,0.3547089695309601,-0.43137509599328067
-0.9751788377761841,0.8517729640007019,-164.2174835205078,-0.16379801516214162,0.0911982097192143,0.3547089695309601,-0.43137509599328067
0.34500089287757874,-0.1782028079032898,-166.72125244140625,-0.16379801516214162,0.0911982097192143,0.3547089695309601,-0.43137509599328067
-0.3058120608329773,0.2558426260948181,-168.7301788330078,-0.16379801516214162,0.0911982097192143,0.3547089695309601,-0.43137509599328067
-0.5353739261627197,0.10983570665121078,-170.23045349121094,-0.16379801516214162,0.0911982097192143,0.3547089695309601,-0.43137509599328067
-0.18243038654327393,-1.5158250331878662,-171.39834594726562,-0.16379801516214162,0.0911982097192143,0.3547089695309601,-0.43137509599328067
0.3552967309951782,-1.3401803970336914,-172.3247528076172,-0.16379801516214162,0.0911982097192143,0.3547089695309601,-0.43137509599328067
-0.2750142812728882,-0.8458822965621948,-172.8898468017578,-0.16379801516214162,0.0911982097192143,0.3547089695309601,-0.43137509599328067
0.23552051186561584,-1.3806982040405273,-173.03929138183594,-0.16379801516214162,0.0911982097192143,0.3547089695309601,-0.43137509599328067
1.216856837272644,0.3250870108604431,-173.00218200683594,-0.16379801516214162,0.0911982097192143,0.3547089695309601,-0.43137509599328067
1.2610549926757812,0.2655637860298157,-173.03567504882812,-0.16379801516214162,0.0911982097192143,0.3547089695309601,-0.43137509599328067
0.06619801372289658,0.15350092947483063,-172.9867401123047,-0.16379801516214162,0.0911982097192143,0.3547089695309601,-0.43137509599328067
-0.4320245683193207,0.09182644635438919,-172.95330810546875,-0.16379801516214162,0.0911982097192143,0.3547089695309601,-0.43137509599328067
-0.7638013958930969,-0.17670705914497375,-172.96624755859375,-0.16379801516214162,0.0911982097192143,0.3547089695309601,-0.43137509599328067
-0.7970461249351501,0.22826306521892548,-172.96986389160156,-0.16379801516214162,0.0911982097192143,0.3547089695309601,-0.43137509599328067
-0.2252161204814911,-0.04650246724486351,-172.94688415527344,-0.16379801516214162,0.0911982097192143,0.3547089695309601,-0.43137509599328067
0.18658339977264404,0.09228542447090149,-172.95309448242188,-0.16379801516214162,0.0911982097192143,0.3547089695309601,-0.43137509599328067
0.2578718364238739,0.21218273043632507,-172.9554901123047,-0.16379801516214162,0.0911982097192143,0.3547089695309601,-0.43137509599328067
0.09700675308704376,0.08169257640838623,-172.9454803466797,-0.16379801516214162,0.0911982097192143,0.3547089695309601,-0.43137509599328067
-0.2393849790096283,0.058918945491313934,-172.9518585205078,-0.16379801516214162,0.0911982097192143,0.3547089695309601,-0.43137509599328067
-0.3539957106113434,0.10341595858335495,-172.95094299316406,-0.16379801516214162,0.0911982097192143,0.3547089695309601,-0.43137509599328067
-0.2692667841911316,0.04490173980593681,-172.94480895996094,-0.16379801516214162,0.0911982097192143,0.3547089695309601,-0.43137509599328067
-0.023205259814858437,0.0848631039261818,-172.9442596435547,-0.16379801516214162,0.0911982097192143,0.3547089695309601,-0.43137509599328067
0.047868650406599045,0.13108541071414948,-172.94447326660156,-0.16379801516214162,0.0911982097192143,0.3547089695309601,-0.43137509599328067
-0.05765159800648689,0.09326532483100891,-172.94346618652344,-0.16379801516214162,0.0911982097192143,0.3547089695309601,-0.43137509599328067
-0.20438382029533386,0.073683962225914,-172.9462432861328,-0.16379801516214162,0.0911982097192143,0.3547089695309601,-0.43137509599328067
-0.2036798894405365,0.08889587223529816,-172.94337463378906,-0.16379801516214162,0.0911982097192143,0.3547089695309601,-0.43137509599328067
-0.10383664816617966,0.08626975119113922,-172.94149780273438,-0.16379801516214162,0.0911982097192143,0.3547089695309601,-0.43137509599328067
-0.03804482892155647,0.10159590095281601,-172.94200134277344,-0.16379801516214162,0.0911982097192143,0.3547089695309601,-0.43137509599328067
-0.08589568734169006,0.08807023614645004,-172.94146728515625,-0.15789480598358835,0.08402179604551374,0.35367613189543307,-0.4297945448507868
-0.185786634683609,0.07404522597789764,-172.94293212890625,-0.15201907061324954,0.07686981164953705,0.35141211254522225,-0.4284435826664172
-0.560170590877533,0,-172.94911193847656,-0.1462140046559376,0.06973422730134522,0.34519580233221275,-0.4278265391166014
-2.8067197799682617,-0.17482490837574005,-172.9410858154297,-0.14069455311504278,0.06259164436409799,0.31713838257516447,-0.4292834133530659
-2.981684684753418,-0.6848627328872681,-172.82662963867188,-0.13581088593772905,0.05537722027757029,0.2689016787024838,-0.43644747703025766
-0.6447707414627075,0.2888181805610657,-172.7598876953125,-0.13158102847506378,0.04807559256648779,0.23868121681734944,-0.4397478482996427
-0.6567057967185974,0,-172.88169860839844,-0.1276933885099261,0.04076651857958826,0.2278355789991719,-0.4373410301283005
-1.7597556114196777,0.20237509906291962,-172.9879150390625,-0.1240639386799495,0.03349155523710707,0.2076984005980196,-0.4356545709694428
-1.92490816116333,-0.36397334933280945,-173.02574157714844,-0.1208581780986341,0.0262194236202365,0.17699286915982787,-0.43700122305502526
-2.040172576904297,-0.07772604376077652,-173.07763671875,-0.11818364977500277,0.018905396333687912,0.14395052967593097,-0.4406820513308051
-0.27689996361732483,0.14079710841178894,-173.11634826660156,-0.11594538209571792,0.011565075413219703,0.1246415918382508,-0.44015645912538004
-1.5070264339447021,-1.247573733329773,-173.13565063476562,-0.11399190600935555,0.004152274939955175,0.1097755385252339,-0.44937959766636326
-1.343018651008606,0.08778095990419388,-173.09518432617188,-0.11236023349816786,-0.0034179261859720988,0.08602516281728967,-0.45904453744490975
-1.6341289281845093,0.30051130056381226,-173.0243377685547,-0.11113322714421255,-0.011041703736410316,0.06121559965734704,-0.4558087686076764
-0.20620301365852356,-0.8317863941192627,-172.92486572265625,-0.11024076797921809,-0.018675410650257386,0.04587950014198843,-0.4602360610539718
-2.2451319694519043,0.18209868669509888,-172.8114013671875,-0.10964634123956761,-0.02639112886972804,0.0254517086160682,-0.4656501252825065
-0.6878377795219421,0.4042700529098511,-172.7054901123047,-0.10942582455075632,-0.03411124423974169,0.0010102940412861465,-0.4607637191191319
-0.8911796808242798,-0.1592782437801361,-172.61314392089844,-0.1095186403070367,-0.04177362623831544,-0.01214818479493237,-0.4587221207097176
-1.3512743711471558,0.6333460807800293,-172.5379638671875,-0.10987683602945025,-0.04938607353924129,-0.03083530189469433,-0.45477155540138514
-0.5571126341819763,-0.083011694252491,-172.4905548095703,-0.11052328460306524,-0.056927381796866634,-0.04673852693910377,-0.45018543551365564
-0.6799495816230774,-0.20650529861450195,-172.48178100585938,-0.11138816715037009,-0.06445057773548776,-0.05704737873747922,-0.45259807712088057
-1.0282028913497925,0,-172.45298767089844,-0.11245757849550675,-0.07200821966657289,-0.0712819826789198,-0.45431895460933475
-0.5475245714187622,0,-172.37936401367188,-0.11375503705840323,-0.07958020224339514,-0.08441304486865776,-0.45431895460933475
-0.11212024092674255,-0.6839620471000671,-172.3015899658203,-0.11520772980707152,-0.08719968218459934,-0.08991008497153696,-0.46001863833516865
-0.8527823090553284,0,-172.23289489746094,-0.11677323834479034,-0.09491415685456743,-0.0979509395547209,-0.46571832206100255
-1.3914371728897095,0,-172.17930603027344,-0.11856160257917076,-0.10267612888891747,-0.11665276857092954,-0.46571832206100255
-1.309670090675354,-0.6073212623596191,-172.21115112304688,-0.12069339228198937,-0.11048027601093138,-0.13916199576730506,-0.47077933258066607
0.5992631912231445,0.5561819076538086,-172.3819580078125,-0.12306209269057308,-0.11833014956468595,-0.14508205326274015,-0.47120549386988114
-1.4693546295166016,1.3349250555038452,-172.6024932861328,-0.1255405499281669,-0.1260522475900758,-0.15233281524851897,-0.4554462691769007
0.17625728249549866,-0.09788243472576141,-172.7595672607422,-0.12816922860918536,-0.1335571130054701,-0.1631086264736948,-0.44513758067041664
-0.700859010219574,-0.25216251611709595,-172.78445434570312,-0.13092413639261669,-0.14100038136045223,-0.16748030753806212,-0.44805462192744044
-0.28343263268470764,0.24423226714134216,-172.7607879638672,-0.13378382843789718,-0.14846850910431067,-0.1756827378955978,-0.44812070733557174
-0.5786601901054382,-0.9284318089485168,-172.7462615966797,-0.1367717416266287,-0.1559847014169735,-0.18286684475218234,-0.4538223701839649
0,0.29119786620140076,-172.81381225585938,-0.1398597071079224,-0.16359265994384145,-0.18768901300306098,-0.45913265304019085
-0.5755906105041504,0.37281477451324463,-172.8714141845703,-0.14302782889481397,-0.17119875883890612,-0.1924856014239289,-0.4535992143675688
-0.23129811882972717,0,-172.9866943359375,-0.14629195619141652,-0.1787328558301355,-0.19920967416837787,-0.4504924245799584
-0.45476627349853516,0.14319436252117157,-172.89564514160156,-0.1496597607881345,-0.1862311188535153,-0.20492687743778007,-0.44929913822561535
-0.40056806802749634,0.9964903593063354,-172.75997924804688,-0.15313460696359238,-0.19364029305159308,-0.21205466361716366,-0.43980176554371947
-0.38642778992652893,-0.05223863571882248,-172.69342041015625,-0.15672350384734746,-0.20090474944096148,-0.2186129624334472,-0.4319330011804902
0.5351394414901733,-1.0482962131500244,-172.81517028808594,-0.160356726023213,-0.2081800588251411,-0.2173736986704168,-0.44110412492106393
-0.1641916036605835,-0.6060006618499756,-172.88502502441406,-0.16395386073453733,-0.21564667596792272,-0.21428246668850356,-0.4548899322127306
-0.8909479379653931,0,-172.82249450683594,-0.1675985087586253,-0.22327025821743005,-0.22307529620205338,-0.45993993772814706
-0.8245928287506104,0.5469454526901245,-172.7124481201172,-0.17143556513745925,-0.230897941523129,-0.23737146925802008,-0.45538205895572936
0.47602134943008423,0.41431304812431335,-172.62794494628906,-0.17541596264449016,-0.23842088844316794,-0.24027623158569114,-0.4473715714489424
-0.12037099897861481,0.6059780120849609,-172.55776977539062,-0.1793958685632481,-0.24580622775480246,-0.23731247866526223,-0.43886914594719845
-0.7740209102630615,-0.4577580690383911,-172.54212951660156,-0.18341318709025536,-0.25311042046898863,-0.24476574457560954,-0.4376339797551437
0.2259826511144638,0.3936830163002014,-172.54232788085938,-0.1875306743789564,-0.2604087697880145,-0.24933273006851453,-0.43816793852796193
0,-0.32438671588897705,-172.5043182373047,-0.19167052664043757,-0.26770675652039644,-0.24744954130922733,-0.4375904693578684
-0.3292887806892395,-0.3252640962600708,-172.3636474609375,-0.1958175529386948,-0.27504504564942683,-0.2501936144816377,-0.4430042261257771
-0.23067045211791992,-0.19211170077323914,-172.28573608398438,-0.2000263325712226,-0.28246437829298376,-0.2548599414216973,-0.4473156911010547
-0.7630447149276733,-0.577418863773346,-172.3159637451172,-0.20434300625929572,-0.2899730794338726,-0.2631409011470773,-0.45372844580560956
0.21891996264457703,0.9015470743179321,-172.5169677734375,-0.2087664743862111,-0.2975127112937894,-0.26767527408276975,-0.4510273773844047
-0.4447306990623474,1.709607481956482,-172.7379913330078,-0.2132434102553974,-0.3048485040726771,-0.2695570302195845,-0.4292677560821179
-0.48814553022384644,-0.1898449808359146,-172.7847900390625,-0.217800810497202,-0.31189742761146794,-0.27733099879696943,-0.41660306857277984
0.2923775911331177,-0.10383661836385727,-172.6319122314453,-0.217800810497202,-0.31189742761146794,-0.27733099879696943,-0.41660306857277984
-0.09270615875720978,-1.0174263715744019,-172.52700805664062,-0.217800810497202,-0.31189742761146794,-0.27733099879696943,-0.41660306857277984
0.19469097256660461,0.44071847200393677,-172.58978271484375,-0.217800810497202,-0.31189742761146794,-0.27733099879696943,-0.41660306857277984
2.1394784450531006,1.0694411993026733,-172.90687561035156,-0.217800810497202,-0.31189742761146794,-0.27733099879696943,-0.41660306857277984
1.7180982828140259,-0.8247464299201965,-173.52561950683594,-0.217800810497202,-0.31189742761146794,-0.27733099879696943,-0.41660306857277984
2.4507434368133545,0.6038253307342529,-174.3568878173828,-0.217800810497202,-0.31189742761146794,-0.27733099879696943,-0.41660306857277984
2.476327419281006,0.8903776407241821,-175.35862731933594,-0.217800810497202,-0.31189742761146794,-0.27733099879696943,-0.41660306857277984
2.111703395843506,0.8729607462882996,-176.65345764160156,-0.217800810497202,-0.31189742761146794,-0.27733099879696943,-0.41660306857277984
1.302214503288269,-0.216055765748024,-178.17837524414062,-0.217800810497202,-0.31189742761146794,-0.27733099879696943,-0.41660306857277984
0.7956717610359192,0.3553473651409149,-179.87374877929688,-0.217800810497202,-0.31189742761146794,-0.27733099879696943,-0.41660306857277984
0.8430991768836975,0.8388755321502686,178.2886505126953,-0.217800810497202,-0.31189742761146794,-0.27733099879696943,-0.41660306857277984
2.4395639896392822,0.17962856590747833,176.20899963378906,-0.217800810497202,-0.31189742761146794,-0.27733099879696943,-0.41660306857277984
1.4602986574172974,1.1169826984405518,174.04859924316406,-0.217800810497202,-0.31189742761146794,-0.27733099879696943,-0.41660306857277984
0.826137125492096,1.5124768018722534,171.85963439941406,-0.217800810497202,-0.31189742761146794,-0.27733099879696943,-0.41660306857277984
1.6855717897415161,0.24487201869487762,169.56654357910156,-0.217800810497202,-0.31189742761146794,-0.27733099879696943,-0.41660306857277984
0.8429274559020996,1.1654061079025269,167.22085571289062,-0.217800810497202,-0.31189742761146794,-0.27733099879696943,-0.41660306857277984
0.783705472946167,-0.46837514638900757,164.87899780273438,-0.217800810497202,-0.31189742761146794,-0.27733099879696943,-0.41660306857277984
1.2602626085281372,0.5192694664001465,162.517578125,-0.217800810497202,-0.31189742761146794,-0.27733099879696943,-0.41660306857277984
0.7256870865821838,0.479097455739975,160.1716766357422,-0.217800810497202,-0.31189742761146794,-0.27733099879696943,-0.41660306857277984
1.0232242345809937,0.503831148147583,157.9341583251953,-0.217800810497202,-0.31189742761146794,-0.27733099879696943,-0.41660306857277984
1.1095203161239624,0.15872889757156372,155.67691040039062,-0.217800810497202,-0.31189742761146794,-0.27733099879696943,-0.41660306857277984
-0.02444116584956646,0.297504186630249,153.48585510253906,-0.217800810497202,-0.31189742761146794,-0.27733099879696943,-0.41660306857277984
1.3658119440078735,0.3382406532764435,151.31727600097656,-0.217800810497202,-0.31189742761146794,-0.27733099879696943,-0.41660306857277984
-0.07553225010633469,0.4619064927101135,149.14894104003906,-0.217800810497202,-0.31189742761146794,-0.27733099879696943,-0.41660306857277984
0.46703094244003296,1.1709712743759155,147.03529357910156,-0.217800810497202,-0.31189742761146794,-0.27733099879696943,-0.41660306857277984
1.2003123760223389,-0.30454328656196594,144.79592895507812,-0.217800810497202,-0.31189742761146794,-0.27733099879696943,-0.41660306857277984
-0.10522930324077606,2.514958620071411,142.49679565429688,-0.217800810497202,-0.31189742761146794,-0.27733099879696943,-0.41660306857277984
1.0128124952316284,-1.200905442237854,140.17019653320312,-0.217800810497202,-0.31189742761146794,-0.27733099879696943,-0.41660306857277984
0.40254104137420654,1.2407540082931519,137.79464721679688,-0.217800810497202,-0.31189742761146794,-0.27733099879696943,-0.41660306857277984
1.9032725095748901,-0.8471153378486633,135.3217315673828,-0.217800810497202,-0.31189742761146794,-0.27733099879696943,-0.41660306857277984
0.8284024000167847,0.41518253087997437,132.76914978027344,-0.217800810497202,-0.31189742761146794,-0.27733099879696943,-0.41660306857277984
0.4889344871044159,-1.2241158485412598,130.05653381347656,-0.217800810497202,-0.31189742761146794,-0.27733099879696943,-0.41660306857277984
0.44610899686813354,0.9673106670379639,127.25227355957031,-0.217800810497202,-0.31189742761146794,-0.27733099879696943,-0.41660306857277984
0.07893116027116776,0.43588024377822876,124.40211486816406,-0.217800810497202,-0.31189742761146794,-0.27733099879696943,-0.41660306857277984
0.08881516754627228,-0.8601939678192139,121.46837615966797,-0.217800810497202,-0.31189742761146794,-0.27733099879696943,-0.41660306857277984
0.8297969102859497,-0.21935507655143738,118.55409240722656,-0.217800810497202,-0.31189742761146794,-0.27733099879696943,-0.41660306857277984
0.3923346996307373,-0.23359142243862152,115.69116973876953,-0.217800810497202,-0.31189742761146794,-0.27733099879696943,-0.41660306857277984
0.2871382236480713,-0.8337143063545227,112.7853012084961,-0.217800810497202,-0.31189742761146794,-0.27733099879696943,-0.41660306857277984
-0.6891303658485413,-0.065967857837677,109.83057403564453,-0.217800810497202,-0.31189742761146794,-0.27733099879696943,-0.41660306857277984
1.4677960872650146,1.2767988443374634,106.87622833251953,-0.217800810497202,-0.31189742761146794,-0.27733099879696943,-0.41660306857277984
0.9800671935081482,-1.3737400770187378,103.89168548583984,-0.217800810497202,-0.31189742761146794,-0.27733099879696943,-0.41660306857277984
0.6812504529953003,1.0490539073944092,101.26132202148438,-0.217800810497202,-0.31189742761146794,-0.27733099879696943,-0.41660306857277984
-0.6549670100212097,-1.008334994316101,99.01110076904297,-0.217800810497202,-0.31189742761146794,-0.27733099879696943,-0.41660306857277984
-1.3512237071990967,0.7993404269218445,97.21098327636719,-0.217800810497202,-0.31189742761146794,-0.27733099879696943,-0.41660306857277984
-0.34235119819641113,0.39657118916511536,95.76708221435547,-0.217800810497202,-0.31189742761146794,-0.27733099879696943,-0.41660306857277984
-1.9691075086593628,0.4503648579120636,94.763916015625,-0.217800810497202,-0.31189742761146794,-0.27733099879696943,-0.41660306857277984
-1.7213128805160522,-0.05130336806178093,94.15675354003906,-0.217800810497202,-0.31189742761146794,-0.27733099879696943,-0.41660306857277984
-1.114927887916565,-0.4665796160697937,93.92962646484375,-0.217800810497202,-0.31189742761146794,-0.27733099879696943,-0.41660306857277984
0.11850600689649582,-0.24740073084831238,94.01065063476562,-0.217800810497202,-0.31189742761146794,-0.27733099879696943,-0.41660306857277984
0.3896932005882263,-1.1123660802841187,94.01156616210938,-0.217800810497202,-0.31189742761146794,-0.27733099879696943,-0.41660306857277984
-0.1576869785785675,-0.30872437357902527,94.00577545166016,-0.217800810497202,-0.31189742761146794,-0.27733099879696943,-0.41660306857277984
0.4112381339073181,-0.11708354949951172,94.03146362304688,-0.217800810497202,-0.31189742761146794,-0.27733099879696943,-0.41660306857277984
-0.30431675910949707,0.27869945764541626,94.04750061035156,-0.217800810497202,-0.31189742761146794,-0.27733099879696943,-0.41660306857277984
0.18926717340946198,0.6136430501937866,94.0357894897461,-0.217800810497202,-0.31189742761146794,-0.27733099879696943,-0.41660306857277984
0.03135723993182182,0.6116023659706116,94.04293823242188,-0.217800810497202,-0.31189742761146794,-0.27733099879696943,-0.41660306857277984
0.09341096878051758,0.010364942252635956,94.0479507446289,-0.217800810497202,-0.31189742761146794,-0.27733099879696943,-0.41660306857277984
0.0789431557059288,-0.22441090643405914,94.031494140625,-0.217800810497202,-0.31189742761146794,-0.27733099879696943,-0.41660306857277984
0.1672714203596115,-0.13730812072753906,94.0423583984375,-0.217800810497202,-0.31189742761146794,-0.27733099879696943,-0.41660306857277984
0.0005263476632535458,0.16564860939979553,94.04410552978516,-0.217800810497202,-0.31189742761146794,-0.27733099879696943,-0.41660306857277984
0.07611806690692902,0.38014093041419983,94.0436019897461,-0.217800810497202,-0.31189742761146794,-0.27733099879696943,-0.41660306857277984
0.08661764115095139,0.23279426991939545,94.04395294189453,-0.217800810497202,-0.31189742761146794,-0.27733099879696943,-0.41660306857277984
0.05151977017521858,-0.03990288823843002,94.04308319091797,-0.217800810497202,-0.31189742761146794,-0.27733099879696943,-0.41660306857277984
0.11140000075101852,-0.059593770653009415,94.03887176513672,-0.217800810497202,-0.31189742761146794,-0.27733099879696943,-0.41660306857277984
0.07962552458047867,0.12098833173513412,94.04285430908203,-0.217800810497202,-0.31189742761146794,-0.27733099879696943,-0.41660306857277984
0.05599811300635338,0.2395738661289215,94.04219818115234,-0.217800810497202,-0.31189742761146794,-0.27733099879696943,-0.41660306857277984
0.07663366943597794,0.16389499604701996,94.04177856445312,-0.217800810497202,-0.31189742761146794,-0.27733099879696943,-0.41660306857277984
0.0740756243467331,0.013544663786888123,94.04164123535156,-0.217800810497202,-0.31189742761146794,-0.27733099879696943,-0.41660306857277984
0.07231968641281128,0,94.041259765625,-0.22241282746945987,-0.31883987148602905,-0.27611103787397323,-0.41649019637455575
0.06948167085647583,0.3239002525806427,94.03433990478516,-0.2270048307842157,-0.32575888168584244,-0.2749293598967292,-0.4137910276030504
-0.4069804549217224,1.2423537969589233,94.06997680664062,-0.2316104241980546,-0.3325466311702308,-0.27774184976393956,-0.40073891052355404
-0.6784670948982239,3.0093350410461426,94.17031860351562,-0.23631483332952444,-0.3389303568429841,-0.2867872460124391,-0.36530817020684514
1.3931597471237183,2.097219705581665,94.25017547607422,-0.24104498932888277,-0.34466420448902685,-0.28083147391055996,-0.3227535473182801
0.15258941054344177,1.1338598728179932,94.12483215332031,-0.2456181702025541,-0.3498190497513871,-0.2679502309300003,-0.2958278841649496
-1.2478159666061401,1.2529053688049316,94.07293701171875,-0.25016006478444736,-0.35458376690124577,-0.27707711889718944,-0.2759381738180919
0.4529515504837036,1.2557843923568726,94.18478393554688,-0.2548332156838535,-0.35900852189813326,-0.28370098903154306,-0.2550324258084102
-0.4409911036491394,1.3127899169921875,94.35404968261719,-0.25956073491446013,-0.3630806891123464,-0.28360131864125504,-0.233627639897168
-0.32400819659233093,2.083402395248413,94.45416259765625,-0.2643405485098867,-0.3667386364222825,-0.28997631280993397,-0.205326037295163
0.5192568302154541,0.84405916929245,94.5484390258789,-0.26915992812382844,-0.36995744110188655,-0.2883492408630746,-0.18093052425732248
-0.4931219816207886,1.114309549331665,94.58450317382812,-0.27396393388483836,-0.3728369520118264,-0.28813145045811905,-0.16461078493545486
0.5133283138275146,0.8864542841911316,94.5582046508789,-0.2787647215082927,-0.37544152316120044,-0.28796306435639635,-0.14793775298943157
-0.5036275386810303,1.3274166584014893,94.56446838378906,-0.28356343224929187,-0.37775341134001095,-0.287882224563509,-0.1294888284678264
0.6499305963516235,1.6330816745758057,94.54850769042969,-0.2883513093907899,-0.37970596831912906,-0.286663032416254,-0.10481800902634893
0.29017892479896545,0.4400084614753723,94.5157470703125,-0.2930637412143142,-0.38130897054345353,-0.27882878640666575,-0.08754225789258911
-0.8480080962181091,1.6616172790527344,94.47329711914062,-0.2977496257913294,-0.38262206194301557,-0.2834773628351586,-0.07002871005485489
0.5359389781951904,0.3855651021003723,94.43626403808594,-0.3024959199717781,-0.38364704166746083,-0.28607793881868293,-0.052968856878579
-0.1473829448223114,0.3285510540008545,94.41859436035156,-0.30723690256088304,-0.3844802645490412,-0.2828399718739089,-0.04701788891106878
-0.36486363410949707,1.6468124389648438,94.453857421875,-0.31198647477120733,-0.38512671801054754,-0.28710869336500733,-0.03055652646968796
-0.38829630613327026,0.2785181999206543,94.44117736816406,-0.3168239224342521,-0.38550228993511976,-0.2933850262003637,-0.014512104478975475
0.4690679907798767,1.5387375354766846,94.55062103271484,-0.32170806372615773,-0.3856179600281445,-0.29271192882830865,0.0006316933160023484
0,0.388886421918869,94.70318603515625,-0.3265540217072698,-0.385473569031392,-0.28880302890514303,0.016695226294298628
0.20568186044692993,0.9705542922019958,94.73699951171875,-0.3313531220598245,-0.3851009096546731,-0.2870890134014186,0.028023898911972503
0.4862841069698334,-0.06695947796106339,94.68355560302734,-0.3360898857576664,-0.384571095032929,-0.28132263033961225,0.035553855697313605
0,0.6919947266578674,94.66541290283203,-0.34074482653367594,-0.3839351255457032,-0.2772702627815303,0.04076248276978697
-1.0066694021224976,-0.17764057219028473,94.61856079101562,-0.3454359051774044,-0.3832200317943687,-0.2856591744658844,0.04504876739035016
0.20913666486740112,1.5432929992675781,94.53314208984375,-0.3502522756363674,-0.38237438203042695,-0.29230528060967687,0.05642920428266093
-0.7225239276885986,1.3083990812301636,94.6979751586914,-0.35515968220644684,-0.3812358611201258,-0.2965835077998535,0.08019330495347544
-0.3649495244026184,0.13523614406585693,94.87078857421875,-0.3601782596595063,-0.3797990535913668,-0.3056457865672803,0.09222359849760894
0.5646704435348511,0.42744195461273193,94.84821319580078,-0.3652584865940212,-0.3782229187484428,-0.3039814455745117,0.09691258265326386
0.6730610132217407,0.06778933107852936,94.78514099121094,-0.3702388904468772,-0.37657331797604876,-0.2936670167682067,0.10103951003402437
-0.6597157716751099,0.6417768597602844,94.81299591064453,-0.37513241397346214,-0.374840050712229,-0.2935558064219848,0.10695256162434781
0.325168251991272,-0.06775658577680588,94.85394287109375,-0.3800482432138066,-0.3730176454994632,-0.29634370241935015,0.11173606390754347
0.3662741780281067,0.9409362077713013,94.89637756347656,-0.38493928808537775,-0.3710947402939212,-0.29058168216918867,0.1190125607574976
-0.2928629517555237,0,94.83440399169922,-0.3897772181197064,-0.36904585482242325,-0.28996992195025045,0.12685369582225844
0.212641641497612,-0.7915213704109192,94.7312240600586,-0.39461562107653403,-0.36698659332055306,-0.2906384328690664,0.12025768440216746
-0.06299209594726562,0.9636933207511902,94.7737808227539,-0.39944920262813305,-0.3649703421950766,-0.2893913533228135,0.12169245065500305
-0.09181313216686249,0.3724524974822998,94.86177062988281,-0.4042831422132434,-0.36284934678011593,-0.29068139689043127,0.13282699914028212
0.486285001039505,0.14557436108589172,95.04467010498047,-0.40910043828163445,-0.36059958937371067,-0.28739413131649255,0.1371438896283504
0.46811968088150024,0.29066935181617737,95.20207977294922,-0.4138240623673315,-0.35828356317761995,-0.2794407589671508,0.1407792539025343
-0.429486483335495,0.5643390417098999,95.23644256591797,-0.41847872548917664,-0.3558778666963606,-0.27911881565426744,0.14790432384858493
0.6009678840637207,-0.06832447648048401,95.12857055664062,-0.423118797319475,-0.35337834917629884,-0.2776898039815322,0.15203777855883005
0.22442267835140228,0.9041288495063782,95.01892852783203,-0.4276896419301106,-0.35078634422996935,-0.2708115492947395,0.1590028150007125
-0.6959831714630127,0.3654780387878418,95.06658935546875,-0.43223591500815567,-0.34804813016827035,-0.2747412200706696,0.16958287240316433
0.15373897552490234,0.23791386187076569,95.1874008178711,-0.43685259118960695,-0.3451798467462274,-0.2792599217034872,0.17461113824198607
0.4231022000312805,-0.34961625933647156,95.29705810546875,-0.4414668648030292,-0.3422774182197961,-0.2744529119071857,0.17368028492977186
-0.36142778396606445,0,95.41580200195312,-0.44603679705592225,-0.3394070257111983,-0.27393895843997557,0.17076681610196792
0.6329760551452637,0.45610311627388,95.43630981445312,-0.4505835888444233,-0.33652923828197984,-0.2716760561801489,0.17456767540425025
0.2775229513645172,-0.4745769500732422,95.32974243164062,-0.45504829401641816,-0.3336210599303673,-0.26408856445923407,0.17441372678925557
-0.599484384059906,-0.19349387288093567,95.20244598388672,-0.4594721285235648,-0.3307605582910293,-0.2667715763983623,0.1688464699313041
-1.0888304710388184,0.26515915989875793,95.14957427978516,-0.46403556555069714,-0.32794147370279797,-0.28084086685751836,0.1694436806564526
0.43397584557533264,1.6718695163726807,95.20824432373047,-0.4687617226806463,-0.32498289647822715,-0.28629798873638074,0.1855855862920479
-1.0020475387573242,0.2675766050815582,95.48055267333984,-0.47357280524939027,-0.32175511961492537,-0.2910319195128973,0.20174763730416656
0.6647228598594666,-0.20583310723304749,95.57109832763672,-0.47844676256619534,-0.31838837125028313,-0.2938429585037128,0.20226216645290415
1.027205228805542,-0.22360281646251678,95.52823638916016,-0.4832266502017666,-0.31504715708188025,-0.2797435577648377,0.19868353375544112
1.0981366634368896,-0.7718894481658936,95.42253112792969,-0.4877414496442193,-0.3118048962598888,-0.26203237532948415,0.1903877648835377
-0.8648218512535095,0.778995931148529,95.36601257324219,-0.49209245348219793,-0.30863127333940044,-0.26008808522795596,0.19044698557505965
-0.9204668402671814,0.6377785205841064,95.30536651611328,-0.49655123328401946,-0.3053587697984458,-0.2749654909906284,0.20225343933949827
0,-1.6065753698349,95.21940612792969,-0.5011979127755485,-0.30205515670176325,-0.2826360479928549,0.19418013226240832
0.9423539638519287,1.026667594909668,95.24913787841797,-0.5058430723279397,-0.29885909253731513,-0.2747830982940888,0.18934756747136472
0.10174646228551865,-0.0862007588148117,95.28864288330078,-0.5103502836588039,-0.2956379895491747,-0.2660822614096101,0.19718479110548853
0.40318384766578674,0.2807037830352783,95.35091400146484,-0.514749923410773,-0.29233806920962346,-0.26187450882668256,0.19880564964065908
0.679238498210907,-0.28453484177589417,95.43582153320312,-0.5190393303394207,-0.28902490776135836,-0.25285432261104346,0.19877372415115396
-1.1105215549468994,0.6154361367225647,95.48530578613281,-0.5232835192618781,-0.28568903310224564,-0.25644834808384337,0.2015312349423762
0.21293915808200836,-0.24059921503067017,95.38819122314453,-0.5276199905075022,-0.2823041488447552,-0.2639282013910508,0.20465487595647533
0.3391490876674652,0.7769752740859985,95.22846221923828,-0.5319804544025093,-0.2788559859080462,-0.25932746600980516,0.20912467644860305
-0.06549062579870224,0,95.20071411132812,-0.5362835747761541,-0.27531661801764684,-0.2570469788275655,0.2155994703993197
-0.08914095163345337,0.164873868227005,95.28346252441406,-0.5405784293939352,-0.2717118439368091,-0.2583355753061668,0.21697341930121142
0.8148212432861328,0.40692514181137085,95.46775817871094,-0.5448336278510065,-0.2680559120172029,-0.2522882395423945,0.22173841105153122
-0.2559742033481598,0,95.71903991699219,-0.5489996230211619,-0.2643320131426072,-0.24763118087624472,0.2251294538999593
0,-0.37930041551589966,95.66656494140625,-0.553144585355443,-0.2606061958842409,-0.2497642992374794,0.2219686171039935
0.6441354751586914,-0.4387733042240143,95.52330780029297,-0.5572625920458483,-0.2569635296074896,-0.24439650361115697,0.21515133610616088
-0.4166001081466675,0.17404136061668396,95.40455627441406,-0.5613200660388806,-0.2533960581684707,-0.24250037555272344,0.2129452365760998
-0.8158923983573914,0.11424637585878372,95.42108917236328,-0.5654473287221554,-0.2498269509105027,-0.2527711464402573,0.21534763438006202
-0.1499495506286621,1.1025867462158203,95.64045715332031,-0.5697272535203949,-0.24615332137069093,-0.26081982934847436,0.2254879103973504
-0.3613828718662262,-0.29447537660598755,95.92186737060547,-0.5741097598722094,-0.2423390706856233,-0.2650809328692651,0.23222217181076565
0.27101945877075195,-0.34643658995628357,95.96794128417969,-0.578534050657051,-0.23851320893089958,-0.2658339613117274,0.22688123875608007
0.07018731534481049,0.054032668471336365,95.89318084716797,-0.582940921764044,-0.23475216077951247,-0.262990571527431,0.22444453941037218
0.6139041781425476,0.26797959208488464,95.82766723632812,-0.5872765916024535,-0.23098905649346765,-0.257289809081703,0.22712797491500736
-0.1092199832201004,0.75749671459198,95.87727355957031,-0.5915297075736122,-0.2271323766124761,-0.25308410745734927,0.23567361080398122
-2.029672145843506,-0.3977712392807007,95.87060546875,-0.5958963102068642,-0.2231795021632909,-0.27090820853287934,0.23867132309824188
1.2983038425445557,0.07144814729690552,95.77760314941406,-0.6004622364812524,-0.21922430810415242,-0.27700294439370393,0.23595196399837692
1.5904232263565063,0.4506295323371887,95.78777313232422,-0.604878346174696,-0.2152555199764271,-0.25293021881952843,0.24030261132866104
0.30751171708106995,-0.36395272612571716,95.83604431152344,-0.6089620487839494,-0.21124445723162918,-0.23711409429088195,0.24102491804708998
0.20398791134357452,0.21240602433681488,95.93489837646484,-0.6089620487839494,-0.21124445723162918,-0.23711409429088195,0.24102491804708998
0.2506141662597656,-0.11883876472711563,96.00619506835938,-0.6089620487839494,-0.21124445723162918,-0.23711409429088195,0.24102491804708998
-0.19822688400745392,-2.0297131538391113,95.7849349975586,-0.6089620487839494,-0.21124445723162918,-0.23711409429088195,0.24102491804708998
0.22669821977615356,-2.6985723972320557,95.15911102294922,-0.6089620487839494,-0.21124445723162918,-0.23711409429088195,0.24102491804708998
1.1827830076217651,-2.3023321628570557,94.35663604736328,-0.6089620487839494,-0.21124445723162918,-0.23711409429088195,0.24102491804708998
0.29604774713516235,-1.446563482284546,93.4059829711914,-0.6089620487839494,-0.21124445723162918,-0.23711409429088195,0.24102491804708998
0.6756223440170288,-2.227888345718384,92.29975128173828,-0.6089620487839494,-0.21124445723162918,-0.23711409429088195,0.24102491804708998
0.7073059678077698,-0.43695539236068726,90.94660949707031,-0.6089620487839494,-0.21124445723162918,-0.23711409429088195,0.24102491804708998
0.9194111227989197,-1.4707353115081787,89.38182067871094,-0.6089620487839494,-0.21124445723162918,-0.23711409429088195,0.24102491804708998
0.6484254598617554,-2.296480894088745,87.71963500976562,-0.6089620487839494,-0.21124445723162918,-0.23711409429088195,0.24102491804708998
-0.07966308295726776,-1.2243927717208862,85.93045043945312,-0.6089620487839494,-0.21124445723162918,-0.23711409429088195,0.24102491804708998
1.0273463726043701,-0.597441554069519,84.0433578491211,-0.6089620487839494,-0.21124445723162918,-0.23711409429088195,0.24102491804708998
-0.18878206610679626,-0.014152484945952892,82.04949188232422,-0.6089620487839494,-0.21124445723162918,-0.23711409429088195,0.24102491804708998
0.4940290153026581,-2.610630989074707,79.93095397949219,-0.6089620487839494,-0.21124445723162918,-0.23711409429088195,0.24102491804708998
1.4214366674423218,-0.2316192090511322,77.73214721679688,-0.6089620487839494,-0.21124445723162918,-0.23711409429088195,0.24102491804708998
-0.6355352997779846,-2.656695604324341,75.44927215576172,-0.6089620487839494,-0.21124445723162918,-0.23711409429088195,0.24102491804708998
0.386871337890625,-1.1500476598739624,73.15581512451172,-0.6089620487839494,-0.21124445723162918,-0.23711409429088195,0.24102491804708998
-0.34599360823631287,-0.8860606551170349,70.85627746582031,-0.6089620487839494,-0.21124445723162918,-0.23711409429088195,0.24102491804708998
1.2104415893554688,-0.3496389091014862,68.61505889892578,-0.6089620487839494,-0.21124445723162918,-0.23711409429088195,0.24102491804708998
0.7231952548027039,-0.3169604241847992,66.44518280029297,-0.6089620487839494,-0.21124445723162918,-0.23711409429088195,0.24102491804708998
-2.4932727813720703,-2.124174118041992,64.14735412597656,-0.6089620487839494,-0.21124445723162918,-0.23711409429088195,0.24102491804708998
1.7150038480758667,0.9297990798950195,61.9420166015625,-0.6089620487839494,-0.21124445723162918,-0.23711409429088195,0.24102491804708998
-0.30542856454849243,-2.121084213256836,59.561073303222656,-0.6089620487839494,-0.21124445723162918,-0.23711409429088195,0.24102491804708998
1.323520541191101,-0.5352990627288818,57.013275146484375,-0.6089620487839494,-0.21124445723162918,-0.23711409429088195,0.24102491804708998
-0.8222870826721191,-0.5678240060806274,54.367698669433594,-0.6089620487839494,-0.21124445723162918,-0.23711409429088195,0.24102491804708998
-0.2885661721229553,-0.9451556205749512,51.693058013916016,-0.6089620487839494,-0.21124445723162918,-0.23711409429088195,0.24102491804708998
-0.8925888538360596,-1.090443730354309,48.93891143798828,-0.6089620487839494,-0.21124445723162918,-0.23711409429088195,0.24102491804708998
1.0912901163101196,-1.5343952178955078,46.15665054321289,-0.6089620487839494,-0.21124445723162918,-0.23711409429088195,0.24102491804708998
-1.4073164463043213,-0.2505548596382141,43.31925964355469,-0.6089620487839494,-0.21124445723162918,-0.23711409429088195,0.24102491804708998
1.5520930290222168,-0.8449820280075073,40.42512893676758,-0.6089620487839494,-0.21124445723162918,-0.23711409429088195,0.24102491804708998
0.15191048383712769,-0.645630955696106,37.503761291503906,-0.6089620487839494,-0.21124445723162918,-0.23711409429088195,0.24102491804708998
-0.16581104695796967,-0.22641324996948242,34.578712463378906,-0.6089620487839494,-0.21124445723162918,-0.23711409429088195,0.24102491804708998
-0.11457248032093048,-0.6719849705696106,31.591571807861328,-0.6089620487839494,-0.21124445723162918,-0.23711409429088195,0.24102491804708998
-0.36507007479667664,-0.9968811869621277,28.608972549438477,-0.6089620487839494,-0.21124445723162918,-0.23711409429088195,0.24102491804708998
-0.3030310869216919,-1.86738121509552,25.58980941772461,-0.6089620487839494,-0.21124445723162918,-0.23711409429088195,0.24102491804708998
-0.07328959554433823,-0.38119935989379883,22.494651794433594,-0.6089620487839494,-0.21124445723162918,-0.23711409429088195,0.24102491804708998
0.6458650827407837,-0.7824204564094543,19.428050994873047,-0.6089620487839494,-0.21124445723162918,-0.23711409429088195,0.24102491804708998
0.5496500134468079,0.20965735614299774,16.37358856201172,-0.6089620487839494,-0.21124445723162918,-0.23711409429088195,0.24102491804708998
0.7869469523429871,-1.281254529953003,13.748783111572266,-0.6089620487839494,-0.21124445723162918,-0.23711409429088195,0.24102491804708998
-0.40870964527130127,0.23461154103279114,11.497115135192871,-0.6089620487839494,-0.21124445723162918,-0.23711409429088195,0.24102491804708998
-0.3081399202346802,1.8311467170715332,9.596405982971191,-0.6089620487839494,-0.21124445723162918,-0.23711409429088195,0.24102491804708998
-0.13181115686893463,1.0450948476791382,7.997464179992676,-0.6089620487839494,-0.21124445723162918,-0.23711409429088195,0.24102491804708998
-0.013995605520904064,1.0908474922180176,6.828022480010986,-0.6089620487839494,-0.21124445723162918,-0.23711409429088195,0.24102491804708998
0.10715895146131516,1.2676472663879395,6.056284427642822,-0.6089620487839494,-0.21124445723162918,-0.23711409429088195,0.24102491804708998
-0.14376862347126007,1.3662205934524536,5.6120100021362305,-0.6089620487839494,-0.21124445723162918,-0.23711409429088195,0.24102491804708998
0.04956322908401489,0.9065449833869934,5.524354934692383,-0.6089620487839494,-0.21124445723162918,-0.23711409429088195,0.24102491804708998
-0.3717808127403259,-0.18999232351779938,5.665053844451904,-0.6089620487839494,-0.21124445723162918,-0.23711409429088195,0.24102491804708998
-0.7773285508155823,-0.5789392590522766,5.668263912200928,-0.6089620487839494,-0.21124445723162918,-0.23711409429088195,0.24102491804708998
0.05394339561462402,0.1855844259262085,5.60746955871582,-0.6089620487839494,-0.21124445723162918,-0.23711409429088195,0.24102491804708998
0.3760107457637787,-0.41387033462524414,5.664424419403076,-0.6089620487839494,-0.21124445723162918,-0.23711409429088195,0.24102491804708998
0.41528719663619995,0.22923237085342407,5.66973876953125,-0.6089620487839494,-0.21124445723162918,-0.23711409429088195,0.24102491804708998
0.36368876695632935,-0.12701702117919922,5.652768135070801,-0.6089620487839494,-0.21124445723162918,-0.23711409429088195,0.24102491804708998
0.010559925809502602,-0.2641366124153137,5.665395259857178,-0.6089620487839494,-0.21124445723162918,-0.23711409429088195,0.24102491804708998
-0.20810900628566742,0.015932776033878326,5.666996002197266,-0.6089620487839494,-0.21124445723162918,-0.23711409429088195,0.24102491804708998
-0.042536165565252304,-0.24882356822490692,5.657430171966553,-0.6089620487839494,-0.21124445723162918,-0.23711409429088195,0.24102491804708998
0.19769446551799774,-0.05871160700917244,5.663603782653809,-0.6089620487839494,-0.21124445723162918,-0.23711409429088195,0.24102491804708998
0.21538066864013672,-0.04205675423145294,5.662729740142822,-0.6089620487839494,-0.21124445723162918,-0.23711409429088195,0.24102491804708998
0.07374822348356247,-0.12868888676166534,5.660343647003174,-0.6089620487839494,-0.21124445723162918,-0.23711409429088195,0.24102491804708998
-0.032140687108039856,-0.1210719496011734,5.6641035079956055,-0.6089620487839494,-0.21124445723162918,-0.23711409429088195,0.24102491804708998
0.019498903304338455,-0.09633053839206696,5.660472393035889,-0.6089620487839494,-0.21124445723162918,-0.23711409429088195,0.24102491804708998
0.11972367763519287,-0.1170179694890976,5.660434722900391,-0.6089620487839494,-0.21124445723162918,-0.23711409429088195,0.24102491804708998
0.12530867755413055,-0.0845554918050766,5.661377906799316,-0.6089620487839494,-0.21124445723162918,-0.23711409429088195,0.24102491804708998
0.04709026962518692,-0.1202121153473854,5.662348747253418,-0.6089620487839494,-0.21124445723162918,-0.23711409429088195,0.24102491804708998
0.028475774452090263,-0.11996781080961227,5.66417121887207,-0.6089620487839494,-0.21124445723162918,-0.23711409429088195,0.24102491804708998
0.07996705174446106,-0.09362772107124329,5.663283824920654,-0.6089620487839494,-0.21124445723162918,-0.23711409429088195,0.24102491804708998
0.12074846029281616,-0.11200562864542007,5.662852764129639,-0.6129000117782393,-0.207241655357908,-0.23544146502390464,0.23931130679945112
0.09077395498752594,-0.11361131072044373,5.6639180183410645,-0.6168093471386876,-0.20326880142092868,-0.2336787782299018,0.23743116563806893
0.12632817029953003,0,5.664649486541748,-0.620688916906041,-0.19931950500131645,-0.23186959385250966,0.23648440471539856
0.8875983953475952,-0.06047137454152107,5.6884331703186035,-0.6244829985698573,-0.19538229765706963,-0.22342020580545027,0.23598047659421922
1.9492535591125488,0.5489550232887268,5.819445610046387,-0.6280096650586662,-0.1914153672382252,-0.19977977285161574,0.2400511736671126
2.4942586421966553,0.25882360339164734,5.9970598220825195,-0.6310307507033244,-0.1873584186058094,-0.16275050450737238,0.2467826622227824
2.369628429412842,-0.6170088648796082,6.0002923011779785,-0.6334054891762522,-0.18327024821192192,-0.12221811224395991,0.24379778504371605
1.5654783248901367,0.18534870445728302,6.066781997680664,-0.6351691864112693,-0.17923692819455597,-0.08942555595810175,0.24020061704019668
0.6955406665802002,0.7743690013885498,6.193830966949463,-0.6365025971361633,-0.1751669375143134,-0.07058373102918228,0.24819826458891195
1.4297641515731812,-0.3773703873157501,6.309255599975586,-0.6375314020409446,-0.17100273042296535,-0.052872857544570766,0.25150658637285195
1.3243825435638428,-0.2093295156955719,6.470505714416504,-0.6382213561461918,-0.16685169703223804,-0.029921635085095568,0.24661742051442426
1.4528307914733887,0.8246287107467651,6.398652076721191,-0.6385271880271214,-0.16269867757956352,-0.0067781906264519735,0.25174491380651753
1.2551506757736206,-0.7110259532928467,6.300933837890625,-0.6384521036023367,-0.15849503993574282,0.015788321600606437,0.25269160345196684
1.5268088579177856,0.9194397926330566,6.335960388183594,-0.6379957732747091,-0.15426904002825587,0.038971317714701484,0.25442838544646856
0.9066136479377747,0,6.40500020980835,-0.6371772636387797,-0.14996471695188188,0.05924983859683115,0.2620903837184107
0.8323100805282593,-0.5461416840553284,6.402203559875488,-0.6360690077365779,-0.14563447039574554,0.07374086966738144,0.25753920301794964
1.0150814056396484,0.3055131733417511,6.328519344329834,-0.6347117021666933,-0.14135886065869038,0.08913579871878068,0.25553396542866985
0.6680635809898376,0,6.271090507507324,-0.6331092204528643,-0.13707874504228604,0.10316200694069307,0.25807990853985113
1.2604608535766602,-1.048474669456482,6.299705505371094,-0.6312559283625634,-0.132850223974223,0.11923304389541388,0.24934261962771379
1.2587171792984009,1.0397226810455322,6.439333438873291,-0.6290937680453569,-0.12869512142406742,0.1402261941693727,0.24926968639095587
0.4611961841583252,-0.16602343320846558,6.555600166320801,-0.6266372263811828,-0.12447995309200724,0.15455880553151208,0.2565505134562648
0.11423582583665848,-0.36465898156166077,6.614514350891113,-0.6240212857327413,-0.12024096414653965,0.15935407228147028,0.25212815999984706
0.7753540873527527,0.12582114338874817,6.61685848236084,-0.6213036074507453,-0.11605541410752643,0.16676732155804871,0.25013784468173944
1.1013623476028442,0,6.6798882484436035,-0.6183938245612393,-0.11187771245009544,0.1824066251826787,0.25118635420997903
0.5779051184654236,1.2834382057189941,6.684658527374268,-0.6152370983452732,-0.10760214556008753,0.1964005207332476,0.26188167259097067
0.5130640268325806,-0.6087074279785156,6.551700592041016,-0.6118879945868512,-0.10319059471289493,0.20549193027739762,0.26750442907214134
-0.9143800735473633,-0.48318785429000854,6.478561878204346,-0.6084909982521386,-0.09880801362296122,0.20214762988810778,0.2584053017199036
0.8530188202857971,0.1237022802233696,6.474010467529297,-0.60512613228548,-0.09452622287027301,0.20163628611092807,0.25540958860268165
0.8782426118850708,-0.5200590491294861,6.507884502410889,-0.6016453010286192,-0.09029692116918013,0.21606346471235197,0.25210661552846403
0.9037753343582153,-0.0941803827881813,6.5742340087890625,-0.5979204920371465,-0.08613779975981112,0.23091361426437934,0.2469879535958168
0.3844759166240692,0.568934977054596,6.703460216522217,-0.5939824699069775,-0.08198836479750123,0.24164904135589838,0.25094424188137027
0.3316182792186737,0.4287859797477722,6.743932723999023,-0.5899052571207789,-0.07773667458858934,0.24761649298792124,0.25925858318805667
-0.13169004023075104,-1.1011085510253906,6.6721014976501465,-0.585764431665495,-0.07346238726957156,0.24928256164615392,0.2536558950940765
0.4422009289264679,-0.7664087414741516,6.5941596031188965,-0.5815881590485663,-0.06936447771887165,0.2518701523852849,0.23809325098991363
0.7865180969238281,0.39753761887550354,6.490828990936279,-0.5773049954653497,-0.06542187291922022,0.262109477600704,0.23501932496825823
0.426675021648407,0.9004562497138977,6.469651699066162,-0.5728522546498817,-0.061414745706652764,0.27221942025547263,0.24583594053983657
-0.332699179649353,-0.4532180428504944,6.678980350494385,-0.5683087382121517,-0.057286421822178864,0.27300255227213144,0.24956292559703158
0.8938684463500977,-0.11057476699352264,6.916105270385742,-0.5637197255863174,-0.053166192007356394,0.277678962827971,0.24486465218166478
-0.2839757204055786,-0.19669996201992035,7.032176971435547,-0.559049389210994,-0.04910645299384347,0.282761402210842,0.2423040294398861
0.3965781033039093,-0.09166654199361801,7.008601665496826,-0.5543288795642232,-0.0450880779548463,0.2836997554016614,0.23990097523977327
0,0.3205818235874176,6.9681620597839355,-0.549573010161466,-0.041073831472961626,0.287004572929194,0.24180860258638828
0.8950467705726624,0.07833220064640045,6.94848108291626,-0.5447274445869119,-0.03701598573372781,0.29446329601729954,0.2451328861216701
0,-0.1941516250371933,6.93942928314209,-0.5397575669608894,-0.032938480647282664,0.30192201910540506,0.24416772425174685
0.38359466195106506,-0.34330815076828003,6.884976863861084,-0.5346988947909416,-0.028906342171962265,0.3051186412883306,0.23968889278670125
0.05443854257464409,-0.23752856254577637,6.80199670791626,-0.5295831651302663,-0.024951863175052942,0.3087689179927115,0.23484858684241744
-0.40175899863243103,0.17798714339733124,6.720169544219971,-0.5244611359731696,-0.02104185488178685,0.3058745808588966,0.23435240834951374
0.8533064723014832,-0.4657006561756134,6.907142639160156,-0.5193318688287387,-0.017155961514349,0.3096374764728054,0.23195479574302805
-0.13933739066123962,-0.35149362683296204,7.163509368896484,-0.5141216630346336,-0.013346797854951908,0.3155872188198074,0.22514484338462326
-0.10038859397172928,0.6028572916984558,7.203860282897949,-0.5088785236921252,-0.009576927988481417,0.3135895022811993,0.2272395405918357
0.44001317024230957,-0.6898109912872314,7.131622791290283,-0.5036284469474197,-0.005795640763311153,0.3164197070834541,0.22651492642859591
1.1942447423934937,0.2806209921836853,6.996698379516602,-0.4982412950298735,-0.00204880796166119,0.3300385230220858,0.2231050097693997
-0.975673496723175,0.27829721570014954,6.9102067947387695,-0.4927254744207783,0.0017084226322651823,0.33185995006933844,0.227762661501765
-0.1649482101202011,0.46392062306404114,6.842516899108887,-0.487273685093709,0.005556009896097667,0.322354769178977,0.23394781015813326
-0.41081908345222473,-0.18821920454502106,6.774194717407227,-0.48194108944722414,0.009474285997241486,0.31755670839920674,0.2362453219791251
0.5015663504600525,-0.3064996302127838,6.8342132568359375,-0.4766421757470285,0.013377352555590947,0.318312935624272,0.23212266502281007
-0.13920645415782928,0.4982255697250366,6.960331916809082,-0.47131179627160297,0.017259377940659466,0.3213326014267905,0.23372038118541216
0.21687528491020203,-0.9510380029678345,6.9773030281066895,-0.4659508592456875,0.02112327231921892,0.32197984168306026,0.22994694424172218
0.5412976741790771,-1.669615626335144,6.8072028160095215,-0.4605318776510331,0.024773731554546027,0.32829794967547093,0.20810816399753068
0.6223464012145996,0.5450395345687866,6.687231063842773,-0.45497943654009515,0.028164105392576654,0.3379949836370849,0.19873669656614437
-0.5318019390106201,2.0734448432922363,6.707785606384277,-0.44933989900293514,0.03165822286158607,0.33874952082211807,0.22055739971498622
0.07298974692821503,-0.39327529072761536,6.8239569664001465,-0.44372593561368334,0.03545085796465283,0.334926085888098,0.23455881265302472
0.3933219611644745,-1.0223920345306396,6.940478801727295,-0.4381114514247086,0.0392618612779492,0.33881201678887046,0.22276158494253925
-0.2840822637081146,-0.7866821885108948,6.959712028503418,-0.4324569983881263,0.04284892420594697,0.3397223476010068,0.20768596641719314
0.9309242963790894,-0.4045410752296448,6.910177230834961,-0.4267500396758407,0.0462276331418071,0.34511269787326493,0.19775910588602197
-0.36521410942077637,-0.3971104919910431,6.954267501831055,-0.42095887594830306,0.049467947992183806,0.34982694943125087,0.1910786761591829
0.4294852316379547,1.191754937171936,6.973543643951416,-0.41512396351873937,0.052707776236863305,0.350362542116394,0.197700713202357
0,0.3677753806114197,6.983206748962402,-0.4092547624534913,0.05611108884008199,0.35394158571337697,0.21069679918388495
