faccX,faccY,yaw,posX,posY,velX,velY
0,0,-97.32392120361328,0.0,0.0,0.0,0.0
0,0,-97.32363891601562,0.0,0.0,0.0,0.0
0,0,-97.3248519897461,0.0,0.0,0.0,0.0
0,-0.2082471251487732,-97.33146667480469,0.0,-1.446160591310925e-05,0.0,-0.00173539270957311
0.12527723610401154,-1.4014546871185303,-97.3334732055664,8.69980806277858e-06,-0.00015516966581344605,0.0010439769675334295,-0.015149574478467306
0,-2.5902931690216064,-97.17942810058594,3.479923225111432e-05,-0.0006848672860198552,0.002087953935066859,-0.04841413994630178
-0.5750044584274292,-2.7934021949768066,-97.02153015136719,2.9667599333657165e-05,-0.0018656373520692191,-0.0027037498851617174,-0.09327826797962188
-0.26321637630462646,-1.5497006177902222,-96.99220275878906,-7.360467894209753e-05,-0.003721879513727294,-0.009688923507928847,-0.12947079141934711
-0.0693332776427269,-0.8749422430992126,-96.9376220703125,-0.00025818046337614453,-0.006048104013833735,-0.012460170624156792,-0.14967614859342573
0.46890565752983093,-1.4177106618881226,-96.85533905029297,-0.0004381018918421533,-0.008701918497681618,-0.009130400791764259,-0.1687815894683202
-0.813105583190918,-1.102164387702942,-96.8402099609375,-0.0006141780109869109,-0.011689936311708556,-0.011998733505606651,-0.18978054821491241
-0.30412906408309937,-1.0700106620788574,-96.79120635986328,-0.0008917426421410507,-0.015003790938191944,-0.021309022232890128,-0.20788200696309408
0.3102695047855377,-1.7010470628738403,-96.76786041259766,-0.0012464665931959946,-0.018660925618476338,-0.02125785189370314,-0.23097415467103324
-0.5010221004486084,-0.8042287826538086,-96.6312484741211,-0.0016140108327898713,-0.02268447235226631,-0.02284745685756206,-0.25185145338376363
0.5282323360443115,-0.9808441400527954,-96.45033264160156,-0.0019929121807217595,-0.02700595997273922,-0.022620704894264536,-0.2667270610729853
-0.40051865577697754,-1.2313823699951172,-96.42304229736328,-0.002361054923385381,-0.031605037831597856,-0.021556424225370085,-0.2851622819900513
0.3535171151161194,-0.7992988228797913,-96.31832885742188,-0.002723592656354109,-0.03649876205871502,-0.021948103730877237,-0.30208462526400887
0.1545521765947342,-0.6700133681297302,-96.26041412353516,-0.0030541117954999203,-0.04163554138193527,-0.017714192966620124,-0.31432889352242155
-0.45142871141433716,-1.6268396377563477,-96.14800262451172,-0.003369964770972728,-0.047033859954939944,-0.020188164090116815,-0.3334693352381389
0.48102831840515137,-1.0163041353225708,-96.01033782958984,-0.0037043786442114237,-0.05277523385981718,-0.019941500698526696,-0.35549553334712986
-0.5525559782981873,-0.5801312327384949,-96.03809356689453,-0.0040417041877905515,-0.05881102298282914,-0.020537564530968663,-0.3687991614143054
0.4267798066139221,0.06966904550790787,-95.99342346191406,-0.004392731386340326,-0.0649931244360697,-0.021585699295004205,-0.3730530129745603
-0.10601028800010681,-0.7277933359146118,-95.91385650634766,-0.004730217380242214,-0.07125637772803506,-0.01891261997322241,-0.3785373820612828
-0.45394212007522583,-0.701130747795105,-95.78247833251953,-0.005084313297023374,-0.07766456493486962,-0.02357889004051685,-0.39044508275886375
0,0.21326766908168793,-95.69441223144531,-0.005508818556037212,-0.08420586236131689,-0.02736174104114373,-0.3945106084148089
-0.26681679487228394,-0.9941032528877258,-95.59686279296875,-0.005983376517477961,-0.09083526386155023,-0.029585214331746094,-0.40101757161319257
0.15890821814537048,-0.8420506119728088,-95.57377624511719,-0.006483957074168654,-0.0976464007401632,-0.03048445247113704,-0.4163188538203637
0.45559337735176086,-0.2527606785297394,-95.65375518798828,-0.006949357560111415,-0.10466107686567638,-0.02536360584199428,-0.4254422812412183
-0.5553292632102966,-0.5236021876335144,-95.82051086425781,-0.007379010427329274,-0.11180569564095802,-0.026194738224148747,-0.43191197179257873
-0.3665477931499481,0.17571431398391724,-95.9776382446289,-0.007879608637756769,-0.11902838738428222,-0.03387704702715079,-0.4348110374063254
-0.694293200969696,-0.8402090668678284,-96.18877410888672,-0.008517895601689814,-0.12632138347667124,-0.04271738864481449,-0.44034849368035794
0.565845787525177,0.15892265737056732,-96.17893981933594,-0.009238772038370369,-0.13370783659422564,-0.04378778375685215,-0.4460258804261685
0.5196080803871155,-0.09670287370681763,-96.0411605834961,-0.009893189693490663,-0.14113728044968513,-0.034742334857583046,-0.44550738222897057
0.1401463896036148,-0.8999339938163757,-95.92288208007812,-0.010426412325145469,-0.14863161438041264,-0.029244380940993627,-0.45381268945833053
-0.27218931913375854,-0.2098643183708191,-95.9028091430664,-0.010922988322046067,-0.15627222853195338,-0.030344738687078158,-0.46306100872655714
-0.7631796002388,0.4212108254432678,-95.9459457397461,-0.011500634586231575,-0.1639752351699604,-0.03897281301518281,-0.4612997878342867
0.37959548830986023,-0.7966318726539612,-96.09385681152344,-0.012176819255368575,-0.1716896358732548,-0.042169347281257305,-0.4644282965610425
0.4603656530380249,-0.2810504138469696,-96.24137878417969,-0.012821311075240371,-0.17950494653027918,-0.035169671103358266,-0.4734089822818836
0.4465031325817108,-0.15402938425540924,-96.3128433227539,-0.013344495261294971,-0.18742531010984545,-0.027612431223193803,-0.4770346472660701
-0.7094009518623352,-0.23132643103599548,-96.18643188476562,-0.0138229592413538,-0.1954026483847863,-0.029803246383865674,-0.48024594572683177
-0.18232785165309906,0.17381605505943298,-96.04383087158203,-0.014381605625773466,-0.20341074125634298,-0.03723431974649429,-0.4807251988599698
0,-0.1470416784286499,-95.96366119384766,-0.01501483927791317,-0.21142096857229867,-0.03875371851027012,-0.48050207905471326
-0.2794440686702728,0.3015105128288269,-95.88726806640625,-0.015680140424519776,-0.219418609554155,-0.041082419082522394,-0.4792148387680451
-0.5891293287277222,0,-95.79508209228516,-0.01642516500627001,-0.22738458530356484,-0.04832053072750569,-0.47670225116113824
1.0177581310272217,-0.6374433040618896,-95.6983642578125,-0.017200741296013195,-0.23537388971903256,-0.044748624041676524,-0.4820142786949873
0.1439654529094696,-0.5933284163475037,-95.6667251586914,-0.017865876447823312,-0.24349293128897745,-0.03506759417553743,-0.4922707096983989
-0.2523121237754822,-0.930418848991394,-95.6430435180664,-0.01845786042511463,-0.2518032588995993,-0.03597048309942087,-0.5049686035762231
1.4407727718353271,0.8744189143180847,-95.61687469482422,-0.018974836487323045,-0.2602232911768887,-0.02606664436558883,-0.5054352696985006
-0.686902642250061,-0.48678824305534363,-95.53373718261719,-0.01935692846775055,-0.2686202935419149,-0.01978439328571161,-0.5022050141046445
0.06418942660093307,-0.14691296219825745,-95.4082260131836,-0.01972991232915471,-0.27703438413846826,-0.024973670082787676,-0.5074858574817578
-0.4266315996646881,0.8354583382606506,-95.28484344482422,-0.020171309759219488,-0.2854446661120488,-0.027994021524985636,-0.5017479793479045
-0.4937118589878082,-0.2582907974720001,-95.1752700805664,-0.020701789524820116,-0.2937670513552924,-0.03566355034708977,-0.4969382498413324
1.4701201915740967,-0.9190338850021362,-95.20787048339844,-0.021228375896397565,-0.30213111417781974,-0.02752681424220403,-0.5067492888619501
-0.8132851123809814,-0.06204422935843468,-95.34837341308594,-0.021641542586601444,-0.3106450660834606,-0.022053188582261404,-0.5149249398149549
-0.31438198685646057,0.5013728737831116,-95.53974151611328,-0.022087405944863955,-0.31919663948006927,-0.03145041440924009,-0.5112638677780826
-0.8279415965080261,-0.1738298386335373,-95.78655242919922,-0.022690907544973823,-0.3276949578989297,-0.040969777603944144,-0.5085343424851695
0.18046854436397552,0.17886391282081604,-95.72019958496094,-0.023418700578105116,-0.33617018068519733,-0.04636538637181123,-0.5084923918669422
0.5253547430038452,-0.279415488243103,-95.5264663696289,-0.024142441511568094,-0.3446520366312729,-0.040483525643746056,-0.5093303216621279
0.3725079894065857,-0.3448035418987274,-95.43858337402344,-0.02475481536032425,-0.35318422386940157,-0.033001336206992464,-0.5145321469133098
-1.2302371263504028,1.4982643127441406,-95.52584075927734,-0.025364402153839668,-0.36167965820887027,-0.040149079014857605,-0.5049199738229314
0.2617630362510681,-0.25031816959381104,-95.6961669921875,-0.026100808615899748,-0.37000832817931145,-0.04821969643235206,-0.494520422630012
0.5631511211395264,-0.2910015881061554,-95.85775756835938,-0.026847184517731267,-0.37828792687298524,-0.04134541178743044,-0.49903142061084504
0.49013838171958923,-0.5842899680137634,-95.85677337646484,-0.027463129609823226,-0.38666590135234097,-0.03256799926360447,-0.5063255169118444
-0.6235098242759705,0.3406513035297394,-95.78073120117188,-0.02801519150328305,-0.39512157931923864,-0.03367942795157432,-0.5083558391158779
-0.16543075442314148,-0.31455186009407043,-95.67870330810547,-0.02863130284266339,-0.4035923641764869,-0.040253932774066914,-0.508138343753914
-0.08896468579769135,0.6404801607131958,-95.56069946289062,-0.02863130284266339,-0.4035923641764869,-0.040253932774066914,-0.508138343753914
-0.1716388761997223,0.28282442688941956,-95.48311614990234,-0.02863130284266339,-0.4035923641764869,-0.040253932774066914,-0.508138343753914
0.13168728351593018,-0.6126205921173096,-95.36748504638672,-0.02863130284266339,-0.4035923641764869,-0.040253932774066914,-0.508138343753914
0.5878223180770874,-0.11727821081876755,-95.27304077148438,-0.02863130284266339,-0.4035923641764869,-0.040253932774066914,-0.508138343753914
-0.13429541885852814,-0.3760451674461365,-95.26006317138672,-0.02863130284266339,-0.4035923641764869,-0.040253932774066914,-0.508138343753914
0.8773747682571411,0.5499137043952942,-95.25836181640625,-0.02863130284266339,-0.4035923641764869,-0.040253932774066914,-0.508138343753914
-0.341961145401001,-0.46609631180763245,-95.19560241699219,-0.02863130284266339,-0.4035923641764869,-0.040253932774066914,-0.508138343753914
0.59406578540802,-0.7358489632606506,-95.03620147705078,-0.02863130284266339,-0.4035923641764869,-0.040253932774066914,-0.508138343753914
-0.6735420823097229,0.3785347640514374,-94.8646240234375,-0.02863130284266339,-0.4035923641764869,-0.040253932774066914,-0.508138343753914
-0.641136884689331,0.4835200309753418,-94.71157836914062,-0.02863130284266339,-0.4035923641764869,-0.040253932774066914,-0.508138343753914
1.8633571863174438,-1.0563536882400513,-94.73397827148438,-0.02863130284266339,-0.4035923641764869,-0.040253932774066914,-0.508138343753914
-1.2305305004119873,0.8882939219474792,-94.93223571777344,-0.02863130284266339,-0.4035923641764869,-0.040253932774066914,-0.508138343753914
-0.19836241006851196,-0.4057680368423462,-95.12006378173828,-0.02863130284266339,-0.4035923641764869,-0.040253932774066914,-0.508138343753914
-0.5250325202941895,0.19574368000030518,-95.3126449584961,-0.02863130284266339,-0.4035923641764869,-0.040253932774066914,-0.508138343753914
0.7355306148529053,0.6137943863868713,-95.27696990966797,-0.02863130284266339,-0.4035923641764869,-0.040253932774066914,-0.508138343753914
-0.14527785778045654,0.5517920255661011,-95.19611358642578,-0.02863130284266339,-0.4035923641764869,-0.040253932774066914,-0.508138343753914
0.24583016335964203,3.3947184085845947,-95.45462799072266,-0.02863130284266339,-0.4035923641764869,-0.040253932774066914,-0.508138343753914
-0.5607173442840576,2.1887869834899902,-96.05864715576172,-0.02863130284266339,-0.4035923641764869,-0.040253932774066914,-0.508138343753914
0.429773211479187,0.7987832427024841,-96.8528060913086,-0.02863130284266339,-0.4035923641764869,-0.040253932774066914,-0.508138343753914
-0.6229398250579834,1.3355752229690552,-97.90462493896484,-0.02863130284266339,-0.4035923641764869,-0.040253932774066914,-0.508138343753914
0.8929709792137146,1.6960883140563965,-99.18575286865234,-0.02863130284266339,-0.4035923641764869,-0.040253932774066914,-0.508138343753914
-1.7799032926559448,3.020627737045288,-100.65137481689453,-0.02863130284266339,-0.4035923641764869,-0.040253932774066914,-0.508138343753914
0.378582626581192,1.2214744091033936,-102.21399688720703,-0.02863130284266339,-0.4035923641764869,-0.040253932774066914,-0.508138343753914
-0.852952241897583,0.8730075359344482,-103.91136932373047,-0.02863130284266339,-0.4035923641764869,-0.040253932774066914,-0.508138343753914
0.014355577528476715,0.7943816781044006,-105.73652648925781,-0.02863130284266339,-0.4035923641764869,-0.040253932774066914,-0.508138343753914
-0.17187123000621796,2.101571798324585,-107.67903900146484,-0.02863130284266339,-0.4035923641764869,-0.040253932774066914,-0.508138343753914
0.359819620847702,1.5466386079788208,-109.7124252319336,-0.02863130284266339,-0.4035923641764869,-0.040253932774066914,-0.508138343753914
-0.36114317178726196,1.7100976705551147,-111.88423919677734,-0.02863130284266339,-0.4035923641764869,-0.040253932774066914,-0.508138343753914
0.8352143168449402,2.2262966632843018,-114.14939880371094,-0.02863130284266339,-0.4035923641764869,-0.040253932774066914,-0.508138343753914
-0.5853968858718872,1.7749050855636597,-116.58338165283203,-0.02863130284266339,-0.4035923641764869,-0.040253932774066914,-0.508138343753914
-0.1751352846622467,0.6119921207427979,-119.09209442138672,-0.02863130284266339,-0.4035923641764869,-0.040253932774066914,-0.508138343753914
0.0363650880753994,1.2440260648727417,-121.65615844726562,-0.02863130284266339,-0.4035923641764869,-0.040253932774066914,-0.508138343753914
0.6576628684997559,1.7513134479522705,-124.25548553466797,-0.02863130284266339,-0.4035923641764869,-0.040253932774066914,-0.508138343753914
-1.7267367839813232,1.0907268524169922,-126.85804748535156,-0.02863130284266339,-0.4035923641764869,-0.040253932774066914,-0.508138343753914
2.8420751094818115,0.7246645092964172,-129.43348693847656,-0.02863130284266339,-0.4035923641764869,-0.040253932774066914,-0.508138343753914
-1.8849204778671265,1.7176847457885742,-132.02227783203125,-0.02863130284266339,-0.4035923641764869,-0.040253932774066914,-0.508138343753914
-0.025729922577738762,0.15098416805267334,-134.49693298339844,-0.02863130284266339,-0.4035923641764869,-0.040253932774066914,-0.508138343753914
0.9606930017471313,0.3541875183582306,-137.0160369873047,-0.02863130284266339,-0.4035923641764869,-0.040253932774066914,-0.508138343753914
-1.0895920991897583,1.4106357097625732,-139.5494842529297,-0.02863130284266339,-0.4035923641764869,-0.040253932774066914,-0.508138343753914
1.9240679740905762,1.0363373756408691,-142.11009216308594,-0.02863130284266339,-0.4035923641764869,-0.040253932774066914,-0.508138343753914
-1.3022620677947998,0.8477726578712463,-144.7097930908203,-0.02863130284266339,-0.4035923641764869,-0.040253932774066914,-0.508138343753914
-0.5237458348274231,-0.2739148437976837,-147.31341552734375,-0.02863130284266339,-0.4035923641764869,-0.040253932774066914,-0.508138343753914
0.6857655048370361,1.5570911169052124,-150.03460693359375,-0.02863130284266339,-0.4035923641764869,-0.040253932774066914,-0.508138343753914
0.19537247717380524,1.9248989820480347,-152.79299926757812,-0.02863130284266339,-0.4035923641764869,-0.040253932774066914,-0.508138343753914
0.7444058060646057,-1.0008151531219482,-155.60162353515625,-0.02863130284266339,-0.4035923641764869,-0.040253932774066914,-0.508138343753914
-1.6825958490371704,2.5036256313323975,-158.3875732421875,-0.02863130284266339,-0.4035923641764869,-0.040253932774066914,-0.508138343753914
1.1061139106750488,-0.7439451813697815,-161.26783752441406,-0.02863130284266339,-0.4035923641764869,-0.040253932774066914,-0.508138343753914
0.5674455165863037,1.2781014442443848,-164.14483642578125,-0.02863130284266339,-0.4035923641764869,-0.040253932774066914,-0.508138343753914
0.5076555609703064,0.07134043425321579,-167.03794860839844,-0.02863130284266339,-0.4035923641764869,-0.040253932774066914,-0.508138343753914
-0.13180997967720032,0.9567674398422241,-169.95773315429688,-0.02863130284266339,-0.4035923641764869,-0.040253932774066914,-0.508138343753914
0.36032626032829285,0.17739365994930267,-172.9147491455078,-0.02863130284266339,-0.4035923641764869,-0.040253932774066914,-0.508138343753914
1.144599199295044,0.3594885468482971,-175.928955078125,-0.02863130284266339,-0.4035923641764869,-0.040253932774066914,-0.508138343753914
-0.24081724882125854,0.5379217267036438,-178.9723663330078,-0.02863130284266339,-0.4035923641764869,-0.040253932774066914,-0.508138343753914
1.3018181324005127,-0.465932160615921,177.98312377929688,-0.02863130284266339,-0.4035923641764869,-0.040253932774066914,-0.508138343753914
-0.06174151971936226,0.967964231967926,174.93528747558594,-0.02863130284266339,-0.4035923641764869,-0.040253932774066914,-0.508138343753914
0.03317878767848015,-0.2681524455547333,171.78536987304688,-0.02863130284266339,-0.4035923641764869,-0.040253932774066914,-0.508138343753914
1.1626973152160645,-0.31628766655921936,168.65011596679688,-0.02863130284266339,-0.4035923641764869,-0.040253932774066914,-0.508138343753914
-0.2741990089416504,0.486884206533432,165.46861267089844,-0.02863130284266339,-0.4035923641764869,-0.040253932774066914,-0.508138343753914
1.4198861122131348,0.2500362992286682,162.2987823486328,-0.02863130284266339,-0.4035923641764869,-0.040253932774066914,-0.508138343753914
0.5301412343978882,0.33624589443206787,159.09420776367188,-0.02863130284266339,-0.4035923641764869,-0.040253932774066914,-0.508138343753914
-0.6738969683647156,0.9065439105033875,155.88394165039062,-0.02863130284266339,-0.4035923641764869,-0.040253932774066914,-0.508138343753914
0.9520700573921204,-0.6157000660896301,152.69322204589844,-0.02863130284266339,-0.4035923641764869,-0.040253932774066914,-0.508138343753914
0.4511295258998871,-0.7745760679244995,149.459716796875,-0.02863130284266339,-0.4035923641764869,-0.040253932774066914,-0.508138343753914
0.5319539904594421,-0.020256301388144493,146.2607421875,-0.02863130284266339,-0.4035923641764869,-0.040253932774066914,-0.508138343753914
1.1413623094558716,0.8958435654640198,143.11363220214844,-0.02863130284266339,-0.4035923641764869,-0.040253932774066914,-0.508138343753914
-0.2896485924720764,-1.534422516822815,140.2121124267578,-0.02863130284266339,-0.4035923641764869,-0.040253932774066914,-0.508138343753914
0.828811764717102,1.037015438079834,137.60865783691406,-0.02863130284266339,-0.4035923641764869,-0.040253932774066914,-0.508138343753914
-0.7551727294921875,-1.5386682748794556,135.4632110595703,-0.02863130284266339,-0.4035923641764869,-0.040253932774066914,-0.508138343753914
-1.3670494556427002,-0.6171161532402039,133.6074676513672,-0.02863130284266339,-0.4035923641764869,-0.040253932774066914,-0.508138343753914
-0.8544670343399048,-0.21697652339935303,132.0841522216797,-0.02863130284266339,-0.4035923641764869,-0.040253932774066914,-0.508138343753914
-0.9516035914421082,-0.3275608420372009,130.96359252929688,-0.02863130284266339,-0.4035923641764869,-0.040253932774066914,-0.508138343753914
-1.325585961341858,-0.79168301820755,130.2772216796875,-0.02863130284266339,-0.4035923641764869,-0.040253932774066914,-0.508138343753914
-0.8916051983833313,-0.6442044377326965,129.9473876953125,-0.02863130284266339,-0.4035923641764869,-0.040253932774066914,-0.508138343753914
-0.40361082553863525,-0.10818503051996231,129.9759521484375,-0.02863130284266339,-0.4035923641764869,-0.040253932774066914,-0.508138343753914
-0.022866835817694664,0.09071469306945801,130.12437438964844,-0.02863130284266339,-0.4035923641764869,-0.040253932774066914,-0.508138343753914
0.7749214768409729,-0.06756356358528137,130.19732666015625,-0.02863130284266339,-0.4035923641764869,-0.040253932774066914,-0.508138343753914
0.5019919872283936,0.04479892924427986,130.16943359375,-0.02863130284266339,-0.4035923641764869,-0.040253932774066914,-0.508138343753914
-0.03547140210866928,0.1436735987663269,130.1813201904297,-0.02863130284266339,-0.4035923641764869,-0.040253932774066914,-0.508138343753914
0.08644404262304306,0.24544423818588257,130.1932830810547,-0.02863130284266339,-0.4035923641764869,-0.040253932774066914,-0.508138343753914
-0.06968674808740616,0.3962450921535492,130.19129943847656,-0.02863130284266339,-0.4035923641764869,-0.040253932774066914,-0.508138343753914
-0.03794220834970474,0.325291246175766,130.1908721923828,-0.02863130284266339,-0.4035923641764869,-0.040253932774066914,-0.508138343753914
0.18190868198871613,0.14900514483451843,130.19534301757812,-0.02863130284266339,-0.4035923641764869,-0.040253932774066914,-0.508138343753914
0.19020597636699677,0.06213684007525444,130.19252014160156,-0.02863130284266339,-0.4035923641764869,-0.040253932774066914,-0.508138343753914
0.1251906156539917,0.23061446845531464,130.19235229492188,-0.02863130284266339,-0.4035923641764869,-0.040253932774066914,-0.508138343753914
-0.020994001999497414,0.2625882029533386,130.1923065185547,-0.02863130284266339,-0.4035923641764869,-0.040253932774066914,-0.508138343753914
0.08005426824092865,0.2314765304327011,130.191162109375,-0.029298100314853297,-0.4120270265214559,-0.03976176388872165,-0.5040211376423637
0.1517123281955719,0.15423642098903656,130.1928253173828,-0.029944701477135013,-0.4204005931938688,-0.03783037558508415,-0.5008068630471825
0.09081389009952545,0.23246006667613983,130.18687438964844,-0.0305583656383937,-0.42872052032190067,-0.035809323765958335,-0.4975843923166393
-0.36326175928115845,0.4970546364784241,130.17196655273438,-0.031174107692075063,-0.43696293278390336,-0.038079722675805276,-0.4915051031236846
-1.8529918193817139,2.4550704956054688,130.25030517578125,-0.03196267623519007,-0.4449496758129034,-0.05654850249799588,-0.4669040603563188
-2.3517353534698486,2.3282880783081055,130.3353271484375,-0.033197146219382474,-0.4523992324734314,-0.09158789560509223,-0.42704273890703903
-0.4205748736858368,0.9954806566238403,130.39378356933594,-0.03491613268968649,-0.4592857941819562,-0.11469048083138961,-0.3993446661159395
-0.18807090818881989,1.1200810670852661,130.42172241210938,-0.03686990777172872,-0.46579462460863097,-0.11976252901367841,-0.38171498508503027
-1.1341110467910767,1.1680952310562134,130.46517944335938,-0.03895776811327475,-0.4719976398948994,-0.1307807119718442,-0.3626468492671846
-1.165136694908142,1.5357496738433838,130.4431610107422,-0.041297116628201264,-0.4778539870420678,-0.1499411098193377,-0.3401148083930213
-0.4217270016670227,1.2199549674987793,130.40142822265625,-0.043906333993007945,-0.4833311988040805,-0.16316497395746407,-0.31715060304850323
-1.1990967988967896,1.438544750213623,130.34158325195312,-0.04673830743400483,-0.48843242415226995,-0.17667183896216251,-0.2949964387342332
-0.10713109374046326,1.294728398323059,130.3629913330078,-0.04977354835369624,-0.4931592208291921,-0.1875570714008063,-0.2722191624964275
-1.0800520181655884,0.6759193539619446,130.3644256591797,-0.05298194281536982,-0.49755935633244613,-0.19745026400002338,-0.25579709789405247
-1.3068432807922363,0.8259446024894714,130.40040588378906,-0.056438537166686724,-0.5017183451892601,-0.21734105815800525,-0.24328156492362402
-0.5211977958679199,1.6068994998931885,130.59483337402344,-0.0601878354329771,-0.5056040904308772,-0.23257473379683988,-0.22300786407043519
-0.5070881843566895,-0.12648046016693115,130.82940673828125,-0.06413548974488448,-0.5092180812876257,-0.24114378363204494,-0.21067103873938303
-0.12083832919597626,0.648455023765564,130.88784790039062,-0.06819815881330415,-0.5126930170330322,-0.24637650457831717,-0.20632125070939442
0.19377018511295319,1.2113591432571411,130.94631958007812,-0.07229936917739299,-0.5160025507832566,-0.24576873911234237,-0.19082279931753854
-1.483464002609253,-0.14721442759037018,131.0203857421875,-0.07648507689992483,-0.5191090318332943,-0.2565161875914782,-0.18195492668698213
-0.2618253529071808,1.851245641708374,131.0498504638672,-0.08088154734280477,-0.5220232784437635,-0.27106026555411517,-0.1677546665693321
-0.1918078362941742,0.8525294661521912,130.8965301513672,-0.085430720740179,-0.5246314273929843,-0.2748405421307931,-0.14522320733716074
-0.8807839751243591,-0.2815901041030884,130.7387237548828,-0.09008588198481851,-0.527012165615128,-0.28377880722594756,-0.14046537932008488
1.0698388814926147,2.239835500717163,130.70761108398438,-0.0948023999589754,-0.529217266006809,-0.28220334967287874,-0.12414666768163425
-0.7317555546760559,-0.3230487108230591,130.83338928222656,-0.09948231111138334,-0.5311532669410935,-0.2793859886160741,-0.10817344443251672
-0.11616048216819763,0.39470747113227844,130.85816955566406,-0.10419762731309876,-0.5329511813788362,-0.2864519555897762,-0.10757628809660656
-1.0032331943511963,0.6023174524307251,130.81983947753906,-0.10904956224490887,-0.5346748816718656,-0.2957802362274378,-0.09926774706691487
-0.38583290576934814,0.4091104567050934,130.8483428955078,-0.11407569577231899,-0.5362591060737353,-0.3073557870617757,-0.09083918115744971
0.7976441979408264,0.9742037653923035,130.97377014160156,-0.11916969421694779,-0.5376770289387138,-0.30392402629368004,-0.07931156263997141
0,0.09704790264368057,131.02932739257812,-0.12417970269698544,-0.5389244958390997,-0.29727699131083984,-0.0703844654063382
-0.6955441832542419,0,130.97573852539062,-0.12918262089822544,-0.5400908308248551,-0.3030731928379585,-0.06957573288430753
-0.9955409169197083,0.23268409073352814,130.9370574951172,-0.13435127724414794,-0.5412342677555149,-0.3171655686727414,-0.06763669879486146
0.24440424144268036,1.0854332447052002,130.9148406982422,-0.13968953232449066,-0.5422700101426904,-0.3234250409683833,-0.056652387666205395
0.8966947197914124,1.0954782962799072,130.90567016601562,-0.14500070669054468,-0.5430627644134476,-0.3139158829580992,-0.038478124824662834
-0.9433766603469849,-0.5610118508338928,130.9454803466797,-0.15023587987460715,-0.5436669507684805,-0.31430489912939563,-0.03402423777927938
0,0.5644176602363586,131.0177459716797,-0.15553980712817672,-0.5442337848835933,-0.3221663712989538,-0.03399585603425884
-0.377746045589447,-0.23517943918704987,131.13304138183594,-0.160935479014103,-0.5447775187188136,-0.3253142550121992,-0.03125220419218126
0.23426933586597443,0.49741992354393005,131.19297790527344,-0.16636734692470379,-0.5452801776439363,-0.3265098942598948,-0.029066866822540595
0.18000243604183197,0.4668068587779999,131.131591796875,-0.17178040962265287,-0.5456976652310952,-0.3230576294939964,-0.021031643636524513
0.5160775184631348,0.8127045631408691,131.0361785888672,-0.1771163645618233,-0.5459593376651818,-0.317256963206455,-0.01036904845386727
-0.9013664722442627,0.679210901260376,130.95053100585938,-0.18243073679261013,-0.5460285498988295,-0.3204677044879644,0.002063580416143105
-0.4856308400630951,0.8755181431770325,130.89768981933594,-0.18786818445854198,-0.5458861895971412,-0.33202601542385907,0.015019655786454842
0.6593723297119141,-0.7447126507759094,131.01434326171875,-0.19338988600104734,-0.5456267782859502,-0.33057816967678555,0.0161097015564642
-0.5187024474143982,-0.1557518094778061,131.3144073486328,-0.1988897534205009,-0.5454208155141934,-0.3294059206576396,0.008605831054349906
0.43217337131500244,0.5825719833374023,131.43350219726562,-0.20438586106174622,-0.5452477447067695,-0.3301269962918012,0.012162665836513209
-0.14352650940418243,-0.23711425065994263,131.4519500732422,-0.20986793274564355,-0.5450210434891695,-0.3277216057758777,0.01504148027549204
0.3018859028816223,0.9929784536361694,131.25433349609375,-0.21531896232847225,-0.5447178615815935,-0.3264019441635657,0.021340348633627264
-0.4384627640247345,-0.6187060475349426,131.0669403076172,-0.2207684792354444,-0.5443361979650538,-0.32754008467309165,0.024459285351137488
0.5757011771202087,1.4653321504592896,130.99171447753906,-0.22621795020130875,-0.5438697497298318,-0.32639643123062934,0.03151450287550704
0.34516361355781555,0.38211631774902344,131.09088134765625,-0.23159394177802214,-0.5432162129827256,-0.3187225579749791,0.04690990677724298
0,-0.20847783982753754,131.11358642578125,-0.2368820147155525,-0.5424223229754714,-0.31584619452866397,0.04835689409325536
-0.9130532741546631,0,131.12281799316406,-0.24220952443506877,-0.5416308523683496,-0.32345497181328614,0.046619578761359214
1.2876636981964111,0.6056472063064575,131.2674560546875,-0.2475744260191762,-0.5408118005552224,-0.3203332182796049,0.05166663881391303
0.0916418582201004,0.060088712722063065,131.35650634765625,-0.25281752788241846,-0.5399044582472802,-0.30883900530946734,0.0572144381391507
-0.5379961729049683,0.32026273012161255,131.2784423828125,-0.25799584146498494,-0.5389244709836524,-0.3125586245985079,0.06038403349618133
-0.17983198165893555,-0.7137377858161926,131.1448516845703,-0.2632550010523603,-0.5379453950820281,-0.31854052588654047,0.05710507469872649
0.11440356820821762,0.5946518778800964,130.98974609375,-0.26856855345695896,-0.5370019136917671,-0.3190857626652965,0.05611269213259236
0.05383116751909256,0.7724013924598694,130.99246215820312,-0.2738749665336217,-0.5359717679013392,-0.31768380653423556,0.06750480271875874
-0.1374800056219101,0.3774585425853729,131.1371612548828,-0.2791755055896161,-0.5347668364716484,-0.31838088018509236,0.07708696884413575
0,-0.2629730999469757,131.264404296875,-0.28449140081531366,-0.5334741032796184,-0.31952654689860827,0.07804101419945574
-0.6578077673912048,-0.13349784910678864,131.39991760253906,-0.2898625243585815,-0.5322009524144229,-0.32500827829353496,0.0747370896240077
0.9126017689704895,0.1363651305437088,131.3466339111328,-0.29526163496891966,-0.5309551351372563,-0.3228849949470409,0.07476098363598203
1.310034990310669,0.7752518057823181,131.16717529296875,-0.3004887017764203,-0.529645812011634,-0.3043630219530313,0.08235779143869892
-0.7205584645271301,0.9279929995536804,131.02041625976562,-0.3055204829391247,-0.5281549012650629,-0.29945071757150177,0.09655149814983224
-1.2715766429901123,0,131.02655029296875,-0.3106496709477829,-0.52648126567093,-0.3160518434674788,0.10428477314611291
0.8882860541343689,0.11699339002370834,131.25048828125,-0.31594381907424474,-0.5247350615775209,-0.3192459317079433,0.10525971806297715
-0.13833442330360413,-0.8142248392105103,131.51171875,-0.3212125046283472,-0.523029151793776,-0.31299633478435357,0.09944945598642047
-0.2121894508600235,0.7921919822692871,131.6254425048828,-0.32645345214379223,-0.5213731909201788,-0.3159173670690505,0.0992658488452436
1.3182449340820312,0.26610833406448364,131.5645751953125,-0.331641932186386,-0.5196452670285682,-0.3067002380422004,0.10808501814802503
-0.20483753085136414,-0.9469112753868103,131.36572265625,-0.33667628286186496,-0.5178911280414706,-0.2974218430152782,0.10241166030367231
-0.2533847391605377,0.7770034074783325,131.24578857421875,-0.34166513456975933,-0.5161960661939031,-0.301240361932044,0.100995761404435
0.22242718935012817,1.293915867805481,131.32801818847656,-0.34668795709847466,-0.5143689896652678,-0.3014983415137974,0.11825342203180012
-0.11191657930612564,-0.6348249316215515,131.50750732421875,-0.3517052551091182,-0.5123523290941695,-0.3005774197634307,0.12374584649999952
0.18037575483322144,0.7855481505393982,131.55589294433594,-0.35671012466243046,-0.5102794314289669,-0.3000069266340383,0.12500187332431492
0.3584562838077545,0.1026250422000885,131.7083740234375,-0.3616728212147588,-0.5081343881796214,-0.2955166596453635,0.13240331659714397
1.1968902349472046,-0.7207996249198914,131.7553253173828,-0.3664900887006013,-0.5059705950268023,-0.28255543865573884,0.1272518617411456
-1.750970482826233,-0.27423861622810364,131.74290466308594,-0.37123782380652187,-0.5039188305423073,-0.28717277405473074,0.11895987639824565
0.2855822443962097,0.5444909334182739,131.70211791992188,-0.37612579977954724,-0.5019173984136428,-0.29938434270831427,0.12121197904149707
-0.4680236577987671,0.16417811810970306,131.6998291015625,-0.3811282083672832,-0.4998479856343728,-0.30090468782000224,0.12711755447089687
0.11980195343494415,-0.1393425017595291,131.64283752441406,-0.3861674685604196,-0.4977276350309447,-0.3038065353563674,0.12732451794048166
0.3299107849597931,0.48651278018951416,131.7850799560547,-0.39119968076508166,-0.49558145068482345,-0.300058929203078,0.13021760359406487
-0.22702965140342712,0,131.92440795898438,-0.39619351839530265,-0.49337737168185364,-0.2992015864234416,0.1342718767623108
0.42042168974876404,0.1168590858578682,132.08990478515625,-0.40116678149969714,-0.4911313918548528,-0.2975899861038971,0.13524570247779305
-0.7382303476333618,0.15818457305431366,132.085693359375,-0.4061486846471152,-0.4888581965594651,-0.30023839158626875,0.1375377329687279
1.591327428817749,0.8440538048744202,131.90647888183594,-0.41109341498735963,-0.48649630112263015,-0.29312924924306555,0.14588971945146734
-0.3666503131389618,0.9154895544052124,131.7751007080078,-0.4158938554528219,-0.4839426152873779,-0.282923606612409,0.1605525807787976
-0.4421422779560089,-0.6580660343170166,131.8411865234375,-0.42066541504852145,-0.4812488623077252,-0.2896635448715338,0.16269777677953257
0.19068732857704163,-0.47656571865081787,132.11154174804688,-0.4255106029456428,-0.47861602656646685,-0.2917590027830252,0.15324251217146728
-0.3952275216579437,0.54691082239151,132.3487091064453,-0.4255106029456428,-0.47861602656646685,-0.2917590027830252,0.15324251217146728
0.6560379862785339,0.2863759696483612,132.42398071289062,-0.4255106029456428,-0.47861602656646685,-0.2917590027830252,0.15324251217146728
0.7613742351531982,-0.3125925064086914,132.3328857421875,-0.4255106029456428,-0.47861602656646685,-0.2917590027830252,0.15324251217146728
-0.27408933639526367,0.32931697368621826,132.11846923828125,-0.4255106029456428,-0.47861602656646685,-0.2917590027830252,0.15324251217146728
0.17913919687271118,-0.07439841330051422,131.9259796142578,-0.4255106029456428,-0.47861602656646685,-0.2917590027830252,0.15324251217146728
0.002560319844633341,1.0591458082199097,131.8649139404297,-0.4255106029456428,-0.47861602656646685,-0.2917590027830252,0.15324251217146728
0.20190192759037018,0.32716143131256104,131.97093200683594,-0.4255106029456428,-0.47861602656646685,-0.2917590027830252,0.15324251217146728
0.8623608946800232,-0.725494921207428,131.98487854003906,-0.4255106029456428,-0.47861602656646685,-0.2917590027830252,0.15324251217146728
0.8580046892166138,-0.18874742090702057,131.94911193847656,-0.4255106029456428,-0.47861602656646685,-0.2917590027830252,0.15324251217146728
1.5165749788284302,-1.449397087097168,131.52279663085938,-0.4255106029456428,-0.47861602656646685,-0.2917590027830252,0.15324251217146728
1.6774101257324219,-0.8762446045875549,130.85049438476562,-0.4255106029456428,-0.47861602656646685,-0.2917590027830252,0.15324251217146728
1.604285717010498,-1.6710001230239868,130.02560424804688,-0.4255106029456428,-0.47861602656646685,-0.2917590027830252,0.15324251217146728
1.0219732522964478,-1.591397762298584,128.9972381591797,-0.4255106029456428,-0.47861602656646685,-0.2917590027830252,0.15324251217146728
0.22966377437114716,-0.03274036571383476,127.82878112792969,-0.4255106029456428,-0.47861602656646685,-0.2917590027830252,0.15324251217146728
1.2987467050552368,-0.5636221766471863,126.4490966796875,-0.4255106029456428,-0.47861602656646685,-0.2917590027830252,0.15324251217146728
1.3676105737686157,-1.0605090856552124,124.92353057861328,-0.4255106029456428,-0.47861602656646685,-0.2917590027830252,0.15324251217146728
1.5164686441421509,-0.8554471731185913,123.25247192382812,-0.4255106029456428,-0.47861602656646685,-0.2917590027830252,0.15324251217146728
2.2674996852874756,-1.0105197429656982,121.46088409423828,-0.4255106029456428,-0.47861602656646685,-0.2917590027830252,0.15324251217146728
0.5992410778999329,-0.7072610259056091,119.56636810302734,-0.4255106029456428,-0.47861602656646685,-0.2917590027830252,0.15324251217146728
0.46547946333885193,-1.1387664079666138,117.55819702148438,-0.4255106029456428,-0.47861602656646685,-0.2917590027830252,0.15324251217146728
0.9353059530258179,0.9305039048194885,115.5149917602539,-0.4255106029456428,-0.47861602656646685,-0.2917590027830252,0.15324251217146728
1.4565093517303467,-1.0465803146362305,113.34687805175781,-0.4255106029456428,-0.47861602656646685,-0.2917590027830252,0.15324251217146728
1.187412977218628,-0.47146767377853394,111.05620574951172,-0.4255106029456428,-0.47861602656646685,-0.2917590027830252,0.15324251217146728
1.3945276737213135,-1.5138672590255737,108.64820861816406,-0.4255106029456428,-0.47861602656646685,-0.2917590027830252,0.15324251217146728
1.4560155868530273,-0.192182719707489,106.16948699951172,-0.4255106029456428,-0.47861602656646685,-0.2917590027830252,0.15324251217146728
0.5612674951553345,-0.6657786965370178,103.66329956054688,-0.4255106029456428,-0.47861602656646685,-0.2917590027830252,0.15324251217146728
0.6149060130119324,-0.01780734583735466,101.124267578125,-0.4255106029456428,-0.47861602656646685,-0.2917590027830252,0.15324251217146728
1.0113741159439087,-0.22510096430778503,98.58666229248047,-0.4255106029456428,-0.47861602656646685,-0.2917590027830252,0.15324251217146728
1.5725338459014893,-0.6810729503631592,95.9958724975586,-0.4255106029456428,-0.47861602656646685,-0.2917590027830252,0.15324251217146728
0.6405997276306152,-0.4660339653491974,93.39634704589844,-0.4255106029456428,-0.47861602656646685,-0.2917590027830252,0.15324251217146728
0.956883430480957,-0.09913821518421173,90.76119232177734,-0.4255106029456428,-0.47861602656646685,-0.2917590027830252,0.15324251217146728
0.5528439879417419,-0.5524112582206726,88.02256774902344,-0.4255106029456428,-0.47861602656646685,-0.2917590027830252,0.15324251217146728
1.8033764362335205,0.7074763774871826,85.30057525634766,-0.4255106029456428,-0.47861602656646685,-0.2917590027830252,0.15324251217146728
-0.8533951044082642,-1.4380220174789429,82.48770141601562,-0.4255106029456428,-0.47861602656646685,-0.2917590027830252,0.15324251217146728
1.271140217781067,-0.8361947536468506,79.69900512695312,-0.4255106029456428,-0.47861602656646685,-0.2917590027830252,0.15324251217146728
0.2736843526363373,-0.6643375754356384,76.86520385742188,-0.4255106029456428,-0.47861602656646685,-0.2917590027830252,0.15324251217146728
0.6436920166015625,-0.3646562397480011,74.10099792480469,-0.4255106029456428,-0.47861602656646685,-0.2917590027830252,0.15324251217146728
-0.26278626918792725,-0.6860673427581787,71.32745361328125,-0.4255106029456428,-0.47861602656646685,-0.2917590027830252,0.15324251217146728
0.5529507398605347,-0.08554308861494064,68.88331604003906,-0.4255106029456428,-0.47861602656646685,-0.2917590027830252,0.15324251217146728
0.1701488047838211,-0.2185608595609665,66.78561401367188,-0.4255106029456428,-0.47861602656646685,-0.2917590027830252,0.15324251217146728
0.023466357961297035,0.034292519092559814,65.12255859375,-0.4255106029456428,-0.47861602656646685,-0.2917590027830252,0.15324251217146728
0.5042814612388611,-0.0636087954044342,63.842926025390625,-0.4255106029456428,-0.47861602656646685,-0.2917590027830252,0.15324251217146728
-0.4068056344985962,0.6164340376853943,63.07844924926758,-0.4255106029456428,-0.47861602656646685,-0.2917590027830252,0.15324251217146728
-1.2715766429901123,1.3914097547531128,62.631797790527344,-0.4255106029456428,-0.47861602656646685,-0.2917590027830252,0.15324251217146728
-0.5818859338760376,0.5760373473167419,62.442848205566406,-0.4255106029456428,-0.47861602656646685,-0.2917590027830252,0.15324251217146728
0.14812280237674713,-0.14915892481803894,62.49150466918945,-0.4255106029456428,-0.47861602656646685,-0.2917590027830252,0.15324251217146728
-0.4218526780605316,-1.00883150100708,62.50315856933594,-0.4255106029456428,-0.47861602656646685,-0.2917590027830252,0.15324251217146728
-0.2055654525756836,-1.278498888015747,62.45296859741211,-0.4255106029456428,-0.47861602656646685,-0.2917590027830252,0.15324251217146728
0.13671739399433136,-0.07543201744556427,62.499210357666016,-0.4255106029456428,-0.47861602656646685,-0.2917590027830252,0.15324251217146728
0.14784963428974152,0.5689809918403625,62.53111267089844,-0.4255106029456428,-0.47861602656646685,-0.2917590027830252,0.15324251217146728
0.6136289238929749,0.4589672088623047,62.53696823120117,-0.4255106029456428,-0.47861602656646685,-0.2917590027830252,0.15324251217146728
0.3163500428199768,0.34959280490875244,62.55050277709961,-0.4255106029456428,-0.47861602656646685,-0.2917590027830252,0.15324251217146728
0.11033524572849274,-0.03415410593152046,62.549163818359375,-0.4255106029456428,-0.47861602656646685,-0.2917590027830252,0.15324251217146728
0.10997667163610458,-0.32672783732414246,62.544281005859375,-0.4255106029456428,-0.47861602656646685,-0.2917590027830252,0.15324251217146728
0.11173556745052338,-0.035427264869213104,62.55331802368164,-0.4255106029456428,-0.47861602656646685,-0.2917590027830252,0.15324251217146728
0.2599950134754181,0.24433743953704834,62.54899978637695,-0.4255106029456428,-0.47861602656646685,-0.2917590027830252,0.15324251217146728
0.25958138704299927,0.18743473291397095,62.5505256652832,-0.4255106029456428,-0.47861602656646685,-0.2917590027830252,0.15324251217146728
0.15504732728004456,0.018875306472182274,62.550697326660156,-0.4255106029456428,-0.47861602656646685,-0.2917590027830252,0.15324251217146728
0.13956306874752045,-0.09892218559980392,62.54707717895508,-0.4255106029456428,-0.47861602656646685,-0.2917590027830252,0.15324251217146728
0.184554785490036,0.039213940501213074,62.54935073852539,-0.4255106029456428,-0.47861602656646685,-0.2917590027830252,0.15324251217146728
0.21532493829727173,0.15316718816757202,62.54957580566406,-0.4255106029456428,-0.47861602656646685,-0.2917590027830252,0.15324251217146728
0.2084987610578537,0.07743335515260696,62.549888610839844,-0.4255106029456428,-0.47861602656646685,-0.2917590027830252,0.15324251217146728
0.15874120593070984,-0.0005378018831834197,62.5506477355957,-0.4255106029456428,-0.47861602656646685,-0.2917590027830252,0.15324251217146728
0.16835644841194153,0,62.54991149902344,-0.43035053787714167,-0.4760620220442954,-0.28903318899683644,0.15323803048910742
0.36901912093162537,0.5499297380447388,62.53941345214844,-0.4351304399458845,-0.47346986530433494,-0.28455505925230673,0.1578207783061469
1.0251891613006592,1.0074923038482666,62.513893127441406,-0.43977620424715685,-0.4707313646907677,-0.272936656900371,0.17079929532192195
1.5419896841049194,3.377687692642212,62.50562286376953,-0.444146872220121,-0.4675801833800905,-0.25154349985532454,0.2073424619593426
0.6063929200172424,2.3774640560150146,62.64180374145508,-0.44819007064797906,-0.46372481236488916,-0.23364031148763986,0.2553020598648195
0.3697020709514618,1.005053997039795,62.66322326660156,-0.4520162914650669,-0.45923488094679116,-0.22550618656290067,0.2834897103069429
1.039515495300293,0.7007214426994324,62.663360595703125,-0.4556768655767922,-0.45439159581391575,-0.21376270684413604,0.29770450563810313
0.7022273540496826,1.4446784257888794,62.633544921875,-0.4591186229929896,-0.44928086795130234,-0.19924818309955292,0.31558283787550573
1.1751083135604858,2.4637813568115234,62.628997802734375,-0.4623090555121759,-0.44374973316847444,-0.18360371920280152,0.3481533360638424
1.1753298044204712,0.6382544636726379,62.613853454589844,-0.465205892629585,-0.4377317584132101,-0.16401673488629354,0.3740036345678771
0.7671207785606384,-0.06734874099493027,62.51228332519531,-0.467804612476094,-0.43145871827300397,-0.1478296466947843,0.378761182256858
-0.16526755690574646,1.016486644744873,62.4267463684082,-0.47022664455839214,-0.42508011954762925,-0.14281420318099353,0.3866706647881075
0.8742091059684753,0.6197985410690308,62.48184585571289,-0.47255764922605714,-0.41852197755214593,-0.13690635693880412,0.40030637466989005
0.8210879564285278,1.175563097000122,62.50726318359375,-0.4747216928790374,-0.4117255267494485,-0.1227788814188291,0.41526772165379966
1.157010793685913,0.485547810792923,62.541221618652344,-0.4766306396005933,-0.40468904313106624,-0.10629472516787543,0.42911031255207505
-0.42539891600608826,1.1437948942184448,62.589839935302734,-0.4783514119729968,-0.3974240557895725,-0.10019795952054356,0.4426881684271698
0.2240733504295349,1.6377681493759155,62.62223434448242,-0.4800353589070598,-0.38985275554887006,-0.10187567256701484,0.4658678604571228
1.3716193437576294,1.2049074172973633,62.688453674316406,-0.48162247479052483,-0.38189088318245457,-0.08857823344878847,0.48955682351273344
-0.14985790848731995,0.15618060529232025,62.840179443359375,-0.483013934137222,-0.3736370827890069,-0.07839688815486923,0.5008992237009808
0.22232960164546967,-0.20048393309116364,62.84442901611328,-0.48431551618333385,-0.3652918390139766,-0.07779295737855131,0.5005300293026571
0.3349880874156952,1.5399552583694458,62.857444763183594,-0.4855733628556805,-0.3568566530168991,-0.0731486433030416,0.5116922903466428
1.3158596754074097,0.5233479142189026,62.93013381958008,-0.4866778647049796,-0.34818516323524756,-0.059391578612849064,0.5288864834515457
0.35846588015556335,0.3844120502471924,63.03831100463867,-0.48755145174050185,-0.3393073496246339,-0.04543886564982429,0.5364511498220964
-0.0913386344909668,0.3818017244338989,63.09282302856445,-0.4882902156648278,-0.33031328783769054,-0.04321280526928598,0.5428362646111055
0.49327442049980164,0.7785087823867798,63.09539031982422,-0.4889825168786208,-0.32118543964230956,-0.03986334038587903,0.5525055188346111
0.45060786604881287,0.543319821357727,63.17742156982422,-0.48958135850404183,-0.31188522067536156,-0.03199765466464057,0.5635207571991486
0.06603167206048965,0.4139622747898102,63.24885177612305,-0.4900787750027505,-0.3024267301320322,-0.027692325180396386,0.5714981080003781
0.5876766443252563,-0.12091933190822601,63.330142974853516,-0.490494917344897,-0.29288141146099245,-0.022244755877181836,0.5739401325243914
0.5290862917900085,-0.3013114631175995,63.44096374511719,-0.4907881102945087,-0.28334506416857386,-0.012938398076221295,0.5704215425658428
0.22958604991436005,1.453825831413269,63.4932975769043,-0.4909510646831607,-0.2737580027391226,-0.006616128562018223,0.5800258289683067
-1.5367448329925537,-0.09167418628931046,63.51069259643555,-0.4911521084080192,-0.2639963117254061,-0.01750911842100317,0.591377092677673
1.0349220037460327,0.21995984017848969,63.503936767578125,-0.49147877585595584,-0.25413111812148037,-0.021690975331390847,0.5924461397934162
1.365576148033142,0.31126028299331665,63.483646392822266,-0.4916735908509388,-0.24422012550525873,-0.0016868240665643894,0.5968729741531813
-0.4619036018848419,0.48491957783699036,63.54127883911133,-0.4916389495474546,-0.2342169523345925,0.005843780484671445,0.6035078063267671
0.5376836061477661,0.29456520080566406,63.641258239746094,-0.49153629070574734,-0.2241043580084073,0.006475280520195813,0.610003512815456
-0.22365833818912506,0.9379965662956238,63.708290100097656,-0.49140656205346916,-0.21385203822765655,0.009092157753184489,0.6202748608746333
0.9404528737068176,-0.3793955147266388,63.76047897338867,-0.4912052486926162,-0.2034753321400537,0.01506544554916526,0.6249298696377082
-0.20086048543453217,0.8647268414497375,63.80375671386719,-0.49090279735094455,-0.1930261307484028,0.021228715451434305,0.6289742973604008
1.036828637123108,-0.09668701142072678,63.63274002075195,-0.49049093208288674,-0.18248988969308855,0.02819511671550577,0.6353746292773093
-0.40589243173599243,0.6291217803955078,63.49101638793945,-0.4899771984566986,-0.17186333790173236,0.03345291842706506,0.6398115856854324
1.0997976064682007,-0.6589535474777222,63.4524040222168,-0.48937146195689113,-0.16120188312413364,0.03923546154983346,0.639562987626414
0.684101939201355,-1.1094337701797485,63.36992263793945,-0.48859365568483354,-0.15066530467186406,0.05410129109707976,0.624826426645935
0.11054643988609314,0.5295780301094055,63.34714889526367,-0.4876367835846678,-0.14029179865415892,0.06072336092280849,0.6199942954786821
-0.712379515171051,1.867730736732483,63.328792572021484,-0.4866665215328491,-0.12979208062070574,0.05570808529543384,0.6399718685356979
0.24874649941921234,-0.5494616031646729,63.3011474609375,-0.48577025018179687,-0.11903433634416857,0.051844476830835186,0.6509574446487629
0,-0.13646471500396729,63.357948303222656,-0.48488890150548997,-0.10823267937211757,0.05391736432599529,0.6452413919973576
-0.4753054976463318,0.5343518853187561,63.35334396362305,-0.4840232860929488,-0.09745102511866753,0.04995648517894252,0.6485571184166475
1.2767937183380127,-0.8092694282531738,63.34302520751953,-0.4831350191024184,-0.08666083130776052,0.05663555368470653,0.6462661388921941
-0.17685498297214508,0.1491595059633255,63.39345932006836,-0.4821147085732729,-0.0759355699597163,0.06580170981275543,0.640765222873112
0.10348805040121078,0.9504274725914001,63.39175033569336,-0.4821147085732729,-0.0759355699597163,0.06580170981275543,0.640765222873112
0.03234192728996277,-0.37294289469718933,63.4302864074707,-0.4821147085732729,-0.0759355699597163,0.06580170981275543,0.640765222873112
1.3631017208099365,-0.42717185616493225,63.56365966796875,-0.4821147085732729,-0.0759355699597163,0.06580170981275543,0.640765222873112
0.08815436065196991,0.1105104610323906,63.8273811340332,-0.4821147085732729,-0.0759355699597163,0.06580170981275543,0.640765222873112
-0.3450327217578888,0.6765008568763733,63.993080139160156,-0.4821147085732729,-0.0759355699597163,0.06580170981275543,0.640765222873112
-1.8291480541229248,-0.5834847688674927,64.0781478881836,-0.4821147085732729,-0.0759355699597163,0.06580170981275543,0.640765222873112
0.6016949415206909,0.2316356748342514,64.1042251586914,-0.4821147085732729,-0.0759355699597163,0.06580170981275543,0.640765222873112
1.9207183122634888,0.8395305275917053,64.08659362792969,-0.4821147085732729,-0.0759355699597163,0.06580170981275543,0.640765222873112
-1.0316530466079712,1.3585305213928223,64.2572250366211,-0.4821147085732729,-0.0759355699597163,0.06580170981275543,0.640765222873112
0.9396825432777405,-0.06154746189713478,64.3392562866211,-0.4821147085732729,-0.0759355699597163,0.06580170981275543,0.640765222873112
0.23307430744171143,-0.5450681447982788,64.40591430664062,-0.4821147085732729,-0.0759355699597163,0.06580170981275543,0.640765222873112
0.1032109260559082,-0.007195241749286652,64.40199279785156,-0.4821147085732729,-0.0759355699597163,0.06580170981275543,0.640765222873112
-0.5028042793273926,0.7631710171699524,64.26345825195312,-0.4821147085732729,-0.0759355699597163,0.06580170981275543,0.640765222873112
0.004136872012168169,-0.2193606197834015,64.0897445678711,-0.4821147085732729,-0.0759355699597163,0.06580170981275543,0.640765222873112
0.22077256441116333,-1.7251255512237549,63.99678421020508,-0.4821147085732729,-0.0759355699597163,0.06580170981275543,0.640765222873112
0.4222005307674408,-2.3684046268463135,63.662269592285156,-0.4821147085732729,-0.0759355699597163,0.06580170981275543,0.640765222873112
-2.113906145095825,-1.5412942171096802,63.08478927612305,-0.4821147085732729,-0.0759355699597163,0.06580170981275543,0.640765222873112
0.6116282939910889,-1.9573614597320557,62.20014190673828,-0.4821147085732729,-0.0759355699597163,0.06580170981275543,0.640765222873112
-0.4714576005935669,-1.9863462448120117,61.10658264160156,-0.4821147085732729,-0.0759355699597163,0.06580170981275543,0.640765222873112
-0.6464301347732544,-1.9298882484436035,59.8543815612793,-0.4821147085732729,-0.0759355699597163,0.06580170981275543,0.640765222873112
-0.22901944816112518,-1.795371413230896,58.361549377441406,-0.4821147085732729,-0.0759355699597163,0.06580170981275543,0.640765222873112
0.03448230028152466,-0.31557324528694153,56.74627685546875,-0.4821147085732729,-0.0759355699597163,0.06580170981275543,0.640765222873112
0.6874446272850037,-1.9305285215377808,54.999385833740234,-0.4821147085732729,-0.0759355699597163,0.06580170981275543,0.640765222873112
-1.146745204925537,-1.5116312503814697,53.13673400878906,-0.4821147085732729,-0.0759355699597163,0.06580170981275543,0.640765222873112
0.35014456510543823,-1.769713282585144,51.15886688232422,-0.4821147085732729,-0.0759355699597163,0.06580170981275543,0.640765222873112
-0.6597201824188232,-1.844712734222412,49.068660736083984,-0.4821147085732729,-0.0759355699597163,0.06580170981275543,0.640765222873112
0.26656487584114075,-1.4046913385391235,46.86670684814453,-0.4821147085732729,-0.0759355699597163,0.06580170981275543,0.640765222873112
-0.0011186351766809821,-1.4514284133911133,44.52793884277344,-0.4821147085732729,-0.0759355699597163,0.06580170981275543,0.640765222873112
-1.052079677581787,-0.4998599588871002,42.1672248840332,-0.4821147085732729,-0.0759355699597163,0.06580170981275543,0.640765222873112
0.16011010110378265,-1.0452319383621216,39.76675796508789,-0.4821147085732729,-0.0759355699597163,0.06580170981275543,0.640765222873112
-1.5007988214492798,-1.3704032897949219,37.34381866455078,-0.4821147085732729,-0.0759355699597163,0.06580170981275543,0.640765222873112
0.22834813594818115,-0.9744968414306641,34.94207000732422,-0.4821147085732729,-0.0759355699597163,0.06580170981275543,0.640765222873112
0.7268073558807373,0.08058245480060577,32.54781723022461,-0.4821147085732729,-0.0759355699597163,0.06580170981275543,0.640765222873112
0.012504689395427704,-1.602469801902771,30.043230056762695,-0.4821147085732729,-0.0759355699597163,0.06580170981275543,0.640765222873112
0.11617311835289001,-1.2913459539413452,27.566673278808594,-0.4821147085732729,-0.0759355699597163,0.06580170981275543,0.640765222873112
-1.4491719007492065,0.5604268908500671,25.09607696533203,-0.4821147085732729,-0.0759355699597163,0.06580170981275543,0.640765222873112
1.2580325603485107,-2.287540912628174,22.661575317382812,-0.4821147085732729,-0.0759355699597163,0.06580170981275543,0.640765222873112
-2.28247332572937,0.5141047239303589,20.23699378967285,-0.4821147085732729,-0.0759355699597163,0.06580170981275543,0.640765222873112
1.55221688747406,-1.2114688158035278,17.75356101989746,-0.4821147085732729,-0.0759355699597163,0.06580170981275543,0.640765222873112
-0.8156592845916748,-0.5247372984886169,15.197333335876465,-0.4821147085732729,-0.0759355699597163,0.06580170981275543,0.640765222873112
-1.0525175333023071,-0.22168713808059692,12.524892807006836,-0.4821147085732729,-0.0759355699597163,0.06580170981275543,0.640765222873112
-0.9360175728797913,-0.47348615527153015,9.76921272277832,-0.4821147085732729,-0.0759355699597163,0.06580170981275543,0.640765222873112
0.7482319474220276,-1.1133531332015991,6.96358585357666,-0.4821147085732729,-0.0759355699597163,0.06580170981275543,0.640765222873112
-0.9974738359451294,-0.9697649478912354,4.093763828277588,-0.4821147085732729,-0.0759355699597163,0.06580170981275543,0.640765222873112
-0.4885345697402954,-0.08126066625118256,1.2221455574035645,-0.4821147085732729,-0.0759355699597163,0.06580170981275543,0.640765222873112
-0.07970322668552399,-0.7300562262535095,-1.6875511407852173,-0.4821147085732729,-0.0759355699597163,0.06580170981275543,0.640765222873112
0.30423006415367126,0.25278788805007935,-4.605420112609863,-0.4821147085732729,-0.0759355699597163,0.06580170981275543,0.640765222873112
-0.8720576167106628,-0.9311555027961731,-7.6100568771362305,-0.4821147085732729,-0.0759355699597163,0.06580170981275543,0.640765222873112
-0.09124971181154251,-0.879044771194458,-10.65300464630127,-0.4821147085732729,-0.0759355699597163,0.06580170981275543,0.640765222873112
-0.8371177911758423,0.08980081975460052,-13.706692695617676,-0.4821147085732729,-0.0759355699597163,0.06580170981275543,0.640765222873112
-0.16377685964107513,-1.3237041234970093,-16.793331146240234,-0.4821147085732729,-0.0759355699597163,0.06580170981275543,0.640765222873112
-0.5227708220481873,1.1026790142059326,-19.90146827697754,-0.4821147085732729,-0.0759355699597163,0.06580170981275543,0.640765222873112
-0.26040178537368774,-0.7897320985794067,-22.990615844726562,-0.4821147085732729,-0.0759355699597163,0.06580170981275543,0.640765222873112
0.5552114844322205,-0.46763792634010315,-26.137617111206055,-0.4821147085732729,-0.0759355699597163,0.06580170981275543,0.640765222873112
-0.5723592638969421,0.10796262323856354,-29.32866096496582,-0.4821147085732729,-0.0759355699597163,0.06580170981275543,0.640765222873112
-1.2667486667633057,0.47055405378341675,-32.48930358886719,-0.4821147085732729,-0.0759355699597163,0.06580170981275543,0.640765222873112
-0.883975625038147,-0.8616636395454407,-35.66983413696289,-0.4821147085732729,-0.0759355699597163,0.06580170981275543,0.640765222873112
0.1290089339017868,0.6847209334373474,-38.814674377441406,-0.4821147085732729,-0.0759355699597163,0.06580170981275543,0.640765222873112
-0.5160154700279236,0.020245950669050217,-42.064456939697266,-0.4821147085732729,-0.0759355699597163,0.06580170981275543,0.640765222873112
-0.5463060140609741,0.8555033206939697,-45.3178825378418,-0.4821147085732729,-0.0759355699597163,0.06580170981275543,0.640765222873112
-0.33002969622612,0.24043895304203033,-48.565269470214844,-0.4821147085732729,-0.0759355699597163,0.06580170981275543,0.640765222873112
0.10660067945718765,0.43234553933143616,-51.800724029541016,-0.4821147085732729,-0.0759355699597163,0.06580170981275543,0.640765222873112
-0.21731248497962952,0.48748812079429626,-55.07234573364258,-0.4821147085732729,-0.0759355699597163,0.06580170981275543,0.640765222873112
0.43739354610443115,0.005176996812224388,-58.25506591796875,-0.4821147085732729,-0.0759355699597163,0.06580170981275543,0.640765222873112
-0.5850334763526917,-0.11086815595626831,-61.26243209838867,-0.4821147085732729,-0.0759355699597163,0.06580170981275543,0.640765222873112
-0.046928517520427704,1.7052572965621948,-63.906742095947266,-0.4821147085732729,-0.0759355699597163,0.06580170981275543,0.640765222873112
0.5992552638053894,0.12618359923362732,-66.1780014038086,-0.4821147085732729,-0.0759355699597163,0.06580170981275543,0.640765222873112
1.0015499591827393,0.568406343460083,-68.1412353515625,-0.4821147085732729,-0.0759355699597163,0.06580170981275543,0.640765222873112
1.8540644645690918,1.3303314447402954,-69.77477264404297,-0.4821147085732729,-0.0759355699597163,0.06580170981275543,0.640765222873112
1.0060288906097412,-0.6315516829490662,-71.08344268798828,-0.4821147085732729,-0.0759355699597163,0.06580170981275543,0.640765222873112
1.6869149208068848,0.4752034544944763,-71.98072052001953,-0.4821147085732729,-0.0759355699597163,0.06580170981275543,0.640765222873112
1.5603097677230835,0.010056029073894024,-72.47212219238281,-0.4821147085732729,-0.0759355699597163,0.06580170981275543,0.640765222873112
1.525282621383667,-0.8842104077339172,-72.52208709716797,-0.4821147085732729,-0.0759355699597163,0.06580170981275543,0.640765222873112
1.587483286857605,-0.7707371115684509,-72.24027252197266,-0.4821147085732729,-0.0759355699597163,0.06580170981275543,0.640765222873112
-0.63219153881073,-1.0155503749847412,-71.91791534423828,-0.4821147085732729,-0.0759355699597163,0.06580170981275543,0.640765222873112
-1.5424633026123047,-0.018796084448695183,-71.93631744384766,-0.4821147085732729,-0.0759355699597163,0.06580170981275543,0.640765222873112
0.9656212329864502,0.3084818124771118,-72.06681060791016,-0.4821147085732729,-0.0759355699597163,0.06580170981275543,0.640765222873112
-0.48176032304763794,-0.06977126002311707,-72.01593017578125,-0.48098441195764785,-0.06523957245679957,0.06983388406224553,0.6427544774768953
-0.18754476308822632,0.33096277713775635,-71.98206329345703,-0.4798669934098143,-0.05450885953238502,0.06425634167778,0.6449310734528506
0.1457289457321167,0.1970469355583191,-72.01301574707031,-0.4787989582580566,-0.04372334096701139,0.06390787653314575,0.6493311543919845
-0.4162944555282593,-0.22991302609443665,-72.00392150878906,-0.47775261625401777,-0.03290343742787665,0.06165316395151123,0.6490572703041836
0.3042798638343811,-0.18349577486515045,-71.9787368774414,-0.47673284231258245,-0.02211452520065134,0.06071970902072891,0.6456121969628537
0.28493931889533997,-0.9694707989692688,-71.97087097167969,-0.47567992916343627,-0.011434389041120057,0.06562986887680991,0.6360041421809002
0.340248703956604,-2.20613431930542,-71.87263488769531,-0.47454268218056916,-0.0010548481379852401,0.07083976906724278,0.6095407661952778
1.4305089712142944,-3.0253946781158447,-71.75062561035156,-0.4732390500797838,0.008740864007115132,0.08559608302700027,0.5659446912167672
1.6309332847595215,-2.195307493209839,-71.71639251708984,-0.4715998485393356,0.01781072676549697,0.11110810182678206,0.5224388397890531
0.4494173228740692,-1.8015998601913452,-71.55071258544922,-0.4696035780500258,0.02624047775132833,0.12844435689039532,0.4891312785107099
-0.3401642441749573,-0.2592643201351166,-71.33878326416016,-0.4674552517491651,0.03424955015842861,0.12935479921288792,0.47195741034132277
0.8473400473594666,-1.2910082340240479,-71.2223892211914,-0.46526411788706246,0.0420078491811896,0.1335812642394255,0.4590384723899964
0.6810922622680664,-2.1675937175750732,-71.26513671875,-0.462931622350459,0.049418309696606266,0.1463182001529883,0.43021678946000375
-0.5630553960800171,-1.7063188552856445,-71.22339630126953,-0.4604847886766461,0.056319567814491,0.14730184070455538,0.3979341846861644
1.0378528833389282,-0.34684839844703674,-71.30317687988281,-0.4579967859505105,0.06280922316664009,0.15125848643171297,0.3808244575717254
-0.5601916313171387,-1.4584671258926392,-71.36674499511719,-0.4554426402563693,0.06903092832586748,0.15523899686522788,0.3657801615355614
1.418688416481018,-1.8461353778839111,-71.34475708007812,-0.4527957058096458,0.07489777806647568,0.16239313674159353,0.3382418073374235
0.3567042946815491,-0.9136962890625,-71.3853988647461,-0.4499658623701218,0.08034348654522813,0.17718807600128159,0.31524321011287004
0,-0.5227397680282593,-71.54180908203125,-0.44698795663852536,0.08549778754314466,0.1801606117902945,0.30327290963711373
0.11882854998111725,-2.2789735794067383,-71.64615631103516,-0.4439770277927162,0.09035777261019134,0.1811508497068038,0.27992529840848873
1.1130369901657104,-1.1758594512939453,-71.6144027709961,-0.4408723007462037,0.09478327528986749,0.19141639587469406,0.2511350231526497
0.203163281083107,-0.18879477679729462,-71.60514831542969,-0.437590624685011,0.09887409135434976,0.2023847314684342,0.23976290458522267
-0.6529296040534973,0.12490532547235489,-71.64015197753906,-0.43424877959963226,0.10286570299665035,0.19863667877701427,0.23923049249084818
-0.7710378170013428,-0.3697971999645233,-71.66947937011719,-0.43103705491314415,0.10683587149132476,0.18677028360155726,0.2371897268700801
-0.28098273277282715,-1.2213114500045776,-71.65047454833984,-0.4279972738357414,0.11067853994957824,0.1780034456867725,0.2239304881203376
1.1161909103393555,-0.43872708082199097,-71.61062622070312,-0.42497254917307525,0.11429543429805425,0.18496351383316026,0.21009683369678286
0.7269216179847717,-1.0643256902694702,-71.70162200927734,-0.4217618300169445,0.1176926695283415,0.20032278490252797,0.19757139393768736
0.15443265438079834,-0.23101672530174255,-71.77836608886719,-0.41836191177743254,0.12089557175955495,0.20766740383890772,0.18677687380792726
0.7963934540748596,0.39407071471214294,-71.79718780517578,-0.4148347587892524,0.1240198428500628,0.21559095474270487,0.18813565705301394
-0.1972498893737793,-1.3352265357971191,-71.75811767578125,-0.4111999690182142,0.1270900790911488,0.22058381778188055,0.18029269187730582
-0.24724119901657104,-0.5639677047729492,-71.69287872314453,-0.40755443949187664,0.1299630688001754,0.21687972537862762,0.16446607320588857
0.18476691842079163,-1.1420010328292847,-71.53764343261719,-0.4039441158939409,0.13258569996905117,0.2163591063736628,0.15024966705920328
-0.11275450885295868,-0.3910154700279236,-71.39473724365234,-0.40033312992593767,0.1349834016073395,0.21695920978672806,0.13747452953539321
-0.322950154542923,0.7018008232116699,-71.3704605102539,-0.3967474003644503,0.13729622608245604,0.21332833759176237,0.1400644074785911
0.21791905164718628,-0.6587335467338562,-71.3977279663086,-0.39319922189784423,0.1396336236568546,0.21245307840096456,0.14042330144923956
0.11345597356557846,0,-71.39826965332031,-0.3896353251032995,0.1419282666291521,0.21521453694440426,0.13493385522645743
-0.08901411294937134,-0.9757974147796631,-71.30469512939453,-0.38604671880279445,0.14410940050690002,0.21541821911620598,0.12680221010329357
0.6827785968780518,-1.2152005434036255,-71.09814453125,-0.3824151815061404,0.1460706180393033,0.2203662564822783,0.10854389378509949
1.1485445499420166,1.4589532613754272,-70.85230255126953,-0.3786152353462399,0.147896610207803,0.23562728270577887,0.11057516643486451
-1.1754871606826782,-0.5345237255096436,-70.64221954345703,-0.37468998498244505,0.1498037261439303,0.2354027609496067,0.11827874590041271
1.2370470762252808,-0.643672525882721,-70.57772827148438,-0.37076233063915004,0.1516932193914794,0.23591576024579505,0.10846044380547634
-0.08417350053787231,-0.8004896640777588,-70.6242446899414,-0.36675034063674183,0.15340060441393452,0.24552304004319012,0.09642575888913901
0.2705388367176056,-0.6339961886405945,-70.60221099853516,-0.3626453479321206,0.15490808332231473,0.24707608451135457,0.08447171011648608
-0.13964833319187164,-0.5050045847892761,-70.60945892333984,-0.3585183235719643,0.15623684788165687,0.24816683870740236,0.07498003700457048
-0.43414944410324097,0.29080477356910706,-70.71382141113281,-0.3544220566613753,0.15747164017817608,0.24338519056327643,0.07319503857773574
0.914657473564148,0.11968431621789932,-70.95004272460938,-0.350332268205497,0.15872006367459576,0.24738942414211731,0.07661578099262746
-1.2771403789520264,-0.6206713914871216,-71.16768646240234,-0.346234283560447,0.1599622025886903,0.244368733263885,0.07244088869871727
1.2317423820495605,-0.06297073513269424,-71.0433120727539,-0.342164623978056,0.16112207558598698,0.24399041662303111,0.06674387097688547
-2.0089330673217773,-0.8331474661827087,-70.9238510131836,-0.33815208860970497,0.16217224300495484,0.23751382757909598,0.05927621929925711
-1.1233279705047607,0.8634200692176819,-70.9200210571289,-0.33441104294434687,0.16316228225737545,0.21141165226387482,0.05952849099121522
0.773369550704956,-0.6312536597251892,-70.96014404296875,-0.33091181807465725,0.16417054644122156,0.20849533209887644,0.061463211070319324
0.7844395637512207,-0.6498589515686035,-71.1044921875,-0.3273287146845054,0.16510596713883147,0.22147707471934458,0.05078727264287105
-0.4201388359069824,0.34769296646118164,-71.1667251586914,-0.3236121314441938,0.16593143793391352,0.22451291411804655,0.048269222766975865
1.103652000427246,-0.07489246875047684,-71.18341827392578,-0.3198227833502458,0.16675486945903747,0.23020885715571543,0.0505425602478984
-0.4281066656112671,0,-71.2303466796875,-0.3159390561938439,0.16759204459728366,0.23583840161251526,0.04991845634164443
-0.4611668586730957,-0.274169921875,-71.14881134033203,-0.3120701712728217,0.16840497929173642,0.22842778891014556,0.0476337069926861
0.3951304852962494,-0.7128068208694458,-71.04833221435547,-0.3082676273169149,0.16913033435670172,0.22787748579867184,0.03940890080314905
-1.0191594362258911,0,-71.06045532226562,-0.304513004564085,0.16973764889641604,0.22267724454092483,0.033468843962570334
0.08579201996326447,0.8110854625701904,-71.11199951171875,-0.3008665343367545,0.17035178834180403,0.21489918273873626,0.04022788948398859
0.338150292634964,-0.23720049858093262,-71.0617904663086,-0.297255440852734,0.17106210628903643,0.2184320353437215,0.04501026418389907
0.8146779537200928,-1.2864437103271484,-70.96438598632812,-0.2935348494132306,0.17170646873314946,0.2280389373966803,0.03231322910966506
0.117862768471241,1.0538262128829956,-70.76737213134766,-0.2896694406842449,0.17222886855876582,0.23581011008160807,0.03037474996429712
0.7022597193717957,-0.31242606043815613,-70.50675964355469,-0.2856823192323401,0.17278660051320166,0.24264446414696672,0.036553084568004116
0.5799190998077393,-0.21038196980953217,-70.35464477539062,-0.2815492046341143,0.1733595124761234,0.2533292876401295,0.03219635098260672
-1.0978418588638306,-0.32435405254364014,-70.18206024169922,-0.2773630166983799,0.17385898387983678,0.24901326464799542,0.027740217462996947
0,-0.6027569770812988,-70.14303588867188,-0.27328903463889,0.17425693812716278,0.23986458249079684,0.020014292216122456
-0.08711180090904236,0,-70.17454528808594,-0.2692973410279954,0.17454865154068974,0.23913865081655483,0.014991317407111633
-0.30308887362480164,0.09822028875350952,-70.2362060546875,-0.26533879411678435,0.17480532768419393,0.2358869785287728,0.015809819813390878
0.8091638088226318,-0.25193509459495544,-70.35798645019531,-0.26137220038191605,0.17505815004178923,0.2401042696554214,0.014528863098045495
-0.7347995638847351,-0.30964142084121704,-70.5513687133789,-0.2573652983706495,0.1752612993909625,0.24072397169657053,0.009849058802744058
0.778839111328125,-0.6072960495948792,-70.42646789550781,-0.2533501738738008,0.1753617741577835,0.24109096792526544,0.00220791321577659
-1.2464722394943237,-0.4574912488460541,-70.30896759033203,-0.2493644655978357,0.17532462914898805,0.2371940251905471,-0.006665314271231187
-0.9817600846290588,0.8220824003219604,-70.39310455322266,-0.24556597020050183,0.17523885940776449,0.2186254224895189,-0.003627054675598634
0.35593974590301514,-0.6186813116073608,-70.5693359375,-0.2419656729047547,0.17519253357210968,0.21341025300013522,-0.0019320456029769707
0.3654903471469879,0.24455368518829346,-70.74397277832031,-0.23835873604273508,0.17513435172689207,0.21942217044221857,-0.005049775823135866
0,0.265819251537323,-70.76869201660156,-0.23467631859459068,0.17508563136155686,0.22246792333511015,-0.0007966680170890623
0.8285771012306213,-0.5007138252258301,-70.75370025634766,-0.2309109797958645,0.17505604143809922,0.229372732512032,-0.002754122797826621
-0.39759668707847595,-0.45767924189567566,-70.80028533935547,-0.22705817172523673,0.17494358431736312,0.23296423596329988,-0.010740731690505836
-0.8296594023704529,-0.15413418412208557,-70.77391815185547,-0.22326066057650457,0.1747220850790479,0.2227371018845588,-0.015839176907320514
0.15297535061836243,-0.12695065140724182,-70.66082000732422,-0.2195953674931336,0.17443857901701415,0.21709806811995805,-0.018181550536731574
0.10706749558448792,0.571169912815094,-70.61688995361328,-0.21595900782681465,0.17416640173455528,0.21926509183831513,-0.014479723358332806
-0.1764458268880844,0.43395453691482544,-70.62508392333984,-0.21230940756918326,0.17399487332092542,0.21868693907745182,-0.0061036862772501435
-0.1935279220342636,-0.5219570398330688,-70.6185302734375,-0.20869031787267867,0.1738870339313797,0.21560382450309892,-0.006837040468235505
1.8074606657028198,-0.8813807368278503,-70.53919219970703,-0.20498484213487225,0.17367562924464097,0.2290532640336702,-0.018531521940409832
-0.489872008562088,0.3152516484260559,-70.36334228515625,-0.20107578852200964,0.17332745602560623,0.24003316950984296,-0.023249264343758118
0.3018850088119507,-0.39230045676231384,-70.0985107421875,-0.197088290349606,0.17293461767485357,0.23846661117859183,-0.023891337746560267
-0.5869248509407043,-0.4965746998786926,-69.92244720458984,-0.19313364126344398,0.1724747012709775,0.2360912791608522,-0.03129863071856866
-1.0159608125686646,0.5535436868667603,-69.85552215576172,-0.1893100981151735,0.17195701360531998,0.22273389863160747,-0.03082388916033476
0.20227137207984924,-0.9811689853668213,-69.85082244873047,-0.18565437268245844,0.1714135859180297,0.21595315329420067,-0.03438743331450193
0.24824120104312897,-0.1271536946296692,-69.88519287109375,-0.18202386786553265,0.17076349517667713,0.21970742473689217,-0.04362345564780602
0,0.8252238631248474,-69.95232391357422,-0.17834483848095645,0.1700849146775814,0.22177610141225157,-0.03780620424367954
1.2211052179336548,0,-70.11380767822266,-0.17456377115061797,0.1695121184862371,0.23195197822836536,-0.030929338717639143
-1.0004957914352417,-1.2309927940368652,-70.25074005126953,-0.1706825847477495,0.16891114389691278,0.23379039011585212,-0.04118761200127968
-0.3194117546081543,-0.07861898839473724,-70.09578704833984,-0.16687773849207163,0.16813373843422258,0.22279116056549048,-0.05210104352154304
-1.1412192583084106,0.6323646306991577,-70.01920318603516,-0.1632659851918771,0.1673038422673569,0.21061923545785244,-0.047486496502339534
-0.32879871129989624,-0.14858438074588776,-70.13145446777344,-0.1632659851918771,0.1673038422673569,0.21061923545785244,-0.047486496502339534
1.3852224349975586,0.11095528304576874,-70.31005096435547,-0.1632659851918771,0.1673038422673569,0.21061923545785244,-0.047486496502339534
-0.7428386211395264,0.0060783615335822105,-70.48358154296875,-0.1632659851918771,0.1673038422673569,0.21061923545785244,-0.047486496502339534
0.8550014495849609,-0.4551052153110504,-70.50438690185547,-0.1632659851918771,0.1673038422673569,0.21061923545785244,-0.047486496502339534
-0.1087525337934494,0.041748952120542526,-70.52407836914062,-0.1632659851918771,0.1673038422673569,0.21061923545785244,-0.047486496502339534
-0.4265498220920563,-0.09246406704187393,-70.48310852050781,-0.1632659851918771,0.1673038422673569,0.21061923545785244,-0.047486496502339534
-0.3712182641029358,-0.8591428995132446,-70.41144561767578,-0.1632659851918771,0.1673038422673569,0.21061923545785244,-0.047486496502339534
-0.8724027276039124,0.471661776304245,-70.27739715576172,-0.1632659851918771,0.1673038422673569,0.21061923545785244,-0.047486496502339534
0.12756820023059845,0.357628732919693,-70.28411102294922,-0.1632659851918771,0.1673038422673569,0.21061923545785244,-0.047486496502339534
0.2942047417163849,-0.32618728280067444,-70.2942886352539,-0.1632659851918771,0.1673038422673569,0.21061923545785244,-0.047486496502339534
0.935483992099762,-0.6883640289306641,-70.24957275390625,-0.1632659851918771,0.1673038422673569,0.21061923545785244,-0.047486496502339534
0.5706312656402588,1.0278806686401367,-70.08980560302734,-0.1632659851918771,0.1673038422673569,0.21061923545785244,-0.047486496502339534
0.4645959734916687,-0.1298891305923462,-69.86050415039062,-0.1632659851918771,0.1673038422673569,0.21061923545785244,-0.047486496502339534
-0.9620113968849182,-0.3255174458026886,-69.69782257080078,-0.1632659851918771,0.1673038422673569,0.21061923545785244,-0.047486496502339534
-0.4920193552970886,0.4390326738357544,-69.6529769897461,-0.1632659851918771,0.1673038422673569,0.21061923545785244,-0.047486496502339534
-1.100355863571167,0.18433402478694916,-69.70404815673828,-0.1632659851918771,0.1673038422673569,0.21061923545785244,-0.047486496502339534
-1.0579466819763184,2.329263210296631,-70.13617706298828,-0.1632659851918771,0.1673038422673569,0.21061923545785244,-0.047486496502339534
-1.1214606761932373,1.5858944654464722,-70.86087799072266,-0.1632659851918771,0.1673038422673569,0.21061923545785244,-0.047486496502339534
-1.040235996246338,1.13495934009552,-71.80393981933594,-0.1632659851918771,0.1673038422673569,0.21061923545785244,-0.047486496502339534
-1.335551381111145,1.2110909223556519,-72.9120864868164,-0.1632659851918771,0.1673038422673569,0.21061923545785244,-0.047486496502339534
-1.8314422369003296,0.9374028444290161,-74.21676635742188,-0.1632659851918771,0.1673038422673569,0.21061923545785244,-0.047486496502339534
-0.9929991960525513,1.9391870498657227,-75.67915344238281,-0.1632659851918771,0.1673038422673569,0.21061923545785244,-0.047486496502339534
-1.007352590560913,1.818223476409912,-77.28419494628906,-0.1632659851918771,0.1673038422673569,0.21061923545785244,-0.047486496502339534
-0.046614933758974075,0.9194433689117432,-78.89002227783203,-0.1632659851918771,0.1673038422673569,0.21061923545785244,-0.047486496502339534
-1.6209282875061035,-0.07299817353487015,-80.56572723388672,-0.1632659851918771,0.1673038422673569,0.21061923545785244,-0.047486496502339534
-0.032708823680877686,1.4123152494430542,-82.28548431396484,-0.1632659851918771,0.1673038422673569,0.21061923545785244,-0.047486496502339534
-1.2184098958969116,0.1114393025636673,-84.07063293457031,-0.1632659851918771,0.1673038422673569,0.21061923545785244,-0.047486496502339534
-0.03224227577447891,2.1455178260803223,-85.90640258789062,-0.1632659851918771,0.1673038422673569,0.21061923545785244,-0.047486496502339534
-0.6119802594184875,0.6354729533195496,-87.88445281982422,-0.1632659851918771,0.1673038422673569,0.21061923545785244,-0.047486496502339534
-0.9386719465255737,0.16418766975402832,-89.95288848876953,-0.1632659851918771,0.1673038422673569,0.21061923545785244,-0.047486496502339534
-0.7810272574424744,1.1236021518707275,-92.1775131225586,-0.1632659851918771,0.1673038422673569,0.21061923545785244,-0.047486496502339534
-0.5583073496818542,1.4829503297805786,-94.51190185546875,-0.1632659851918771,0.1673038422673569,0.21061923545785244,-0.047486496502339534
0.4104309380054474,1.5492732524871826,-96.94746398925781,-0.1632659851918771,0.1673038422673569,0.21061923545785244,-0.047486496502339534
-2.160005569458008,-0.7422561645507812,-99.37837982177734,-0.1632659851918771,0.1673038422673569,0.21061923545785244,-0.047486496502339534
1.0540066957473755,1.0319682359695435,-101.87696838378906,-0.1632659851918771,0.1673038422673569,0.21061923545785244,-0.047486496502339534
-2.0228986740112305,1.8524430990219116,-104.42855072021484,-0.1632659851918771,0.1673038422673569,0.21061923545785244,-0.047486496502339534
0.5198420882225037,-0.9064222574234009,-107.05802154541016,-0.1632659851918771,0.1673038422673569,0.21061923545785244,-0.047486496502339534
0.4614544212818146,2.3249592781066895,-109.6891860961914,-0.1632659851918771,0.1673038422673569,0.21061923545785244,-0.047486496502339534
-1.0746309757232666,0.719744861125946,-112.40776824951172,-0.1632659851918771,0.1673038422673569,0.21061923545785244,-0.047486496502339534
-0.08820626884698868,0.8960967063903809,-115.1322250366211,-0.1632659851918771,0.1673038422673569,0.21061923545785244,-0.047486496502339534
-0.8698505163192749,0.8763235807418823,-117.88555908203125,-0.1632659851918771,0.1673038422673569,0.21061923545785244,-0.047486496502339534
0.34725460410118103,-0.5896749496459961,-120.66877746582031,-0.1632659851918771,0.1673038422673569,0.21061923545785244,-0.047486496502339534
-1.2384077310562134,0.8588482141494751,-123.4441146850586,-0.1632659851918771,0.1673038422673569,0.21061923545785244,-0.047486496502339534
0.8279122114181519,0.62941575050354,-126.24361419677734,-0.1632659851918771,0.1673038422673569,0.21061923545785244,-0.047486496502339534
-1.5359634160995483,1.2283529043197632,-129.00344848632812,-0.1632659851918771,0.1673038422673569,0.21061923545785244,-0.047486496502339534
0.4359513223171234,0.15096375346183777,-131.86257934570312,-0.1632659851918771,0.1673038422673569,0.21061923545785244,-0.047486496502339534
-0.6895933151245117,1.2628391981124878,-134.75714111328125,-0.1632659851918771,0.1673038422673569,0.21061923545785244,-0.047486496502339534
1.266312599182129,0.07034014910459518,-137.66249084472656,-0.1632659851918771,0.1673038422673569,0.21061923545785244,-0.047486496502339534
-1.038452386856079,0.7450624108314514,-140.56976318359375,-0.1632659851918771,0.1673038422673569,0.21061923545785244,-0.047486496502339534
0.6596036553382874,-0.12122141569852829,-143.2408905029297,-0.1632659851918771,0.1673038422673569,0.21061923545785244,-0.047486496502339534
0.6080541610717773,0.5199662446975708,-145.6328887939453,-0.1632659851918771,0.1673038422673569,0.21061923545785244,-0.047486496502339534
-0.787537693977356,0.2578272819519043,-147.5688018798828,-0.1632659851918771,0.1673038422673569,0.21061923545785244,-0.047486496502339534
-0.31476908922195435,-1.7048455476760864,-149.116455078125,-0.1632659851918771,0.1673038422673569,0.21061923545785244,-0.047486496502339534
0.8147883415222168,-1.415649175643921,-150.4715118408203,-0.1632659851918771,0.1673038422673569,0.21061923545785244,-0.047486496502339534
-0.4483884274959564,-0.7021964192390442,-151.39659118652344,-0.1632659851918771,0.1673038422673569,0.21061923545785244,-0.047486496502339534
0.38707417249679565,-1.4218051433563232,-151.96591186523438,-0.1632659851918771,0.1673038422673569,0.21061923545785244,-0.047486496502339534
0.8267571330070496,-0.9422797560691833,-152.30364990234375,-0.1632659851918771,0.1673038422673569,0.21061923545785244,-0.047486496502339534
0.4976385831832886,0.25150054693222046,-152.38046264648438,-0.1632659851918771,0.1673038422673569,0.21061923545785244,-0.047486496502339534
0.9173535108566284,0.8619084358215332,-152.34408569335938,-0.1632659851918771,0.1673038422673569,0.21061923545785244,-0.047486496502339534
1.5320204496383667,0.5925154685974121,-152.36891174316406,-0.1632659851918771,0.1673038422673569,0.21061923545785244,-0.047486496502339534
0.1624981164932251,0.5561191439628601,-152.35926818847656,-0.1632659851918771,0.1673038422673569,0.21061923545785244,-0.047486496502339534
-0.5387793183326721,-0.38525205850601196,-152.31515502929688,-0.15978179523992952,0.16652426642880797,0.20748355877585706,-0.04606260412353247
-0.6521885991096497,-0.3041102886199951,-152.31578063964844,-0.15640644203237652,0.16570868397486535,0.19755882613050438,-0.05180729034958253
-0.7071216702461243,-0.2624574303627014,-152.32412719726562,-0.1532081914766845,0.16480588415522074,0.1862312405525396,-0.056528688007771666
-0.3175930380821228,-0.167627215385437,-152.3153076171875,-0.1501754982111094,0.16383387236580316,0.17769195131647086,-0.060112726722339485
0.2504071891307831,0.2806747853755951,-152.34683227539062,-0.14721863137312316,0.16283984411279126,0.17713206924187636,-0.05917066363908817
0.3790294826030731,0.3809475004673004,-152.3467559814453,-0.14422271933911038,0.16189961237754555,0.1823773748396585,-0.053657144590397374
0.05007416382431984,0.13494637608528137,-152.3339385986328,-0.14115329756078082,0.16104115259802174,0.18595323855988677,-0.04935802895245919
-0.5487891435623169,-0.27731597423553467,-152.33456420898438,-0.13808870990282007,0.16020863200449809,0.18179728039540347,-0.05054444227037797
-1.1466690301895142,-0.46376165747642517,-152.3435516357422,-0.13517649538051835,0.15931476090890068,0.16766846228080487,-0.05672008920131097
-2.9487195014953613,-2.347899913787842,-152.31646728515625,-0.1326664229905386,0.1581741718130966,0.13354022451676423,-0.08015060229517987
-3.436420440673828,-1.3579009771347046,-152.37820434570312,-0.13088416507790984,0.15658098115741842,0.08033072499868765,-0.11103227638620108
-1.1947413682937622,0.3173602819442749,-152.5605926513672,-0.12986692812022113,0.15465818344714907,0.041737709923957735,-0.11970344884612133
-1.1909949779510498,0,-152.6456756591797,-0.12933697575664438,0.15268516487484873,0.02185657370525097,-0.11705877982991904
-0.6363674402236938,-1.4710419178009033,-152.6280975341797,-0.12909959969615234,0.15063202952228058,0.006628553553794773,-0.1293174624782599
-1.1285070180892944,-1.4917510747909546,-152.60671997070312,-0.12911168452986083,0.14827098896760182,-0.008078733598813463,-0.15400740408319205
-2.9883792400360107,0.347382128238678,-152.5377197265625,-0.12953222496887754,0.14562472883381583,-0.042386119083191,-0.1635438119711277
-0.1806463748216629,-1.230470895767212,-152.42442321777344,-0.13045873151018472,0.1428376730254409,-0.06879466587367161,-0.17090288503386547
-0.36481204628944397,0.19149437546730042,-152.4386749267578,-0.13164318833176752,0.13991714046096676,-0.07334015271626416,-0.1795610227030314
-1.4045519828796387,-0.9213554859161377,-152.33795166015625,-0.13298839671239757,0.13687377194991285,-0.08808485295933985,-0.18564319862343837
-0.575252890586853,-0.5394042730331421,-152.2122802734375,-0.1345939640445995,0.13367827698959517,-0.10458322690489394,-0.19781619661468236
-0.9067006707191467,0,-152.25473022460938,-0.1364399312681051,0.13034388174927872,-0.11693283991577727,-0.20231123222329186
-1.5161927938461304,-0.25766631960868835,-152.31930541992188,-0.13855706842396287,0.12695413438447326,-0.13712361878715457,-0.20445845155336426
-0.8318600654602051,-1.09291672706604,-152.36203002929688,-0.14100552129675617,0.1234527030358981,-0.1566907259480407,-0.21571331027565366
-1.3157702684402466,-0.48400089144706726,-152.41766357421875,-0.14376617439129993,0.11974797303001825,-0.17458764539721114,-0.22885429042992955
0.4518142640590668,-1.563057541847229,-152.3451690673828,-0.14673596542600215,0.11579157802054064,-0.1817872787670543,-0.24591311070738203
-0.883205771446228,0.9690633416175842,-152.2859344482422,-0.1497957111490216,0.11165177657817944,-0.18538220799528066,-0.2508630623759624
-0.6298595070838928,0.3143720030784607,-152.2594451904297,-0.15299048859328532,0.10755985299307286,-0.197991085316365,-0.2401677678368287
-0.17618222534656525,0.23756130039691925,-152.19741821289062,-0.1563463151355324,0.10359538556408929,-0.2047080997532855,-0.23556832364120053
-1.6189876794815063,-1.4857271909713745,-152.0481414794922,-0.15988278137481132,0.0995825686498905,-0.2196678489601861,-0.24596970606265434
-0.9620859026908875,-0.32055389881134033,-151.89093017578125,-0.1637231534117986,0.0953576373620558,-0.24117679547828938,-0.2610220484775103
-0.08110489696264267,0.41141775250434875,-151.91249084472656,-0.1678152104753016,0.09101357987727042,-0.2498700521420688,-0.26026484969673525
-1.0438076257705688,0,-151.8989715576172,-0.17205783026952587,0.08670440305958207,-0.2592443231648456,-0.25683636842586566
-0.19450359046459198,-0.4098753333091736,-151.841552734375,-0.17646456282340073,0.08239533335433784,-0.2695635833001386,-0.2602519962034421
-0.6753429770469666,-0.2671256363391876,-151.80584716796875,-0.1810176952233691,0.07801078612805488,-0.2768123046960682,-0.26589367095051175
0,-0.36779314279556274,-151.76625061035156,-0.18567813245282072,0.07353513336366199,-0.2824401628381263,-0.27118466077663467
-0.30373454093933105,-1.21955406665802,-151.644287109375,-0.19040656117657695,0.0689051565722838,-0.28497128401262073,-0.28441255418874783
-1.038939118385315,-0.43520787358283997,-151.5882568359375,-0.1952493238031293,0.06405003331217683,-0.29616023117365947,-0.2982022370240883
-0.5171568989753723,0.97246253490448,-151.56729125976562,-0.20029338987945144,0.0591173053799227,-0.3091276979849985,-0.293725114846408
-0.2224854975938797,0.9857226610183716,-151.63450622558594,-0.20549688223451873,0.054357871882199434,-0.3152913846230756,-0.2774069048803842
0.8480375409126282,-1.1039665937423706,-151.7210693359375,-0.21070829753078396,0.04972621208330942,-0.3100784509287527,-0.27839227098641756
-0.8924293518066406,0.8643308877944946,-151.66586303710938,-0.21587935447757525,0.045069699531733856,-0.3104483826862028,-0.28038923520264986
0.37500324845314026,-1.6386477947235107,-151.6015625,-0.2210894265573004,0.04034277360426407,-0.31476026688081526,-0.28684187609372497
0,-0.15707798302173615,-151.64549255371094,-0.2263093891130603,0.03543737249035857,-0.31163523981037244,-0.30180625757493534
-0.7167420983314514,0.34773945808410645,-151.67800903320312,-0.2315530835333951,0.030420508577655644,-0.3176080906298012,-0.3002174119494156
-1.4342613220214844,-0.10339327901601791,-151.64462280273438,-0.23699592694808297,0.02543385352982289,-0.33553311913274236,-0.29818119379051483
1.043290138244629,0.367258220911026,-151.5495147705078,-0.2426152963769465,0.02048249092094591,-0.33879121233088283,-0.29598231927472307
-0.13239134848117828,0.5691151022911072,-151.37948608398438,-0.24819855972206098,0.015614478191589561,-0.3312003890828541,-0.2881792082480386
-0.8166247010231018,-0.6714039444923401,-151.313232421875,-0.2537844700991019,0.010804387995636055,-0.33910885616205644,-0.2890316152663822
-0.09353996068239212,0.32090824842453003,-151.38758850097656,-0.2594994902477546,0.00596285442896942,-0.3466935616762689,-0.29195241273361394
0.5611441731452942,-1.4532787799835205,-151.4170684814453,-0.26524524376093805,0.0010183440409398132,-0.3427968599057447,-0.30138883382993886
-0.5834705233573914,-0.15180270373821259,-151.3404541015625,-0.2709600752003541,-0.004116267181484288,-0.34298291282417886,-0.3147645128609533
-0.9415338039398193,0.7426151633262634,-151.1562957763672,-0.2767823601590416,-0.009321313752806561,-0.3556912822183223,-0.30984107569771957
-0.2043575942516327,-0.6089675426483154,-151.0537872314453,-0.2827901239875547,-0.014476050596332585,-0.3652403772032511,-0.3087273455254033
-0.3905290365219116,0.7993178963661194,-151.1495819091797,-0.2889187751791904,-0.01960828758052557,-0.3701977657930306,-0.30714109257775496
0.16830062866210938,0.27696070075035095,-151.20147705078125,-0.2951041704707312,-0.02465256422091062,-0.3720496691918623,-0.29817210426845103
-0.2922014892101288,0.3762315511703491,-151.20138549804688,-0.3013136025170225,-0.029576738719001423,-0.37308217636309576,-0.2927288355024452
0.7154548168182373,-0.2992069125175476,-151.14205932617188,-0.30750224619754574,-0.0344502037108024,-0.36955506529969484,-0.29208696351367186
0.26713499426841736,-0.06940187513828278,-151.1521759033203,-0.3135932618823263,-0.039343917601839695,-0.3613668168739727,-0.2951587034108038
-0.2753382623195648,-0.7471107840538025,-151.16079711914062,-0.3196166118349516,-0.04431993159335254,-0.3614351774410656,-0.30196297557073787
-0.8693721890449524,-0.6746440529823303,-151.1347198486328,-0.3257200252403141,-0.049451380827659014,-0.3709744312024366,-0.313810932546039
-0.8936576247215271,1.2365598678588867,-151.08517456054688,-0.3320253650529774,-0.054642541105171014,-0.3856663463171573,-0.309128300755401
-0.41861194372177124,0.7627398371696472,-151.15554809570312,-0.3385442673227386,-0.059655839193800714,-0.39660192605418476,-0.2924674698801632
-0.13612738251686096,0.13236704468727112,-151.2914276123047,-0.34519282298796383,-0.06446813682500781,-0.40122475377284,-0.28500824586468887
0.8059603571891785,0.06042107567191124,-151.27828979492188,-0.3518333860387145,-0.06920488619217212,-0.39564281231723736,-0.28340167819502904
0.11658243089914322,-1.4550670385360718,-151.27720642089844,-0.35836336743927344,-0.0740250979095104,-0.3879549557498347,-0.2950237278855637
0,0.16408276557922363,-151.3461456298828,-0.3648211873662916,-0.07903181172655846,-0.3869834354923418,-0.3057819301602041
-0.8473412990570068,0.43536633253097534,-151.34402465820312,-0.37132975443693184,-0.08408654881963754,-0.39404461298448357,-0.30078652100928577
-0.13966993987560272,0,-151.2213592529297,-0.377965707100488,-0.08906942373003321,-0.4022697066422553,-0.2971584682381943
0.5370774269104004,-0.28178519010543823,-151.0126190185547,-0.38464260446903703,-0.094041633283316,-0.398957977583632,-0.2995066781557396
-0.22598111629486084,0.5919570326805115,-150.90391540527344,-0.3912703001849715,-0.09901187154128839,-0.3963655083285025,-0.2969219128009473
-0.22478817403316498,0.5352976322174072,-151.0399932861328,-0.397907695413386,-0.1038822885140196,-0.400121919081236,-0.287528123926798
1.24630606174469,-0.9655424356460571,-151.1711883544922,-0.40450545532253773,-0.10870430202414877,-0.3916092700169733,-0.2911134972887034
-1.4017999172210693,-0.6005454063415527,-151.1411895751953,-0.4110430746738954,-0.11366494974576519,-0.3929050521459431,-0.3041642293052668
0.34050989151000977,-0.37366387248039246,-151.04583740234375,-0.41766519290589105,-0.11880200698966005,-0.40174913569353526,-0.31228263996211636
-0.8078935146331787,0.9992197155952454,-150.89501953125,-0.42439346903016684,-0.12396327627770123,-0.4056439992195617,-0.3070696746028259
-0.11376775801181793,0.3811323344707489,-150.7410888671875,-0.43121820660553767,-0.12898524640649375,-0.4133245098249366,-0.29556674085227597
0.32973188161849976,0.41937264800071716,-150.6431427001953,-0.43809195092736947,-0.13385576813024894,-0.41152480879488096,-0.2888958659983471
-0.2351948618888855,-0.02040672115981579,-150.6090850830078,-0.43809195092736947,-0.13385576813024894,-0.41152480879488096,-0.2888958659983471
-0.0977194681763649,-0.01413439679890871,-150.51199340820312,-0.43809195092736947,-0.13385576813024894,-0.41152480879488096,-0.2888958659983471
0.9571856260299683,-0.06770484894514084,-150.51710510253906,-0.43809195092736947,-0.13385576813024894,-0.41152480879488096,-0.2888958659983471
0.5883274674415588,0.10491592437028885,-150.51930236816406,-0.43809195092736947,-0.13385576813024894,-0.41152480879488096,-0.2888958659983471
1.7996653318405151,1.5117135047912598,-150.7715606689453,-0.43809195092736947,-0.13385576813024894,-0.41152480879488096,-0.2888958659983471
1.1167017221450806,1.5046075582504272,-151.29173278808594,-0.43809195092736947,-0.13385576813024894,-0.41152480879488096,-0.2888958659983471
1.0266395807266235,2.307847499847412,-152.0394287109375,-0.43809195092736947,-0.13385576813024894,-0.41152480879488096,-0.2888958659983471
0.13654039800167084,0.9100217223167419,-152.93505859375,-0.43809195092736947,-0.13385576813024894,-0.41152480879488096,-0.2888958659983471
1.162278413772583,1.7155206203460693,-154.09803771972656,-0.43809195092736947,-0.13385576813024894,-0.41152480879488096,-0.2888958659983471
0.7235348224639893,1.5601238012313843,-155.4845733642578,-0.43809195092736947,-0.13385576813024894,-0.41152480879488096,-0.2888958659983471
1.7071776390075684,0.9360204339027405,-156.98281860351562,-0.43809195092736947,-0.13385576813024894,-0.41152480879488096,-0.2888958659983471
0.16502605378627777,1.0969974994659424,-158.59735107421875,-0.43809195092736947,-0.13385576813024894,-0.41152480879488096,-0.2888958659983471
0.7898187637329102,-0.13103467226028442,-160.29141235351562,-0.43809195092736947,-0.13385576813024894,-0.41152480879488096,-0.2888958659983471
0.4231347143650055,2.4889752864837646,-162.0935516357422,-0.43809195092736947,-0.13385576813024894,-0.41152480879488096,-0.2888958659983471
1.4054287672042847,0.5786647200584412,-164.0119171142578,-0.43809195092736947,-0.13385576813024894,-0.41152480879488096,-0.2888958659983471
2.102186441421509,1.103606104850769,-166.01486206054688,-0.43809195092736947,-0.13385576813024894,-0.41152480879488096,-0.2888958659983471
0.23084917664527893,0.409701406955719,-168.1732635498047,-0.43809195092736947,-0.13385576813024894,-0.41152480879488096,-0.2888958659983471
0.5171875357627869,0.21797558665275574,-170.38479614257812,-0.43809195092736947,-0.13385576813024894,-0.41152480879488096,-0.2888958659983471
0.4089764952659607,1.5442887544631958,-172.76235961914062,-0.43809195092736947,-0.13385576813024894,-0.41152480879488096,-0.2888958659983471
1.7262219190597534,-0.36766669154167175,-175.20057678222656,-0.43809195092736947,-0.13385576813024894,-0.41152480879488096,-0.2888958659983471
1.2942025661468506,1.7897815704345703,-177.6824493408203,-0.43809195092736947,-0.13385576813024894,-0.41152480879488096,-0.2888958659983471
1.693374752998352,-0.995629072189331,179.76564025878906,-0.43809195092736947,-0.13385576813024894,-0.41152480879488096,-0.2888958659983471
-0.01352529413998127,1.5470550060272217,177.19581604003906,-0.43809195092736947,-0.13385576813024894,-0.41152480879488096,-0.2888958659983471
0.3192371428012848,0.033221736550331116,174.5851287841797,-0.43809195092736947,-0.13385576813024894,-0.41152480879488096,-0.2888958659983471
0.7156677842140198,-0.23153971135616302,171.99440002441406,-0.43809195092736947,-0.13385576813024894,-0.41152480879488096,-0.2888958659983471
0.8649147152900696,1.584776759147644,169.41384887695312,-0.43809195092736947,-0.13385576813024894,-0.41152480879488096,-0.2888958659983471
1.0665616989135742,-0.748863160610199,166.83079528808594,-0.43809195092736947,-0.13385576813024894,-0.41152480879488096,-0.2888958659983471
0.7527445554733276,1.940503716468811,164.27041625976562,-0.43809195092736947,-0.13385576813024894,-0.41152480879488096,-0.2888958659983471
0.4103768467903137,-0.9424520134925842,161.72068786621094,-0.43809195092736947,-0.13385576813024894,-0.41152480879488096,-0.2888958659983471
-0.17598441243171692,1.232582926750183,159.123046875,-0.43809195092736947,-0.13385576813024894,-0.41152480879488096,-0.2888958659983471
0.6318618655204773,-0.9324710369110107,156.52798461914062,-0.43809195092736947,-0.13385576813024894,-0.41152480879488096,-0.2888958659983471
1.6242866516113281,0.9987468719482422,153.84654235839844,-0.43809195092736947,-0.13385576813024894,-0.41152480879488096,-0.2888958659983471
0.4438820779323578,-0.3440568149089813,151.07740783691406,-0.43809195092736947,-0.13385576813024894,-0.41152480879488096,-0.2888958659983471
0.8859171867370605,0.11343887448310852,148.2693634033203,-0.43809195092736947,-0.13385576813024894,-0.41152480879488096,-0.2888958659983471
0.6744828820228577,0.7795248627662659,145.47463989257812,-0.43809195092736947,-0.13385576813024894,-0.41152480879488096,-0.2888958659983471
-0.8431386351585388,-0.7103569507598877,142.6634521484375,-0.43809195092736947,-0.13385576813024894,-0.41152480879488096,-0.2888958659983471
1.1912633180618286,0.6167313456535339,139.7874755859375,-0.43809195092736947,-0.13385576813024894,-0.41152480879488096,-0.2888958659983471
0.7028880715370178,0.2144775539636612,136.9723358154297,-0.43809195092736947,-0.13385576813024894,-0.41152480879488096,-0.2888958659983471
0.980193018913269,-0.4862501919269562,134.1501007080078,-0.43809195092736947,-0.13385576813024894,-0.41152480879488096,-0.2888958659983471
0.7855504751205444,0.18959279358386993,131.34219360351562,-0.43809195092736947,-0.13385576813024894,-0.41152480879488096,-0.2888958659983471
0.7826740145683289,-0.003163757734000683,128.49720764160156,-0.43809195092736947,-0.13385576813024894,-0.41152480879488096,-0.2888958659983471
0.2885754406452179,-0.6314875483512878,125.69741821289062,-0.43809195092736947,-0.13385576813024894,-0.41152480879488096,-0.2888958659983471
0.33066248893737793,0.16473788022994995,122.8517074584961,-0.43809195092736947,-0.13385576813024894,-0.41152480879488096,-0.2888958659983471
-0.44178131222724915,-0.27809974551200867,119.96366882324219,-0.43809195092736947,-0.13385576813024894,-0.41152480879488096,-0.2888958659983471
0.9539035558700562,0.35354945063591003,117.08736419677734,-0.43809195092736947,-0.13385576813024894,-0.41152480879488096,-0.2888958659983471
0.034213025122880936,-0.7060850262641907,114.2702407836914,-0.43809195092736947,-0.13385576813024894,-0.41152480879488096,-0.2888958659983471
0.13773848116397858,0.49946579337120056,111.46150970458984,-0.43809195092736947,-0.13385576813024894,-0.41152480879488096,-0.2888958659983471
0.38989970088005066,0.9304599165916443,108.62097930908203,-0.43809195092736947,-0.13385576813024894,-0.41152480879488096,-0.2888958659983471
0.09770580381155014,-1.1471197605133057,105.73152160644531,-0.43809195092736947,-0.13385576813024894,-0.41152480879488096,-0.2888958659983471
1.5687099695205688,0.2943151593208313,102.88272094726562,-0.43809195092736947,-0.13385576813024894,-0.41152480879488096,-0.2888958659983471
-0.1552249938249588,-0.43101415038108826,99.96048736572266,-0.43809195092736947,-0.13385576813024894,-0.41152480879488096,-0.2888958659983471
0.5537515878677368,-0.10074955970048904,96.91838836669922,-0.43809195092736947,-0.13385576813024894,-0.41152480879488096,-0.2888958659983471
0.16214625537395477,-0.42801612615585327,93.87574768066406,-0.43809195092736947,-0.13385576813024894,-0.41152480879488096,-0.2888958659983471
-0.037761908024549484,-0.6993158459663391,90.8272476196289,-0.43809195092736947,-0.13385576813024894,-0.41152480879488096,-0.2888958659983471
0.9670609831809998,-0.37263357639312744,87.81636810302734,-0.43809195092736947,-0.13385576813024894,-0.41152480879488096,-0.2888958659983471
-0.9400612711906433,-0.7295830845832825,84.79495239257812,-0.43809195092736947,-0.13385576813024894,-0.41152480879488096,-0.2888958659983471
0.3196946084499359,-0.8973336815834045,81.74512481689453,-0.43809195092736947,-0.13385576813024894,-0.41152480879488096,-0.2888958659983471
0.1604556441307068,0.1644141972064972,78.78668975830078,-0.43809195092736947,-0.13385576813024894,-0.41152480879488096,-0.2888958659983471
-1.0341689586639404,-0.2634525001049042,75.7135238647461,-0.43809195092736947,-0.13385576813024894,-0.41152480879488096,-0.2888958659983471
0.8819783926010132,0.8466264009475708,72.66093444824219,-0.43809195092736947,-0.13385576813024894,-0.41152480879488096,-0.2888958659983471
0.45581430196762085,-0.9290328621864319,69.57389068603516,-0.43809195092736947,-0.13385576813024894,-0.41152480879488096,-0.2888958659983471
-0.5299724340438843,-0.9378993511199951,66.46255493164062,-0.43809195092736947,-0.13385576813024894,-0.41152480879488096,-0.2888958659983471
-0.8320773243904114,-0.11550507694482803,63.209659576416016,-0.43809195092736947,-0.13385576813024894,-0.41152480879488096,-0.2888958659983471
-0.9212175607681274,-1.5633448362350464,60.05569076538086,-0.43809195092736947,-0.13385576813024894,-0.41152480879488096,-0.2888958659983471
0.28218623995780945,0.4065276086330414,56.82927322387695,-0.43809195092736947,-0.13385576813024894,-0.41152480879488096,-0.2888958659983471
-0.06215528026223183,-0.8494639992713928,53.507503509521484,-0.43809195092736947,-0.13385576813024894,-0.41152480879488096,-0.2888958659983471
0.24788424372673035,0.3159939646720886,50.218441009521484,-0.43809195092736947,-0.13385576813024894,-0.41152480879488096,-0.2888958659983471
1.3654325008392334,-0.14218786358833313,46.93830871582031,-0.43809195092736947,-0.13385576813024894,-0.41152480879488096,-0.2888958659983471
-0.9334774613380432,-0.8441733717918396,43.61338806152344,-0.43809195092736947,-0.13385576813024894,-0.41152480879488096,-0.2888958659983471
-0.9632144570350647,0.2091514617204666,40.335872650146484,-0.43809195092736947,-0.13385576813024894,-0.41152480879488096,-0.2888958659983471
0.6086335182189941,-1.8406671285629272,37.08633041381836,-0.43809195092736947,-0.13385576813024894,-0.41152480879488096,-0.2888958659983471
-1.144606351852417,1.007845401763916,33.889949798583984,-0.43809195092736947,-0.13385576813024894,-0.41152480879488096,-0.2888958659983471
-0.6240016222000122,-1.0866389274597168,30.745868682861328,-0.43809195092736947,-0.13385576813024894,-0.41152480879488096,-0.2888958659983471
0.29393482208251953,-0.047836676239967346,27.565414428710938,-0.43809195092736947,-0.13385576813024894,-0.41152480879488096,-0.2888958659983471
-0.7687201499938965,-0.07460595667362213,24.352649688720703,-0.43809195092736947,-0.13385576813024894,-0.41152480879488096,-0.2888958659983471
-0.8136445879936218,-0.6446501612663269,21.13349723815918,-0.43809195092736947,-0.13385576813024894,-0.41152480879488096,-0.2888958659983471
-0.5124381184577942,-0.08264752477407455,17.943458557128906,-0.43809195092736947,-0.13385576813024894,-0.41152480879488096,-0.2888958659983471
0.650454580783844,-0.0887007936835289,14.745722770690918,-0.43809195092736947,-0.13385576813024894,-0.41152480879488096,-0.2888958659983471
-0.15388664603233337,-0.03546733036637306,11.510408401489258,-0.43809195092736947,-0.13385576813024894,-0.41152480879488096,-0.2888958659983471
-0.8283409476280212,0.23730655014514923,8.25339126586914,-0.43809195092736947,-0.13385576813024894,-0.41152480879488096,-0.2888958659983471
-0.9535715579986572,-0.27541133761405945,5.0963215827941895,-0.43809195092736947,-0.13385576813024894,-0.41152480879488096,-0.2888958659983471
-0.8635371923446655,0.41422227025032043,2.0030815601348877,-0.43809195092736947,-0.13385576813024894,-0.41152480879488096,-0.2888958659983471
0.47491803765296936,0.17599253356456757,-1.126783013343811,-0.43809195092736947,-0.13385576813024894,-0.41152480879488096,-0.2888958659983471
-0.6157707571983337,-0.8025604486465454,-4.228134632110596,-0.43809195092736947,-0.13385576813024894,-0.41152480879488096,-0.2888958659983471
-0.3297978639602661,0.607185959815979,-7.299594879150391,-0.43809195092736947,-0.13385576813024894,-0.41152480879488096,-0.2888958659983471
-0.652688205242157,0.5881669521331787,-10.333128929138184,-0.43809195092736947,-0.13385576813024894,-0.41152480879488096,-0.2888958659983471
-0.1705792248249054,0.9582088589668274,-13.428949356079102,-0.43809195092736947,-0.13385576813024894,-0.41152480879488096,-0.2888958659983471
-0.07135895639657974,-1.0707486867904663,-16.503931045532227,-0.43809195092736947,-0.13385576813024894,-0.41152480879488096,-0.2888958659983471
-1.1067194938659668,-0.5372711420059204,-19.567180633544922,-0.43809195092736947,-0.13385576813024894,-0.41152480879488096,-0.2888958659983471
-0.6177619695663452,2.7265477180480957,-22.690448760986328,-0.43809195092736947,-0.13385576813024894,-0.41152480879488096,-0.2888958659983471
-0.012366489507257938,-1.7445119619369507,-25.90764045715332,-0.43809195092736947,-0.13385576813024894,-0.41152480879488096,-0.2888958659983471
0.04023951292037964,0.10277746617794037,-29.145872116088867,-0.43809195092736947,-0.13385576813024894,-0.41152480879488096,-0.2888958659983471
-0.7453333139419556,-0.3725326359272003,-32.452659606933594,-0.43809195092736947,-0.13385576813024894,-0.41152480879488096,-0.2888958659983471
-0.03166312351822853,1.0848033428192139,-35.736061096191406,-0.43809195092736947,-0.13385576813024894,-0.41152480879488096,-0.2888958659983471
-0.33937594294548035,-0.7282674312591553,-39.028995513916016,-0.43809195092736947,-0.13385576813024894,-0.41152480879488096,-0.2888958659983471
-0.4829508066177368,-0.39463141560554504,-42.39642333984375,-0.43809195092736947,-0.13385576813024894,-0.41152480879488096,-0.2888958659983471
-0.32249897718429565,0.5979445576667786,-45.76026153564453,-0.43809195092736947,-0.13385576813024894,-0.41152480879488096,-0.2888958659983471
-0.4222935438156128,0.5398023128509521,-49.18283462524414,-0.43809195092736947,-0.13385576813024894,-0.41152480879488096,-0.2888958659983471
-0.3835084140300751,-0.03956806659698486,-52.57042694091797,-0.43809195092736947,-0.13385576813024894,-0.41152480879488096,-0.2888958659983471
-0.9462125897407532,0.530780017375946,-56.021724700927734,-0.43809195092736947,-0.13385576813024894,-0.41152480879488096,-0.2888958659983471
0.33695411682128906,1.1079647541046143,-59.406307220458984,-0.43809195092736947,-0.13385576813024894,-0.41152480879488096,-0.2888958659983471
-0.8954774141311646,-0.6674056649208069,-62.811275482177734,-0.43809195092736947,-0.13385576813024894,-0.41152480879488096,-0.2888958659983471
0.7892752289772034,0.6640558242797852,-66.19501495361328,-0.43809195092736947,-0.13385576813024894,-0.41152480879488096,-0.2888958659983471
-0.8252310752868652,0.9731152653694153,-69.59017181396484,-0.43809195092736947,-0.13385576813024894,-0.41152480879488096,-0.2888958659983471
-0.6464108228683472,-0.010432764887809753,-73.00495147705078,-0.43809195092736947,-0.13385576813024894,-0.41152480879488096,-0.2888958659983471
0.21032127737998962,0.7831134796142578,-76.4617691040039,-0.43809195092736947,-0.13385576813024894,-0.41152480879488096,-0.2888958659983471
0.5039581656455994,1.7627094984054565,-79.92097473144531,-0.43809195092736947,-0.13385576813024894,-0.41152480879488096,-0.2888958659983471
0.10968165844678879,0.22973842918872833,-83.37217712402344,-0.43809195092736947,-0.13385576813024894,-0.41152480879488096,-0.2888958659983471
0.21432194113731384,0.382099449634552,-86.82594299316406,-0.43809195092736947,-0.13385576813024894,-0.41152480879488096,-0.2888958659983471
0.7946842312812805,0.5439596176147461,-90.28379821777344,-0.43809195092736947,-0.13385576813024894,-0.41152480879488096,-0.2888958659983471
-0.4417130947113037,0.17717117071151733,-93.73571014404297,-0.43809195092736947,-0.13385576813024894,-0.41152480879488096,-0.2888958659983471
-0.48798248171806335,-0.032284267246723175,-97.09333801269531,-0.43809195092736947,-0.13385576813024894,-0.41152480879488096,-0.2888958659983471
-0.07910092920064926,0.3034029006958008,-100.39033508300781,-0.43809195092736947,-0.13385576813024894,-0.41152480879488096,-0.2888958659983471
0.10957878082990646,1.3689278364181519,-103.68059539794922,-0.43809195092736947,-0.13385576813024894,-0.41152480879488096,-0.2888958659983471
0.20678408443927765,0.3185912072658539,-106.98380279541016,-0.43809195092736947,-0.13385576813024894,-0.41152480879488096,-0.2888958659983471
-0.9927400350570679,-0.9101599454879761,-110.50982666015625,-0.43809195092736947,-0.13385576813024894,-0.41152480879488096,-0.2888958659983471
2.4108006954193115,1.9274803400039673,-113.86030578613281,-0.43809195092736947,-0.13385576813024894,-0.41152480879488096,-0.2888958659983471
-0.49691423773765564,0.2370934635400772,-117.10186004638672,-0.43809195092736947,-0.13385576813024894,-0.41152480879488096,-0.2888958659983471
0.13016782701015472,0.20984305441379547,-120.34927368164062,-0.43809195092736947,-0.13385576813024894,-0.41152480879488096,-0.2888958659983471
0.023739131167531013,0.4819267988204956,-123.66217803955078,-0.43809195092736947,-0.13385576813024894,-0.41152480879488096,-0.2888958659983471
0.6030601263046265,0.19707491993904114,-126.96259307861328,-0.43809195092736947,-0.13385576813024894,-0.41152480879488096,-0.2888958659983471
0.12789945304393768,0.2696518898010254,-130.19979858398438,-0.43809195092736947,-0.13385576813024894,-0.41152480879488096,-0.2888958659983471
-0.9574074745178223,0.8643652200698853,-133.53392028808594,-0.43809195092736947,-0.13385576813024894,-0.41152480879488096,-0.2888958659983471
1.187721610069275,0.25474098324775696,-136.9225311279297,-0.43809195092736947,-0.13385576813024894,-0.41152480879488096,-0.2888958659983471
-0.2190704643726349,1.1473873853683472,-140.3157958984375,-0.43809195092736947,-0.13385576813024894,-0.41152480879488096,-0.2888958659983471
0.3241596817970276,-0.46515294909477234,-143.6437530517578,-0.43809195092736947,-0.13385576813024894,-0.41152480879488096,-0.2888958659983471
-0.0033548763021826744,0.5999154448509216,-146.86195373535156,-0.43809195092736947,-0.13385576813024894,-0.41152480879488096,-0.2888958659983471
0.7833465933799744,-0.01649855449795723,-150.18405151367188,-0.43809195092736947,-0.13385576813024894,-0.41152480879488096,-0.2888958659983471
0.38810524344444275,0.5540511012077332,-153.43113708496094,-0.43809195092736947,-0.13385576813024894,-0.41152480879488096,-0.2888958659983471
1.4217451810836792,-0.14551925659179688,-156.6811981201172,-0.43809195092736947,-0.13385576813024894,-0.41152480879488096,-0.2888958659983471
-0.5740184187889099,0.8342961668968201,-159.9240264892578,-0.43809195092736947,-0.13385576813024894,-0.41152480879488096,-0.2888958659983471
0.4387897551059723,-0.3929845690727234,-163.24192810058594,-0.43809195092736947,-0.13385576813024894,-0.41152480879488096,-0.2888958659983471
0.689900279045105,-0.3952358663082123,-166.56288146972656,-0.43809195092736947,-0.13385576813024894,-0.41152480879488096,-0.2888958659983471
0.7724716067314148,-0.27473121881484985,-169.9329071044922,-0.43809195092736947,-0.13385576813024894,-0.41152480879488096,-0.2888958659983471
1.0618716478347778,0.16269680857658386,-173.21731567382812,-0.43809195092736947,-0.13385576813024894,-0.41152480879488096,-0.2888958659983471
0.05695712938904762,-0.03609372302889824,-176.55653381347656,-0.43809195092736947,-0.13385576813024894,-0.41152480879488096,-0.2888958659983471
1.046602725982666,0.17053844034671783,-179.8743438720703,-0.43809195092736947,-0.13385576813024894,-0.41152480879488096,-0.2888958659983471
0.27797067165374756,0.6717239618301392,176.8284454345703,-0.43809195092736947,-0.13385576813024894,-0.41152480879488096,-0.2888958659983471
0.4586416482925415,-0.3077607750892639,173.6124725341797,-0.43809195092736947,-0.13385576813024894,-0.41152480879488096,-0.2888958659983471
0.4737468957901001,0.09154064208269119,170.40101623535156,-0.43809195092736947,-0.13385576813024894,-0.41152480879488096,-0.2888958659983471
-0.9701085686683655,-0.0385955274105072,167.08349609375,-0.43809195092736947,-0.13385576813024894,-0.41152480879488096,-0.2888958659983471
1.507779836654663,-0.4672062397003174,163.68228149414062,-0.43809195092736947,-0.13385576813024894,-0.41152480879488096,-0.2888958659983471
1.2810533046722412,-0.32446861267089844,160.42404174804688,-0.43809195092736947,-0.13385576813024894,-0.41152480879488096,-0.2888958659983471
-0.3474852740764618,0.43205809593200684,157.21612548828125,-0.43809195092736947,-0.13385576813024894,-0.41152480879488096,-0.2888958659983471
0.20495733618736267,-0.2545512914657593,153.99822998046875,-0.43809195092736947,-0.13385576813024894,-0.41152480879488096,-0.2888958659983471
0.8356776833534241,0.09190423786640167,150.8656768798828,-0.43809195092736947,-0.13385576813024894,-0.41152480879488096,-0.2888958659983471
0.020975200459361076,-0.9675809741020203,147.78103637695312,-0.43809195092736947,-0.13385576813024894,-0.41152480879488096,-0.2888958659983471
0.4022902548313141,0.2107497900724411,144.6863250732422,-0.43809195092736947,-0.13385576813024894,-0.41152480879488096,-0.2888958659983471
0.032933976501226425,0.2054905891418457,141.6216583251953,-0.43809195092736947,-0.13385576813024894,-0.41152480879488096,-0.2888958659983471
0.3732794523239136,-1.528681993484497,138.56707763671875,-0.43809195092736947,-0.13385576813024894,-0.41152480879488096,-0.2888958659983471
-0.2885812520980835,0.7636213898658752,135.55406188964844,-0.43809195092736947,-0.13385576813024894,-0.41152480879488096,-0.2888958659983471
0.576602041721344,-1.4622976779937744,132.4333038330078,-0.43809195092736947,-0.13385576813024894,-0.41152480879488096,-0.2888958659983471
0.4377540946006775,-0.1359754204750061,129.31021118164062,-0.43809195092736947,-0.13385576813024894,-0.41152480879488096,-0.2888958659983471
0.3844100832939148,-0.08794362843036652,126.17652130126953,-0.43809195092736947,-0.13385576813024894,-0.41152480879488096,-0.2888958659983471
0.3814293444156647,0.5094884037971497,123.04183197021484,-0.43809195092736947,-0.13385576813024894,-0.41152480879488096,-0.2888958659983471
0.13109691441059113,0.08132603019475937,119.8716812133789,-0.43809195092736947,-0.13385576813024894,-0.41152480879488096,-0.2888958659983471
0.534689724445343,-1.7700705528259277,116.6981430053711,-0.43809195092736947,-0.13385576813024894,-0.41152480879488096,-0.2888958659983471
0.848324179649353,0.3930334448814392,113.57695007324219,-0.43809195092736947,-0.13385576813024894,-0.41152480879488096,-0.2888958659983471
-0.2634469270706177,-0.04391782358288765,110.41178894042969,-0.43809195092736947,-0.13385576813024894,-0.41152480879488096,-0.2888958659983471
1.1625821590423584,-0.47293850779533386,107.28697967529297,-0.43809195092736947,-0.13385576813024894,-0.41152480879488096,-0.2888958659983471
-0.4304002821445465,-0.5608716011047363,104.08733367919922,-0.43809195092736947,-0.13385576813024894,-0.41152480879488096,-0.2888958659983471
-0.060683514922857285,-0.8701275587081909,100.9005355834961,-0.43809195092736947,-0.13385576813024894,-0.41152480879488096,-0.2888958659983471
0.3284977972507477,-0.3555164635181427,97.76132202148438,-0.43809195092736947,-0.13385576813024894,-0.41152480879488096,-0.2888958659983471
-0.847350001335144,-0.29301995038986206,94.53955841064453,-0.43809195092736947,-0.13385576813024894,-0.41152480879488096,-0.2888958659983471
1.3925703763961792,0.25058692693710327,91.33372497558594,-0.43809195092736947,-0.13385576813024894,-0.41152480879488096,-0.2888958659983471
-0.7592253088951111,-0.23528258502483368,88.10501861572266,-0.43809195092736947,-0.13385576813024894,-0.41152480879488096,-0.2888958659983471
-0.2722378969192505,-0.6117592453956604,84.91577911376953,-0.43809195092736947,-0.13385576813024894,-0.41152480879488096,-0.2888958659983471
-1.1178603172302246,-1.1490391492843628,81.7585220336914,-0.43809195092736947,-0.13385576813024894,-0.41152480879488096,-0.2888958659983471
1.2714041471481323,0.19006018340587616,78.67251586914062,-0.43809195092736947,-0.13385576813024894,-0.41152480879488096,-0.2888958659983471
0.5988870859146118,0.296671062707901,75.559326171875,-0.43809195092736947,-0.13385576813024894,-0.41152480879488096,-0.2888958659983471
-1.3993474245071411,-2.143491506576538,72.36186981201172,-0.43809195092736947,-0.13385576813024894,-0.41152480879488096,-0.2888958659983471
1.3978774547576904,-0.3136969804763794,69.23440551757812,-0.43809195092736947,-0.13385576813024894,-0.41152480879488096,-0.2888958659983471
-1.6257826089859009,-0.34470608830451965,66.06464385986328,-0.43809195092736947,-0.13385576813024894,-0.41152480879488096,-0.2888958659983471
2.1704978942871094,-0.3732773959636688,62.920326232910156,-0.43809195092736947,-0.13385576813024894,-0.41152480879488096,-0.2888958659983471
-2.2186853885650635,-0.3691650927066803,59.7283935546875,-0.43809195092736947,-0.13385576813024894,-0.41152480879488096,-0.2888958659983471
0.23631837964057922,-0.41033458709716797,56.57382583618164,-0.43809195092736947,-0.13385576813024894,-0.41152480879488096,-0.2888958659983471
0.2866711914539337,-0.5349714756011963,53.41746139526367,-0.43809195092736947,-0.13385576813024894,-0.41152480879488096,-0.2888958659983471
-1.1996806859970093,0.226975217461586,50.28035354614258,-0.43809195092736947,-0.13385576813024894,-0.41152480879488096,-0.2888958659983471
0.8737124800682068,-0.5490073561668396,47.06957244873047,-0.43809195092736947,-0.13385576813024894,-0.41152480879488096,-0.2888958659983471
-1.8107705116271973,0.10911516100168228,43.83918380737305,-0.43809195092736947,-0.13385576813024894,-0.41152480879488096,-0.2888958659983471
0.8161159753799438,-1.0805625915527344,40.59743881225586,-0.43809195092736947,-0.13385576813024894,-0.41152480879488096,-0.2888958659983471
-0.5570563673973083,-0.28798770904541016,37.346046447753906,-0.43809195092736947,-0.13385576813024894,-0.41152480879488096,-0.2888958659983471
-0.12028096616268158,-0.44283822178840637,34.13144302368164,-0.43809195092736947,-0.13385576813024894,-0.41152480879488096,-0.2888958659983471
0.474527508020401,0.5589752793312073,30.941303253173828,-0.43809195092736947,-0.13385576813024894,-0.41152480879488096,-0.2888958659983471
0.270033061504364,-0.6727116703987122,27.765615463256836,-0.43809195092736947,-0.13385576813024894,-0.41152480879488096,-0.2888958659983471
-0.7704039812088013,-0.6271743774414062,24.56708526611328,-0.43809195092736947,-0.13385576813024894,-0.41152480879488096,-0.2888958659983471
-0.8276156187057495,-0.3141957223415375,21.41423225402832,-0.43809195092736947,-0.13385576813024894,-0.41152480879488096,-0.2888958659983471
0.3114793002605438,-0.6875033974647522,18.150585174560547,-0.43809195092736947,-0.13385576813024894,-0.41152480879488096,-0.2888958659983471
-0.9883903861045837,1.1473664045333862,14.909857749938965,-0.43809195092736947,-0.13385576813024894,-0.41152480879488096,-0.2888958659983471
-0.02399435266852379,-1.238065481185913,11.628448486328125,-0.43809195092736947,-0.13385576813024894,-0.41152480879488096,-0.2888958659983471
-0.9227767586708069,0.7858065366744995,8.41038990020752,-0.43809195092736947,-0.13385576813024894,-0.41152480879488096,-0.2888958659983471
-0.5012317299842834,-0.27787816524505615,5.278262615203857,-0.43809195092736947,-0.13385576813024894,-0.41152480879488096,-0.2888958659983471
-1.2148691415786743,0.7540718913078308,2.161613941192627,-0.43809195092736947,-0.13385576813024894,-0.41152480879488096,-0.2888958659983471
0.2725163400173187,0.2193102240562439,-0.919244647026062,-0.43809195092736947,-0.13385576813024894,-0.41152480879488096,-0.2888958659983471
0.4789263606071472,-1.2029235363006592,-3.932525873184204,-0.43809195092736947,-0.13385576813024894,-0.41152480879488096,-0.2888958659983471
-1.6597152948379517,0.5354836583137512,-6.965500354766846,-0.43809195092736947,-0.13385576813024894,-0.41152480879488096,-0.2888958659983471
0.17569035291671753,-1.0176206827163696,-10.0734281539917,-0.43809195092736947,-0.13385576813024894,-0.41152480879488096,-0.2888958659983471
-0.18683816492557526,0.9553167223930359,-13.281846046447754,-0.43809195092736947,-0.13385576813024894,-0.41152480879488096,-0.2888958659983471
