faccX,faccY,yaw,posX,posY,velX,velY
0,0,-25.7972469329834,0.0,0.0,0.0,0.0
0,0,-25.7974796295166,0.0,0.0,0.0,0.0
0,0,-25.79815673828125,0.0,0.0,0.0,0.0
0.06132322922348976,0,-25.790271759033203,4.258557584964567e-06,0.0,0.000511026910195748,0.0
1.468641757965088,-1.1942453384399414,-25.784366607666016,0.00011902324130965604,-8.293370405832927e-05,0.013260735136767229,-0.009952044486999512
3.0096590518951416,-0.8923277258872986,-25.75763702392578,0.0006510286053849592,-0.000393702019419935,0.05057990855226914,-0.027340153356393178
1.6933000087738037,-0.29241153597831726,-25.67095375061035,0.0018206214604692328,-0.0009316448018782668,0.08977123405784368,-0.037212980538606645
0.9233496785163879,-0.8682094812393188,-25.679773330688477,0.003498520478606224,-0.0016324598259396025,0.11157664811859527,-0.046884822348753616
1.269010066986084,-0.5150166153907776,-25.626802444458008,0.005510378485131594,-0.0025099308995736973,0.1298463126644492,-0.058411706487337754
1.5260002613067627,-0.6823477745056152,-25.614513397216797,0.00786858163567053,-0.003566609645883243,0.15313806540022293,-0.06838974306980769
1.0273325443267822,-0.8930654525756836,-25.640790939331055,0.010598197503843242,-0.004815842393371794,0.17441583878050246,-0.08151818662881852
1.090022325515747,-0.3535909652709961,-25.6527042388916,0.013652166682812904,-0.0062610521995359,0.19206046269585686,-0.09190699011087418
0.7786195874214172,-0.8092576861381531,-25.720090866088867,0.016982941193920045,-0.00787358874662055,0.2076324786369999,-0.10159739553928375
1.0709316730499268,-0.5775405168533325,-25.817092895507812,0.020571923564291664,-0.009663184103038576,0.22304540580759444,-0.11315404723087946
0.9735593795776367,-0.41996973752975464,-25.95631217956543,0.024431325539739597,-0.01161835643566317,0.24008283124615748,-0.12146663268407186
1.6169393062591553,0.7480025291442871,-26.031169891357422,0.02861260180258089,-0.013620020258757803,0.2616703202947974,-0.11873302608728409
2.014920234680176,-0.5911011099815369,-25.93341827392578,0.03322598627561497,-0.015588008094992903,0.29193581646929184,-0.11742551426092783
-0.8798290491104126,-0.5127760767936707,-25.833826065063477,0.03817040899354551,-0.0176217581373122,0.3013949096823732,-0.12662449081738789
1.0023528337478638,-0.7145989537239075,-25.836759567260742,0.04320216608440711,-0.019817400694721276,0.3024159412210186,-0.13685261607170104
0.6531628966331482,-0.836840033531189,-25.77008628845215,0.04835739814158944,-0.022206016447809007,0.3162119056408604,-0.14978127429882684
0.8801524043083191,-0.21415172517299652,-25.68979263305664,0.053734076798169154,-0.024775356558255024,0.32898953314870594,-0.15853953895469505
0.2739136219024658,-0.3084418773651123,-25.694683074951172,0.059297379158023335,-0.027453973429898422,0.3386067500337958,-0.16289448564251263
-0.29738232493400574,-0.6508479118347168,-25.696624755859375,0.06493919522087607,-0.03023549887041251,0.338411177508533,-0.17088856721917786
0.9009072780609131,0,-25.724098205566406,0.07062129296776322,-0.033128839429053994,0.3434405521179239,-0.1763122998178005
0.6956378221511841,-0.08942505717277527,-25.709686279296875,0.07645617335724335,-0.036073587832765444,0.3567450946196914,-0.17705750862757363
0.3216572403907776,-0.3657059073448181,-25.633750915527344,0.08247257042469251,-0.03905615262687206,0.36522255347420773,-0.18085026666522025
0.6109068989753723,0.8180249929428101,-25.662202835083008,0.08862437438116307,-0.04203891269034809,0.372993921302259,-0.17708094095190366
0.9131367802619934,-0.5076124668121338,-25.7489013671875,0.09494677610281442,-0.044968705280787405,0.3856942852959037,-0.17449416990081468
0.9670336246490479,-0.5446092486381531,-25.81229019165039,0.10150558158030941,-0.047950012398262805,0.4013623720034957,-0.18326268419623373
0.6683454513549805,0,-25.826154708862305,0.10830852243842351,-0.05104221055491102,0.41499053097019595,-0.18780109460155167
0,-0.4489421248435974,-25.796167373657227,0.1152714441664931,-0.05420340533471768,0.4205600763981541,-0.1915422789752483
-0.30540332198143005,-0.21933797001838684,-25.826702117919922,0.12225957020910251,-0.05744218499089279,0.4180150487149755,-0.19711127976576484
-0.1164013147354126,-0.6126508116722107,-25.86502456665039,0.12919719569902455,-0.060785149985717386,0.4145000100756685,-0.20404451961318648
1.1434574127197266,1.0374557971954346,-25.911252975463867,0.1361768525404235,-0.0641563916330536,0.42305881089220443,-0.20050447806715962
-1.5727057456970215,0.7057336568832397,-26.0286808013916,0.14319802380994792,-0.06737707811097302,0.419481741450727,-0.18597789928317068
1.9554600715637207,-0.5636583566665649,-26.162277221679688,0.15021596632897855,-0.0704668434253997,0.4226713608329495,-0.1847939384480317
-0.4235231876373291,-0.09051424264907837,-26.274682998657227,0.15736687351535592,-0.07359217105226382,0.43543750153233607,-0.19024537677566208
0.38924479484558105,-1.4748646020889282,-26.324445724487305,0.16462178476361763,-0.07687163419607611,0.4351518482590715,-0.20329020048181215
-0.20697003602981567,0.42729610204696655,-26.20728302001953,0.1718869735372977,-0.08033255201660923,0.4366708045825362,-0.21201993798216184
0.2328125685453415,0.1138790100812912,-26.06177520751953,0.17916661490065355,-0.08382863604463635,0.4368861590201656,-0.20751014538109303
0.18765665590763092,-0.5186723470687866,-26.130922317504883,0.1864772501360211,-0.08731524911605648,0.44039006922394036,-0.21088342318932216
-1.4530165195465088,-0.5237787365913391,-26.349353790283203,0.19372921241033406,-0.09090236527224381,0.4298454036936164,-0.21957051555315654
1.7112222909927368,0.9064127802848816,-26.387147903442383,0.20091123342824477,-0.09453530205620658,0.4319971184556683,-0.21638189852237702
1.152818202972412,0.4315003454685211,-26.39679718017578,0.2083100771034757,-0.09804875639784666,0.45586412257204456,-0.205232622474432
-0.26353558897972107,-0.7277222871780396,-26.380643844604492,0.21596956821675928,-0.10148987107392814,0.46327481102198365,-0.20770113865534465
-0.4501534700393677,0.16258005797863007,-26.354568481445312,0.223641253326916,-0.10499080270632273,0.45732740219682455,-0.2124106572320064
-0.5882343649864197,-1.467233419418335,-26.35539436340332,0.23119126643054186,-0.10862158125473392,0.4486741702382763,-0.22328276857733725
0,0.5941876173019409,-26.320898056030273,0.23862831965916687,-0.1124035889117254,0.44377221719672283,-0.23055815026164053
-0.1389789581298828,-1.491184115409851,-26.234130859375,0.24601487196257546,-0.11630851617289913,0.4426140592123071,-0.23803312107920646
0.4998512864112854,0.6339989304542542,-26.17237091064453,0.25341683352780014,-0.12033526160650782,0.44562132861465215,-0.24517633095383642
0.4591902196407318,0.9739676713943481,-26.219032287597656,0.2609104557759646,-0.12430986944172116,0.4536133411650856,-0.23177660927176474
-0.092780202627182,-0.36889591813087463,-26.339052200317383,0.2684961232687864,-0.1281307940578295,0.45666675797353184,-0.2267343446612358
0.5787246823310852,0.29662635922431946,-26.464019775390625,0.2761409820461025,-0.13191471852155195,0.4607162953043977,-0.22733659098545708
0.5401750802993774,-0.36023154854774475,-26.493955612182617,0.28389728834024736,-0.13570807873167925,0.47004045999298494,-0.22786663422981895
-0.6160632967948914,-0.4514245092868805,-26.453901290893555,0.29172602599176267,-0.1395622209728592,0.46940805818885567,-0.23463043471177417
-0.7050487995147705,0.3430163562297821,-26.463136672973633,0.29945774973266653,-0.14348025656201774,0.4583987907196085,-0.23553383598724997
0.10941784083843231,-0.8071313500404358,-26.51002311706543,0.30705636631697414,-0.14743805070304208,0.45343519939730564,-0.23940146093567208
-0.3063218891620636,2.5371103286743164,-26.577425003051758,0.31459994574801786,-0.15130793762289815,0.451794332327942,-0.2249849694470564
0.5372962951660156,-0.8360096216201782,-26.762697219848633,0.32214589117612275,-0.154939555120137,0.45371911904464163,-0.21080913022160525
0.10167716443538666,-0.7221105098724365,-26.89448356628418,0.3297522496504502,-0.15856124341073963,0.45904389787465333,-0.22379346465071037
0.3339419364929199,0.2622399926185608,-26.97303581237793,0.3374332326081478,-0.16232306994083853,0.4626740570490559,-0.22762571896115932
-0.5128811597824097,-1.0283726453781128,-27.0305118560791,0.34513204055734803,-0.16617003557996615,0.4611828968549768,-0.2340101577341556
-0.8417743444442749,0.07564130425453186,-26.97562026977539,0.352724348872693,-0.17013636677422456,0.44989410098642113,-0.2419495855768521
0.9238729476928711,0.3915920853614807,-27.01842498779297,0.3602282851810256,-0.17413641310400432,0.4505782560134928,-0.23805597399671866
-0.6648908853530884,-0.4949333965778351,-27.24993324279785,0.3602282851810256,-0.17413641310400432,0.4505782560134928,-0.23805597399671866
0.6538616418838501,0.42980319261550903,-27.395374298095703,0.3602282851810256,-0.17413641310400432,0.4505782560134928,-0.23805597399671866
1.0998214483261108,0.5571613907814026,-27.399215698242188,0.3602282851810256,-0.17413641310400432,0.4505782560134928,-0.23805597399671866
-1.7105884552001953,0.484697163105011,-27.4915771484375,0.3602282851810256,-0.17413641310400432,0.4505782560134928,-0.23805597399671866
-2.6259825229644775,1.459814190864563,-27.941905975341797,0.3602282851810256,-0.17413641310400432,0.4505782560134928,-0.23805597399671866
-2.80812406539917,0.3726624846458435,-28.62375259399414,0.3602282851810256,-0.17413641310400432,0.4505782560134928,-0.23805597399671866
-2.4870553016662598,0.03494132682681084,-29.493982315063477,0.3602282851810256,-0.17413641310400432,0.4505782560134928,-0.23805597399671866
-1.2448492050170898,1.054914116859436,-30.605833053588867,0.3602282851810256,-0.17413641310400432,0.4505782560134928,-0.23805597399671866
-1.8733301162719727,-0.008087243884801865,-31.997230529785156,0.3602282851810256,-0.17413641310400432,0.4505782560134928,-0.23805597399671866
-2.382303476333618,0.7498263120651245,-33.59988021850586,0.3602282851810256,-0.17413641310400432,0.4505782560134928,-0.23805597399671866
-1.8164424896240234,1.6573747396469116,-35.37322998046875,0.3602282851810256,-0.17413641310400432,0.4505782560134928,-0.23805597399671866
-2.401986837387085,-0.34541699290275574,-37.27423095703125,0.3602282851810256,-0.17413641310400432,0.4505782560134928,-0.23805597399671866
-0.5839701294898987,0.2705596089363098,-39.26766586303711,0.3602282851810256,-0.17413641310400432,0.4505782560134928,-0.23805597399671866
-1.5156397819519043,0.23196324706077576,-41.38606262207031,0.3602282851810256,-0.17413641310400432,0.4505782560134928,-0.23805597399671866
-1.4480918645858765,0.029863091185688972,-43.55421829223633,0.3602282851810256,-0.17413641310400432,0.4505782560134928,-0.23805597399671866
-1.2380236387252808,0.24884557723999023,-45.827796936035156,0.3602282851810256,-0.17413641310400432,0.4505782560134928,-0.23805597399671866
-2.2982497215270996,0.22573257982730865,-48.15694808959961,0.3602282851810256,-0.17413641310400432,0.4505782560134928,-0.23805597399671866
-0.940116286277771,0.16064192354679108,-50.52861022949219,0.3602282851810256,-0.17413641310400432,0.4505782560134928,-0.23805597399671866
-0.952785074710846,1.6852288246154785,-52.935882568359375,0.3602282851810256,-0.17413641310400432,0.4505782560134928,-0.23805597399671866
-1.3018962144851685,0.27136051654815674,-55.41425704956055,0.3602282851810256,-0.17413641310400432,0.4505782560134928,-0.23805597399671866
-0.4148385226726532,0.6340685486793518,-57.90612030029297,0.3602282851810256,-0.17413641310400432,0.4505782560134928,-0.23805597399671866
0.38526108860969543,2.3063695430755615,-60.47783660888672,0.3602282851810256,-0.17413641310400432,0.4505782560134928,-0.23805597399671866
-2.0619356632232666,-1.377738356590271,-62.960636138916016,0.3602282851810256,-0.17413641310400432,0.4505782560134928,-0.23805597399671866
1.3142426013946533,2.9739367961883545,-65.4421157836914,0.3602282851810256,-0.17413641310400432,0.4505782560134928,-0.23805597399671866
-3.5248355865478516,-2.3434865474700928,-67.97311401367188,0.3602282851810256,-0.17413641310400432,0.4505782560134928,-0.23805597399671866
0.9058117866516113,2.0866823196411133,-70.45771789550781,0.3602282851810256,-0.17413641310400432,0.4505782560134928,-0.23805597399671866
-0.4132611155509949,1.957950234413147,-72.91573333740234,0.3602282851810256,-0.17413641310400432,0.4505782560134928,-0.23805597399671866
-1.4687248468399048,-2.091042995452881,-75.29737091064453,0.3602282851810256,-0.17413641310400432,0.4505782560134928,-0.23805597399671866
-0.16348806023597717,0.6687940359115601,-77.67008209228516,0.3602282851810256,-0.17413641310400432,0.4505782560134928,-0.23805597399671866
-0.83955317735672,1.1522822380065918,-80.12060546875,0.3602282851810256,-0.17413641310400432,0.4505782560134928,-0.23805597399671866
-1.1536885499954224,0.5519773364067078,-82.68222045898438,0.3602282851810256,-0.17413641310400432,0.4505782560134928,-0.23805597399671866
-0.292817622423172,0.6394804120063782,-85.2175521850586,0.3602282851810256,-0.17413641310400432,0.4505782560134928,-0.23805597399671866
-0.42072173953056335,0.3978250324726105,-87.7576675415039,0.3602282851810256,-0.17413641310400432,0.4505782560134928,-0.23805597399671866
-0.5854609608650208,0.803037703037262,-90.32257843017578,0.3602282851810256,-0.17413641310400432,0.4505782560134928,-0.23805597399671866
-0.17988328635692596,0.8432003855705261,-92.895263671875,0.3602282851810256,-0.17413641310400432,0.4505782560134928,-0.23805597399671866
-1.3623501062393188,-0.4285919666290283,-95.4818115234375,0.3602282851810256,-0.17413641310400432,0.4505782560134928,-0.23805597399671866
0.2715480327606201,1.0117186307907104,-98.15200805664062,0.3602282851810256,-0.17413641310400432,0.4505782560134928,-0.23805597399671866
-0.2992170453071594,0.6079879403114319,-100.86797332763672,0.3602282851810256,-0.17413641310400432,0.4505782560134928,-0.23805597399671866
0.4419880509376526,0.08098957687616348,-103.61106872558594,0.3602282851810256,-0.17413641310400432,0.4505782560134928,-0.23805597399671866
0.5110568404197693,0.8902345299720764,-106.4120864868164,0.3602282851810256,-0.17413641310400432,0.4505782560134928,-0.23805597399671866
-1.3742074966430664,0.22120970487594604,-109.16226959228516,0.3602282851810256,-0.17413641310400432,0.4505782560134928,-0.23805597399671866
1.2930090427398682,0.4104902744293213,-111.90802764892578,0.3602282851810256,-0.17413641310400432,0.4505782560134928,-0.23805597399671866
-0.3221817910671234,0.4392140805721283,-114.69927215576172,0.3602282851810256,-0.17413641310400432,0.4505782560134928,-0.23805597399671866
0.870938241481781,0.24015028774738312,-117.47854614257812,0.3602282851810256,-0.17413641310400432,0.4505782560134928,-0.23805597399671866
-1.0433580875396729,0.22167402505874634,-120.16132354736328,0.3602282851810256,-0.17413641310400432,0.4505782560134928,-0.23805597399671866
0.06864682585000992,0.9249972105026245,-122.90414428710938,0.3602282851810256,-0.17413641310400432,0.4505782560134928,-0.23805597399671866
0.33128222823143005,-0.5985327959060669,-125.35498046875,0.3602282851810256,-0.17413641310400432,0.4505782560134928,-0.23805597399671866
-0.2899791896343231,-0.9620691537857056,-127.3463363647461,0.3602282851810256,-0.17413641310400432,0.4505782560134928,-0.23805597399671866
1.9044815301895142,-1.205115556716919,-129.01722717285156,0.3602282851810256,-0.17413641310400432,0.4505782560134928,-0.23805597399671866
0.32564130425453186,-1.1281768083572388,-130.3140869140625,0.3602282851810256,-0.17413641310400432,0.4505782560134928,-0.23805597399671866
1.0656428337097168,-1.23189377784729,-131.1904296875,0.3602282851810256,-0.17413641310400432,0.4505782560134928,-0.23805597399671866
0.7115818858146667,-1.0795248746871948,-131.61868286132812,0.3602282851810256,-0.17413641310400432,0.4505782560134928,-0.23805597399671866
1.1697949171066284,-0.8914369940757751,-131.6259002685547,0.3602282851810256,-0.17413641310400432,0.4505782560134928,-0.23805597399671866
-0.6000325083732605,0.9925799369812012,-131.562744140625,0.3602282851810256,-0.17413641310400432,0.4505782560134928,-0.23805597399671866
0.4983353912830353,0.2767471373081207,-131.61172485351562,0.3602282851810256,-0.17413641310400432,0.4505782560134928,-0.23805597399671866
-0.2743419110774994,0.344905287027359,-131.57435607910156,0.3602282851810256,-0.17413641310400432,0.4505782560134928,-0.23805597399671866
-0.14996126294136047,-0.08633299916982651,-131.5867156982422,0.3602282851810256,-0.17413641310400432,0.4505782560134928,-0.23805597399671866
-0.4481499493122101,-0.11392194777727127,-131.5797576904297,0.3602282851810256,-0.17413641310400432,0.4505782560134928,-0.23805597399671866
-0.21633252501487732,0.011123296804726124,-131.57823181152344,0.3602282851810256,-0.17413641310400432,0.4505782560134928,-0.23805597399671866
-0.04893391206860542,0.18916206061840057,-131.58148193359375,0.3602282851810256,-0.17413641310400432,0.4505782560134928,-0.23805597399671866
-0.014830615371465683,0.33536285161972046,-131.5812225341797,0.3602282851810256,-0.17413641310400432,0.4505782560134928,-0.23805597399671866
-0.047456104308366776,0.1389220803976059,-131.58175659179688,0.3602282851810256,-0.17413641310400432,0.4505782560134928,-0.23805597399671866
-0.2440459430217743,0.07037005573511124,-131.5814666748047,0.3602282851810256,-0.17413641310400432,0.4505782560134928,-0.23805597399671866
-0.2236264944076538,-0.01755990833044052,-131.5785675048828,0.3602282851810256,-0.17413641310400432,0.4505782560134928,-0.23805597399671866
-0.1853957176208496,0.11500106006860733,-131.5801239013672,0.3602282851810256,-0.17413641310400432,0.4505782560134928,-0.23805597399671866
-0.05761731415987015,0.20073509216308594,-131.5782470703125,0.3602282851810256,-0.17413641310400432,0.4505782560134928,-0.23805597399671866
-0.0893801599740982,0.19508236646652222,-131.57901000976562,0.3602282851810256,-0.17413641310400432,0.4505782560134928,-0.23805597399671866
-0.15043103694915771,0.09910856932401657,-131.57643127441406,0.3602282851810256,-0.17413641310400432,0.4505782560134928,-0.23805597399671866
-0.19170057773590088,0.03951657935976982,-131.57688903808594,0.3602282851810256,-0.17413641310400432,0.4505782560134928,-0.23805597399671866
-0.16524022817611694,0.0845487043261528,-131.57655334472656,0.3602282851810256,-0.17413641310400432,0.4505782560134928,-0.23805597399671866
-0.10951048135757446,0.15427328646183014,-131.57737731933594,0.3602282851810256,-0.17413641310400432,0.4505782560134928,-0.23805597399671866
-0.09946806728839874,0.16310235857963562,-131.5770721435547,0.3602282851810256,-0.17413641310400432,0.4505782560134928,-0.23805597399671866
-0.15071657299995422,0.10471805185079575,-131.57630920410156,0.3602282851810256,-0.17413641310400432,0.4505782560134928,-0.23805597399671866
-0.1675976663827896,0.07295640558004379,-131.5758514404297,0.3602282851810256,-0.17413641310400432,0.4505782560134928,-0.23805597399671866
-0.1438356637954712,0.08865632861852646,-131.57606506347656,0.3602282851810256,-0.17413641310400432,0.4505782560134928,-0.23805597399671866
-0.1296120285987854,0.14387869834899902,-131.57591247558594,0.3602282851810256,-0.17413641310400432,0.4505782560134928,-0.23805597399671866
-0.11660432070493698,0.13232944905757904,-131.57635498046875,0.3602282851810256,-0.17413641310400432,0.4505782560134928,-0.23805597399671866
-0.1520901769399643,0.13156850636005402,-131.5760040283203,0.3602282851810256,-0.17413641310400432,0.4505782560134928,-0.23805597399671866
-0.15399041771888733,0.0926695317029953,-131.5769500732422,0.3602282851810256,-0.17413641310400432,0.4505782560134928,-0.23805597399671866
-0.1471472680568695,0.10451851040124893,-131.576904296875,0.3602282851810256,-0.17413641310400432,0.4505782560134928,-0.23805597399671866
-0.13669529557228088,0.13100957870483398,-131.57681274414062,0.3602282851810256,-0.17413641310400432,0.4505782560134928,-0.23805597399671866
-0.12716716527938843,0.13173536956310272,-131.57627868652344,0.3602282851810256,-0.17413641310400432,0.4505782560134928,-0.23805597399671866
-0.1346147358417511,0.10992308706045151,-131.57623291015625,0.3602282851810256,-0.17413641310400432,0.4505782560134928,-0.23805597399671866
-0.13810445368289948,0.1210283413529396,-131.57594299316406,0.3602282851810256,-0.17413641310400432,0.4505782560134928,-0.23805597399671866
-0.130705326795578,0.11566370725631714,-131.5763702392578,0.3602282851810256,-0.17413641310400432,0.4505782560134928,-0.23805597399671866
-0.12623022496700287,0.13377037644386292,-131.5763397216797,0.3602282851810256,-0.17413641310400432,0.4505782560134928,-0.23805597399671866
-0.14780811965465546,0.1175278052687645,-131.57437133789062,0.3602282851810256,-0.17413641310400432,0.4505782560134928,-0.23805597399671866
-0.12744247913360596,0.1147577092051506,-131.57554626464844,0.3602282851810256,-0.17413641310400432,0.4505782560134928,-0.23805597399671866
-0.1433783620595932,0.11326552927494049,-131.57681274414062,0.3602282851810256,-0.17413641310400432,0.4505782560134928,-0.23805597399671866
-0.14955085515975952,0.11289757490158081,-131.57838439941406,0.3602282851810256,-0.17413641310400432,0.4505782560134928,-0.23805597399671866
-0.14525754749774933,0.11179723590612411,-131.57887268066406,0.3602282851810256,-0.17413641310400432,0.4505782560134928,-0.23805597399671866
-0.1454886645078659,0.12244623899459839,-131.5784454345703,0.3602282851810256,-0.17413641310400432,0.4505782560134928,-0.23805597399671866
-0.1404370665550232,0.11119759827852249,-131.5789031982422,0.3602282851810256,-0.17413641310400432,0.4505782560134928,-0.23805597399671866
-0.14955954253673553,0.10919693112373352,-131.57907104492188,0.3602282851810256,-0.17413641310400432,0.4505782560134928,-0.23805597399671866
-0.14052797853946686,0.12436778843402863,-131.5797119140625,0.3602282851810256,-0.17413641310400432,0.4505782560134928,-0.23805597399671866
-0.13612622022628784,0.11902742087841034,-131.57957458496094,0.3602282851810256,-0.17413641310400432,0.4505782560134928,-0.23805597399671866
-0.13326725363731384,0.12059689313173294,-131.5782928466797,0.3602282851810256,-0.17413641310400432,0.4505782560134928,-0.23805597399671866
-0.13655871152877808,0.11407548189163208,-131.578125,0.3602282851810256,-0.17413641310400432,0.4505782560134928,-0.23805597399671866
-0.1362103372812271,0.11058008670806885,-131.57798767089844,0.3602282851810256,-0.17413641310400432,0.4505782560134928,-0.23805597399671866
-0.13057437539100647,0.12024223059415817,-131.5786590576172,0.3602282851810256,-0.17413641310400432,0.4505782560134928,-0.23805597399671866
-0.1302967518568039,0.11102370917797089,-131.5790557861328,0.3602282851810256,-0.17413641310400432,0.4505782560134928,-0.23805597399671866
-0.1418052315711975,0.12172883003950119,-131.57945251464844,0.3602282851810256,-0.17413641310400432,0.4505782560134928,-0.23805597399671866
-0.1258385330438614,0.12037048488855362,-131.57980346679688,0.3602282851810256,-0.17413641310400432,0.4505782560134928,-0.23805597399671866
-0.12452860921621323,0.10781987011432648,-131.57887268066406,0.3602282851810256,-0.17413641310400432,0.4505782560134928,-0.23805597399671866
-0.13107681274414062,0.1132902204990387,-131.57920837402344,0.3602282851810256,-0.17413641310400432,0.4505782560134928,-0.23805597399671866
-0.12655428051948547,0.11853495240211487,-131.57862854003906,0.3602282851810256,-0.17413641310400432,0.4505782560134928,-0.23805597399671866
-0.1335420310497284,0.11220049113035202,-131.5785369873047,0.3602282851810256,-0.17413641310400432,0.4505782560134928,-0.23805597399671866
-0.12973326444625854,0.09864898771047592,-131.57858276367188,0.3602282851810256,-0.17413641310400432,0.4505782560134928,-0.23805597399671866
-0.12719875574111938,0.11096936464309692,-131.57899475097656,0.3602282851810256,-0.17413641310400432,0.4505782560134928,-0.23805597399671866
-0.1311524510383606,0.11642801016569138,-131.5779571533203,0.3602282851810256,-0.17413641310400432,0.4505782560134928,-0.23805597399671866
-0.12065447121858597,0.1121860072016716,-131.57949829101562,0.3602282851810256,-0.17413641310400432,0.4505782560134928,-0.23805597399671866
-0.13742250204086304,0.12532877922058105,-131.57876586914062,0.3602282851810256,-0.17413641310400432,0.4505782560134928,-0.23805597399671866
-0.1279117614030838,0.11837121844291687,-131.57948303222656,0.3602282851810256,-0.17413641310400432,0.4505782560134928,-0.23805597399671866
-0.1365366131067276,0.1205660030245781,-131.580078125,0.3602282851810256,-0.17413641310400432,0.4505782560134928,-0.23805597399671866
-0.12594011425971985,0.10410469025373459,-131.57998657226562,0.3602282851810256,-0.17413641310400432,0.4505782560134928,-0.23805597399671866
-0.13542813062667847,0.11191920936107635,-131.58108520507812,0.3602282851810256,-0.17413641310400432,0.4505782560134928,-0.23805597399671866
-0.13151326775550842,0.09978391975164413,-131.58203125,0.3602282851810256,-0.17413641310400432,0.4505782560134928,-0.23805597399671866
-0.14307864010334015,0.10393699258565903,-131.58322143554688,0.3602282851810256,-0.17413641310400432,0.4505782560134928,-0.23805597399671866
-0.13432298600673676,0.12166845053434372,-131.582275390625,0.3602282851810256,-0.17413641310400432,0.4505782560134928,-0.23805597399671866
-0.13419197499752045,0.11258061230182648,-131.5816192626953,0.3602282851810256,-0.17413641310400432,0.4505782560134928,-0.23805597399671866
-0.13228054344654083,0.10508391261100769,-131.5807342529297,0.3602282851810256,-0.17413641310400432,0.4505782560134928,-0.23805597399671866
-0.12616418302059174,0.12112510949373245,-131.58164978027344,0.3602282851810256,-0.17413641310400432,0.4505782560134928,-0.23805597399671866
-0.14730915427207947,0.11636032909154892,-131.5824432373047,0.3602282851810256,-0.17413641310400432,0.4505782560134928,-0.23805597399671866
-0.13207115232944489,0.11550726741552353,-131.58253479003906,0.3602282851810256,-0.17413641310400432,0.4505782560134928,-0.23805597399671866
-0.14125387370586395,0.11366044729948044,-131.5828399658203,0.3602282851810256,-0.17413641310400432,0.4505782560134928,-0.23805597399671866
-0.1245913878083229,0.10635542869567871,-131.58253479003906,0.3602282851810256,-0.17413641310400432,0.4505782560134928,-0.23805597399671866
-0.12272319942712784,0.10381924360990524,-131.5829315185547,0.3602282851810256,-0.17413641310400432,0.4505782560134928,-0.23805597399671866
-0.12166640162467957,0.10309724509716034,-131.58322143554688,0.3602282851810256,-0.17413641310400432,0.4505782560134928,-0.23805597399671866
-0.11972314864397049,0.09952495247125626,-131.58465576171875,0.3602282851810256,-0.17413641310400432,0.4505782560134928,-0.23805597399671866
-0.12129144370555878,0.10365980118513107,-131.58468627929688,0.3602282851810256,-0.17413641310400432,0.4505782560134928,-0.23805597399671866
-0.12729042768478394,0.11469937860965729,-131.5848388671875,0.3602282851810256,-0.17413641310400432,0.4505782560134928,-0.23805597399671866
-0.12301696091890335,0.09639642387628555,-131.58465576171875,0.3602282851810256,-0.17413641310400432,0.4505782560134928,-0.23805597399671866
-0.13047830760478973,0.10082079470157623,-131.5855255126953,0.3602282851810256,-0.17413641310400432,0.4505782560134928,-0.23805597399671866
-0.12857532501220703,0.11800891906023026,-131.58535766601562,0.3677199329456521,-0.17808881616271618,0.44841947574168445,-0.2362323930487036
-0.13208894431591034,0.11249144375324249,-131.58616638183594,0.37517548918931015,-0.1820100157438881,0.4462472734972835,-0.23431155669192466
-0.2203238606452942,-0.07933036983013153,-131.59193420410156,0.3825884706361426,-0.18591290550306439,0.4433105001226068,-0.23403521440923206
-0.8864371180534363,-1.0688517093658447,-131.52963256835938,0.38990012057022083,-0.18989322727649574,0.43408749196678403,-0.24360339840253187
-1.8245776891708374,-1.6773847341537476,-131.37945556640625,0.3969466471858322,-0.19414399478067124,0.41149570190658175,-0.2664887020985285
-1.946720004081726,-1.9291436672210693,-131.4002227783203,0.40354301321113273,-0.19883592651018664,0.380068221129477,-0.29654310544331863
-1.3009053468704224,-0.7540110349655151,-131.42031860351562,0.40965195402503013,-0.20396464178856047,0.3530046765382091,-0.3189027279615402
-0.27059265971183777,-0.9260711073875427,-131.41989135742188,0.4154262334946543,-0.20939635962558287,0.3399088598166903,-0.332903412481149
-1.5749168395996094,-0.9177469611167908,-131.38328552246094,0.42096322077636916,-0.21507279275502594,0.3245296139890949,-0.3482685630520185
-1.4806808233261108,-0.9069206118583679,-131.2545928955078,0.4261598533940398,-0.22100398183179398,0.2990663001313806,-0.3634741261601448
-0.5626607537269592,-1.5744733810424805,-131.27066040039062,0.4310023930089341,-0.22723420296174784,0.2820384536559383,-0.38415240943431855
-1.6643528938293457,0.40873029828071594,-131.36427307128906,0.435548380177675,-0.23371769749973384,0.2634800065929691,-0.39386693512399995
-0.4014425575733185,-0.9853871464729309,-131.35069274902344,0.4397962556034326,-0.24032219203292496,0.2462650444979469,-0.39867240885893507
-0.48947370052337646,-1.1098051071166992,-131.3202667236328,0.4438388038271417,-0.24711223164262872,0.23884074234714112,-0.4161323443055153
-1.2221174240112305,-0.3696262240409851,-131.29225158691406,0.4477006223715014,-0.25415050900127323,0.2245774829760194,-0.42846093873182933
-1.1851296424865723,-0.09098518639802933,-131.34613037109375,0.45127641048592826,-0.2613235115503064,0.20451709075520438,-0.43229936715215445
-0.32822996377944946,-2.4529495239257812,-131.21917724609375,0.45457993424807985,-0.2687051631355037,0.19190576070298754,-0.4534988230715195
-0.6984128355979919,-0.517187774181366,-131.13653564453125,0.457707068954284,-0.27646973638795314,0.18335040404150887,-0.4782499672224124
-0.8514826893806458,-0.387992262840271,-131.03250122070312,0.4606552773879634,-0.2845034288997865,0.17043460800002022,-0.48579313419759274
0.46689990162849426,-0.5675650835037231,-130.98057556152344,0.4634691470499254,-0.29266633928546476,0.16722975143541896,-0.49375611208379266
-1.3647481203079224,-0.698666512966156,-131.00938415527344,0.46619395900310745,-0.30098354056994947,0.15974768294642372,-0.504308042054375
-0.9419741034507751,0,-131.0584716796875,0.46869623134223126,-0.30943719311203394,0.14052499774843458,-0.5101302629957596
-0.15935495495796204,-0.2628442645072937,-131.11679077148438,0.4709618334534268,-0.3179576172358874,0.13134725559502844,-0.5123206318666537
-0.6131409406661987,-0.29888367652893066,-131.24185180664062,0.47309730883170337,-0.32653530331845915,0.12490978979816043,-0.5170016980419555
0.07439543306827545,0,-131.4068603515625,0.4751417257792006,-0.3351727540966951,0.12042024390151107,-0.5194923953463633
-1.0902031660079956,0.3267669379711151,-131.44342041015625,0.47707818764054943,-0.34380826853733093,0.11195517946034673,-0.5167693375299373
0.6299675703048706,-0.730133056640625,-131.40142822265625,0.4789121464929647,-0.35244910236551524,0.10811988282948735,-0.5201307218521831
-1.0068410634994507,-0.5775752067565918,-131.45436096191406,0.4806879727697621,-0.36120876080356534,0.10497927038619918,-0.5310282907138266
-1.4705424308776855,-0.33049747347831726,-131.5395965576172,0.4822655867557559,-0.37012229291825655,0.08433440793305638,-0.5385955630491175
0.06807342916727066,-0.28080591559410095,-131.65069580078125,0.48357376654063255,-0.379141337259983,0.07264716625213626,-0.5436897579580543
-0.9442503452301025,0.378440797328949,-131.71224975585938,0.4847237070256638,-0.3881960530258301,0.06534569195161266,-0.5428761339435972
1.2989423274993896,1.2339074611663818,-131.71664428710938,0.4858374332791816,-0.39713201996249453,0.0683014584705234,-0.5294398984561361
-1.0529131889343262,-0.9569780826568604,-131.82015991210938,0.4869928762772018,-0.40593678706325587,0.07035170129189892,-0.5271321536352235
0,0,-131.99961853027344,0.48809228566061297,-0.4147887797684719,0.061577424717446205,-0.5351069709906973
-0.7544889450073242,-0.7659447193145752,-132.04164123535156,0.4890661810069449,-0.42376041989049146,0.05529001684238517,-0.5414898436516521
-0.4226294159889221,0,-132.01011657714844,0.48990593695702656,-0.43283844122352694,0.045480697167416456,-0.5478727163126069
0.14011837542057037,0,-132.00006103515625,0.4906443297542218,-0.4419696531620704,0.043126438496013525,-0.5478727163126069
0.5264920592308044,-0.4964401125907898,-132.01856994628906,0.4914093961204506,-0.45113534010843265,0.04868152545144165,-0.5520097172508635
-1.6760817766189575,0.1946101039648056,-132.01730346679688,0.49214092225871153,-0.4603564624798794,0.03910161113987371,-0.5545249673227467
-0.08952701091766357,0.8888772130012512,-131.99420166015625,0.4926700040563527,-0.4695233030938025,0.024388204577068535,-0.5454959063480296
-0.1800636649131775,0.5770382285118103,-132.02503967285156,0.4930577525579267,-0.47851310184949797,0.02214161561181153,-0.5332799443354207
-0.21489107608795166,0.24018897116184235,-132.03456115722656,0.49339935207222074,-0.48734434903288876,0.018850326103468786,-0.5264697176714735
-0.44524574279785156,-1.16470205783844,-132.01907348632812,0.4936676813393004,-0.4961830466250992,0.013349185946087094,-0.5341739933937786
0.14184878766536713,-1.1581679582595825,-131.92388916015625,0.49386909853873984,-0.50524725693278,0.010820877986649723,-0.5535312435279288
0.1362963616847992,0.28378868103027344,-131.90869140625,0.49406876214055556,-0.5145334984413864,0.013138754231234442,-0.5608177375048398
0.07796154171228409,-1.1722874641418457,-132.0885772705078,0.49430262039881206,-0.5239421620375165,0.01492423675954347,-0.5682218940307695
0.09531907737255096,1.1060161590576172,-132.2587432861328,0.4945633910544631,-0.5334171291119936,0.016368241918583763,-0.5687741549064714
-1.4768315553665161,1.1012336015701294,-132.43482971191406,0.4947402567199122,-0.5427434171270579,0.00485563793530072,-0.5503804069012402
0.31512439250946045,0.2780219614505768,-132.6248779296875,0.4947405099103021,-0.5518206422724243,-0.004825255088508076,-0.5388866105427343
0.8395683169364929,0.19648678600788116,-132.63796997070312,0.4947405099103021,-0.5518206422724243,-0.004825255088508076,-0.5388866105427343
-0.7904669046401978,-1.4237912893295288,-132.58596801757812,0.4947405099103021,-0.5518206422724243,-0.004825255088508076,-0.5388866105427343
-0.47626709938049316,1.3027414083480835,-132.6206512451172,0.4947405099103021,-0.5518206422724243,-0.004825255088508076,-0.5388866105427343
0.2599982023239136,0.21753007173538208,-132.7711181640625,0.4947405099103021,-0.5518206422724243,-0.004825255088508076,-0.5388866105427343
1.7090137004852295,2.716892719268799,-133.22271728515625,0.4947405099103021,-0.5518206422724243,-0.004825255088508076,-0.5388866105427343
0.5193386673927307,1.689242959022522,-133.9221954345703,0.4947405099103021,-0.5518206422724243,-0.004825255088508076,-0.5388866105427343
1.4221947193145752,1.4266870021820068,-134.64892578125,0.4947405099103021,-0.5518206422724243,-0.004825255088508076,-0.5388866105427343
1.5060707330703735,1.6045150756835938,-135.57493591308594,0.4947405099103021,-0.5518206422724243,-0.004825255088508076,-0.5388866105427343
0.8466101288795471,1.6775692701339722,-136.7340087890625,0.4947405099103021,-0.5518206422724243,-0.004825255088508076,-0.5388866105427343
1.1321303844451904,1.5933959484100342,-138.1315460205078,0.4947405099103021,-0.5518206422724243,-0.004825255088508076,-0.5388866105427343
0.6997122764587402,1.4155921936035156,-139.7408447265625,0.4947405099103021,-0.5518206422724243,-0.004825255088508076,-0.5388866105427343
0.8155456781387329,1.7170345783233643,-141.5409393310547,0.4947405099103021,-0.5518206422724243,-0.004825255088508076,-0.5388866105427343
1.1759402751922607,1.0621342658996582,-143.43287658691406,0.4947405099103021,-0.5518206422724243,-0.004825255088508076,-0.5388866105427343
0.3121679127216339,1.4083062410354614,-145.30653381347656,0.4947405099103021,-0.5518206422724243,-0.004825255088508076,-0.5388866105427343
2.102051258087158,0.7614235281944275,-147.22779846191406,0.4947405099103021,-0.5518206422724243,-0.004825255088508076,-0.5388866105427343
-0.38640567660331726,2.3419547080993652,-149.1929168701172,0.4947405099103021,-0.5518206422724243,-0.004825255088508076,-0.5388866105427343
0.998415470123291,0.3233641982078552,-151.3214569091797,0.4947405099103021,-0.5518206422724243,-0.004825255088508076,-0.5388866105427343
0.22160764038562775,0.5732862949371338,-153.51467895507812,0.4947405099103021,-0.5518206422724243,-0.004825255088508076,-0.5388866105427343
-0.5635359883308411,0.822664201259613,-155.7396697998047,0.4947405099103021,-0.5518206422724243,-0.004825255088508076,-0.5388866105427343
1.323073387145996,0.6999518275260925,-158.0399627685547,0.4947405099103021,-0.5518206422724243,-0.004825255088508076,-0.5388866105427343
0.363079309463501,1.4144965410232544,-160.31764221191406,0.4947405099103021,-0.5518206422724243,-0.004825255088508076,-0.5388866105427343
0.837640643119812,0.44924476742744446,-162.59913635253906,0.4947405099103021,-0.5518206422724243,-0.004825255088508076,-0.5388866105427343
0.041431449353694916,0.7929872274398804,-164.820068359375,0.4947405099103021,-0.5518206422724243,-0.004825255088508076,-0.5388866105427343
0.5953490138053894,-0.14062803983688354,-166.99087524414062,0.4947405099103021,-0.5518206422724243,-0.004825255088508076,-0.5388866105427343
0.42756858468055725,1.3083785772323608,-169.2158966064453,0.4947405099103021,-0.5518206422724243,-0.004825255088508076,-0.5388866105427343
-0.9388012290000916,0.9020707607269287,-171.496826171875,0.4947405099103021,-0.5518206422724243,-0.004825255088508076,-0.5388866105427343
3.0132486820220947,-1.2384010553359985,-173.861572265625,0.4947405099103021,-0.5518206422724243,-0.004825255088508076,-0.5388866105427343
-0.8151048421859741,2.460369825363159,-176.3402099609375,0.4947405099103021,-0.5518206422724243,-0.004825255088508076,-0.5388866105427343
1.1326457262039185,-0.08913854509592056,-178.82421875,0.4947405099103021,-0.5518206422724243,-0.004825255088508076,-0.5388866105427343
-0.8503326773643494,2.3362882137298584,178.57264709472656,0.4947405099103021,-0.5518206422724243,-0.004825255088508076,-0.5388866105427343
0.5022266507148743,0.2522227168083191,175.87095642089844,0.4947405099103021,-0.5518206422724243,-0.004825255088508076,-0.5388866105427343
0.9644767045974731,0.9309033751487732,173.16372680664062,0.4947405099103021,-0.5518206422724243,-0.004825255088508076,-0.5388866105427343
0.341164231300354,0.08308125287294388,170.43267822265625,0.4947405099103021,-0.5518206422724243,-0.004825255088508076,-0.5388866105427343
0.23999066650867462,1.151819109916687,167.71958923339844,0.4947405099103021,-0.5518206422724243,-0.004825255088508076,-0.5388866105427343
-0.19782447814941406,-0.1263449788093567,164.9952392578125,0.4947405099103021,-0.5518206422724243,-0.004825255088508076,-0.5388866105427343
0.2782174050807953,-0.31880977749824524,162.27276611328125,0.4947405099103021,-0.5518206422724243,-0.004825255088508076,-0.5388866105427343
0.3121911883354187,2.3812477588653564,159.57347106933594,0.4947405099103021,-0.5518206422724243,-0.004825255088508076,-0.5388866105427343
1.0545262098312378,-1.6060909032821655,156.83070373535156,0.4947405099103021,-0.5518206422724243,-0.004825255088508076,-0.5388866105427343
-0.06871447712182999,2.8960986137390137,154.1864013671875,0.4947405099103021,-0.5518206422724243,-0.004825255088508076,-0.5388866105427343
0.32518500089645386,-1.79829740524292,151.46652221679688,0.4947405099103021,-0.5518206422724243,-0.004825255088508076,-0.5388866105427343
-0.25466105341911316,0.37679436802864075,148.8845977783203,0.4947405099103021,-0.5518206422724243,-0.004825255088508076,-0.5388866105427343
0.4789654016494751,0.576296329498291,146.6294708251953,0.4947405099103021,-0.5518206422724243,-0.004825255088508076,-0.5388866105427343
-0.10944917052984238,0.008037087507545948,144.861572265625,0.4947405099103021,-0.5518206422724243,-0.004825255088508076,-0.5388866105427343
-1.2169783115386963,0.27984192967414856,143.54417419433594,0.4947405099103021,-0.5518206422724243,-0.004825255088508076,-0.5388866105427343
-1.8365002870559692,-1.1812303066253662,142.61444091796875,0.4947405099103021,-0.5518206422724243,-0.004825255088508076,-0.5388866105427343
-1.1739140748977661,-1.0789819955825806,142.1363525390625,0.4947405099103021,-0.5518206422724243,-0.004825255088508076,-0.5388866105427343
-0.42256835103034973,-0.9652608036994934,142.0055389404297,0.4947405099103021,-0.5518206422724243,-0.004825255088508076,-0.5388866105427343
0.9635598659515381,-0.5571472644805908,142.03543090820312,0.4947405099103021,-0.5518206422724243,-0.004825255088508076,-0.5388866105427343
0.8611008524894714,-0.15292511880397797,142.0758514404297,0.4947405099103021,-0.5518206422724243,-0.004825255088508076,-0.5388866105427343
0.4494032561779022,-0.49210551381111145,142.062744140625,0.4947405099103021,-0.5518206422724243,-0.004825255088508076,-0.5388866105427343
0.10876384377479553,0.4834579527378082,142.08889770507812,0.4947405099103021,-0.5518206422724243,-0.004825255088508076,-0.5388866105427343
-0.39054080843925476,0.18382099270820618,142.1125946044922,0.4947405099103021,-0.5518206422724243,-0.004825255088508076,-0.5388866105427343
-0.24542750418186188,0.6033837199211121,142.10842895507812,0.4947405099103021,-0.5518206422724243,-0.004825255088508076,-0.5388866105427343
-0.11756347119808197,0.252942830324173,142.11279296875,0.4947405099103021,-0.5518206422724243,-0.004825255088508076,-0.5388866105427343
0.1502036601305008,0.07168116420507431,142.10598754882812,0.4947405099103021,-0.5518206422724243,-0.004825255088508076,-0.5388866105427343
0.2286054491996765,0.05056779086589813,142.10809326171875,0.4947405099103021,-0.5518206422724243,-0.004825255088508076,-0.5388866105427343
0.02036351151764393,0.17147284746170044,142.1139678955078,0.4947405099103021,-0.5518206422724243,-0.004825255088508076,-0.5388866105427343
-0.10797320306301117,0.29868844151496887,142.11241149902344,0.4947405099103021,-0.5518206422724243,-0.004825255088508076,-0.5388866105427343
-0.07453056424856186,0.2780858278274536,142.1156463623047,0.4947405099103021,-0.5518206422724243,-0.004825255088508076,-0.5388866105427343
0.058742914348840714,0.12747722864151,142.11305236816406,0.4947405099103021,-0.5518206422724243,-0.004825255088508076,-0.5388866105427343
0.11724048107862473,0.1341271698474884,142.1142578125,0.4947405099103021,-0.5518206422724243,-0.004825255088508076,-0.5388866105427343
-0.005846841260790825,0.19908946752548218,142.11671447753906,0.4947405099103021,-0.5518206422724243,-0.004825255088508076,-0.5388866105427343
-0.03588435426354408,0.26267969608306885,142.11807250976562,0.4947405099103021,-0.5518206422724243,-0.004825255088508076,-0.5388866105427343
-0.0028228184673935175,0.1944013088941574,142.1195526123047,0.4947405099103021,-0.5518206422724243,-0.004825255088508076,-0.5388866105427343
0.055220767855644226,0.14923356473445892,142.1202850341797,0.4947405099103021,-0.5518206422724243,-0.004825255088508076,-0.5388866105427343
0.04984823241829872,0.16735252737998962,142.1214141845703,0.4947405099103021,-0.5518206422724243,-0.004825255088508076,-0.5388866105427343
-0.020765436813235283,0.1973573863506317,142.12057495117188,0.4947405099103021,-0.5518206422724243,-0.004825255088508076,-0.5388866105427343
-0.02988309971988201,0.21842741966247559,142.12022399902344,0.4947405099103021,-0.5518206422724243,-0.004825255088508076,-0.5388866105427343
0.02348378673195839,0.1835409551858902,142.11993408203125,0.4947405099103021,-0.5518206422724243,-0.004825255088508076,-0.5388866105427343
0.034460194408893585,0.17031699419021606,142.11923217773438,0.4947405099103021,-0.5518206422724243,-0.004825255088508076,-0.5388866105427343
0.013380907475948334,0.19072198867797852,142.11868286132812,0.4947405099103021,-0.5518206422724243,-0.004825255088508076,-0.5388866105427343
0.0034697905648499727,0.1968911588191986,142.1195831298828,0.4947405099103021,-0.5518206422724243,-0.004825255088508076,-0.5388866105427343
0.025109445676207542,0.19885148108005524,142.1202392578125,0.4947405099103021,-0.5518206422724243,-0.004825255088508076,-0.5388866105427343
0.03789090737700462,0.1660025715827942,142.11947631835938,0.4947405099103021,-0.5518206422724243,-0.004825255088508076,-0.5388866105427343
0.043354760855436325,0.18502648174762726,142.12039184570312,0.4947405099103021,-0.5518206422724243,-0.004825255088508076,-0.5388866105427343
0.013699824921786785,0.20856353640556335,142.12112426757812,0.4947405099103021,-0.5518206422724243,-0.004825255088508076,-0.5388866105427343
0.011047246865928173,0.19436264038085938,142.12168884277344,0.4947405099103021,-0.5518206422724243,-0.004825255088508076,-0.5388866105427343
0.0342353992164135,0.18850810825824738,142.12152099609375,0.4947405099103021,-0.5518206422724243,-0.004825255088508076,-0.5388866105427343
0.027425406500697136,0.16962794959545135,142.12193298339844,0.4947405099103021,-0.5518206422724243,-0.004825255088508076,-0.5388866105427343
0.01139805931597948,0.1821790337562561,142.12213134765625,0.4947405099103021,-0.5518206422724243,-0.004825255088508076,-0.5388866105427343
0.024086909368634224,0.19753575325012207,142.12213134765625,0.4947405099103021,-0.5518206422724243,-0.004825255088508076,-0.5388866105427343
0.03345191851258278,0.19502782821655273,142.12286376953125,0.4947405099103021,-0.5518206422724243,-0.004825255088508076,-0.5388866105427343
0.025724800303578377,0.19843915104866028,142.1218719482422,0.4947405099103021,-0.5518206422724243,-0.004825255088508076,-0.5388866105427343
0.01742866076529026,0.18245577812194824,142.12228393554688,0.4947405099103021,-0.5518206422724243,-0.004825255088508076,-0.5388866105427343
0.027782898396253586,0.1727357655763626,142.12281799316406,0.4947405099103021,-0.5518206422724243,-0.004825255088508076,-0.5388866105427343
0.02454398199915886,0.18321986496448517,142.12413024902344,0.4947405099103021,-0.5518206422724243,-0.004825255088508076,-0.5388866105427343
0.026611918583512306,0.17902980744838715,142.12367248535156,0.4947405099103021,-0.5518206422724243,-0.004825255088508076,-0.5388866105427343
0.01945023611187935,0.1804165244102478,142.12313842773438,0.4947405099103021,-0.5518206422724243,-0.004825255088508076,-0.5388866105427343
0.02163717895746231,0.1858619749546051,142.12213134765625,0.4947405099103021,-0.5518206422724243,-0.004825255088508076,-0.5388866105427343
0.022448889911174774,0.190837100148201,142.1215362548828,0.4947405099103021,-0.5518206422724243,-0.004825255088508076,-0.5388866105427343
0.016416160389780998,0.18712346255779266,142.121337890625,0.4947405099103021,-0.5518206422724243,-0.004825255088508076,-0.5388866105427343
0.015507102012634277,0.1695881187915802,142.1217803955078,0.4947405099103021,-0.5518206422724243,-0.004825255088508076,-0.5388866105427343
0.02543581649661064,0.1834544837474823,142.12161254882812,0.4947405099103021,-0.5518206422724243,-0.004825255088508076,-0.5388866105427343
0.01908380538225174,0.18514952063560486,142.1226806640625,0.4947405099103021,-0.5518206422724243,-0.004825255088508076,-0.5388866105427343
0.03269891068339348,0.18830084800720215,142.12203979492188,0.4947405099103021,-0.5518206422724243,-0.004825255088508076,-0.5388866105427343
0.029113879427313805,0.19527126848697662,142.1220245361328,0.4947405099103021,-0.5518206422724243,-0.004825255088508076,-0.5388866105427343
0.024101726710796356,0.1779053956270218,142.12374877929688,0.4947405099103021,-0.5518206422724243,-0.004825255088508076,-0.5388866105427343
0.03450576215982437,0.19413034617900848,142.1240234375,0.4947405099103021,-0.5518206422724243,-0.004825255088508076,-0.5388866105427343
0.029698144644498825,0.17690245807170868,142.1243896484375,0.4947405099103021,-0.5518206422724243,-0.004825255088508076,-0.5388866105427343
0.020477991551160812,0.18437278270721436,142.1239471435547,0.4947405099103021,-0.5518206422724243,-0.004825255088508076,-0.5388866105427343
0.03923812136054039,0.1858188509941101,142.124755859375,0.4947405099103021,-0.5518206422724243,-0.004825255088508076,-0.5388866105427343
0.020626673474907875,0.1715027093887329,142.12393188476562,0.4947405099103021,-0.5518206422724243,-0.004825255088508076,-0.5388866105427343
0.023712467402219772,0.17552806437015533,142.1232147216797,0.4947405099103021,-0.5518206422724243,-0.004825255088508076,-0.5388866105427343
0.019916165620088577,0.18335464596748352,142.12481689453125,0.4947405099103021,-0.5518206422724243,-0.004825255088508076,-0.5388866105427343
0.026491696015000343,0.18385271728038788,142.12522888183594,0.4947405099103021,-0.5518206422724243,-0.004825255088508076,-0.5388866105427343
0.024252664297819138,0.16913866996765137,142.1250457763672,0.4947405099103021,-0.5518206422724243,-0.004825255088508076,-0.5388866105427343
0.03396644443273544,0.18879510462284088,142.12631225585938,0.4947405099103021,-0.5518206422724243,-0.004825255088508076,-0.5388866105427343
0.03604462742805481,0.1840788871049881,142.1256866455078,0.4947405099103021,-0.5518206422724243,-0.004825255088508076,-0.5388866105427343
0.02610439993441105,0.1803760528564453,142.12464904785156,0.4947405099103021,-0.5518206422724243,-0.004825255088508076,-0.5388866105427343
0.025457801297307014,0.17003585398197174,142.12396240234375,0.4947405099103021,-0.5518206422724243,-0.004825255088508076,-0.5388866105427343
0.021964946761727333,0.17634440958499908,142.12405395507812,0.4947405099103021,-0.5518206422724243,-0.004825255088508076,-0.5388866105427343
0.03230039030313492,0.18183985352516174,142.1229705810547,0.4947405099103021,-0.5518206422724243,-0.004825255088508076,-0.5388866105427343
0.014760221354663372,0.17453798651695251,142.1224365234375,0.4947405099103021,-0.5518206422724243,-0.004825255088508076,-0.5388866105427343
0.031669940799474716,0.1750280112028122,142.12319946289062,0.4947405099103021,-0.5518206422724243,-0.004825255088508076,-0.5388866105427343
0.039120834320783615,0.1803402602672577,142.12266540527344,0.4947405099103021,-0.5518206422724243,-0.004825255088508076,-0.5388866105427343
0.030761608853936195,0.19010958075523376,142.12298583984375,0.4947405099103021,-0.5518206422724243,-0.004825255088508076,-0.5388866105427343
0.03433400020003319,0.16382606327533722,142.12295532226562,0.4947405099103021,-0.5518206422724243,-0.004825255088508076,-0.5388866105427343
0.035125330090522766,0.1798236072063446,142.12281799316406,0.4947405099103021,-0.5518206422724243,-0.004825255088508076,-0.5388866105427343
0.02670632116496563,0.1844780594110489,142.12220764160156,0.4947405099103021,-0.5518206422724243,-0.004825255088508076,-0.5388866105427343
0.0314628966152668,0.17366154491901398,142.1218719482422,0.4947405099103021,-0.5518206422724243,-0.004825255088508076,-0.5388866105427343
0.02976894937455654,0.16652503609657288,142.12051391601562,0.4947405099103021,-0.5518206422724243,-0.004825255088508076,-0.5388866105427343
0.0177663154900074,0.1761142462491989,142.12094116210938,0.4947405099103021,-0.5518206422724243,-0.004825255088508076,-0.5388866105427343
0.024994531646370888,0.15446287393569946,142.1200714111328,0.4947405099103021,-0.5518206422724243,-0.004825255088508076,-0.5388866105427343
0.026639873161911964,0.17908097803592682,142.11929321289062,0.4947405099103021,-0.5518206422724243,-0.004825255088508076,-0.5388866105427343
0.020020432770252228,0.17407642304897308,142.1186981201172,0.4947405099103021,-0.5518206422724243,-0.004825255088508076,-0.5388866105427343
0.0362185537815094,0.16130545735359192,142.11732482910156,0.4947405099103021,-0.5518206422724243,-0.004825255088508076,-0.5388866105427343
0.03381229192018509,0.15894898772239685,142.1171417236328,0.4947405099103021,-0.5518206422724243,-0.004825255088508076,-0.5388866105427343
0.02593962475657463,0.17345058917999268,142.1174774169922,0.4947405099103021,-0.5518206422724243,-0.004825255088508076,-0.5388866105427343
0,0.16426360607147217,142.1166534423828,0.49466189035499064,-0.5607786334067997,-0.004609091548869955,-0.5360723255823054
0,0.17461688816547394,142.1160888671875,0.49458507216250946,-0.5696896387988494,-0.004609091548869955,-0.5332483214636642
-0.5286789536476135,0.4611782431602478,142.09774780273438,0.4944715401538028,-0.5785329583835683,-0.009014749495933401,-0.5279500287026165
-1.9619948863983154,1.6062124967575073,142.13699340820312,0.4941483308677563,-0.5871885567272288,-0.029770364829649475,-0.5107217725366352
-2.48634934425354,1.886202335357666,142.21617126464844,0.4933432453268002,-0.5954580574617203,-0.0668399000850816,-0.4816183156023421
-0.5543467402458191,1.7788974046707153,142.21246337890625,0.49201808754173637,-0.6032305085731463,-0.09217903412257626,-0.45107581776877226
-0.6835507750511169,1.2434577941894531,142.14137268066406,0.49039580520113113,-0.6105385530915939,-0.10249484675005073,-0.42588952444493755
-1.9641404151916504,0.599779486656189,142.1904754638672,0.48850369031153007,-0.6175087092433952,-0.12455894000207379,-0.41052921377122387
-0.4661371409893036,1.1353368759155273,142.16526794433594,0.4862589387034274,-0.6242303686144036,-0.1448112529702484,-0.3960699107497929
-0.7247797846794128,1.465437412261963,142.13552856445312,0.4837627152563074,-0.630650924467999,-0.1547355606841544,-0.3743967916816472
-1.7339056730270386,-0.48290154337882996,142.02659606933594,0.4810130471992307,-0.6368226393384651,-0.17522460616504149,-0.36620899277428776
-1.4262590408325195,0.736638069152832,141.91836547851562,0.4778731812135731,-0.6429085019593022,-0.20155931211387113,-0.36409452172617107
-0.666280210018158,1.8631737232208252,141.9934539794922,0.47436854411925505,-0.6487962015024902,-0.21899713920429342,-0.3424294234563906
-1.4480863809585571,0.6126968860626221,142.15931701660156,0.4705717607859212,-0.6543314231011187,-0.23661686079576605,-0.32179716837902855
-0.2965354025363922,0.11079912632703781,142.2403106689453,0.46650699214880464,-0.659644466462131,-0.25115537565822393,-0.31576803494244804
-0.5212291479110718,1.3254667520523071,142.2957305908203,0.4622642800162754,-0.6648075263585066,-0.2579700802452861,-0.30379915262262014
-0.8929296731948853,-0.140097513794899,142.41358947753906,0.45786657320516605,-0.6697885282606713,-0.26975473708783576,-0.29392107563714176
-1.0438743829727173,1.2551923990249634,142.50840759277344,0.4532361606386905,-0.674609775709816,-0.28589477088923243,-0.28462861826022456
0.6999791264533997,0.82371586561203,142.5731201171875,0.4484473661755006,-0.6792092173846643,-0.2887605646935601,-0.26730438272158297
-0.6929675340652466,0.8336067795753479,142.5000762939453,0.44363517701341265,-0.6835491985796638,-0.28870213475699213,-0.2534933606783548
-0.5705952048301697,0.8500909805297852,142.447998046875,0.4387357273550395,-0.6876571644687401,-0.29923182424778727,-0.23946254601081204
-1.028246283531189,-0.4093457758426666,142.5325164794922,0.4336374996253291,-0.6916175995963726,-0.31255550331746523,-0.23578966930508605
0.23714621365070343,-0.2256144881248474,142.6441650390625,0.4283733037318519,-0.6955915218808996,-0.31914800389980263,-0.24108100483814868
0.16176357865333557,1.6040866374969482,142.6700439453125,0.42308187240243184,-0.6995138113956068,-0.31582375563060233,-0.2295937369267145
-0.9019782543182373,0.808983325958252,142.75341796875,0.41776673934500064,-0.7031727993747009,-0.3219922112611432,-0.20948482056458784
-0.856745183467865,0.32347697019577026,142.72691345214844,0.41227806891857977,-0.7065855699746556,-0.3366482399093607,-0.200047651429971
-0.7481533885002136,0.24196797609329224,142.65493774414062,0.4065558136303704,-0.7098804304883295,-0.35002239467576135,-0.1953356102108955
-0.34995582699775696,0.2675161063671112,142.50662231445312,0.4006458494680315,-0.7131006431527847,-0.3591733048049111,-0.19108990952372545
0.14127515256404877,-0.13468845188617706,142.19314575195312,0.3946451360077806,-0.7162762508355078,-0.360912310425192,-0.18998301240305102
0,1.9129506349563599,141.93405151367188,0.38863974160851106,-0.7193191439461788,-0.35973501748715825,-0.17516416087746617
-0.6884027123451233,-0.14573794603347778,141.90684509277344,0.38259635223981225,-0.7221158235240724,-0.36547170675670093,-0.16043738846977548
-0.5383260846138,-0.23437951505184174,141.95423889160156,0.37641996762741176,-0.7248161770444774,-0.3756944467313586,-0.1636050339788198
0.9670783281326294,1.215591311454773,142.0169677734375,0.37018816797657794,-0.7274747879027076,-0.3721215113687017,-0.1554282690087954
-0.5293773412704468,-0.09736018627882004,142.05909729003906,0.364016538688965,-0.7299876041136059,-0.3684740031448502,-0.1461096762989958
-1.0544098615646362,-0.225717693567276,142.06539916992188,0.35776532008079837,-0.732445201349134,-0.38167222983514254,-0.14880199196437993
-0.7393717765808105,1.0945866107940674,142.003662109375,0.351279548080897,-0.7348648964292885,-0.39662041015302124,-0.14156141765415667
0.7995941042900085,0.5581191182136536,141.9119110107422,0.3446733900177709,-0.7371094821590101,-0.3961185574221113,-0.12778886991242566
1.126167893409729,0.23147256672382355,141.83404541015625,0.33820514753279823,-0.739184463901652,-0.38007054077461344,-0.12120893920461336
0.3755341172218323,0.22460034489631653,141.82139587402344,0.3319749233817374,-0.741172941158422,-0.36755635735268377,-0.11740833160777886
-1.4616467952728271,-0.5153144001960754,141.8799591064453,0.3257735596009947,-0.7431499351612808,-0.3766072963364421,-0.11983094873527685
-1.5651726722717285,0.24753113090991974,141.7930145263672,0.3192865755323634,-0.7451657137005692,-0.40183079189931337,-0.12206247597932815
1.1066488027572632,0.6079099774360657,141.85391235351562,0.3125575537319919,-0.7471406826677006,-0.40565182414526724,-0.11493380007644494
-0.8665656447410583,0.28121262788772583,141.999267578125,0.30581336243776636,-0.7489945013769383,-0.40365113116179885,-0.10752444503208
0.23547126352787018,0,141.9884490966797,0.29904201758637433,-0.750767046806092,-0.4089102510052421,-0.10518100646634895
0.9261468052864075,1.1430031061172485,141.91514587402344,0.2923075146577324,-0.7524406883648286,-0.39923010043178975,-0.09565598058203854
-0.49292221665382385,-1.2077196836471558,141.93287658691406,0.28568376469141316,-0.7540394489146355,-0.3956198955265182,-0.09619528539478778
0,0.6157792210578918,142.03541564941406,0.27905586905648133,-0.755683810647784,-0.39972758066530006,-0.10112812258303164
0.7177858948707581,0.851052463054657,142.07138061523438,0.272443588954759,-0.7572674160461045,-0.3937460315413771,-0.08890452521542706
0.5461700558662415,0.7598817348480225,141.9999237060547,0.26596892981453724,-0.7586372877026184,-0.38321306528523547,-0.07548007356623807
-0.5609884858131409,-0.625444769859314,141.85150146484375,0.2595810163354814,-0.7598859530283759,-0.3833365522014596,-0.0743597655246655
-0.5987848043441772,-0.09482282400131226,141.6251678466797,0.25311153398697395,-0.761175301036694,-0.3930013296194373,-0.08036199547350405
-0.09643863141536713,0.212922140955925,141.4292449951172,0.24651323242138892,-0.7625064662864638,-0.3987948582507668,-0.07937783449888228
-0.07686538994312286,1.6462432146072388,141.1724090576172,0.2398546164490596,-0.763700321489531,-0.40023905842875424,-0.06388478986918925
0.1575566828250885,-0.4848480522632599,141.03933715820312,0.23318956903725271,-0.7646844155455215,-0.3995666309880712,-0.05420649684965609
-0.1827685385942459,0,140.96292114257812,0.22652837436413423,-0.7656215271633118,-0.39977672978614753,-0.05824689728518326
0.8328586220741272,0.7983185648918152,140.90939331054688,0.21991057401238454,-0.7665368699955029,-0.39435931242381517,-0.05159424257775146
-0.089047372341156,-0.7347784042358398,140.9212188720703,0.21338957236433018,-0.7673923615273087,-0.3881608853427071,-0.05106474123895167
-0.7579614520072937,0.08610944449901581,140.70091247558594,0.20686140421803864,-0.7682884870034952,-0.39521929221227753,-0.0564703159034252
0.5948328375816345,0.46298691630363464,140.57373046875,0.2002630876384989,-0.7691915272434965,-0.39657869733249135,-0.05189451289673645
0.13552702963352203,0.44464465975761414,140.50387573242188,0.19370416211818065,-0.7699934058212157,-0.3904923651056984,-0.04433091642955938
1.4598615169525146,0.6366402506828308,140.45672607421875,0.18730674690437638,-0.7706571651984833,-0.37719746055081477,-0.03532020884255567
-1.0053871870040894,0.4875109791755676,140.48248291015625,0.18105168327922033,-0.7711677692882302,-0.37341017446791125,-0.025952281927069016
-2.7115609645843506,-1.1567285060882568,140.54925537109375,0.17457005897200595,-0.7716467807597169,-0.4043847423978149,-0.031529094651341426
1.4120733737945557,0.7698968052864075,140.61227416992188,0.16774007107157085,-0.7721991289831283,-0.41521380565439653,-0.034752692158023506
0.26739755272865295,0.06079657003283501,140.65585327148438,0.1609364709027839,-0.7727206534791425,-0.4012182146000365,-0.027830247363696485
0.5480336546897888,-0.43112748861312866,140.60430908203125,0.1609364709027839,-0.7727206534791425,-0.4012182146000365,-0.027830247363696485
0.9591128826141357,0.8894464373588562,140.5293426513672,0.1609364709027839,-0.7727206534791425,-0.4012182146000365,-0.027830247363696485
0.6009460091590881,-1.9021180868148804,140.47991943359375,0.1609364709027839,-0.7727206534791425,-0.4012182146000365,-0.027830247363696485
2.0421290397644043,-0.42886921763420105,140.2119598388672,0.1609364709027839,-0.7727206534791425,-0.4012182146000365,-0.027830247363696485
2.491914987564087,-1.6485947370529175,139.54440307617188,0.1609364709027839,-0.7727206534791425,-0.4012182146000365,-0.027830247363696485
1.9290826320648193,-0.455827921628952,138.5611572265625,0.1609364709027839,-0.7727206534791425,-0.4012182146000365,-0.027830247363696485
2.0552170276641846,-0.8766747117042542,137.24464416503906,0.1609364709027839,-0.7727206534791425,-0.4012182146000365,-0.027830247363696485
1.409926414489746,0.38689008355140686,135.78411865234375,0.1609364709027839,-0.7727206534791425,-0.4012182146000365,-0.027830247363696485
1.8053377866744995,-1.4154407978057861,134.19322204589844,0.1609364709027839,-0.7727206534791425,-0.4012182146000365,-0.027830247363696485
1.2732737064361572,-0.9525237083435059,132.4243927001953,0.1609364709027839,-0.7727206534791425,-0.4012182146000365,-0.027830247363696485
0.5177655816078186,-2.226060628890991,130.58566284179688,0.1609364709027839,-0.7727206534791425,-0.4012182146000365,-0.027830247363696485
1.2897316217422485,-0.08817021548748016,128.69302368164062,0.1609364709027839,-0.7727206534791425,-0.4012182146000365,-0.027830247363696485
1.2964595556259155,-0.20978881418704987,126.67115783691406,0.1609364709027839,-0.7727206534791425,-0.4012182146000365,-0.027830247363696485
0.4974408745765686,-2.627676010131836,124.51072692871094,0.1609364709027839,-0.7727206534791425,-0.4012182146000365,-0.027830247363696485
1.6316070556640625,0.08599254488945007,122.29019165039062,0.1609364709027839,-0.7727206534791425,-0.4012182146000365,-0.027830247363696485
0.07909877598285675,-0.4379075765609741,120.04399108886719,0.1609364709027839,-0.7727206534791425,-0.4012182146000365,-0.027830247363696485
0.8388671278953552,-0.5126084089279175,117.72400665283203,0.1609364709027839,-0.7727206534791425,-0.4012182146000365,-0.027830247363696485
0.9575633406639099,-0.7873514294624329,115.32727813720703,0.1609364709027839,-0.7727206534791425,-0.4012182146000365,-0.027830247363696485
0.9214990139007568,0.02488589659333229,112.96127319335938,0.1609364709027839,-0.7727206534791425,-0.4012182146000365,-0.027830247363696485
1.2552341222763062,-0.5499255061149597,110.53975677490234,0.1609364709027839,-0.7727206534791425,-0.4012182146000365,-0.027830247363696485
0.30739879608154297,-0.01333429291844368,108.14886474609375,0.1609364709027839,-0.7727206534791425,-0.4012182146000365,-0.027830247363696485
0.7753200531005859,-0.49897053837776184,105.73760986328125,0.1609364709027839,-0.7727206534791425,-0.4012182146000365,-0.027830247363696485
0.9059818983078003,-0.2919462025165558,103.32611846923828,0.1609364709027839,-0.7727206534791425,-0.4012182146000365,-0.027830247363696485
0.8975834846496582,0.811238706111908,100.8735580444336,0.1609364709027839,-0.7727206534791425,-0.4012182146000365,-0.027830247363696485
0.816124439239502,-0.9397391080856323,98.35862731933594,0.1609364709027839,-0.7727206534791425,-0.4012182146000365,-0.027830247363696485
1.132130742073059,0.29480716586112976,95.83155822753906,0.1609364709027839,-0.7727206534791425,-0.4012182146000365,-0.027830247363696485
-0.41189441084861755,-1.818716049194336,93.33621978759766,0.1609364709027839,-0.7727206534791425,-0.4012182146000365,-0.027830247363696485
1.7556145191192627,-0.03291934356093407,90.7714614868164,0.1609364709027839,-0.7727206534791425,-0.4012182146000365,-0.027830247363696485
-0.6054755449295044,-0.6360765695571899,88.17424774169922,0.1609364709027839,-0.7727206534791425,-0.4012182146000365,-0.027830247363696485
1.2782330513000488,-0.025973068550229073,85.56897735595703,0.1609364709027839,-0.7727206534791425,-0.4012182146000365,-0.027830247363696485
-0.2369651347398758,-0.7104305028915405,82.90548706054688,0.1609364709027839,-0.7727206534791425,-0.4012182146000365,-0.027830247363696485
0.6030821800231934,-0.4607155919075012,80.30155181884766,0.1609364709027839,-0.7727206534791425,-0.4012182146000365,-0.027830247363696485
0.9381255507469177,-0.08920112997293472,77.75746154785156,0.1609364709027839,-0.7727206534791425,-0.4012182146000365,-0.027830247363696485
-0.3351181447505951,-0.7210888266563416,75.2137222290039,0.1609364709027839,-0.7727206534791425,-0.4012182146000365,-0.027830247363696485
1.155860185623169,-0.4115339517593384,72.74454498291016,0.1609364709027839,-0.7727206534791425,-0.4012182146000365,-0.027830247363696485
-1.7639824151992798,-0.17697186768054962,70.2854232788086,0.1609364709027839,-0.7727206534791425,-0.4012182146000365,-0.027830247363696485
1.6306579113006592,-0.32063668966293335,67.92265319824219,0.1609364709027839,-0.7727206534791425,-0.4012182146000365,-0.027830247363696485
-0.7402896285057068,-0.0584581196308136,65.56877136230469,0.1609364709027839,-0.7727206534791425,-0.4012182146000365,-0.027830247363696485
0.32447728514671326,-0.9753166437149048,63.24775695800781,0.1609364709027839,-0.7727206534791425,-0.4012182146000365,-0.027830247363696485
-0.3392728567123413,0.33111023902893066,61.0051383972168,0.1609364709027839,-0.7727206534791425,-0.4012182146000365,-0.027830247363696485
0.171766996383667,0.47448235750198364,59.01346206665039,0.1609364709027839,-0.7727206534791425,-0.4012182146000365,-0.027830247363696485
0.5195088982582092,0.7068575024604797,57.65228271484375,0.1609364709027839,-0.7727206534791425,-0.4012182146000365,-0.027830247363696485
-0.3677772879600525,-0.07280680537223816,56.79480743408203,0.1609364709027839,-0.7727206534791425,-0.4012182146000365,-0.027830247363696485
-0.4756706655025482,1.2145187854766846,56.38100814819336,0.1609364709027839,-0.7727206534791425,-0.4012182146000365,-0.027830247363696485
-1.1665561199188232,0.8700859546661377,56.326507568359375,0.1609364709027839,-0.7727206534791425,-0.4012182146000365,-0.027830247363696485
-0.28711381554603577,0.3261129856109619,56.340736389160156,0.1609364709027839,-0.7727206534791425,-0.4012182146000365,-0.027830247363696485
0.9054821729660034,0.42200392484664917,56.44464111328125,0.1609364709027839,-0.7727206534791425,-0.4012182146000365,-0.027830247363696485
0.9563866853713989,0.4334491789340973,56.439231872558594,0.1609364709027839,-0.7727206534791425,-0.4012182146000365,-0.027830247363696485
0.008628548122942448,0.14083345234394073,56.41147994995117,0.1609364709027839,-0.7727206534791425,-0.4012182146000365,-0.027830247363696485
-0.162260502576828,-0.39581623673439026,56.44737243652344,0.1609364709027839,-0.7727206534791425,-0.4012182146000365,-0.027830247363696485
-0.07390253990888596,-0.36356765031814575,56.45748519897461,0.1609364709027839,-0.7727206534791425,-0.4012182146000365,-0.027830247363696485
0.18848711252212524,-0.015180093236267567,56.44731903076172,0.1609364709027839,-0.7727206534791425,-0.4012182146000365,-0.027830247363696485
0.250480979681015,0.20299866795539856,56.45791244506836,0.1609364709027839,-0.7727206534791425,-0.4012182146000365,-0.027830247363696485
0.2783378064632416,0.20477205514907837,56.454978942871094,0.1609364709027839,-0.7727206534791425,-0.4012182146000365,-0.027830247363696485
0.12459686398506165,-0.05088833346962929,56.456912994384766,0.1609364709027839,-0.7727206534791425,-0.4012182146000365,-0.027830247363696485
0.055258434265851974,-0.14555609226226807,56.4566650390625,0.1609364709027839,-0.7727206534791425,-0.4012182146000365,-0.027830247363696485
0.11971971392631531,0.002125058090314269,56.455501556396484,0.1609364709027839,-0.7727206534791425,-0.4012182146000365,-0.027830247363696485
0.24551905691623688,0.11369438469409943,56.455562591552734,0.1609364709027839,-0.7727206534791425,-0.4012182146000365,-0.027830247363696485
0.18575090169906616,0.07193999737501144,56.45661163330078,0.1609364709027839,-0.7727206534791425,-0.4012182146000365,-0.027830247363696485
0.12386678904294968,-0.08888901770114899,56.456417083740234,0.1609364709027839,-0.7727206534791425,-0.4012182146000365,-0.027830247363696485
0.11937470734119415,-0.04294474050402641,56.45594787597656,0.1609364709027839,-0.7727206534791425,-0.4012182146000365,-0.027830247363696485
0.2020907700061798,0.057170379906892776,56.454750061035156,0.1609364709027839,-0.7727206534791425,-0.4012182146000365,-0.027830247363696485
0.19426338374614716,0.053288206458091736,56.45590591430664,0.1609364709027839,-0.7727206534791425,-0.4012182146000365,-0.027830247363696485
0.12701579928398132,-0.024513956159353256,56.454437255859375,0.1609364709027839,-0.7727206534791425,-0.4012182146000365,-0.027830247363696485
0.149090975522995,-0.04121736064553261,56.45426559448242,0.1609364709027839,-0.7727206534791425,-0.4012182146000365,-0.027830247363696485
0.18626023828983307,0.023603124544024467,56.4546012878418,0.1609364709027839,-0.7727206534791425,-0.4012182146000365,-0.027830247363696485
0.1703290045261383,0.043200187385082245,56.454689025878906,0.1609364709027839,-0.7727206534791425,-0.4012182146000365,-0.027830247363696485
0.14981111884117126,0.006957123521715403,56.45546340942383,0.1609364709027839,-0.7727206534791425,-0.4012182146000365,-0.027830247363696485
0.13840392231941223,-0.014637313783168793,56.454856872558594,0.1609364709027839,-0.7727206534791425,-0.4012182146000365,-0.027830247363696485
0.1413111686706543,0.012010784819722176,56.45408630371094,0.1609364709027839,-0.7727206534791425,-0.4012182146000365,-0.027830247363696485
0.16365699470043182,0.03494532033801079,56.452728271484375,0.1609364709027839,-0.7727206534791425,-0.4012182146000365,-0.027830247363696485
0.17321966588497162,0.018223686143755913,56.45246505737305,0.1609364709027839,-0.7727206534791425,-0.4012182146000365,-0.027830247363696485
0.13172724843025208,-0.015167593955993652,56.45170974731445,0.1609364709027839,-0.7727206534791425,-0.4012182146000365,-0.027830247363696485
0.1578914374113083,0.00033872865606099367,56.45263671875,0.1609364709027839,-0.7727206534791425,-0.4012182146000365,-0.027830247363696485
0.15755341947078705,0.033688995987176895,56.4525146484375,0.1609364709027839,-0.7727206534791425,-0.4012182146000365,-0.027830247363696485
0.1768849790096283,0.011170180514454842,56.45175552368164,0.1609364709027839,-0.7727206534791425,-0.4012182146000365,-0.027830247363696485
0.14727343618869781,-0.007761785760521889,56.45140838623047,0.1609364709027839,-0.7727206534791425,-0.4012182146000365,-0.027830247363696485
0.16630247235298157,-0.0028408444486558437,56.45156478881836,0.1609364709027839,-0.7727206534791425,-0.4012182146000365,-0.027830247363696485
0.1633910834789276,0.010313773527741432,56.451622009277344,0.1609364709027839,-0.7727206534791425,-0.4012182146000365,-0.027830247363696485
0.14903433620929718,0.006215616129338741,56.450809478759766,0.1609364709027839,-0.7727206534791425,-0.4012182146000365,-0.027830247363696485
0.15862786769866943,-0.0007222314598038793,56.4496955871582,0.1609364709027839,-0.7727206534791425,-0.4012182146000365,-0.027830247363696485
0.15923841297626495,0.0027313213795423508,56.45008850097656,0.1609364709027839,-0.7727206534791425,-0.4012182146000365,-0.027830247363696485
0.1516038328409195,0.011777657084167004,56.4505500793457,0.1609364709027839,-0.7727206534791425,-0.4012182146000365,-0.027830247363696485
0.17229872941970825,0.0027176556177437305,56.45160675048828,0.1609364709027839,-0.7727206534791425,-0.4012182146000365,-0.027830247363696485
0.15355440974235535,-0.0005665232893079519,56.45112991333008,0.1609364709027839,-0.7727206534791425,-0.4012182146000365,-0.027830247363696485
0.161312535405159,-0.0011870685266330838,56.451595306396484,0.1609364709027839,-0.7727206534791425,-0.4012182146000365,-0.027830247363696485
0.14853592216968536,0.008671581745147705,56.45087814331055,0.1609364709027839,-0.7727206534791425,-0.4012182146000365,-0.027830247363696485
0.1553676873445511,0.0035804016515612602,56.45059585571289,0.1609364709027839,-0.7727206534791425,-0.4012182146000365,-0.027830247363696485
0.1481548249721527,0.003938940819352865,56.450809478759766,0.1609364709027839,-0.7727206534791425,-0.4012182146000365,-0.027830247363696485
0.1586698591709137,-0.005913316272199154,56.45024871826172,0.1609364709027839,-0.7727206534791425,-0.4012182146000365,-0.027830247363696485
0.1480676680803299,0.004786323755979538,56.45021057128906,0.1609364709027839,-0.7727206534791425,-0.4012182146000365,-0.027830247363696485
0.14799369871616364,0.01803823560476303,56.450164794921875,0.1609364709027839,-0.7727206534791425,-0.4012182146000365,-0.027830247363696485
0.14569109678268433,-0.002792785642668605,56.449806213378906,0.1609364709027839,-0.7727206534791425,-0.4012182146000365,-0.027830247363696485
0.15338602662086487,0.005426980089396238,56.4506721496582,0.1609364709027839,-0.7727206534791425,-0.4012182146000365,-0.027830247363696485
0.1394565850496292,0.011211811564862728,56.45075225830078,0.1609364709027839,-0.7727206534791425,-0.4012182146000365,-0.027830247363696485
0.14777705073356628,0.0030359625816345215,56.45140075683594,0.1609364709027839,-0.7727206534791425,-0.4012182146000365,-0.027830247363696485
0.1515071839094162,0.0009221847867593169,56.45125198364258,0.1609364709027839,-0.7727206534791425,-0.4012182146000365,-0.027830247363696485
0.15843519568443298,0.0017735037254169583,56.450889587402344,0.1609364709027839,-0.7727206534791425,-0.4012182146000365,-0.027830247363696485
0.15175814926624298,-0.011697560548782349,56.450286865234375,0.1609364709027839,-0.7727206534791425,-0.4012182146000365,-0.027830247363696485
0.16364318132400513,0.004168163985013962,56.44916915893555,0.1609364709027839,-0.7727206534791425,-0.4012182146000365,-0.027830247363696485
0.15400797128677368,-0.01767987571656704,56.44917678833008,0.1609364709027839,-0.7727206534791425,-0.4012182146000365,-0.027830247363696485
0.15287180244922638,0.004925502464175224,56.44898986816406,0.1609364709027839,-0.7727206534791425,-0.4012182146000365,-0.027830247363696485
0.14050768315792084,-0.0008663379703648388,56.449649810791016,0.1609364709027839,-0.7727206534791425,-0.4012182146000365,-0.027830247363696485
0.13693901896476746,-0.005663133691996336,56.4508056640625,0.1609364709027839,-0.7727206534791425,-0.4012182146000365,-0.027830247363696485
0.15940800309181213,0.0063031455501914024,56.45154571533203,0.1609364709027839,-0.7727206534791425,-0.4012182146000365,-0.027830247363696485
0.16380563378334045,-0.009643618017435074,56.45296096801758,0.1609364709027839,-0.7727206534791425,-0.4012182146000365,-0.027830247363696485
0.15638338029384613,-0.009457563050091267,56.45357894897461,0.1609364709027839,-0.7727206534791425,-0.4012182146000365,-0.027830247363696485
0.15008850395679474,0.002745388774201274,56.4538688659668,0.1609364709027839,-0.7727206534791425,-0.4012182146000365,-0.027830247363696485
0.1624326854944229,-0.00433504581451416,56.4537239074707,0.1609364709027839,-0.7727206534791425,-0.4012182146000365,-0.027830247363696485
0.15672360360622406,-0.004850673023611307,56.45253372192383,0.1609364709027839,-0.7727206534791425,-0.4012182146000365,-0.027830247363696485
0.1617841273546219,0.004541006404906511,56.450740814208984,0.1609364709027839,-0.7727206534791425,-0.4012182146000365,-0.027830247363696485
0.14884652197360992,0.009619447402656078,56.44975280761719,0.1609364709027839,-0.7727206534791425,-0.4012182146000365,-0.027830247363696485
0.1461496502161026,0.0005847849533893168,56.44869613647461,0.1609364709027839,-0.7727206534791425,-0.4012182146000365,-0.027830247363696485
0.16058754920959473,0.003364142496138811,56.450130462646484,0.1609364709027839,-0.7727206534791425,-0.4012182146000365,-0.027830247363696485
0.14820517599582672,-0.015126487240195274,56.45016860961914,0.1609364709027839,-0.7727206534791425,-0.4012182146000365,-0.027830247363696485
0.16968829929828644,-0.011403702199459076,56.45061111450195,0.1609364709027839,-0.7727206534791425,-0.4012182146000365,-0.027830247363696485
0.15984201431274414,-0.005552452988922596,56.450321197509766,0.1609364709027839,-0.7727206534791425,-0.4012182146000365,-0.027830247363696485
0.1599898785352707,-0.0031203997787088156,56.44931411743164,0.1609364709027839,-0.7727206534791425,-0.4012182146000365,-0.027830247363696485
0.1444990634918213,-0.015186998061835766,56.4483528137207,0.1609364709027839,-0.7727206534791425,-0.4012182146000365,-0.027830247363696485
0.15742598474025726,-0.014652950689196587,56.44873046875,0.1609364709027839,-0.7727206534791425,-0.4012182146000365,-0.027830247363696485
0.15997327864170074,-0.00025059643667191267,56.450130462646484,0.1609364709027839,-0.7727206534791425,-0.4012182146000365,-0.027830247363696485
0.1597173660993576,0.0019292485667392612,56.4509391784668,0.1609364709027839,-0.7727206534791425,-0.4012182146000365,-0.027830247363696485
0.16747596859931946,-0.008604190312325954,56.450618743896484,0.1609364709027839,-0.7727206534791425,-0.4012182146000365,-0.027830247363696485
0.1436689794063568,-0.005442442838102579,56.44956588745117,0.1609364709027839,-0.7727206534791425,-0.4012182146000365,-0.027830247363696485
0.1493324190378189,-0.002970134373754263,56.45035171508789,0.1609364709027839,-0.7727206534791425,-0.4012182146000365,-0.027830247363696485
0.14849461615085602,0.004922965541481972,56.451786041259766,0.1609364709027839,-0.7727206534791425,-0.4012182146000365,-0.027830247363696485
0.15295477211475372,-0.016348082572221756,56.45100784301758,0.1609364709027839,-0.7727206534791425,-0.4012182146000365,-0.027830247363696485
0.1729305535554886,0,56.44995880126953,0.15427213158484374,-0.7731856262187161,-0.39850250355278444,-0.027966481385131668
0.16492193937301636,0,56.450443267822266,0.14765388517097291,-0.7736517342418017,-0.39568706611171356,-0.027966481385131668
0.25520259141921997,0.157037615776062,56.443260192871094,0.14108827605041604,-0.7741069368749027,-0.39218602835511157,-0.026657834586997817
0.703683078289032,0.9810469746589661,56.4368896484375,0.13461843152711614,-0.7744722004659058,-0.3841953144408761,-0.017173796333372585
1.3285956382751465,1.7631579637527466,56.55307388305664,0.12835630675286294,-0.7745678606174057,-0.367259658469508,0.005694578153391687
1.242994785308838,1.1029740571975708,56.90795135498047,0.12241389511334225,-0.7742739140356165,-0.34582973827297475,0.029579011661310998
0.4548966884613037,2.6590256690979004,57.267879486083984,0.11676797527224893,-0.7735196805269352,-0.33168064265822356,0.06092900938043992
0.5631079077720642,1.5235930681228638,57.57084655761719,0.11131065932490586,-0.772213737402732,-0.3231972710229455,0.09578416552394628
1.3965234756469727,0.731686532497406,57.7817268371582,0.10606012365392753,-0.7704607180050677,-0.3068670094944535,0.11457816219578186
0.8610914945602417,0.7072603702545166,57.925201416015625,0.10110245231306214,-0.7684511551002247,-0.28805355140939337,0.1265693863853812
0.8500968813896179,0.7098390460014343,58.002567291259766,0.09642039231567988,-0.7662432556454505,-0.2737936482764779,0.13837854818751413
1.0411481857299805,2.1395387649536133,57.99993896484375,0.09198850130739966,-0.7637390730498979,-0.25803327271714793,0.1621233632788062
1.8587729930877686,0.8068206906318665,57.83442306518555,0.08788933017730954,-0.7608324086997243,-0.2338672628936667,0.18667635874201852
0.1992809772491455,1.0852439403533936,57.8336181640625,0.08413446287702182,-0.7575897426768723,-0.21671681314085908,0.202443564000229
0.5914692878723145,0.4650164544582367,57.8436279296875,0.0805774292041965,-0.7541080263050065,-0.21012722759818026,0.21536240062365924
0.17009924352169037,0.9741485714912415,57.792484283447266,0.07712819544779585,-0.7504187109455879,-0.20378082316989687,0.22735544250657155
1.1414666175842285,0.5307801365852356,57.70573425292969,0.07382292935754103,-0.7465249446324175,-0.1928511076606809,0.23989651507387552
0.3403521776199341,1.4484095573425293,57.6620979309082,0.0707116483128633,-0.7423892256524413,-0.1805026177006462,0.25638976252327356
1.1478646993637085,1.5494816303253174,57.7000732421875,0.06780661974542085,-0.7379078760556875,-0.1681008103924492,0.28137218908717226
0.6511001586914062,-0.5919311046600342,57.685577392578125,0.06512986768735608,-0.7331518430066191,-0.15310943657532325,0.2893517768010496
-0.08177480101585388,0.5123711824417114,57.746116638183594,0.06261758022760594,-0.7283348383878667,-0.14836505859469365,0.28868877744923027
0.06677936762571335,0.8465048670768738,57.7702751159668,0.06014378790148673,-0.7234289923713852,-0.1484900205396115,0.3000127445285518
0.3170907199382782,1.3319437503814697,57.699459075927734,0.05769561187079626,-0.7182774988085859,-0.1452911031432449,0.3181664830073713
1.0816282033920288,-0.9553318023681641,57.620269775390625,0.05537122674364012,-0.7129485704842955,-0.13363511211549234,0.3213049159074822
0.5359043478965759,0.5086033344268799,57.54541015625,0.05325630352444362,-0.7076245113627778,-0.1201556741880873,0.31758217867463817
0.8144410252571106,0.2313930094242096,57.5003776550293,0.051347482938888946,-0.7022800864165442,-0.10890279607847325,0.32374881487339724
0.09629927575588226,0,57.607994079589844,0.04959568219181807,-0.6968682038763331,-0.10131329357003165,0.32567708995193234
0.37486156821250916,0.07787781953811646,57.75861358642578,0.04793984680203757,-0.6914348441952218,-0.09738695320362839,0.32632607178141665
0.14907407760620117,0.8520575165748596,57.8152961730957,0.04635311533515895,-0.6859314974894126,-0.09302082282180581,0.3340755329156915
-0.0886198952794075,1.3113759756088257,57.82841110229492,0.04480696649523488,-0.6802133335038606,-0.09251703796908253,0.3521041453505555
0.5143675208091736,0.06768514215946198,57.9489860534668,0.04329458166974529,-0.6742491629481729,-0.08896914108966782,0.3635963213319579
0.34738942980766296,0.4646473526954651,58.00281524658203,0.04187160688426589,-0.668152256724942,-0.08178783316786084,0.368032425455749
0.06945143640041351,-0.9384940266609192,57.99404525756836,0.04053742361384377,-0.6620512889863717,-0.07831415928279353,0.36408370317270355
0.7866702079772949,0.6366679668426514,57.9520378112793,0.03929164051776789,-0.6560041874098695,-0.07117981224631263,0.3615684860075513
0.3314155042171478,0.47166749835014343,57.93394470214844,0.03818295515478729,-0.6499010782357719,-0.06186243131135894,0.37080461488415795
0.29542073607444763,0.19167444109916687,57.936119079589844,0.037195444927396,-0.6436749359085742,-0.056638795975595645,0.37633246437956885
0.7143242955207825,0.2989231050014496,57.893333435058594,0.036321586177219076,-0.6373686588948799,-0.04822425404563539,0.3804207772637407
-0.1667083501815796,-0.4702889025211334,57.790218353271484,0.03555587749488482,-0.6310402130097564,-0.04366078783447537,0.37899272895107666
0.5791868567466736,0.06819933652877808,57.737754821777344,0.03485684203837725,-0.6247515904137657,-0.04022346694643292,0.375641982567807
-0.4170752167701721,0.602569043636322,57.69824981689453,0.034197708675379516,-0.6184443095667908,-0.03887253661329541,0.38123171906918285
-0.15708814561367035,0,57.651084899902344,0.033509960609436826,-0.6120486025098296,-0.043657231299827425,0.3862531277661522
1.1869421005249023,0,57.516517639160156,0.03285385772353076,-0.6056110503803938,-0.035075115008900495,0.3862531277661522
0.3987296521663666,0,57.45332717895508,0.03237938856731932,-0.5991734982509579,-0.021861183736473257,0.3862531277661522
0.41565588116645813,0.6944218277931213,57.31829833984375,0.032071590055970656,-0.5926877223834809,-0.015074637625366386,0.3920399763310949
-0.14863784611225128,1.5277818441390991,57.17334747314453,0.03183888901464887,-0.5859994030785229,-0.012849487333247995,0.4105583402638634
-0.17604532837867737,-1.3577626943588257,57.19538879394531,0.031602183449755086,-0.5791449571887238,-0.015555180454005734,0.41197516651203236
1.0013587474822998,0.1741359382867813,57.25093460083008,0.03140024387407052,-0.5723609007160283,-0.008677568628142214,0.402111610211432
-1.1442511081695557,0.6553152203559875,57.19205856323242,0.031245694649664868,-0.565601439770932,-0.009868338300536012,0.4090237032001217
0.6197766661643982,-1.0936917066574097,57.02981948852539,0.031044800508405575,-0.5588148208624787,-0.01423895865057899,0.40537056581427655
0.8527979850769043,0.29102572798728943,56.99284362792969,0.03090974665945435,-0.5521143854585373,-0.001967503223568135,0.3986816826586922
0.3063492178916931,0.17876459658145905,57.03122329711914,0.030957451272601036,-0.5454370664194641,0.007692056801170176,0.40259660203009845
0.5716044902801514,-0.3160751163959503,57.13950729370117,0.031146621226799138,-0.5387366585050607,0.015008337702602213,0.401452347698311
-0.2242749184370041,0.5594460368156433,57.22453308105469,0.031420880297664947,-0.5320288852850596,0.017902750801295105,0.40348043870180844
0.32927656173706055,0.47195106744766235,57.114524841308594,0.03172655125847126,-0.525232586507789,0.018777764495462243,0.4120754145706693
-1.5269603729248047,-0.6390345692634583,57.057373046875,0.03195634151317426,-0.5183762659525707,0.008797066068897708,0.4106830520555377
1.120162010192871,-0.9386257529258728,57.10011291503906,0.03207470939468839,-0.5116411081629082,0.005407079712798262,0.3975358827039599
0.18382909893989563,0.3932810425758362,57.11579132080078,0.03225538232803592,-0.5050533812782831,0.016273672288904653,0.3929913434510429
0.23900142312049866,0.533226490020752,57.09278869628906,0.0325559734302163,-0.49843918475322435,0.019797259972741274,0.4007122395560145
0.9299311637878418,-0.0812874436378479,57.11033630371094,0.03296710363718618,-0.491729262771292,0.029538364863644112,0.404478398275872
0.3713414967060089,0.4468456506729126,57.08504104614258,0.03354977587522566,-0.48496257014676114,0.040382303701092866,0.40752471666783086
0.08268232643604279,-0.4360507130622864,57.0180778503418,0.034254343702406514,-0.4781697418871854,0.04416583556060996,0.4076146744812527
0.4546205401420593,-0.5627562403678894,56.92805099487305,0.03502775366081794,-0.4714455255731527,0.04864335944876081,0.39929128320266793
-0.8037570714950562,0.6249953508377075,56.86823654174805,0.035814230725842215,-0.46478634869265895,0.045733888354152506,0.3998099424565831
-0.7491141557693481,-0.12454745173454285,56.77730178833008,0.036468623918740284,-0.45808809632538927,0.032793294793615806,0.4039803416157761
2.4262800216674805,-0.32443222403526306,56.598976135253906,0.03713164868376569,-0.4513862697759437,0.046769677009433575,0.4002388443176944
-0.729193925857544,0.0780886709690094,56.44374084472656,0.0380289965016875,-0.44473272956183396,0.06091206114118305,0.3981859813754756
0.45044809579849243,1.0752359628677368,56.276485443115234,0.03902484017139756,-0.4380162045504485,0.05858917922402428,0.40779701999078183
-0.37591829895973206,-0.25199609994888306,56.13888168334961,0.040006502172133994,-0.4311624181156772,0.05921026086434729,0.4146573521817723
-0.6011757254600525,-0.7502148747444153,56.10957336425781,0.04092548610151063,-0.42432106023033467,0.05106781066084908,0.40630559405932815
1.2481846809387207,-0.3316177427768707,56.09792709350586,0.04182154745665524,-0.4176244275944515,0.05645955195650465,0.3972903222466508
-1.0575268268585205,0.5637271404266357,55.86640548706055,0.04277578011801922,-0.4109868035155039,0.058048367407172986,0.3992245672270655
0.4764966666698456,-0.27196887135505676,55.69377136230469,0.043702903591459,-0.40431279973747836,0.053206449405600695,0.40165588613599534
0.8176015615463257,0.5983170866966248,55.63345718383789,0.044679545680734026,-0.39759587189803525,0.06399060130740213,0.40437545459717505
0.5873578786849976,-1.0699949264526367,55.66502380371094,0.045843622330317906,-0.39088903639362094,0.07569859664266315,0.4004448059325416
-0.23887433111667633,-0.3924693763256073,55.71858215332031,0.04712946585405454,-0.3843165163157715,0.0786026262057325,0.3882576034093896
0.7691704630851746,0.46083253622055054,55.6784782409668,0.04712946585405454,-0.3843165163157715,0.0786026262057325,0.3882576034093896
-1.8201489448547363,-0.5144234895706177,55.634864807128906,0.04712946585405454,-0.3843165163157715,0.0786026262057325,0.3882576034093896
0.3496651351451874,-2.446852684020996,55.58771896362305,0.04712946585405454,-0.3843165163157715,0.0786026262057325,0.3882576034093896
-0.8615447282791138,-1.5064963102340698,55.167205810546875,0.04712946585405454,-0.3843165163157715,0.0786026262057325,0.3882576034093896
-2.249565362930298,-3.023426055908203,54.34687805175781,0.04712946585405454,-0.3843165163157715,0.0786026262057325,0.3882576034093896
-0.18004029989242554,-1.8530943393707275,53.278202056884766,0.04712946585405454,-0.3843165163157715,0.0786026262057325,0.3882576034093896
-1.3796082735061646,-1.8820812702178955,51.937870025634766,0.04712946585405454,-0.3843165163157715,0.0786026262057325,0.3882576034093896
-1.0959805250167847,-0.9244052767753601,50.38802719116211,0.04712946585405454,-0.3843165163157715,0.0786026262057325,0.3882576034093896
-0.2300686240196228,-1.8947705030441284,48.69293975830078,0.04712946585405454,-0.3843165163157715,0.0786026262057325,0.3882576034093896
-1.6119168996810913,-1.2915709018707275,46.893409729003906,0.04712946585405454,-0.3843165163157715,0.0786026262057325,0.3882576034093896
0.8343390822410583,-1.748457670211792,45.08628845214844,0.04712946585405454,-0.3843165163157715,0.0786026262057325,0.3882576034093896
-1.3953644037246704,-0.7864234447479248,43.24591064453125,0.04712946585405454,-0.3843165163157715,0.0786026262057325,0.3882576034093896
-0.9985306262969971,-1.5426329374313354,41.27079772949219,0.04712946585405454,-0.3843165163157715,0.0786026262057325,0.3882576034093896
0.626583993434906,-1.3539867401123047,39.270938873291016,0.04712946585405454,-0.3843165163157715,0.0786026262057325,0.3882576034093896
-0.6179398894309998,0.2167256772518158,37.152530670166016,0.04712946585405454,-0.3843165163157715,0.0786026262057325,0.3882576034093896
-1.882750391960144,-1.3954130411148071,34.92668914794922,0.04712946585405454,-0.3843165163157715,0.0786026262057325,0.3882576034093896
0.8927498459815979,-1.365454077720642,32.60904312133789,0.04712946585405454,-0.3843165163157715,0.0786026262057325,0.3882576034093896
-0.8606844544410706,-0.7634769678115845,30.336563110351562,0.04712946585405454,-0.3843165163157715,0.0786026262057325,0.3882576034093896
-0.15581169724464417,-0.434573233127594,28.043298721313477,0.04712946585405454,-0.3843165163157715,0.0786026262057325,0.3882576034093896
0.2906843423843384,-1.551938533782959,25.74650764465332,0.04712946585405454,-0.3843165163157715,0.0786026262057325,0.3882576034093896
-0.029991524294018745,-1.6346659660339355,23.37517738342285,0.04712946585405454,-0.3843165163157715,0.0786026262057325,0.3882576034093896
-1.6404303312301636,0.16973598301410675,20.943410873413086,0.04712946585405454,-0.3843165163157715,0.0786026262057325,0.3882576034093896
-0.39696982502937317,-2.0325136184692383,18.468935012817383,0.04712946585405454,-0.3843165163157715,0.0786026262057325,0.3882576034093896
0.3459111154079437,-0.1169101819396019,16.00838851928711,0.04712946585405454,-0.3843165163157715,0.0786026262057325,0.3882576034093896
-1.1049916744232178,0.9454209208488464,13.601364135742188,0.04712946585405454,-0.3843165163157715,0.0786026262057325,0.3882576034093896
0.32338494062423706,-2.302708387374878,11.183701515197754,0.04712946585405454,-0.3843165163157715,0.0786026262057325,0.3882576034093896
-0.2723575830459595,-0.25199082493782043,8.727112770080566,0.04712946585405454,-0.3843165163157715,0.0786026262057325,0.3882576034093896
-0.9805023670196533,-0.721479058265686,6.231602668762207,0.04712946585405454,-0.3843165163157715,0.0786026262057325,0.3882576034093896
0.15485216677188873,-0.908839225769043,3.7936458587646484,0.04712946585405454,-0.3843165163157715,0.0786026262057325,0.3882576034093896
-1.2042827606201172,0.3514006733894348,1.338357925415039,0.04712946585405454,-0.3843165163157715,0.0786026262057325,0.3882576034093896
-0.03325747698545456,-1.8132411241531372,-0.9799747467041016,0.04712946585405454,-0.3843165163157715,0.0786026262057325,0.3882576034093896
0.9223929047584534,-1.069639801979065,-3.1425557136535645,0.04712946585405454,-0.3843165163157715,0.0786026262057325,0.3882576034093896
0.9612095355987549,-1.3696467876434326,-5.369112491607666,0.04712946585405454,-0.3843165163157715,0.0786026262057325,0.3882576034093896
-2.7827093601226807,2.101313352584839,-7.559500694274902,0.04712946585405454,-0.3843165163157715,0.0786026262057325,0.3882576034093896
0.8795592188835144,-1.567457675933838,-9.79318618774414,0.04712946585405454,-0.3843165163157715,0.0786026262057325,0.3882576034093896
-1.2966718673706055,1.008259892463684,-12.079949378967285,0.04712946585405454,-0.3843165163157715,0.0786026262057325,0.3882576034093896
-0.13281796872615814,0.031131673604249954,-14.541238784790039,0.04712946585405454,-0.3843165163157715,0.0786026262057325,0.3882576034093896
-0.40307238698005676,-1.0091872215270996,-16.95098876953125,0.04712946585405454,-0.3843165163157715,0.0786026262057325,0.3882576034093896
-0.535072386264801,0.18712851405143738,-19.488344192504883,0.04712946585405454,-0.3843165163157715,0.0786026262057325,0.3882576034093896
-0.41183727979660034,-0.18018430471420288,-22.107358932495117,0.04712946585405454,-0.3843165163157715,0.0786026262057325,0.3882576034093896
-1.0205315351486206,-0.6308439373970032,-24.815261840820312,0.04712946585405454,-0.3843165163157715,0.0786026262057325,0.3882576034093896
0.6148250102996826,1.483353853225708,-27.382404327392578,0.04712946585405454,-0.3843165163157715,0.0786026262057325,0.3882576034093896
-0.18588854372501373,-1.3656120300292969,-29.432252883911133,0.04712946585405454,-0.3843165163157715,0.0786026262057325,0.3882576034093896
0.8879942893981934,0.7636069059371948,-31.070148468017578,0.04712946585405454,-0.3843165163157715,0.0786026262057325,0.3882576034093896
1.7891902923583984,1.5972332954406738,-32.2149772644043,0.04712946585405454,-0.3843165163157715,0.0786026262057325,0.3882576034093896
1.1508642435073853,0.7344642281532288,-33.00560760498047,0.04712946585405454,-0.3843165163157715,0.0786026262057325,0.3882576034093896
1.1334887742996216,0.8763315081596375,-33.323570251464844,0.04712946585405454,-0.3843165163157715,0.0786026262057325,0.3882576034093896
0.9275851249694824,0.7477213740348816,-33.33018493652344,0.04712946585405454,-0.3843165163157715,0.0786026262057325,0.3882576034093896
0.19410459697246552,-0.7856301069259644,-33.222877502441406,0.04712946585405454,-0.3843165163157715,0.0786026262057325,0.3882576034093896
-0.36034083366394043,-0.34806984663009644,-33.18486404418945,0.04712946585405454,-0.3843165163157715,0.0786026262057325,0.3882576034093896
0.1886231005191803,-0.039955466985702515,-33.25340270996094,0.04712946585405454,-0.3843165163157715,0.0786026262057325,0.3882576034093896
-0.12321077287197113,-0.23560388386249542,-33.260005950927734,0.04712946585405454,-0.3843165163157715,0.0786026262057325,0.3882576034093896
-0.09224306792020798,-0.03974653407931328,-33.25387954711914,0.04712946585405454,-0.3843165163157715,0.0786026262057325,0.3882576034093896
0.011214081197977066,-0.09092973172664642,-33.283748626708984,0.04712946585405454,-0.3843165163157715,0.0786026262057325,0.3882576034093896
0.003183512482792139,-0.2190542221069336,-33.292335510253906,0.04712946585405454,-0.3843165163157715,0.0786026262057325,0.3882576034093896
0.10923153907060623,-0.19209270179271698,-33.31623077392578,0.04712946585405454,-0.3843165163157715,0.0786026262057325,0.3882576034093896
0.01129524502903223,-0.1927732527256012,-33.3368034362793,0.04712946585405454,-0.3843165163157715,0.0786026262057325,0.3882576034093896
-0.02737661451101303,-0.1394559144973755,-33.350868225097656,0.04712946585405454,-0.3843165163157715,0.0786026262057325,0.3882576034093896
-0.025150388479232788,-0.148045614361763,-33.35274887084961,0.04712946585405454,-0.3843165163157715,0.0786026262057325,0.3882576034093896
0.011327189393341541,-0.1711593121290207,-33.36884307861328,0.04712946585405454,-0.3843165163157715,0.0786026262057325,0.3882576034093896
0.05295088142156601,-0.1642947643995285,-33.388389587402344,0.04712946585405454,-0.3843165163157715,0.0786026262057325,0.3882576034093896
0.01368824765086174,-0.17850686609745026,-33.400081634521484,0.04712946585405454,-0.3843165163157715,0.0786026262057325,0.3882576034093896
-0.021420737728476524,-0.1426999419927597,-33.415679931640625,0.04712946585405454,-0.3843165163157715,0.0786026262057325,0.3882576034093896
-0.02047150954604149,-0.14738155901432037,-33.42354202270508,0.04712946585405454,-0.3843165163157715,0.0786026262057325,0.3882576034093896
0.019531477242708206,-0.15910527110099792,-33.437198638916016,0.04712946585405454,-0.3843165163157715,0.0786026262057325,0.3882576034093896
0.017926562577486038,-0.1777944415807724,-33.45001220703125,0.04712946585405454,-0.3843165163157715,0.0786026262057325,0.3882576034093896
0.013361042365431786,-0.1546211540699005,-33.45016860961914,0.04712946585405454,-0.3843165163157715,0.0786026262057325,0.3882576034093896
0.004010398872196674,-0.1551031768321991,-33.46060562133789,0.04712946585405454,-0.3843165163157715,0.0786026262057325,0.3882576034093896
0.007093106862157583,-0.15006399154663086,-33.4613151550293,0.04712946585405454,-0.3843165163157715,0.0786026262057325,0.3882576034093896
0.01319291815161705,-0.173070028424263,-33.46106719970703,0.04712946585405454,-0.3843165163157715,0.0786026262057325,0.3882576034093896
0.02134455181658268,-0.15575122833251953,-33.470767974853516,0.04712946585405454,-0.3843165163157715,0.0786026262057325,0.3882576034093896
0.014603784307837486,-0.16322848200798035,-33.48190689086914,0.04712946585405454,-0.3843165163157715,0.0786026262057325,0.3882576034093896
0.005924986209720373,-0.1405341923236847,-33.49358367919922,0.04712946585405454,-0.3843165163157715,0.0786026262057325,0.3882576034093896
-0.0029664465691894293,-0.1569056361913681,-33.50440216064453,0.04712946585405454,-0.3843165163157715,0.0786026262057325,0.3882576034093896
0.003353354288265109,-0.15304817259311676,-33.51484680175781,0.04712946585405454,-0.3843165163157715,0.0786026262057325,0.3882576034093896
0.00039588334038853645,-0.15790720283985138,-33.52414321899414,0.04712946585405454,-0.3843165163157715,0.0786026262057325,0.3882576034093896
-0.012793508358299732,-0.15644630789756775,-33.524845123291016,0.04712946585405454,-0.3843165163157715,0.0786026262057325,0.3882576034093896
-0.0007331644301302731,-0.14852020144462585,-33.5345573425293,0.04712946585405454,-0.3843165163157715,0.0786026262057325,0.3882576034093896
0.015263522043824196,-0.1520499438047409,-33.54203414916992,0.04712946585405454,-0.3843165163157715,0.0786026262057325,0.3882576034093896
0.010430853813886642,-0.16741210222244263,-33.552581787109375,0.04712946585405454,-0.3843165163157715,0.0786026262057325,0.3882576034093896
-0.002752631902694702,-0.16108138859272003,-33.56086730957031,0.04712946585405454,-0.3843165163157715,0.0786026262057325,0.3882576034093896
-0.0033265852835029364,-0.16210906207561493,-33.57045364379883,0.04712946585405454,-0.3843165163157715,0.0786026262057325,0.3882576034093896
0.005486170761287212,-0.16162149608135223,-33.57917785644531,0.04712946585405454,-0.3843165163157715,0.0786026262057325,0.3882576034093896
0.0008174148388206959,-0.1595684140920639,-33.57919692993164,0.04712946585405454,-0.3843165163157715,0.0786026262057325,0.3882576034093896
-0.0055902511812746525,-0.15426352620124817,-33.58803176879883,0.04712946585405454,-0.3843165163157715,0.0786026262057325,0.3882576034093896
0.004350840114057064,-0.1508369892835617,-33.595706939697266,0.04712946585405454,-0.3843165163157715,0.0786026262057325,0.3882576034093896
0.00034659524681046605,-0.15363557636737823,-33.604129791259766,0.04712946585405454,-0.3843165163157715,0.0786026262057325,0.3882576034093896
0.014804303646087646,-0.163788303732872,-33.61245346069336,0.04712946585405454,-0.3843165163157715,0.0786026262057325,0.3882576034093896
-0.0008207674836739898,-0.15173597633838654,-33.61833190917969,0.04712946585405454,-0.3843165163157715,0.0786026262057325,0.3882576034093896
-0.007438245695084333,-0.16830149292945862,-33.624847412109375,0.04712946585405454,-0.3843165163157715,0.0786026262057325,0.3882576034093896
0.0037398466374725103,-0.16306298971176147,-33.623958587646484,0.04712946585405454,-0.3843165163157715,0.0786026262057325,0.3882576034093896
0.009703109972178936,-0.14663167297840118,-33.62986373901367,0.04712946585405454,-0.3843165163157715,0.0786026262057325,0.3882576034093896
0.010069653391838074,-0.14950230717658997,-33.63521957397461,0.04712946585405454,-0.3843165163157715,0.0786026262057325,0.3882576034093896
-0.0038425440434366465,-0.150005042552948,-33.63628387451172,0.04712946585405454,-0.3843165163157715,0.0786026262057325,0.3882576034093896
-0.004844563081860542,-0.16441762447357178,-33.64209747314453,0.04712946585405454,-0.3843165163157715,0.0786026262057325,0.3882576034093896
-0.0042856233194470406,-0.14262664318084717,-33.64225387573242,0.04712946585405454,-0.3843165163157715,0.0786026262057325,0.3882576034093896
-0.004198973532766104,-0.15382593870162964,-33.64726638793945,0.04712946585405454,-0.3843165163157715,0.0786026262057325,0.3882576034093896
0.006842384580522776,-0.1543145775794983,-33.65431594848633,0.04712946585405454,-0.3843165163157715,0.0786026262057325,0.3882576034093896
-0.009493660181760788,-0.15858301520347595,-33.65836715698242,0.04712946585405454,-0.3843165163157715,0.0786026262057325,0.3882576034093896
0.00471917912364006,-0.15057560801506042,-33.66521072387695,0.04712946585405454,-0.3843165163157715,0.0786026262057325,0.3882576034093896
-0.007134358864277601,-0.15462657809257507,-33.67151641845703,0.04712946585405454,-0.3843165163157715,0.0786026262057325,0.3882576034093896
-0.006155993789434433,-0.14492976665496826,-33.675140380859375,0.04712946585405454,-0.3843165163157715,0.0786026262057325,0.3882576034093896
0.0009132669656537473,-0.1546568125486374,-33.68291091918945,0.04712946585405454,-0.3843165163157715,0.0786026262057325,0.3882576034093896
-0.008715933188796043,-0.1511896252632141,-33.68213653564453,0.04712946585405454,-0.3843165163157715,0.0786026262057325,0.3882576034093896
0.004600640386343002,-0.15667223930358887,-33.684593200683594,0.04712946585405454,-0.3843165163157715,0.0786026262057325,0.3882576034093896
0.00481981597840786,-0.16688859462738037,-33.68794631958008,0.04712946585405454,-0.3843165163157715,0.0786026262057325,0.3882576034093896
0.015109161846339703,-0.1571250855922699,-33.692344665527344,0.04712946585405454,-0.3843165163157715,0.0786026262057325,0.3882576034093896
-0.006708140484988689,-0.15570396184921265,-33.701141357421875,0.04712946585405454,-0.3843165163157715,0.0786026262057325,0.3882576034093896
-0.0007308908388949931,-0.15259192883968353,-33.701412200927734,0.04712946585405454,-0.3843165163157715,0.0786026262057325,0.3882576034093896
0.0022691069170832634,-0.14872623980045319,-33.70906066894531,0.04712946585405454,-0.3843165163157715,0.0786026262057325,0.3882576034093896
-0.01101594790816307,-0.14601436257362366,-33.714359283447266,0.04712946585405454,-0.3843165163157715,0.0786026262057325,0.3882576034093896
0.01414168905466795,-0.16280871629714966,-33.72160339355469,0.04712946585405454,-0.3843165163157715,0.0786026262057325,0.3882576034093896
-0.008738130331039429,-0.14449776709079742,-33.72438430786133,0.04712946585405454,-0.3843165163157715,0.0786026262057325,0.3882576034093896
-0.00998107623308897,-0.16139590740203857,-33.726741790771484,0.04712946585405454,-0.3843165163157715,0.0786026262057325,0.3882576034093896
-0.009206638671457767,-0.15423597395420074,-33.72980880737305,0.04712946585405454,-0.3843165163157715,0.0786026262057325,0.3882576034093896
-0.004377487115561962,-0.1501053422689438,-33.73204040527344,0.04712946585405454,-0.3843165163157715,0.0786026262057325,0.3882576034093896
-0.00880987849086523,-0.15250436961650848,-33.735023498535156,0.04712946585405454,-0.3843165163157715,0.0786026262057325,0.3882576034093896
0.009069967083632946,-0.15187214314937592,-33.737632751464844,0.04712946585405454,-0.3843165163157715,0.0786026262057325,0.3882576034093896
-0.009673413820564747,-0.15239612758159637,-33.740177154541016,0.04712946585405454,-0.3843165163157715,0.0786026262057325,0.3882576034093896
-0.0015890967333689332,-0.1531555950641632,-33.74496841430664,0.04712946585405454,-0.3843165163157715,0.0786026262057325,0.3882576034093896
1.4702961834700545e-06,-0.15544350445270538,-33.74467468261719,0.04712946585405454,-0.3843165163157715,0.0786026262057325,0.3882576034093896
-0.005254978314042091,-0.14243292808532715,-33.74732971191406,0.04712946585405454,-0.3843165163157715,0.0786026262057325,0.3882576034093896
-0.01601913943886757,-0.16491268575191498,-33.75467300415039,0.04712946585405454,-0.3843165163157715,0.0786026262057325,0.3882576034093896
0.0015870328061282635,-0.1440121978521347,-33.758094787597656,0.04712946585405454,-0.3843165163157715,0.0786026262057325,0.3882576034093896
0.010495372116565704,-0.15039567649364471,-33.761775970458984,0.04712946585405454,-0.3843165163157715,0.0786026262057325,0.3882576034093896
-0.011621514335274696,-0.1503327339887619,-33.765018463134766,0.04712946585405454,-0.3843165163157715,0.0786026262057325,0.3882576034093896
-0.006379943341016769,-0.15193074941635132,-33.76517868041992,0.04712946585405454,-0.3843165163157715,0.0786026262057325,0.3882576034093896
-0.008443652652204037,-0.14793537557125092,-33.76791000366211,0.04712946585405454,-0.3843165163157715,0.0786026262057325,0.3882576034093896
0.008687326684594154,-0.1527312994003296,-33.771522521972656,0.04712946585405454,-0.3843165163157715,0.0786026262057325,0.3882576034093896
0,-0.15430893003940582,-33.77570724487305,0.0484401129107254,-0.3778668784971039,0.07867502059477079,0.38569893483072515
0,-0.15097594261169434,-33.77941131591797,0.04975136325397158,-0.3714597632549703,0.07867502059477079,0.3831548942252993
0.37146154046058655,-0.3385174870491028,-33.764617919921875,0.051088409537527524,-0.3651078409504973,0.08177053343194234,0.37907578231145933
1.6979732513427734,-1.1854300498962402,-33.70005416870117,0.05259496251082402,-0.35889574093537197,0.099015823363637,0.36637621950358146
2.660696506500244,-2.0042061805725098,-33.58279800415039,0.05454791163340151,-0.3530109731263171,0.13533807134566214,0.33979591758300853
2.6747262477874756,-0.4276283085346222,-33.50099182128906,0.05717406162487697,-0.34751658522834383,0.17979992763139313,0.3195306301737824
0.4763134717941284,-1.3732167482376099,-33.39092254638672,0.06038954928814891,-0.34231613340994554,0.20605859196123982,0.3045235880340138
0.8722577691078186,-0.37835967540740967,-33.23537826538086,0.06391750993478776,-0.33736237752768733,0.2172966856354227,0.28992711783697195
0.6244307160377502,-1.7557934522628784,-33.304386138916016,0.06764305806240213,-0.3326784639753816,0.22976908967830245,0.27214250843971954
2.089395761489868,-0.881641685962677,-33.35204315185547,0.07166100306242437,-0.3283259107193186,0.2523843103243659,0.2501638822878399
0.7952948212623596,-0.3016853928565979,-33.287139892578125,0.07606773396941048,-0.3242386881727726,0.2764233985139678,0.2403028232976793
0.4228456914424896,-1.3815628290176392,-33.296470642089844,0.08075938370247,-0.32035053335544145,0.2865745694531749,0.22627575478206066
0.5746583342552185,-0.37742528319358826,-33.35642623901367,0.08560489763958526,-0.3167014227279773,0.2948871030006558,0.21161752051363378
1.1570706367492676,-0.907992959022522,-33.42627716064453,0.09063994164591595,-0.3132637292084595,0.30931817775902654,0.20090570182849954
1.2913410663604736,-0.8202335834503174,-33.350067138671875,0.09596527319906012,-0.31003531657676736,0.3297216086182744,0.1865038139745592
0.7371432185173035,-0.6407139301300049,-33.44449234008789,0.10160150030692565,-0.30702837436563446,0.3466256443255892,0.17432925136138985
0.22924792766571045,-0.7576526403427124,-33.52323913574219,0.10744570487528152,-0.3042199956325608,0.3546789038771143,0.16267619660745053
0.22258217632770538,-1.500830054283142,-33.62577819824219,0.11338839703045518,-0.30166556476511897,0.3584441547437261,0.1438555074855684
0.289762407541275,-0.11917653679847717,-33.7166633605957,0.11939804576117485,-0.29938047343140683,0.3627136929426343,0.13035545255988826
1.093495488166809,-0.8347891569137573,-33.812374114990234,0.12553933355297625,-0.2972741301730276,0.374240842073535,0.12240573844561964
1.2426522970199585,0.4285953640937805,-33.9343147277832,0.1319389134059509,-0.29526224243454646,0.39370874028342473,0.11902079017211983
1.0655978918075562,0.08544411510229111,-34.086891174316406,0.1386610208960099,-0.29324286541228917,0.412944158523654,0.12330445249875377
0.3823564946651459,-1.5474668741226196,-34.20604705810547,0.1456439759260203,-0.2912893205622419,0.4250104450775932,0.1111209295069177
0.08996043354272842,-0.7306694984436035,-34.314266204833984,0.15276028313066128,-0.28959550898522146,0.4289464194793255,0.0921364597355325
0,0,-34.47216796875,0.15991563737431272,-0.2881106422603545,0.4296960897588482,0.08604754724850247
0.20841245353221893,-0.10947087407112122,-34.62748336791992,0.16709171195734437,-0.2866841186169122,0.43143286020495003,0.08513528996457646
0.20480874180793762,-0.3379336893558502,-34.743011474609375,0.17431095554376994,-0.2852962668788517,0.434876370166118,0.08140691860268504
0.33107396960258484,-0.29497194290161133,-34.74112319946289,0.18159610912371985,-0.28398343668215814,0.43934205942787236,0.07613270500053952
0.5251007080078125,0.1356273889541626,-34.722679138183594,0.1889779333556851,-0.2827256238595066,0.446476848407959,0.07480483371764411
0.3335180878639221,-1.3845025300979614,-34.77762985229492,0.1964788404677533,-0.28156560407123643,0.45363200504022344,0.06439754087477913
0.6350612640380859,-0.4645380973815918,-34.79490280151367,0.20410663634008355,-0.28062071732245397,0.4617034996394068,0.04898886897911618
0,0.4871242940425873,-34.827816009521484,0.2118457961440763,-0.2798026676869228,0.4669956768397242,0.04917708728462448
-0.23392637073993683,-0.3260451555252075,-34.71506881713867,0.21961281253788145,-0.2789718635142265,0.4650462904168914,0.05051941343893598
-1.3028753995895386,-0.8741629719734192,-34.62233352661133,0.22725686169966788,-0.27821322107687607,0.4522396089974791,0.04051767904311409
1.0446808338165283,0.461623877286911,-34.68564224243164,0.23477625833811386,-0.2775665749743996,0.45008798761603735,0.03707985325405985
0.46845781803131104,-0.8518518209457397,-34.8577880859375,0.24238280387142613,-0.2769756765829194,0.462697476381436,0.033827953723569615
1.1636645793914795,-0.9699289798736572,-34.84765625,0.25020777031093777,-0.27653838990980567,0.47629849635995924,0.018646447050074642
0,0.3592035472393036,-34.69577407836914,0.2582268886238393,-0.27627002728068184,0.48599570118822155,0.013557068444788361
0.13367900252342224,-0.19432440400123596,-34.71846008300781,0.26633610024104043,-0.27603262619943275,0.4871096928759167,0.01493106130510559
-0.5607939958572388,-0.2728286683559418,-34.8566780090332,0.27442493435887977,-0.27581621636326137,0.4835504012648016,0.011038119035462443
0.31578299403190613,0.3386962115764618,-34.95827102661133,0.2824670930603886,-0.27562767357772444,0.48150864291625717,0.011587015228966777
-0.24764864146709442,-0.6660054922103882,-34.95110321044922,0.2904969686612543,-0.2754572864683968,0.4820764291876306,0.008859437890350723
0.41652458906173706,-0.2881707549095154,-35.012977600097656,0.2985433033107422,-0.2753758914096076,0.4834837287509193,0.000907969164351527
-0.5992057919502258,0.08176779747009277,-35.12075424194336,0.30658867926194583,-0.2753750921289128,0.4819613853935152,-0.0008120554809769947
0.32794687151908875,-2.6297147274017334,-35.2337646484375,0.31460253159347445,-0.27556556714595215,0.47970089438992236,-0.022044946563740665
-0.07807924598455429,0.936699390411377,-35.30950927734375,0.32261489841841307,-0.27605055343152773,0.48178312460271017,-0.03615340770532697
1.1313685178756714,0.31067630648612976,-35.39084243774414,0.33071776225011734,-0.27656648691433194,0.4905605352018028,-0.02575861023118108
0,0,-35.54521942138672,0.3389723384283332,-0.27697422234134567,0.49998860618410007,-0.02316964101046333
-0.321614146232605,-0.6841421723365784,-35.758602142333984,0.34728314754902423,-0.27740789289793233,0.49730848829882834,-0.028870825779934814
0,-0.4897397458553314,-35.958560943603516,0.3555492880382941,-0.2779705929052501,0.4946283704135566,-0.03865317509820073
-0.5421279072761536,0.35230961441993713,-36.15174865722656,0.3637554464405148,-0.27862435624934756,0.490110637852922,-0.03979842619349568
-0.1578454077243805,-0.08348307758569717,-36.20372772216797,0.37187534781341064,-0.2792689948430701,0.48427752689458425,-0.03755820505321035
0.1967819482088089,0.251709520816803,-36.13121032714844,0.3799493438547429,-0.27988328253539924,0.4846019980652878,-0.03615631802628447
0.7657986879348755,0,-36.11726379394531,0.38809288970000766,-0.2804684080080028,0.4926235033664852,-0.034058738686144445
0.33644595742225647,-0.40054792165756226,-36.10890579223633,0.3963798261898211,-0.2810638694806648,0.501808875411128,-0.0373966380332908
-0.6719813346862793,0.060754816979169846,-36.09860610961914,0.4047200063788077,-0.28171074352460007,0.4990127472672611,-0.04022824723894407
-0.6754403114318848,-0.26724493503570557,-36.021034240722656,0.4129433145522816,-0.2823955539034475,0.4877842335496097,-0.04194899822274853
-0.8123605251312256,-0.5025673508644104,-36.013458251953125,0.42096973227556933,-0.2831481630603475,0.4753858932449171,-0.048364100605249497
1.5035133361816406,0,-36.04808807373047,0.42894082721930754,-0.283989131914245,0.48114550000367057,-0.052552161862452915
0.2741287350654602,-0.21029071509838104,-36.18682098388672,0.4370833662520942,-0.28487960480050106,0.49595918393072974,-0.05430458448827276
0.3696114122867584,-1.3356966972351074,-36.07862091064453,0.4370833662520942,-0.28487960480050106,0.49595918393072974,-0.05430458448827276
-0.006173776928335428,0.41573867201805115,-36.00606155395508,0.4370833662520942,-0.28487960480050106,0.49595918393072974,-0.05430458448827276
-2.337536334991455,1.0137134790420532,-36.25435256958008,0.4370833662520942,-0.28487960480050106,0.49595918393072974,-0.05430458448827276
-2.233097791671753,1.8072123527526855,-36.78471755981445,0.4370833662520942,-0.28487960480050106,0.49595918393072974,-0.05430458448827276
-2.1375980377197266,0.8306031823158264,-37.49476623535156,0.4370833662520942,-0.28487960480050106,0.49595918393072974,-0.05430458448827276
-1.4054827690124512,-0.6645345091819763,-38.34605407714844,0.4370833662520942,-0.28487960480050106,0.49595918393072974,-0.05430458448827276
-1.8097550868988037,1.018479347229004,-39.4134521484375,0.4370833662520942,-0.28487960480050106,0.49595918393072974,-0.05430458448827276
-1.8038488626480103,-1.6347968578338623,-40.66066360473633,0.4370833662520942,-0.28487960480050106,0.49595918393072974,-0.05430458448827276
-1.951947808265686,2.159048557281494,-42.08935546875,0.4370833662520942,-0.28487960480050106,0.49595918393072974,-0.05430458448827276
-1.6284035444259644,0.3689659535884857,-43.701393127441406,0.4370833662520942,-0.28487960480050106,0.49595918393072974,-0.05430458448827276
-1.5157132148742676,0.01287541538476944,-45.299434661865234,0.4370833662520942,-0.28487960480050106,0.49595918393072974,-0.05430458448827276
-1.1953883171081543,1.1443830728530884,-46.998077392578125,0.4370833662520942,-0.28487960480050106,0.49595918393072974,-0.05430458448827276
-1.2187740802764893,0.10302198678255081,-48.738555908203125,0.4370833662520942,-0.28487960480050106,0.49595918393072974,-0.05430458448827276
-1.368564486503601,0.852444589138031,-50.54738235473633,0.4370833662520942,-0.28487960480050106,0.49595918393072974,-0.05430458448827276
-0.7794300317764282,1.4713534116744995,-52.47316360473633,0.4370833662520942,-0.28487960480050106,0.49595918393072974,-0.05430458448827276
-0.11474276334047318,1.249714970588684,-54.5175666809082,0.4370833662520942,-0.28487960480050106,0.49595918393072974,-0.05430458448827276
-0.3858453929424286,0.7232263684272766,-56.617740631103516,0.4370833662520942,-0.28487960480050106,0.49595918393072974,-0.05430458448827276
-0.12902455031871796,1.5225725173950195,-58.830142974853516,0.4370833662520942,-0.28487960480050106,0.49595918393072974,-0.05430458448827276
-1.546636700630188,-1.6175000667572021,-61.03290557861328,0.4370833662520942,-0.28487960480050106,0.49595918393072974,-0.05430458448827276
0.11561962217092514,1.0406248569488525,-63.22394561767578,0.4370833662520942,-0.28487960480050106,0.49595918393072974,-0.05430458448827276
-1.2061877250671387,1.2628153562545776,-65.44486236572266,0.4370833662520942,-0.28487960480050106,0.49595918393072974,-0.05430458448827276
-0.5456656813621521,0.4702558219432831,-67.7581558227539,0.4370833662520942,-0.28487960480050106,0.49595918393072974,-0.05430458448827276
-1.3181458711624146,0.6099599003791809,-70.04345703125,0.4370833662520942,-0.28487960480050106,0.49595918393072974,-0.05430458448827276
-0.7514246106147766,0.1502366065979004,-72.40361022949219,0.4370833662520942,-0.28487960480050106,0.49595918393072974,-0.05430458448827276
0.3245007395744324,1.6807351112365723,-74.78701782226562,0.4370833662520942,-0.28487960480050106,0.49595918393072974,-0.05430458448827276
-2.2836780548095703,-2.0041661262512207,-77.18841552734375,0.4370833662520942,-0.28487960480050106,0.49595918393072974,-0.05430458448827276
1.8579667806625366,1.2357302904129028,-79.51518249511719,0.4370833662520942,-0.28487960480050106,0.49595918393072974,-0.05430458448827276
-1.2047979831695557,1.2463613748550415,-81.75910186767578,0.4370833662520942,-0.28487960480050106,0.49595918393072974,-0.05430458448827276
-1.4764089584350586,-1.9148151874542236,-83.86363220214844,0.4370833662520942,-0.28487960480050106,0.49595918393072974,-0.05430458448827276
0.8524962663650513,1.4492912292480469,-86.095458984375,0.4370833662520942,-0.28487960480050106,0.49595918393072974,-0.05430458448827276
-0.8640209436416626,0.7672095894813538,-88.34042358398438,0.4370833662520942,-0.28487960480050106,0.49595918393072974,-0.05430458448827276
-0.28818175196647644,1.2426286935806274,-90.62162017822266,0.4370833662520942,-0.28487960480050106,0.49595918393072974,-0.05430458448827276
-1.8104051351547241,-0.9251211881637573,-92.82533264160156,0.4370833662520942,-0.28487960480050106,0.49595918393072974,-0.05430458448827276
0.2575322985649109,0.822016716003418,-94.93197631835938,0.4370833662520942,-0.28487960480050106,0.49595918393072974,-0.05430458448827276
