faccX,faccY,yaw,posX,posY,velX,velY
0,0,-100.67320251464844,0.0,0.0,0.0,0.0
0,0,-100.6722412109375,0.0,0.0,0.0,0.0
0,0,-100.6734848022461,0.0,0.0,0.0,0.0
0,-0.06587648391723633,-100.67967987060547,0.0,-4.574755827585856e-06,0.0,-0.0005489706993103028
-0.06577536463737488,-0.6952692866325378,-100.68621063232422,-4.567733655373255e-06,-6.658161265982521e-05,-0.0005481280386447906,-0.00689185212055842
-0.5885332822799683,-1.7507438659667969,-100.71565246582031,-5.914130144649082e-05,-0.0003513078391551971,-0.006000700096289317,-0.02727529505888621
-0.2509027123451233,-2.1784090995788574,-100.78582000732422,-0.00021744713601138857,-0.0010787539349661932,-0.012996000051498414,-0.060018236438433334
0.05824226886034012,-2.5240461826324463,-100.85633087158203,-0.00044742633433391657,-0.002405617270204756,-0.01460150374720494,-0.0992053637901942
-0.8164168000221252,-0.5751757025718689,-100.76611328125,-0.0007434357392291229,-0.004274263742069403,-0.020919624840219815,-0.1250322128335635
0.5585656762123108,0.08070461452007294,-100.74542236328125,-0.0011100024812751347,-0.006392472225965725,-0.023068384205301603,-0.12915280523399514
-0.28403615951538086,-1.6099414825439453,-100.83821105957031,-0.0014754110015928745,-0.008651215984589525,-0.020780638232827185,-0.14189644580086075
-0.6647924184799194,-1.190032720565796,-100.89588165283203,-0.00188764584561189,-0.011210599400930936,-0.028687543049454686,-0.1652295641601086
0.501546323299408,-1.6842402219772339,-100.8605728149414,-0.002377108097490337,-0.014164027757942678,-0.030047927175958947,-0.1891818386813005
-0.3968457281589508,-1.0762754678726196,-100.84237670898438,-0.002870636009093788,-0.017508760881092815,-0.029175422216455138,-0.21218613609671594
0.15267616510391235,-0.6727343797683716,-100.82617950439453,-0.0033738492656913066,-0.02116665549990204,-0.031210168575247124,-0.22676121816039085
-0.8081598281860352,-0.23486746847629547,-100.75588989257812,-0.003939538440770573,-0.025009037042036657,-0.03667253243426481,-0.2343245668957631
0.481326699256897,0,-100.70582580566406,-0.0045734440597395105,-0.028930756731165783,-0.03939614184200763,-0.2362817957997322
-0.505933403968811,-1.909874677658081,-100.70609283447266,-0.0052317552227112984,-0.0330014168471098,-0.03960119771460692,-0.25219741811354957
0.4237777292728424,-1.166396975517273,-100.65066528320312,-0.005897480439808634,-0.037418337124917246,-0.04028582833707332,-0.2778330152233442
-0.7104180455207825,-0.7663958668708801,-100.58897399902344,-0.006588816489610408,-0.042183109103805495,-0.04267449763913949,-0.2939396222432455
-0.9760169386863708,1.0556690692901611,-100.60914611816406,-0.007417171657499341,-0.04706201439102491,-0.05672812250753243,-0.2915290122230848
-0.09417443722486496,-1.4350559711456299,-100.57698059082031,-0.008436959211507606,-0.05194717757403851,-0.0656463839734594,-0.29469056973854707
1.539989709854126,0.10104186832904816,-100.5863037109375,-0.009430661772688231,-0.05695132693793211,-0.05359792336821556,-0.30580735392868524
-0.4625893831253052,-1.1829723119735718,-100.63703155517578,-0.010249141028357878,-0.06212325022866329,-0.04461958731214205,-0.3148234409590563
0.37976446747779846,-0.8530098795890808,-100.59432983398438,-0.010998552547146878,-0.06751169523017274,-0.04530979494253794,-0.3317899592220784
-0.5458936095237732,0.07382122427225113,-100.57462310791016,-0.011765252542164591,-0.07309563820715993,-0.046694204459587725,-0.3382831980163853
-0.5546552538871765,-0.3281495273113251,-100.5954818725586,-0.012619916287561258,-0.07875135319514406,-0.055865444988012304,-0.3404026005417109
0.46586447954177856,-0.761946976184845,-100.64813232421875,-0.01355717306335767,-0.08450043101691537,-0.056605368107557286,-0.3494867380708456
-0.5337220430374146,0.5218356251716614,-100.59990692138672,-0.014505308195948599,-0.09034188438413872,-0.057170847803354255,-0.3514876659959555
0.527500331401825,-1.170689344406128,-100.60076141357422,-0.015458587722645864,-0.09624507143679592,-0.0572226954003175,-0.3568947803229094
-1.1895259618759155,-0.19763338565826416,-100.6944808959961,-0.016458273314767412,-0.10228834018732111,-0.06273957565426826,-0.3682974697401127
0.23749402165412903,0.09361594915390015,-100.77452087402344,-0.016458273314767412,-0.10228834018732111,-0.06273957565426826,-0.3682974697401127
-0.22393634915351868,0.367043673992157,-100.88861846923828,-0.017502991403970453,-0.10839464109804896,-0.0626265950500965,-0.36445863954722885
0,0.735334575176239,-100.94415283203125,-0.018562319123496613,-0.1143923977120883,-0.06449273129304249,-0.3552721541374922
1.4427931308746338,0.9551954865455627,-101.14971160888672,-0.019537004010958803,-0.1201962023600936,-0.052469455202420544,-0.34118440362314384
0.3059041500091553,-0.20021234452724457,-101.2603988647461,-0.02029005761982666,-0.1258301797022836,-0.0378969778617223,-0.33489287743965784
-0.8310806751251221,0,-101.2125244140625,-0.020958144509543974,-0.13142563129464785,-0.04227344890435536,-0.33656131364405156
-1.2448405027389526,-0.804619550704956,-101.18323516845703,-0.021806863184190457,-0.13709086287973654,-0.05957279205322265,-0.34326647656659287
0.7330473065376282,-1.8245033025741577,-101.2314224243164,-0.022835284245924816,-0.14299454879843526,-0.06383773535490035,-0.36517583367725215
-0.4706249237060547,-0.49228179454803467,-101.17151641845703,-0.023881022725254296,-0.14924170054702296,-0.06165088216463724,-0.3844823761532704
-0.7851278781890869,1.1546339988708496,-101.20623016357422,-0.024995742483685413,-0.15560374346872172,-0.07211548884709676,-0.3789627744505803
0.629570484161377,0,-101.28363800048828,-0.02620846989461117,-0.16183960679297646,-0.07341180046399434,-0.3693408244599899
0.14374956488609314,-0.5156278014183044,-101.40855407714844,-0.027378297121160557,-0.16803109468685257,-0.06696746672193209,-0.3736377228051424
-0.29847854375839233,0,-101.55451202392578,-0.028505166634503334,-0.17429419755314787,-0.06825687487920125,-0.3779346211502949
-0.28355127573013306,-0.425579309463501,-101.7078857421875,-0.029683199953287834,-0.18062266202436553,-0.07310712337493896,-0.3814811153958241
0.8080340623855591,-1.29143226146698,-101.74635314941406,-0.030865229593796856,-0.18709991752894387,-0.06873643348614375,-0.39578954515357806
0.2291688621044159,-1.1201343536376953,-101.6630630493164,-0.03193880883769856,-0.19386387985199688,-0.06009307578206063,-0.4158859336127837
-0.5757781267166138,-0.5651977062225342,-101.57258605957031,-0.0329644301885532,-0.200912349027478,-0.0629814863204956,-0.4299303674449523
-0.17687994241714478,0.5558879375457764,-101.61197662353516,-0.034066389548695744,-0.2080785016632742,-0.06925363689661027,-0.4300079488505919
0.3285200595855713,0.7685024738311768,-101.63455963134766,-0.034066389548695744,-0.2080785016632742,-0.06925363689661027,-0.4300079488505919
-0.40958717465400696,0.7552708387374878,-101.5994644165039,-0.03522624649107456,-0.21513948321963347,-0.06992919618884723,-0.4173098379125197
1.0502276420593262,0.38880375027656555,-101.59088897705078,-0.036347244172874424,-0.22201519756060503,-0.06459052562713624,-0.40777588300406925
-0.9275848865509033,2.6456847190856934,-101.65101623535156,-0.03741523607530527,-0.22860073391141159,-0.06356850266456605,-0.3824884790927171
-0.2625792324542999,0.24417153000831604,-101.67605590820312,-0.03855736140575674,-0.23477485743454757,-0.07348653698960941,-0.35840634368360036
0.5455058217048645,-1.112617015838623,-101.62976837158203,-0.039762489342441164,-0.24080860521023467,-0.07112881541252138,-0.36564338939885294
0.6291419267654419,-0.5608273148536682,-101.73019409179688,-0.04086639683900608,-0.2470188731120692,-0.06134008417526882,-0.3795887588212887
-0.2827913165092468,-0.6665932536125183,-101.8584976196289,-0.041864679449548324,-0.25343058996523415,-0.058453829089800534,-0.3898172635585069
-0.5794617533683777,-0.2810163199901581,-101.83738708496094,-0.0428987886197865,-0.259993350578265,-0.06563927133878074,-0.39771401000519585
0.46673163771629333,-0.8322240114212036,-101.72801208496094,-0.04400060495568646,-0.26669922576803295,-0.06657868896921477,-0.4069910127669572
-0.17895491421222687,-0.3755630850791931,-101.6769790649414,-0.04509026527715226,-0.27356628341807254,-0.06418054960668089,-0.41705590523779384
-0.21410492062568665,-0.1935354471206665,-101.71481323242188,-0.04618723692579402,-0.28055673590343855,-0.06745604823033016,-0.421798393006126
-0.8011406064033508,0.09804627299308777,-101.8212661743164,-0.04738200755789876,-0.28759334031285505,-0.07591642762223881,-0.4225941361238558
0.14008113741874695,0,-101.875732421875,-0.048693188259171113,-0.29462976714596145,-0.08142525653044384,-0.42177708384891344
-0.6918958425521851,0.30167534947395325,-101.93850708007812,-0.05008859633364611,-0.3016384355330632,-0.08602371240655583,-0.4192631226032972
0.8433135747909546,-0.45066115260124207,-102.02412414550781,-0.051511809753461014,-0.3086365004794464,-0.08476189797123275,-0.42050467096269123
0.5280859470367432,-0.48075658082962036,-102.15803527832031,-0.051511809753461014,-0.3086365004794464,-0.08476189797123275,-0.42050467096269123
0,0.08170343935489655,-102.2041015625,-0.05288783541777067,-0.31567262368587146,-0.08036118174592656,-0.4238301138083139
-0.4863416254520416,1.3931512832641602,-102.16349792480469,-0.05426096217085918,-0.3226340384491615,-0.08441402862469358,-0.41153965778648843
0.20351289212703705,1.4321610927581787,-102.14083862304688,-0.055687503532196085,-0.3292968304972681,-0.08677093473573529,-0.3879953879863023
0.14019224047660828,1.0943392515182495,-102.2229995727539,-0.05710981736580531,-0.3355879688842428,-0.08390672529737157,-0.3669412184506654
-1.0298086404800415,0.6578161716461182,-102.34929656982422,-0.05857004170409508,-0.3415819783984786,-0.09132019529740018,-0.35233992325762903
0.3092976212501526,-1.073445439338684,-102.45110321044922,-0.06014208044649827,-0.34748317359636216,-0.09732445379098259,-0.3558035004884004
0.47837522625923157,-1.186872959136963,-102.68846893310547,-0.06170945517304872,-0.3535701984932852,-0.09076051339507106,-0.37463948714236417
-0.5655509829521179,-0.25282764434814453,-102.87128448486328,-0.06322818426829246,-0.3599141691542333,-0.09148697803417845,-0.38663699217140673
0.6786013245582581,-1.0104113817214966,-102.87899780273438,-0.06474511651736167,-0.3664458439561227,-0.09054489185412729,-0.3971639840553204
0.1134386956691742,0.40037599205970764,-102.76863861083984,-0.06619919526908133,-0.3731076072591045,-0.08394455835223202,-0.40224761230250194
-0.48578575253486633,-0.5885211229324341,-102.7153091430664,-0.0676241286761231,-0.3798247997649013,-0.08704745049277945,-0.403815488393108
0.3863205015659332,-0.26189613342285156,-102.71654510498047,-0.06908182682676449,-0.3866141146587,-0.08787632758418723,-0.4109022988627354
-0.4353469908237457,-0.31352972984313965,-102.79566192626953,-0.07054983690381052,-0.39350244643580573,-0.08828488166133566,-0.41569751438995195
-0.3322383165359497,1.2611579895019531,-102.79088592529297,-0.07207455613339943,-0.40036493082427305,-0.09468142588933312,-0.4078006122261285
0,-0.22079341113567352,-102.76437377929688,-0.07367565200353664,-0.4070893601545442,-0.09745007852713271,-0.3991309074064095
0.9620262384414673,-0.5842089653015137,-102.73047637939453,-0.07367565200353664,-0.4070893601545442,-0.09745007852713271,-0.3991309074064095
-1.7130496501922607,0.4578641355037689,-102.70446014404297,-0.07367565200353664,-0.4070893601545442,-0.09745007852713271,-0.3991309074064095
1.2108979225158691,0.013378918170928955,-102.6584243774414,-0.07367565200353664,-0.4070893601545442,-0.09745007852713271,-0.3991309074064095
0.7687211036682129,2.4736242294311523,-102.70535278320312,-0.07367565200353664,-0.4070893601545442,-0.09745007852713271,-0.3991309074064095
0.9950808882713318,2.2782890796661377,-102.52224731445312,-0.07367565200353664,-0.4070893601545442,-0.09745007852713271,-0.3991309074064095
-0.41038382053375244,3.0122992992401123,-102.01920318603516,-0.07367565200353664,-0.4070893601545442,-0.09745007852713271,-0.3991309074064095
1.0725173950195312,0.3330725431442261,-101.24730682373047,-0.07367565200353664,-0.4070893601545442,-0.09745007852713271,-0.3991309074064095
0.1577857881784439,0.5798254013061523,-100.2305679321289,-0.07367565200353664,-0.4070893601545442,-0.09745007852713271,-0.3991309074064095
-0.3122464716434479,2.098954439163208,-99.0291748046875,-0.07367565200353664,-0.4070893601545442,-0.09745007852713271,-0.3991309074064095
1.0494900941848755,1.3620917797088623,-97.80624389648438,-0.07367565200353664,-0.4070893601545442,-0.09745007852713271,-0.3991309074064095
-0.05974898114800453,1.4469976425170898,-96.55783081054688,-0.07367565200353664,-0.4070893601545442,-0.09745007852713271,-0.3991309074064095
1.6090985536575317,-0.11316362023353577,-95.30072021484375,-0.07367565200353664,-0.4070893601545442,-0.09745007852713271,-0.3991309074064095
-0.4125680923461914,1.424895167350769,-94.08382415771484,-0.07367565200353664,-0.4070893601545442,-0.09745007852713271,-0.3991309074064095
1.2933212518692017,-0.17373088002204895,-92.8956298828125,-0.07367565200353664,-0.4070893601545442,-0.09745007852713271,-0.3991309074064095
0.3915652334690094,0.7111107110977173,-91.7464370727539,-0.07367565200353664,-0.4070893601545442,-0.09745007852713271,-0.3991309074064095
1.0887551307678223,0.4056592285633087,-90.6480484008789,-0.07367565200353664,-0.4070893601545442,-0.09745007852713271,-0.3991309074064095
0.4662567675113678,0.9344771504402161,-89.54630279541016,-0.07367565200353664,-0.4070893601545442,-0.09745007852713271,-0.3991309074064095
0.11062692850828171,1.1902559995651245,-88.54654693603516,-0.07367565200353664,-0.4070893601545442,-0.09745007852713271,-0.3991309074064095
0.06865672767162323,0.2994244396686554,-87.54017639160156,-0.07367565200353664,-0.4070893601545442,-0.09745007852713271,-0.3991309074064095
0.3129323720932007,0.7753293514251709,-86.52770233154297,-0.07367565200353664,-0.4070893601545442,-0.09745007852713271,-0.3991309074064095
0.39783161878585815,0.13719579577445984,-85.49848175048828,-0.07367565200353664,-0.4070893601545442,-0.09745007852713271,-0.3991309074064095
-0.126928448677063,0.9434820413589478,-84.57217407226562,-0.07367565200353664,-0.4070893601545442,-0.09745007852713271,-0.3991309074064095
0.29254305362701416,0.3644484579563141,-83.63616180419922,-0.07367565200353664,-0.4070893601545442,-0.09745007852713271,-0.3991309074064095
-0.0011369597632437944,0.12945806980133057,-82.69384002685547,-0.07367565200353664,-0.4070893601545442,-0.09745007852713271,-0.3991309074064095
0.08043915778398514,-0.8149491548538208,-81.70330810546875,-0.07367565200353664,-0.4070893601545442,-0.09745007852713271,-0.3991309074064095
0.08765711635351181,0.7760947942733765,-80.70671844482422,-0.07367565200353664,-0.4070893601545442,-0.09745007852713271,-0.3991309074064095
-0.25465407967567444,0.604311466217041,-79.84686279296875,-0.07367565200353664,-0.4070893601545442,-0.09745007852713271,-0.3991309074064095
-0.4546075463294983,0.2650251090526581,-79.08735656738281,-0.07367565200353664,-0.4070893601545442,-0.09745007852713271,-0.3991309074064095
0.05047440901398659,-0.1754007339477539,-78.18717193603516,-0.07367565200353664,-0.4070893601545442,-0.09745007852713271,-0.3991309074064095
1.126720666885376,-0.2711055278778076,-77.28428649902344,-0.07367565200353664,-0.4070893601545442,-0.09745007852713271,-0.3991309074064095
0.18073596060276031,0.39785560965538025,-76.42240905761719,-0.07367565200353664,-0.4070893601545442,-0.09745007852713271,-0.3991309074064095
-0.3994829058647156,0.1025969535112381,-75.5168228149414,-0.07367565200353664,-0.4070893601545442,-0.09745007852713271,-0.3991309074064095
-0.11410985887050629,0.5552417039871216,-74.59339904785156,-0.07367565200353664,-0.4070893601545442,-0.09745007852713271,-0.3991309074064095
0.6797304749488831,0.005524883046746254,-73.72982025146484,-0.07367565200353664,-0.4070893601545442,-0.09745007852713271,-0.3991309074064095
-0.14623865485191345,0.11166150122880936,-72.87175750732422,-0.07367565200353664,-0.4070893601545442,-0.09745007852713271,-0.3991309074064095
-0.12630891799926758,0.013217683881521225,-72.03294372558594,-0.07367565200353664,-0.4070893601545442,-0.09745007852713271,-0.3991309074064095
0.26799702644348145,-0.15559527277946472,-71.1679458618164,-0.07367565200353664,-0.4070893601545442,-0.09745007852713271,-0.3991309074064095
-0.4894518554210663,0.3729625642299652,-70.35540008544922,-0.07367565200353664,-0.4070893601545442,-0.09745007852713271,-0.3991309074064095
0.2540864050388336,0.0497022420167923,-69.54532623291016,-0.07367565200353664,-0.4070893601545442,-0.09745007852713271,-0.3991309074064095
0.005035181064158678,0.11429060995578766,-68.7499771118164,-0.07367565200353664,-0.4070893601545442,-0.09745007852713271,-0.3991309074064095
-0.20883581042289734,-0.10976936668157578,-67.96221160888672,-0.07367565200353664,-0.4070893601545442,-0.09745007852713271,-0.3991309074064095
0.08457506448030472,0.1830214560031891,-67.18645477294922,-0.07367565200353664,-0.4070893601545442,-0.09745007852713271,-0.3991309074064095
0.35701265931129456,-0.27099448442459106,-66.34690856933594,-0.07367565200353664,-0.4070893601545442,-0.09745007852713271,-0.3991309074064095
0.37846308946609497,0.25315383076667786,-65.50975036621094,-0.07367565200353664,-0.4070893601545442,-0.09745007852713271,-0.3991309074064095
-0.3178898096084595,-0.011732489801943302,-64.69496154785156,-0.07367565200353664,-0.4070893601545442,-0.09745007852713271,-0.3991309074064095
-0.19778098165988922,0.2417348474264145,-63.83015441894531,-0.07367565200353664,-0.4070893601545442,-0.09745007852713271,-0.3991309074064095
-0.08363445848226547,0.5216284394264221,-62.893497467041016,-0.07367565200353664,-0.4070893601545442,-0.09745007852713271,-0.3991309074064095
0.5431315302848816,0.3062325119972229,-61.94119644165039,-0.07367565200353664,-0.4070893601545442,-0.09745007852713271,-0.3991309074064095
0.45159539580345154,0.14048805832862854,-60.95471954345703,-0.07367565200353664,-0.4070893601545442,-0.09745007852713271,-0.3991309074064095
-0.2799094021320343,0.752143144607544,-59.90427017211914,-0.07367565200353664,-0.4070893601545442,-0.09745007852713271,-0.3991309074064095
-0.6357454061508179,0.7650587558746338,-58.84865188598633,-0.07367565200353664,-0.4070893601545442,-0.09745007852713271,-0.3991309074064095
-0.14133453369140625,0.24259822070598602,-57.870948791503906,-0.07367565200353664,-0.4070893601545442,-0.09745007852713271,-0.3991309074064095
0.5578014254570007,-0.13319706916809082,-56.83660888671875,-0.07367565200353664,-0.4070893601545442,-0.09745007852713271,-0.3991309074064095
-0.37127289175987244,0.0005495275836437941,-55.73052215576172,-0.07367565200353664,-0.4070893601545442,-0.09745007852713271,-0.3991309074064095
0.3217543065547943,0.7083690762519836,-54.62607192993164,-0.07367565200353664,-0.4070893601545442,-0.09745007852713271,-0.3991309074064095
-0.15329129993915558,0.31220871210098267,-53.50607681274414,-0.07367565200353664,-0.4070893601545442,-0.09745007852713271,-0.3991309074064095
0.19504539668560028,0.38562867045402527,-52.285160064697266,-0.07367565200353664,-0.4070893601545442,-0.09745007852713271,-0.3991309074064095
0.2844161093235016,0.10657867789268494,-51.04921340942383,-0.07367565200353664,-0.4070893601545442,-0.09745007852713271,-0.3991309074064095
-0.431802898645401,0.26156365871429443,-49.7825927734375,-0.07367565200353664,-0.4070893601545442,-0.09745007852713271,-0.3991309074064095
-0.21714094281196594,0.14835023880004883,-48.49072265625,-0.07367565200353664,-0.4070893601545442,-0.09745007852713271,-0.3991309074064095
-0.5082810521125793,0.09995087236166,-47.152320861816406,-0.07367565200353664,-0.4070893601545442,-0.09745007852713271,-0.3991309074064095
-0.01616208255290985,0.07095292210578918,-45.805240631103516,-0.07367565200353664,-0.4070893601545442,-0.09745007852713271,-0.3991309074064095
0.9417781233787537,0.23099450767040253,-44.43204879760742,-0.07367565200353664,-0.4070893601545442,-0.09745007852713271,-0.3991309074064095
-0.5431095361709595,-0.1400272250175476,-43.003150939941406,-0.07367565200353664,-0.4070893601545442,-0.09745007852713271,-0.3991309074064095
0.029621148481965065,0.14000175893306732,-41.6262092590332,-0.07367565200353664,-0.4070893601545442,-0.09745007852713271,-0.3991309074064095
0.3534652590751648,0.20348629355430603,-40.227752685546875,-0.07367565200353664,-0.4070893601545442,-0.09745007852713271,-0.3991309074064095
-0.5264876484870911,0.3598400056362152,-38.896427154541016,-0.07367565200353664,-0.4070893601545442,-0.09745007852713271,-0.3991309074064095
0.8539779782295227,-0.11856599897146225,-37.531097412109375,-0.07367565200353664,-0.4070893601545442,-0.09745007852713271,-0.3991309074064095
-0.6385446190834045,0.034674227237701416,-36.1691780090332,-0.07367565200353664,-0.4070893601545442,-0.09745007852713271,-0.3991309074064095
0.11233146488666534,0.32047781348228455,-34.770179748535156,-0.07367565200353664,-0.4070893601545442,-0.09745007852713271,-0.3991309074064095
0.338637113571167,0.09142567217350006,-33.33180236816406,-0.07367565200353664,-0.4070893601545442,-0.09745007852713271,-0.3991309074064095
-0.4789586365222931,0.2670622169971466,-31.850908279418945,-0.07367565200353664,-0.4070893601545442,-0.09745007852713271,-0.3991309074064095
0.508106529712677,0.3976111114025116,-30.37934684753418,-0.07367565200353664,-0.4070893601545442,-0.09745007852713271,-0.3991309074064095
0.051887184381484985,-0.13293296098709106,-28.82379150390625,-0.07367565200353664,-0.4070893601545442,-0.09745007852713271,-0.3991309074064095
-0.2539353668689728,0.12374600768089294,-27.240032196044922,-0.07367565200353664,-0.4070893601545442,-0.09745007852713271,-0.3991309074064095
0.30043819546699524,-0.28653430938720703,-25.620798110961914,-0.07367565200353664,-0.4070893601545442,-0.09745007852713271,-0.3991309074064095
0.21606756746768951,0.4610883295536041,-24.011348724365234,-0.07367565200353664,-0.4070893601545442,-0.09745007852713271,-0.3991309074064095
-0.5782057046890259,0.12705011665821075,-22.3853702545166,-0.07367565200353664,-0.4070893601545442,-0.09745007852713271,-0.3991309074064095
0.3815387189388275,0.2201986312866211,-20.681007385253906,-0.07367565200353664,-0.4070893601545442,-0.09745007852713271,-0.3991309074064095
0.8944901823997498,0.49111366271972656,-18.896148681640625,-0.07367565200353664,-0.4070893601545442,-0.09745007852713271,-0.3991309074064095
-0.8793270587921143,-0.2856799066066742,-17.057125091552734,-0.07367565200353664,-0.4070893601545442,-0.09745007852713271,-0.3991309074064095
1.0794185400009155,0.1876223087310791,-15.247599601745605,-0.07367565200353664,-0.4070893601545442,-0.09745007852713271,-0.3991309074064095
-0.3159139156341553,-0.2129867523908615,-13.478460311889648,-0.07367565200353664,-0.4070893601545442,-0.09745007852713271,-0.3991309074064095
-0.6131223440170288,-1.1468029022216797,-11.746687889099121,-0.07367565200353664,-0.4070893601545442,-0.09745007852713271,-0.3991309074064095
0.6067423820495605,0.11522215604782104,-10.021256446838379,-0.07367565200353664,-0.4070893601545442,-0.09745007852713271,-0.3991309074064095
0.3127393424510956,-0.07379746437072754,-8.233504295349121,-0.07367565200353664,-0.4070893601545442,-0.09745007852713271,-0.3991309074064095
0.17406931519508362,0.24194984138011932,-6.601027011871338,-0.07367565200353664,-0.4070893601545442,-0.09745007852713271,-0.3991309074064095
-1.2110408544540405,-1.4206278324127197,-5.409124374389648,-0.07367565200353664,-0.4070893601545442,-0.09745007852713271,-0.3991309074064095
-0.055102452635765076,-1.4888471364974976,-4.682980060577393,-0.07367565200353664,-0.4070893601545442,-0.09745007852713271,-0.3991309074064095
-0.2864305377006531,-1.8116309642791748,-4.3619232177734375,-0.07367565200353664,-0.4070893601545442,-0.09745007852713271,-0.3991309074064095
-0.5433179140090942,-0.7585846781730652,-4.376381874084473,-0.07367565200353664,-0.4070893601545442,-0.09745007852713271,-0.3991309074064095
0.7232869267463684,0.7718636393547058,-4.479977130889893,-0.07367565200353664,-0.4070893601545442,-0.09745007852713271,-0.3991309074064095
0.4516145884990692,-0.5242714881896973,-4.475554466247559,-0.07367565200353664,-0.4070893601545442,-0.09745007852713271,-0.3991309074064095
0.3014445900917053,0.04425649344921112,-4.434047222137451,-0.07367565200353664,-0.4070893601545442,-0.09745007852713271,-0.3991309074064095
0.12649109959602356,0.24003483355045319,-4.454029560089111,-0.07367565200353664,-0.4070893601545442,-0.09745007852713271,-0.3991309074064095
0.020126761868596077,-0.14717444777488708,-4.479581832885742,-0.07367565200353664,-0.4070893601545442,-0.09745007852713271,-0.3991309074064095
0.05518558993935585,-0.09809747338294983,-4.4624199867248535,-0.07367565200353664,-0.4070893601545442,-0.09745007852713271,-0.3991309074064095
0.10354887694120407,0.11406347900629044,-4.45806884765625,-0.07367565200353664,-0.4070893601545442,-0.09745007852713271,-0.3991309074064095
0.2671040892601013,-0.005310957785695791,-4.467682361602783,-0.07367565200353664,-0.4070893601545442,-0.09745007852713271,-0.3991309074064095
0.24522416293621063,-0.08605960011482239,-4.46772575378418,-0.07367565200353664,-0.4070893601545442,-0.09745007852713271,-0.3991309074064095
0.08103495836257935,0.041809409856796265,-4.46162223815918,-0.07367565200353664,-0.4070893601545442,-0.09745007852713271,-0.3991309074064095
0.05546751990914345,0.023648258298635483,-4.465648174285889,-0.07367565200353664,-0.4070893601545442,-0.09745007852713271,-0.3991309074064095
0.15787795186042786,-0.056944284588098526,-4.4679412841796875,-0.07367565200353664,-0.4070893601545442,-0.09745007852713271,-0.3991309074064095
0.23495785892009735,0.0024680003989487886,-4.4642014503479,-0.07367565200353664,-0.4070893601545442,-0.09745007852713271,-0.3991309074064095
0.16170257329940796,0.014935523271560669,-4.466083526611328,-0.07367565200353664,-0.4070893601545442,-0.09745007852713271,-0.3991309074064095
0.11735446006059647,-0.031067026779055595,-4.468661785125732,-0.07367565200353664,-0.4070893601545442,-0.09745007852713271,-0.3991309074064095
0.1098150908946991,-0.01564456894993782,-4.466648578643799,-0.07367565200353664,-0.4070893601545442,-0.09745007852713271,-0.3991309074064095
0.15389642119407654,0.008237706497311592,-4.467549800872803,-0.07367565200353664,-0.4070893601545442,-0.09745007852713271,-0.3991309074064095
0.1827269345521927,-0.01168855745345354,-4.468470096588135,-0.07367565200353664,-0.4070893601545442,-0.09745007852713271,-0.3991309074064095
0.14536847174167633,-0.0163960549980402,-4.466141700744629,-0.07367565200353664,-0.4070893601545442,-0.09745007852713271,-0.3991309074064095
0.11633490025997162,-0.00958240870386362,-4.467524528503418,-0.07367565200353664,-0.4070893601545442,-0.09745007852713271,-0.3991309074064095
0.13719551265239716,-0.02489265240728855,-4.4689531326293945,-0.07367565200353664,-0.4070893601545442,-0.09745007852713271,-0.3991309074064095
0.19472695887088776,0,-4.468451976776123,-0.07527676980735529,-0.4137432706010682,-0.09468405793110533,-0.39933834617647024
0.47608330845832825,0,-4.46358060836792,-0.07680825339319806,-0.42039890970400934,-0.08909397237002853,-0.39933834617647024
0.9287245869636536,-0.3160533905029297,-4.463117599487305,-0.07819559682884979,-0.42707649695906874,-0.07738723990817868,-0.4019721244306613
2.3621134757995605,-0.07105589658021927,-4.663665294647217,-0.07925685373962754,-0.43380291495562723,-0.0499635893851519,-0.4051980351563542
3.3383140563964844,0.13998441398143768,-4.8217058181762695,-0.07969371720631091,-0.44055142883896914,-0.0024600266168515253,-0.4046236308446774
1.823957085609436,0.24683859944343567,-4.756533622741699,-0.07937622659839691,-0.44726829331044815,0.040558899566531144,-0.40140010573280344
1.0639792680740356,0.07913464307785034,-4.703813076019287,-0.07849969380328226,-0.4539356580419309,0.06462503584722674,-0.39868366204512606
0.7992546558380127,-0.24721165001392365,-4.830931186676025,-0.07729321862777903,-0.4605920577570536,0.08015198521316048,-0.40008430376959336
1.5149056911468506,-0.2069702446460724,-4.929623126983643,-0.07579664662790797,-0.4672916698958982,0.09943665477136768,-0.40386915289176
2.0693249702453613,-0.9332475066184998,-4.841813087463379,-0.07389046414134405,-0.4741020042323765,0.12930524361630277,-0.41337096748563146
1.405830979347229,0.4072927236557007,-4.891843795776367,-0.07149404647346175,-0.48102804499484275,0.15826487652957436,-0.41775392401032146
-0.48350831866264343,-0.528118371963501,-4.859163761138916,-0.06879224834653241,-0.48799900106503613,0.1659508987019459,-0.4187608044128865
0.9184073209762573,0.3681693971157074,-4.946091175079346,-0.0659961987152282,-0.4949894553729487,0.16957505705455936,-0.4200937125366181
1.7852674722671509,-0.09962650388479233,-4.974234580993652,-0.06298219257034364,-0.501972368436529,0.19210568033158776,-0.41785585509302714
0.43034571409225464,0.7977918982505798,-4.995420932769775,-0.059626569204653326,-0.5088881489801375,0.21056912355124946,-0.4120378101399789
0.9666071534156799,-1.0590617656707764,-5.036789417266846,-0.059626569204653326,-0.5088881489801375,0.21056912355124946,-0.4120378101399789
0.4416368007659912,-0.1002747118473053,-5.008931636810303,-0.05601928909309211,-0.5158359552934092,0.2223044898360967,-0.4216989474526296
0.8150049448013306,0.3281339406967163,-4.97875452041626,-0.05222694747460388,-0.5228484475267273,0.23277650438249106,-0.41980012054555116
-0.984122633934021,0,-5.039112567901611,-0.048359083352196575,-0.5298223291232714,0.2313671903063853,-0.4170656710397452
1.5416173934936523,0.3038107454776764,-5.270231246948242,-0.04446424859989851,-0.5367523256721646,0.23601297996938223,-0.4145339148274312
0.3362284302711487,-0.2923150062561035,-5.467592239379883,-0.040400292973758474,-0.543660425937398,0.2516616951674222,-0.41443811700058475
1.1899440288543701,0,-5.526805877685547,-0.03609994718908439,-0.55058802754062,0.2643797989934682,-0.41687407538605226
0.4411407709121704,0.07245790958404541,-5.515282154083252,-0.03158034742809835,-0.5575308969977775,0.27797217232485605,-0.4162702594728519
0.4088178277015686,-0.11168870329856873,-5.539246082305908,-0.02688845298666924,-0.564471459016333,0.2850551606466372,-0.41659718275380625
0.4321587383747101,-0.4930275082588196,-5.557188510894775,-0.022079132492136656,-0.5714567395769212,0.2920632986972729,-0.4216364845167845
0.91704261302948,-0.6522412300109863,-5.470743656158447,-0.01711771630889015,-0.5785635468701363,0.3033066432923078,-0.43118039066903285
0.3362436294555664,0,-5.446202278137207,-0.01197557182051245,-0.585795181244482,0.31375069531301647,-0.43661573425245775
-0.4729538559913635,0.7791128158569336,-5.3740763664245605,-0.006755887331027162,-0.593018005092033,0.3126114434252182,-0.43012312745365
0.7338796257972717,-0.7284684777259827,-5.4379353523254395,-0.0015275767621481156,-0.6001832069150014,0.3147858248402674,-0.42970109130255874
0.5766128301620483,-0.9730355143547058,-5.550765514373779,-0.0015275767621481156,-0.6001832069150014,0.3147858248402674,-0.42970109130255874
1.3024616241455078,1.4069284200668335,-5.560547828674316,0.0038493449334054772,-0.6073147603182585,0.3304447786261637,-0.426085317088291
0,0.23445777595043182,-5.500576019287109,0.0094472066344072,-0.6143021971172288,0.34129862549404294,-0.41240709878814713
0.268923819065094,1.2035765647888184,-5.421247959136963,0.01515419232452077,-0.6210757852678133,0.3435396573195854,-0.40042347928198674
-0.9713531136512756,-0.21984264254570007,-5.438436508178711,0.020831073467723154,-0.6276811950668018,0.33768607986470056,-0.3922256965966274
-0.07783498615026474,-0.9879460334777832,-5.4755377769470215,0.026386314514093054,-0.6343021642236916,0.32894284569968774,-0.40229060223015645
0.8286838531494141,-1.5214990377426147,-5.505677223205566,0.03192083755818501,-0.6411812746130289,0.3351999195913473,-0.4232026444903264
-0.23881269991397858,0.22442083060741425,-5.497142314910889,0.03754846615923771,-0.6483247268966965,0.34011551253497596,-0.4340116295497864
1.2169522047042847,0.2924681007862091,-5.530926704406738,0.04328498438931997,-0.6555223589911795,0.34826667507489517,-0.42970422178817286
0.5317792892456055,-0.5523402690887451,-5.728349208831787,0.04921086866098141,-0.6627021426993367,0.3628394375244776,-0.431869823190694
0.1311040222644806,0.134415864944458,-5.789904594421387,0.05530422618302202,-0.6699289956139138,0.368363465120395,-0.43535252655856305
-0.11878291517496109,0.7302392721176147,-5.775362014770508,0.061444472900798706,-0.6771248255609272,0.3684661410128076,-0.4281470670830458
0.5443046689033508,0.11366571485996246,-5.743832111358643,0.06761512537279886,-0.6842020054993267,0.37201215562721085,-0.4211145255248993
0.6611246466636658,0.33558276295661926,-5.79295539855957,0.06761512537279886,-0.6842020054993267,0.37201215562721085,-0.4211145255248993
0.9137037396430969,0,-5.846823692321777,0.07392469104896812,-0.6911972765662031,0.38513572551310055,-0.4183180025002608
-0.29374387860298157,0.3775368928909302,-5.910585403442383,0.08038667257564758,-0.6981430254347567,0.39030205768843484,-0.4151718617261697
0.2588847279548645,-0.9850713014602661,-6.116871356964111,0.08688928609610426,-0.7051047463530101,0.3900115647663672,-0.4202346484642475
-0.9707281589508057,0.7811011075973511,-6.283215522766113,0.09334004527061344,-0.7121228217575436,0.3840795361747344,-0.4219344000797718
0.6889918446540833,-1.3853377103805542,-6.35843563079834,0.09972180585169953,-0.7191970226340664,0.38173173355559503,-0.42696970510296517
-0.5381312966346741,0.6079317331314087,-6.310394287109375,0.10609447783790524,-0.7263671709119803,0.3829889047890901,-0.43344808824670805
1.2816956043243408,-0.06230814754962921,-6.336730480194092,0.11252926266131297,-0.7335534151893156,0.3891852740198373,-0.42890122503352657
1.4835625886917114,0.05569036677479744,-6.311112880706787,0.11920771571393637,-0.7407022285079837,0.41222909229497107,-0.42895637320665014
0,1.058151125907898,-6.455237865447998,0.12618122576528948,-0.7477741512911027,0.424592113867402,-0.4196743607676277
-1.288682460784912,-0.3829549551010132,-6.68518590927124,0.13316826915885835,-0.7547218353475904,0.41385309336086107,-0.41404772601090367
1.2062398195266724,-0.720130980014801,-6.706197261810303,0.140060095531452,-0.7616992339710441,0.41316607135037575,-0.42324010880353546
-0.5030754208564758,-0.1221238225698471,-6.579852104187012,0.140060095531452,-0.7616992339710441,0.41316607135037575,-0.42324010880353546
0.6171910762786865,0.22520895302295685,-6.572295188903809,0.14695412141891812,-0.7687460770948216,0.41411703514556086,-0.42238106604975956
-0.30400243401527405,-0.5733204483985901,-6.52601432800293,0.15387782121594576,-0.7758099359383853,0.416726940497756,-0.42528199517788984
0.20019423961639404,-0.3959996998310089,-6.447986602783203,0.1608160613218529,-0.7829652830905328,0.41586187221109866,-0.43335966307980317
-0.6555950045585632,0.2111012190580368,-6.49852180480957,0.16771546747225022,-0.7902007843141388,0.4120668658365806,-0.4349004837529113
0.35977277159690857,0.14809805154800415,-6.579771041870117,0.17456270535890422,-0.7974241813162285,0.4096016805619001,-0.43190715649786093
0.2962852418422699,0.4350205957889557,-6.495660781860352,0.1814349596192025,-0.8045821395740167,0.4150688306738933,-0.4270478344367196
0.9934768676757812,0,-6.454922676086426,0.18844234027692836,-0.8116693937176989,0.42581684825321037,-0.423422662805145
0.14031940698623657,0.9715399742126465,-6.4252028465271,0.1956180236002223,-0.8186589700440199,0.4352651505420605,-0.41532649635337293
0,-0.48257750272750854,-6.452237606048584,0.20288218717918624,-0.8255471225893897,0.4364344789336125,-0.4112518090909968
0.05635378509759903,-0.7964237332344055,-6.482031345367432,0.21016000861871156,-0.8324901389378481,0.4369040938094258,-0.4219101527240127
0.4177436828613281,-0.46155139803886414,-6.489459991455078,0.21747466695081025,-0.8396093342006978,0.44085490604241684,-0.43239327881795664
0.17898601293563843,-0.1817244440317154,-6.472960948944092,0.21747466695081025,-0.8396093342006978,0.44085490604241684,-0.43239327881795664
0.3851124048233032,-0.8397080302238464,-6.604681968688965,0.22486142221941713,-0.8468868216583759,0.445555726190408,-0.44090521610341965
-0.6068912148475647,0.8543883562088013,-6.695998668670654,0.23227194968300557,-0.854234222459684,0.44370756944020584,-0.44078288005354505
-2.1190712451934814,0.6397374272346497,-6.830663681030273,0.23947777289172836,-0.8614768450589484,0.42099121560653047,-0.42833183185818297
-1.503374457359314,-0.18507635593414307,-6.981701850891113,0.24624273442249325,-0.8685841352377445,0.3908041680852572,-0.42454298959734543
1.3051906824111938,0,-7.002863883972168,0.252742374461765,-0.8756727042557512,0.3891526366273562,-0.4260852925634633
1.3114967346191406,1.5125846862792969,-7.018327713012695,0.25940996614284806,-0.8826690851952617,0.410958365102609,-0.41348042017780245
0.8363525867462158,0,-7.056399822235107,0.2664084284307641,-0.8894553849283445,0.4288571094473203,-0.40087554779214163
0,-2.563721179962158,-7.2480926513671875,0.27361412696229903,-0.8963146802512665,0.4358267143368721,-0.42223989095849296
0.558226466178894,0.5201455950737,-7.324300289154053,0.2809166712613982,-0.9034939267384142,0.44047860155502955,-0.4392696874992301
0.2464635670185089,0.6194065809249878,-7.335188865661621,0.2883138625396207,-0.910735952628957,0.4471843518316746,-0.42977341936590774
-0.43049460649490356,-0.014479369856417179,-7.382369041442871,0.2883138625396207,-0.910735952628957,0.4471843518316746,-0.42977341936590774
0.22689132392406464,-0.5921608209609985,-7.448383808135986,0.2883138625396207,-0.910735952628957,0.4471843518316746,-0.42977341936590774
0.2096967101097107,-0.19326531887054443,-7.453310966491699,0.2883138625396207,-0.910735952628957,0.4471843518316746,-0.42977341936590774
-1.0834908485412598,1.0873241424560547,-7.4918742179870605,0.2883138625396207,-0.910735952628957,0.4471843518316746,-0.42977341936590774
-3.1573128700256348,-0.07482978701591492,-7.613722801208496,0.2883138625396207,-0.910735952628957,0.4471843518316746,-0.42977341936590774
-2.0022873878479004,0.5559045672416687,-7.765815734863281,0.2883138625396207,-0.910735952628957,0.4471843518316746,-0.42977341936590774
-1.981123447418213,0.4134139120578766,-8.134925842285156,0.2883138625396207,-0.910735952628957,0.4471843518316746,-0.42977341936590774
-1.5703274011611938,-0.3644005358219147,-8.788899421691895,0.2883138625396207,-0.910735952628957,0.4471843518316746,-0.42977341936590774
-1.1886330842971802,-0.4414759874343872,-9.714754104614258,0.2883138625396207,-0.910735952628957,0.4471843518316746,-0.42977341936590774
-1.2944880723953247,0.5167233943939209,-10.794536590576172,0.2883138625396207,-0.910735952628957,0.4471843518316746,-0.42977341936590774
-1.171904444694519,0.06134562939405441,-11.950226783752441,0.2883138625396207,-0.910735952628957,0.4471843518316746,-0.42977341936590774
-1.2978280782699585,-0.2876749336719513,-13.132680892944336,0.2883138625396207,-0.910735952628957,0.4471843518316746,-0.42977341936590774
-0.3572269082069397,-0.4132092297077179,-14.332385063171387,0.2883138625396207,-0.910735952628957,0.4471843518316746,-0.42977341936590774
-0.18155765533447266,-0.5374167561531067,-15.49171257019043,0.2883138625396207,-0.910735952628957,0.4471843518316746,-0.42977341936590774
-1.030133605003357,0.010213948786258698,-16.576171875,0.2883138625396207,-0.910735952628957,0.4471843518316746,-0.42977341936590774
0.22624124586582184,-0.20018619298934937,-17.58733558654785,0.2883138625396207,-0.910735952628957,0.4471843518316746,-0.42977341936590774
-0.5771143436431885,0.07606841623783112,-18.544469833374023,0.2883138625396207,-0.910735952628957,0.4471843518316746,-0.42977341936590774
-0.8367093205451965,-0.23271562159061432,-19.41245460510254,0.2883138625396207,-0.910735952628957,0.4471843518316746,-0.42977341936590774
-0.374929815530777,-0.21494323015213013,-20.281089782714844,0.2883138625396207,-0.910735952628957,0.4471843518316746,-0.42977341936590774
0.1881578415632248,0.0967206060886383,-21.14879608154297,0.2883138625396207,-0.910735952628957,0.4471843518316746,-0.42977341936590774
-0.6064253449440002,0.09707742184400558,-22.017919540405273,0.2883138625396207,-0.910735952628957,0.4471843518316746,-0.42977341936590774
0.14231981337070465,-0.4097355604171753,-22.81376075744629,0.2883138625396207,-0.910735952628957,0.4471843518316746,-0.42977341936590774
-1.291976809501648,-0.8090566396713257,-23.6569881439209,0.2883138625396207,-0.910735952628957,0.4471843518316746,-0.42977341936590774
-0.1614486277103424,-1.0220311880111694,-24.57231903076172,0.2883138625396207,-0.910735952628957,0.4471843518316746,-0.42977341936590774
-0.053824324160814285,-0.5411257147789001,-25.553125381469727,0.2883138625396207,-0.910735952628957,0.4471843518316746,-0.42977341936590774
-0.45609191060066223,-0.19590304791927338,-26.56565284729004,0.2883138625396207,-0.910735952628957,0.4471843518316746,-0.42977341936590774
-0.20392830669879913,0.32229140400886536,-27.563987731933594,0.2883138625396207,-0.910735952628957,0.4471843518316746,-0.42977341936590774
-0.22605189681053162,0.594811737537384,-28.553482055664062,0.2883138625396207,-0.910735952628957,0.4471843518316746,-0.42977341936590774
-0.1030358299612999,-0.4756249487400055,-29.54253578186035,0.2883138625396207,-0.910735952628957,0.4471843518316746,-0.42977341936590774
0.11878085881471634,-0.015339899808168411,-30.50015640258789,0.2883138625396207,-0.910735952628957,0.4471843518316746,-0.42977341936590774
-0.08883393555879593,0.7090891003608704,-31.357927322387695,0.2883138625396207,-0.910735952628957,0.4471843518316746,-0.42977341936590774
0.19678685069084167,0.8879320025444031,-32.06718444824219,0.2883138625396207,-0.910735952628957,0.4471843518316746,-0.42977341936590774
-0.15348398685455322,0.27017921209335327,-32.77534866333008,0.2883138625396207,-0.910735952628957,0.4471843518316746,-0.42977341936590774
-0.43603599071502686,-0.06056017056107521,-33.47072982788086,0.2883138625396207,-0.910735952628957,0.4471843518316746,-0.42977341936590774
-0.34658053517341614,0.1456003338098526,-34.048255920410156,0.2883138625396207,-0.910735952628957,0.4471843518316746,-0.42977341936590774
-0.4499029517173767,0.29544633626937866,-34.686431884765625,0.2883138625396207,-0.910735952628957,0.4471843518316746,-0.42977341936590774
-0.39077484607696533,-0.059048622846603394,-35.35751724243164,0.2883138625396207,-0.910735952628957,0.4471843518316746,-0.42977341936590774
-0.3335774540901184,-0.44904714822769165,-36.036678314208984,0.2883138625396207,-0.910735952628957,0.4471843518316746,-0.42977341936590774
-1.0579726696014404,0.5730178952217102,-36.67379379272461,0.2883138625396207,-0.910735952628957,0.4471843518316746,-0.42977341936590774
0.025476813316345215,0.5390328764915466,-37.37151336669922,0.2883138625396207,-0.910735952628957,0.4471843518316746,-0.42977341936590774
0.05590969696640968,0.34949159622192383,-38.043128967285156,0.2883138625396207,-0.910735952628957,0.4471843518316746,-0.42977341936590774
0.07679969817399979,0.646190345287323,-38.70071792602539,0.2883138625396207,-0.910735952628957,0.4471843518316746,-0.42977341936590774
-0.21940535306930542,0.5664001703262329,-39.244014739990234,0.2883138625396207,-0.910735952628957,0.4471843518316746,-0.42977341936590774
-0.5167260766029358,0.7739134430885315,-39.746124267578125,0.2883138625396207,-0.910735952628957,0.4471843518316746,-0.42977341936590774
-0.35593459010124207,-0.5458354949951172,-40.232208251953125,0.2883138625396207,-0.910735952628957,0.4471843518316746,-0.42977341936590774
-0.39435529708862305,-0.210906982421875,-40.753997802734375,0.2883138625396207,-0.910735952628957,0.4471843518316746,-0.42977341936590774
0.6899779438972473,-0.20733746886253357,-41.45521926879883,0.2883138625396207,-0.910735952628957,0.4471843518316746,-0.42977341936590774
-0.3096635043621063,-0.21332447230815887,-42.260536193847656,0.2883138625396207,-0.910735952628957,0.4471843518316746,-0.42977341936590774
-0.3455716669559479,-0.04521351307630539,-42.9946174621582,0.2883138625396207,-0.910735952628957,0.4471843518316746,-0.42977341936590774
0.3908165991306305,0.7045390009880066,-43.67044448852539,0.2883138625396207,-0.910735952628957,0.4471843518316746,-0.42977341936590774
-0.28756460547447205,0.07228914648294449,-44.30875778198242,0.2883138625396207,-0.910735952628957,0.4471843518316746,-0.42977341936590774
-0.09349006414413452,-0.4882383942604065,-44.9529914855957,0.2883138625396207,-0.910735952628957,0.4471843518316746,-0.42977341936590774
0.46162450313568115,-0.21598213911056519,-45.59999465942383,0.2883138625396207,-0.910735952628957,0.4471843518316746,-0.42977341936590774
0.21554233133792877,-0.14985981583595276,-46.308292388916016,0.2883138625396207,-0.910735952628957,0.4471843518316746,-0.42977341936590774
0.20381216704845428,0.23998278379440308,-46.974246978759766,0.2883138625396207,-0.910735952628957,0.4471843518316746,-0.42977341936590774
-0.23097175359725952,0.03957003727555275,-47.56371307373047,0.2883138625396207,-0.910735952628957,0.4471843518316746,-0.42977341936590774
-0.05421091616153717,0.6772081255912781,-48.1341667175293,0.2883138625396207,-0.910735952628957,0.4471843518316746,-0.42977341936590774
-0.029825005680322647,-0.49367380142211914,-48.748374938964844,0.2883138625396207,-0.910735952628957,0.4471843518316746,-0.42977341936590774
0.3471083641052246,0.3214776813983917,-49.36299133300781,0.2883138625396207,-0.910735952628957,0.4471843518316746,-0.42977341936590774
-0.04970940202474594,-0.2774643003940582,-50.016075134277344,0.2883138625396207,-0.910735952628957,0.4471843518316746,-0.42977341936590774
0.04254208877682686,-0.2528679072856903,-50.7074089050293,0.2883138625396207,-0.910735952628957,0.4471843518316746,-0.42977341936590774
0.13713224232196808,0.16937275230884552,-51.462642669677734,0.2883138625396207,-0.910735952628957,0.4471843518316746,-0.42977341936590774
0.15283523499965668,0.1978687345981598,-52.26148986816406,0.2883138625396207,-0.910735952628957,0.4471843518316746,-0.42977341936590774
-0.10661961883306503,0.5577040314674377,-53.01634979248047,0.2883138625396207,-0.910735952628957,0.4471843518316746,-0.42977341936590774
-0.007335946429520845,-0.599740743637085,-53.73571014404297,0.2883138625396207,-0.910735952628957,0.4471843518316746,-0.42977341936590774
-0.7199811935424805,-0.3748149573802948,-54.46145248413086,0.2883138625396207,-0.910735952628957,0.4471843518316746,-0.42977341936590774
-0.14865224063396454,0.37070000171661377,-55.264305114746094,0.2883138625396207,-0.910735952628957,0.4471843518316746,-0.42977341936590774
-0.319764107465744,0.34408968687057495,-56.123443603515625,0.2883138625396207,-0.910735952628957,0.4471843518316746,-0.42977341936590774
0.5841569304466248,0.06992167979478836,-56.969261169433594,0.2883138625396207,-0.910735952628957,0.4471843518316746,-0.42977341936590774
-0.28405481576919556,-0.006659006234258413,-57.802974700927734,0.2883138625396207,-0.910735952628957,0.4471843518316746,-0.42977341936590774
-0.0557144470512867,-0.45855844020843506,-58.67303466796875,0.2883138625396207,-0.910735952628957,0.4471843518316746,-0.42977341936590774
0.4297530949115753,0.32078349590301514,-59.6440544128418,0.2883138625396207,-0.910735952628957,0.4471843518316746,-0.42977341936590774
-0.12342251092195511,0.38750940561294556,-60.60094451904297,0.2883138625396207,-0.910735952628957,0.4471843518316746,-0.42977341936590774
-0.18731547892093658,0.055474743247032166,-61.40726852416992,0.2883138625396207,-0.910735952628957,0.4471843518316746,-0.42977341936590774
0.0782981663942337,-0.025629526004195213,-62.21351623535156,0.2883138625396207,-0.910735952628957,0.4471843518316746,-0.42977341936590774
-0.2595463693141937,-0.3237096667289734,-63.075897216796875,0.2883138625396207,-0.910735952628957,0.4471843518316746,-0.42977341936590774
0.21849143505096436,0.344719260931015,-63.94432830810547,0.2883138625396207,-0.910735952628957,0.4471843518316746,-0.42977341936590774
0.12837032973766327,0.6255343556404114,-64.85257720947266,0.2883138625396207,-0.910735952628957,0.4471843518316746,-0.42977341936590774
-0.012796182185411453,-0.34041115641593933,-65.66960906982422,0.2883138625396207,-0.910735952628957,0.4471843518316746,-0.42977341936590774
-0.16348610818386078,0.22374333441257477,-66.46406555175781,0.2883138625396207,-0.910735952628957,0.4471843518316746,-0.42977341936590774
-0.03299502283334732,-0.4872901439666748,-67.33009338378906,0.2883138625396207,-0.910735952628957,0.4471843518316746,-0.42977341936590774
0.14450426399707794,-0.4173198640346527,-68.29092407226562,0.2883138625396207,-0.910735952628957,0.4471843518316746,-0.42977341936590774
-0.2156282663345337,0.17644764482975006,-69.41341400146484,0.2883138625396207,-0.910735952628957,0.4471843518316746,-0.42977341936590774
-0.04720912501215935,0.3026385009288788,-70.52574920654297,0.2883138625396207,-0.910735952628957,0.4471843518316746,-0.42977341936590774
-0.05998402461409569,0.6466819643974304,-71.57469177246094,0.2883138625396207,-0.910735952628957,0.4471843518316746,-0.42977341936590774
0.697442352771759,0.6197777986526489,-72.59378051757812,0.2883138625396207,-0.910735952628957,0.4471843518316746,-0.42977341936590774
-0.22516746819019318,0.2525080442428589,-73.59442901611328,0.2883138625396207,-0.910735952628957,0.4471843518316746,-0.42977341936590774
-0.19534093141555786,-0.2677955627441406,-74.57879638671875,0.2883138625396207,-0.910735952628957,0.4471843518316746,-0.42977341936590774
-0.38002562522888184,0.10171772539615631,-75.5988540649414,0.2883138625396207,-0.910735952628957,0.4471843518316746,-0.42977341936590774
-0.05945463478565216,-0.27118563652038574,-76.63719940185547,0.2883138625396207,-0.910735952628957,0.4471843518316746,-0.42977341936590774
0.34044674038887024,0.7192675471305847,-77.6833724975586,0.2883138625396207,-0.910735952628957,0.4471843518316746,-0.42977341936590774
0.5499056577682495,-0.7376642227172852,-78.73149871826172,0.2883138625396207,-0.910735952628957,0.4471843518316746,-0.42977341936590774
0.7732695937156677,-0.4172946512699127,-79.7331314086914,0.2883138625396207,-0.910735952628957,0.4471843518316746,-0.42977341936590774
-0.4930383563041687,0.5075621604919434,-80.8233871459961,0.2883138625396207,-0.910735952628957,0.4471843518316746,-0.42977341936590774
0.08648752421140671,0.09246987849473953,-81.80738830566406,0.2883138625396207,-0.910735952628957,0.4471843518316746,-0.42977341936590774
0.5376850366592407,0.024860475212335587,-82.6937255859375,0.2883138625396207,-0.910735952628957,0.4471843518316746,-0.42977341936590774
-0.17133831977844238,-0.03355327248573303,-83.6326904296875,0.2883138625396207,-0.910735952628957,0.4471843518316746,-0.42977341936590774
-0.5136081576347351,-0.25523892045021057,-84.5833511352539,0.2883138625396207,-0.910735952628957,0.4471843518316746,-0.42977341936590774
0.08148515224456787,-0.3600062131881714,-85.59138488769531,0.2883138625396207,-0.910735952628957,0.4471843518316746,-0.42977341936590774
-0.7227027416229248,0.11050517857074738,-86.65657806396484,0.2883138625396207,-0.910735952628957,0.4471843518316746,-0.42977341936590774
0.26957130432128906,0.5596668720245361,-87.70503234863281,0.2883138625396207,-0.910735952628957,0.4471843518316746,-0.42977341936590774
0.5004298090934753,0.5438405871391296,-88.75438690185547,0.2883138625396207,-0.910735952628957,0.4471843518316746,-0.42977341936590774
-0.4899345338344574,0.3382851779460907,-89.77800750732422,0.2883138625396207,-0.910735952628957,0.4471843518316746,-0.42977341936590774
0.12254219502210617,0.10148292779922485,-90.80988311767578,0.2883138625396207,-0.910735952628957,0.4471843518316746,-0.42977341936590774
-0.43263140320777893,-0.10115642845630646,-91.97557067871094,0.2883138625396207,-0.910735952628957,0.4471843518316746,-0.42977341936590774
-0.4850330650806427,-0.2247888147830963,-93.27999877929688,0.2883138625396207,-0.910735952628957,0.4471843518316746,-0.42977341936590774
0.5456764101982117,1.2905551195144653,-94.61966705322266,0.2883138625396207,-0.910735952628957,0.4471843518316746,-0.42977341936590774
0.8277797698974609,0.18144232034683228,-95.85594940185547,0.2883138625396207,-0.910735952628957,0.4471843518316746,-0.42977341936590774
0.8526687622070312,-0.020847776904702187,-97.04503631591797,0.2883138625396207,-0.910735952628957,0.4471843518316746,-0.42977341936590774
-1.6117448806762695,-0.2744215428829193,-98.2292709350586,0.2883138625396207,-0.910735952628957,0.4471843518316746,-0.42977341936590774
-0.20284441113471985,-0.7225067019462585,-99.52589416503906,0.2883138625396207,-0.910735952628957,0.4471843518316746,-0.42977341936590774
0.5972461104393005,0.26176297664642334,-100.89527893066406,0.2883138625396207,-0.910735952628957,0.4471843518316746,-0.42977341936590774
0.10690463334321976,0.06815311312675476,-102.17427825927734,0.2883138625396207,-0.910735952628957,0.4471843518316746,-0.42977341936590774
0.9926390051841736,-0.2537659704685211,-103.39761352539062,0.2883138625396207,-0.910735952628957,0.4471843518316746,-0.42977341936590774
0.47690048813819885,-0.7162734270095825,-104.34153747558594,0.2883138625396207,-0.910735952628957,0.4471843518316746,-0.42977341936590774
0.6185242533683777,-0.9839829206466675,-105.0947265625,0.2883138625396207,-0.910735952628957,0.4471843518316746,-0.42977341936590774
-0.006961840204894543,-1.3087577819824219,-105.69478607177734,0.2883138625396207,-0.910735952628957,0.4471843518316746,-0.42977341936590774
0.4994986653327942,-1.1862125396728516,-106.08861541748047,0.2883138625396207,-0.910735952628957,0.4471843518316746,-0.42977341936590774
0.6567643284797668,-1.280312418937683,-106.27507781982422,0.2883138625396207,-0.910735952628957,0.4471843518316746,-0.42977341936590774
-0.26972752809524536,-0.799506664276123,-106.20911407470703,0.2883138625396207,-0.910735952628957,0.4471843518316746,-0.42977341936590774
-0.26439350843429565,-0.5235776901245117,-106.15385437011719,0.2883138625396207,-0.910735952628957,0.4471843518316746,-0.42977341936590774
0.15514759719371796,0.21519234776496887,-106.17511749267578,0.2883138625396207,-0.910735952628957,0.4471843518316746,-0.42977341936590774
-0.19553451240062714,0.17930082976818085,-106.17050170898438,0.2883138625396207,-0.910735952628957,0.4471843518316746,-0.42977341936590774
0.11717385798692703,0.19142763316631317,-106.16094207763672,0.2883138625396207,-0.910735952628957,0.4471843518316746,-0.42977341936590774
-0.025016454979777336,0.15858830511569977,-106.16990661621094,0.2883138625396207,-0.910735952628957,0.4471843518316746,-0.42977341936590774
-0.047322168946266174,0.20887352526187897,-106.16685485839844,0.2883138625396207,-0.910735952628957,0.4471843518316746,-0.42977341936590774
0.050868816673755646,0.16286978125572205,-106.16223907470703,0.2883138625396207,-0.910735952628957,0.4471843518316746,-0.42977341936590774
-0.04452280327677727,0.09997905045747757,-106.16654968261719,0.2883138625396207,-0.910735952628957,0.4471843518316746,-0.42977341936590774
-0.08771678060293198,-0.011049404740333557,-106.16240692138672,0.2883138625396207,-0.910735952628957,0.4471843518316746,-0.42977341936590774
-0.054006487131118774,-0.07363694161176682,-106.16363525390625,0.2883138625396207,-0.910735952628957,0.4471843518316746,-0.42977341936590774
-0.09727951884269714,-0.039589326828718185,-106.16547393798828,0.2883138625396207,-0.910735952628957,0.4471843518316746,-0.42977341936590774
-0.03360873833298683,0.026185348629951477,-106.1620101928711,0.2883138625396207,-0.910735952628957,0.4471843518316746,-0.42977341936590774
-0.040382903069257736,0.06576024740934372,-106.1610336303711,0.2883138625396207,-0.910735952628957,0.4471843518316746,-0.42977341936590774
-0.06452833116054535,0.044623736292123795,-106.16089630126953,0.2883138625396207,-0.910735952628957,0.4471843518316746,-0.42977341936590774
-0.055776406079530716,-0.003067645477131009,-106.16128540039062,0.2883138625396207,-0.910735952628957,0.4471843518316746,-0.42977341936590774
-0.05514063313603401,-0.024677280336618423,-106.16193389892578,0.2883138625396207,-0.910735952628957,0.4471843518316746,-0.42977341936590774
-0.05291313678026199,-0.0011175158433616161,-106.15985107421875,0.2883138625396207,-0.910735952628957,0.4471843518316746,-0.42977341936590774
-0.04745112359523773,0.026437262073159218,-106.1594467163086,0.2883138625396207,-0.910735952628957,0.4471843518316746,-0.42977341936590774
-0.06032837554812431,0.03037315048277378,-106.15989685058594,0.2883138625396207,-0.910735952628957,0.4471843518316746,-0.42977341936590774
-0.0532999113202095,-0.0014617886627092957,-106.15909576416016,0.2883138625396207,-0.910735952628957,0.4471843518316746,-0.42977341936590774
-0.05573499575257301,-0.014714978635311127,-106.15963745117188,0.2883138625396207,-0.910735952628957,0.4471843518316746,-0.42977341936590774
-0.05632315203547478,0.0010901634814217687,-106.15988159179688,0.2883138625396207,-0.910735952628957,0.4471843518316746,-0.42977341936590774
-0.0536494143307209,0,-106.15953063964844,0.2957592980863732,-0.9178987672459248,0.44626791377862296,-0.42976433467022923
-0.05493926629424095,0,-106.15977478027344,0.3031895557687513,-0.9250615061570953,0.4453630081067483,-0.42976433467022923
-0.09359315037727356,-0.35260939598083496,-106.15591430664062,0.31060195781937266,-0.9322487318318755,0.444125237967819,-0.43270274630340283
-0.8889353275299072,-1.6252158880233765,-106.18008422851562,0.3179358139745372,-0.9395977932483214,0.4359375006519258,-0.4491846236701046
-0.7007045745849609,-2.991107702255249,-106.19486236572266,0.3250910473255335,-0.9474047816699258,0.42269050146763526,-0.48765398692242645
-0.1645892858505249,-1.8928760290145874,-106.16038513183594,0.33207579916524166,-0.9558715136555267,0.41547971929733957,-0.528353851349675
-0.27577894926071167,-0.9205926656723022,-106.16983032226562,0.33896988002609235,-0.9648727909484857,0.41180998400474594,-0.5517994238053991
-0.21038880944252014,-0.849561333656311,-106.2002182006836,0.34579961810959486,-0.9741923753729734,0.40775858601555237,-0.5665507071331376
0.29302218556404114,-1.197264313697815,-106.213623046875,0.35260133297208474,-0.9837770278284809,0.4084471974832317,-0.5836075875277553
-1.1399555206298828,-1.688086986541748,-106.20995330810547,0.3593499714485368,-0.9937041925720157,0.4013894196910164,-0.6076521816964183
-0.5626412034034729,-0.9143255352973938,-106.1655502319336,0.3593499714485368,-0.9937041925720157,0.4013894196910164,-0.6076521816964183
0.12262754887342453,-0.5739679932594299,-106.05718231201172,0.36600923860626694,-1.0039350826508835,0.3977226392365993,-0.6200546277677252
-0.30042409896850586,-0.9730753898620605,-105.9862289428711,0.37262560227756475,-1.0143767600152847,0.39624100131914025,-0.6329466559604043
0.2682303488254547,0.09559861570596695,-106.04376983642578,0.3792273832891238,-1.0249868068350523,0.39597272006794815,-0.6402589624117051
-0.5504908561706543,0,-106.23871612548828,0.3858073271994684,-1.0356511507491566,0.39362054917340483,-0.6394623072808221
-0.12437385320663452,-1.3344134092330933,-106.38775634765625,0.39232080408087394,-1.046401523468367,0.38799667659526077,-0.6505824190244313
-0.5047549605369568,-1.177786111831665,-106.42223358154297,0.3987437258565072,-1.0574190220855149,0.38275393648073086,-0.6715174150333042
-1.1682449579238892,0.15127906203269958,-106.30616760253906,0.40500677758129294,-1.0686822642145282,0.36881227049355714,-0.6800716404482956
0.9931585788726807,-0.8058013916015625,-106.20069122314453,0.41114148997986255,-1.0800622444948864,0.3673532173347971,-0.6855259931947028
-0.7353100776672363,-0.2671606242656708,-106.20252990722656,0.41114148997986255,-1.0800622444948864,0.3673532173347971,-0.6855259931947028
0.2531948387622833,0.14198075234889984,-106.21027374267578,0.41114148997986255,-1.0800622444948864,0.3673532173347971,-0.6855259931947028
-0.6226814985275269,-0.9267008900642395,-106.109375,0.41114148997986255,-1.0800622444948864,0.3673532173347971,-0.6855259931947028
0.3618117868900299,0.7337666749954224,-106.09394073486328,0.41114148997986255,-1.0800622444948864,0.3673532173347971,-0.6855259931947028
0.11061403155326843,2.188277006149292,-106.46142578125,0.41114148997986255,-1.0800622444948864,0.3673532173347971,-0.6855259931947028
0.2361517995595932,2.375185012817383,-107.30741882324219,0.41114148997986255,-1.0800622444948864,0.3673532173347971,-0.6855259931947028
-0.046204324811697006,1.0802322626113892,-108.310791015625,0.41114148997986255,-1.0800622444948864,0.3673532173347971,-0.6855259931947028
0.5084912776947021,2.038731336593628,-109.38320922851562,0.41114148997986255,-1.0800622444948864,0.3673532173347971,-0.6855259931947028
-0.5534974932670593,1.15483558177948,-110.61463928222656,0.41114148997986255,-1.0800622444948864,0.3673532173347971,-0.6855259931947028
0.19104337692260742,0.699139416217804,-111.86507415771484,0.41114148997986255,-1.0800622444948864,0.3673532173347971,-0.6855259931947028
0.33255019783973694,1.079358696937561,-113.10892486572266,0.41114148997986255,-1.0800622444948864,0.3673532173347971,-0.6855259931947028
0.6376887559890747,0.9678727984428406,-114.40523529052734,0.41114148997986255,-1.0800622444948864,0.3673532173347971,-0.6855259931947028
0.00408449862152338,0.662557065486908,-115.75860595703125,0.41114148997986255,-1.0800622444948864,0.3673532173347971,-0.6855259931947028
-1.0701203346252441,0.21953272819519043,-117.08409881591797,0.41114148997986255,-1.0800622444948864,0.3673532173347971,-0.6855259931947028
-0.37592214345932007,1.2136085033416748,-118.43049621582031,0.41114148997986255,-1.0800622444948864,0.3673532173347971,-0.6855259931947028
-0.49125170707702637,0.9576138854026794,-119.79186248779297,0.41114148997986255,-1.0800622444948864,0.3673532173347971,-0.6855259931947028
0.8806423544883728,-0.04808662086725235,-121.17024993896484,0.41114148997986255,-1.0800622444948864,0.3673532173347971,-0.6855259931947028
-1.2306091785430908,1.689767599105835,-122.57566833496094,0.41114148997986255,-1.0800622444948864,0.3673532173347971,-0.6855259931947028
-0.22815059125423431,-0.16544103622436523,-123.94937133789062,0.41114148997986255,-1.0800622444948864,0.3673532173347971,-0.6855259931947028
-0.5787176489830017,1.2868090867996216,-125.31929016113281,0.41114148997986255,-1.0800622444948864,0.3673532173347971,-0.6855259931947028
-0.03950684145092964,0.5356817245483398,-126.73200225830078,0.41114148997986255,-1.0800622444948864,0.3673532173347971,-0.6855259931947028
0.055921901017427444,0.25724104046821594,-128.2146453857422,0.41114148997986255,-1.0800622444948864,0.3673532173347971,-0.6855259931947028
0.11818113178014755,0.9414550065994263,-129.6686553955078,0.41114148997986255,-1.0800622444948864,0.3673532173347971,-0.6855259931947028
-0.1002708300948143,-0.2089555859565735,-131.08056640625,0.41114148997986255,-1.0800622444948864,0.3673532173347971,-0.6855259931947028
0.5271544456481934,0.5838725566864014,-132.53782653808594,0.41114148997986255,-1.0800622444948864,0.3673532173347971,-0.6855259931947028
-0.24699679017066956,1.0145001411437988,-134.0705108642578,0.41114148997986255,-1.0800622444948864,0.3673532173347971,-0.6855259931947028
-0.6374635100364685,-0.00011759225890273228,-135.61659240722656,0.41114148997986255,-1.0800622444948864,0.3673532173347971,-0.6855259931947028
-0.2225123792886734,-0.05152237042784691,-137.12193298339844,0.41114148997986255,-1.0800622444948864,0.3673532173347971,-0.6855259931947028
-0.20843331515789032,0.30393388867378235,-138.6532440185547,0.41114148997986255,-1.0800622444948864,0.3673532173347971,-0.6855259931947028
0.7554734945297241,0.39596080780029297,-140.22950744628906,0.41114148997986255,-1.0800622444948864,0.3673532173347971,-0.6855259931947028
-0.4811037480831146,0.08512242138385773,-141.8515625,0.41114148997986255,-1.0800622444948864,0.3673532173347971,-0.6855259931947028
0.05344655364751816,0.528732180595398,-143.40164184570312,0.41114148997986255,-1.0800622444948864,0.3673532173347971,-0.6855259931947028
0.49208998680114746,-0.30550336837768555,-144.8900604248047,0.41114148997986255,-1.0800622444948864,0.3673532173347971,-0.6855259931947028
0.6610426902770996,0.3081689476966858,-146.39463806152344,0.41114148997986255,-1.0800622444948864,0.3673532173347971,-0.6855259931947028
0.18983939290046692,0.2725796699523926,-147.878662109375,0.41114148997986255,-1.0800622444948864,0.3673532173347971,-0.6855259931947028
0.34724244475364685,0.4296987056732178,-149.282958984375,0.41114148997986255,-1.0800622444948864,0.3673532173347971,-0.6855259931947028
0.5886499285697937,-0.14907708764076233,-150.63287353515625,0.41114148997986255,-1.0800622444948864,0.3673532173347971,-0.6855259931947028
0.36338236927986145,0.41770240664482117,-151.9473114013672,0.41114148997986255,-1.0800622444948864,0.3673532173347971,-0.6855259931947028
0.42344000935554504,0.12277858704328537,-153.19801330566406,0.41114148997986255,-1.0800622444948864,0.3673532173347971,-0.6855259931947028
0.36673110723495483,0.5131747722625732,-154.4426727294922,0.41114148997986255,-1.0800622444948864,0.3673532173347971,-0.6855259931947028
-0.46137934923171997,0.06879954040050507,-155.6858367919922,0.41114148997986255,-1.0800622444948864,0.3673532173347971,-0.6855259931947028
-0.03754081204533577,0.14966276288032532,-156.86680603027344,0.41114148997986255,-1.0800622444948864,0.3673532173347971,-0.6855259931947028
-0.0021452337969094515,0.0826103687286377,-158.0405731201172,0.41114148997986255,-1.0800622444948864,0.3673532173347971,-0.6855259931947028
0.3731203079223633,0.1652754545211792,-159.1865234375,0.41114148997986255,-1.0800622444948864,0.3673532173347971,-0.6855259931947028
0.16352128982543945,0.03564702719449997,-160.4122314453125,0.41114148997986255,-1.0800622444948864,0.3673532173347971,-0.6855259931947028
-0.153539776802063,0.7035165429115295,-161.70718383789062,0.41114148997986255,-1.0800622444948864,0.3673532173347971,-0.6855259931947028
-0.14108461141586304,0.14337511360645294,-162.95062255859375,0.41114148997986255,-1.0800622444948864,0.3673532173347971,-0.6855259931947028
0.48880574107170105,0.20011164247989655,-164.21261596679688,0.41114148997986255,-1.0800622444948864,0.3673532173347971,-0.6855259931947028
-0.16949594020843506,0.28947898745536804,-165.58157348632812,0.41114148997986255,-1.0800622444948864,0.3673532173347971,-0.6855259931947028
0.08968336880207062,0.6770426630973816,-166.9863739013672,0.41114148997986255,-1.0800622444948864,0.3673532173347971,-0.6855259931947028
0.06340455263853073,-0.34846892952919006,-168.445556640625,0.41114148997986255,-1.0800622444948864,0.3673532173347971,-0.6855259931947028
0.045987822115421295,0.6688553094863892,-169.9530487060547,0.41114148997986255,-1.0800622444948864,0.3673532173347971,-0.6855259931947028
-0.16757333278656006,0.2661353349685669,-171.4117889404297,0.41114148997986255,-1.0800622444948864,0.3673532173347971,-0.6855259931947028
0.07720892876386642,0.11974938213825226,-172.90615844726562,0.41114148997986255,-1.0800622444948864,0.3673532173347971,-0.6855259931947028
0.5967890024185181,-0.16023826599121094,-174.41854858398438,0.41114148997986255,-1.0800622444948864,0.3673532173347971,-0.6855259931947028
-0.469868540763855,-0.07622665911912918,-175.9492645263672,0.41114148997986255,-1.0800622444948864,0.3673532173347971,-0.6855259931947028
0.23672334849834442,0.5264163017272949,-177.51832580566406,0.41114148997986255,-1.0800622444948864,0.3673532173347971,-0.6855259931947028
-0.5969330668449402,0.3581922650337219,-179.0251007080078,0.41114148997986255,-1.0800622444948864,0.3673532173347971,-0.6855259931947028
0.7879859805107117,0.09435030817985535,179.4604949951172,0.41114148997986255,-1.0800622444948864,0.3673532173347971,-0.6855259931947028
-0.12677960097789764,0.013117620721459389,177.8807373046875,0.41114148997986255,-1.0800622444948864,0.3673532173347971,-0.6855259931947028
-0.09726667404174805,0.6709766387939453,176.2132110595703,0.41114148997986255,-1.0800622444948864,0.3673532173347971,-0.6855259931947028
-0.6979209780693054,0.3505670726299286,174.4780731201172,0.41114148997986255,-1.0800622444948864,0.3673532173347971,-0.6855259931947028
0.11966411769390106,0.1639786660671234,172.69468688964844,0.41114148997986255,-1.0800622444948864,0.3673532173347971,-0.6855259931947028
0.6397556066513062,-0.23798829317092896,170.96282958984375,0.41114148997986255,-1.0800622444948864,0.3673532173347971,-0.6855259931947028
-0.08697181195020676,0.5424305200576782,169.3485870361328,0.41114148997986255,-1.0800622444948864,0.3673532173347971,-0.6855259931947028
0.42129167914390564,-0.9040323495864868,167.84738159179688,0.41114148997986255,-1.0800622444948864,0.3673532173347971,-0.6855259931947028
-0.1436072587966919,-1.0119705200195312,166.60723876953125,0.41114148997986255,-1.0800622444948864,0.3673532173347971,-0.6855259931947028
-0.34410446882247925,-1.5523890256881714,165.75193786621094,0.41114148997986255,-1.0800622444948864,0.3673532173347971,-0.6855259931947028
-0.18900951743125916,-1.5649303197860718,165.30374145507812,0.41114148997986255,-1.0800622444948864,0.3673532173347971,-0.6855259931947028
-0.46461695432662964,-0.7142105102539062,165.25808715820312,0.41114148997986255,-1.0800622444948864,0.3673532173347971,-0.6855259931947028
-0.4757488965988159,-0.07996683567762375,165.5133514404297,0.41114148997986255,-1.0800622444948864,0.3673532173347971,-0.6855259931947028
0.1281486302614212,0.8575313687324524,165.72415161132812,0.41114148997986255,-1.0800622444948864,0.3673532173347971,-0.6855259931947028
-0.11367405951023102,0.6114829182624817,165.6265869140625,0.41114148997986255,-1.0800622444948864,0.3673532173347971,-0.6855259931947028
-0.38896825909614563,-0.42739006876945496,165.52261352539062,0.41114148997986255,-1.0800622444948864,0.3673532173347971,-0.6855259931947028
0.33437907695770264,0.3366648852825165,165.55203247070312,0.41114148997986255,-1.0800622444948864,0.3673532173347971,-0.6855259931947028
0.041092995554208755,0.27701491117477417,165.58053588867188,0.41114148997986255,-1.0800622444948864,0.3673532173347971,-0.6855259931947028
-0.04105450585484505,-0.15444475412368774,165.5928497314453,0.41114148997986255,-1.0800622444948864,0.3673532173347971,-0.6855259931947028
0.27892374992370605,0.29418087005615234,165.57725524902344,0.41114148997986255,-1.0800622444948864,0.3673532173347971,-0.6855259931947028
0.07948772609233856,0.08321675658226013,165.5868682861328,0.41114148997986255,-1.0800622444948864,0.3673532173347971,-0.6855259931947028
0.013353416696190834,0.2543168067932129,165.59585571289062,0.41114148997986255,-1.0800622444948864,0.3673532173347971,-0.6855259931947028
-0.0675869807600975,0.034926846623420715,165.5963134765625,0.41114148997986255,-1.0800622444948864,0.3673532173347971,-0.6855259931947028
-0.06451500952243805,0.2396375983953476,165.59022521972656,0.41114148997986255,-1.0800622444948864,0.3673532173347971,-0.6855259931947028
-0.06831062585115433,0.16927935183048248,165.58985900878906,0.41114148997986255,-1.0800622444948864,0.3673532173347971,-0.6855259931947028
-0.07582452893257141,0.17161345481872559,165.59674072265625,0.41114148997986255,-1.0800622444948864,0.3673532173347971,-0.6855259931947028
-0.051142819225788116,0.1383223831653595,165.5936737060547,0.41114148997986255,-1.0800622444948864,0.3673532173347971,-0.6855259931947028
-0.014379650354385376,0.1770370751619339,165.59202575683594,0.41114148997986255,-1.0800622444948864,0.3673532173347971,-0.6855259931947028
0.011911566369235516,0.1504323035478592,165.59437561035156,0.41114148997986255,-1.0800622444948864,0.3673532173347971,-0.6855259931947028
0.010785060934722424,0.13660874962806702,165.59629821777344,0.41114148997986255,-1.0800622444948864,0.3673532173347971,-0.6855259931947028
-0.004668782465159893,0.15877658128738403,165.5948028564453,0.41114148997986255,-1.0800622444948864,0.3673532173347971,-0.6855259931947028
-0.03013024851679802,0.15540467202663422,165.5962371826172,0.41114148997986255,-1.0800622444948864,0.3673532173347971,-0.6855259931947028
-0.029124608263373375,0.1543075293302536,165.596435546875,0.41114148997986255,-1.0800622444948864,0.3673532173347971,-0.6855259931947028
-0.04363110288977623,0.148127481341362,165.59616088867188,0.41114148997986255,-1.0800622444948864,0.3673532173347971,-0.6855259931947028
-0.0033085872419178486,0.1543128490447998,165.594482421875,0.41114148997986255,-1.0800622444948864,0.3673532173347971,-0.6855259931947028
0,0.15601639449596405,165.5953826904297,0.41726381383910627,-1.0914661270728856,0.36732564577444776,-0.6829399161651963
-0.2180558294057846,0.24509340524673462,165.59373474121094,0.42337076516941613,-1.1028206041617679,0.36550851386273286,-0.6795973345006738
-1.3569564819335938,0.6533927917480469,165.60403442382812,0.4293531978788409,-1.1140848315286545,0.352383411268238,-0.6721099495257173
-1.9002758264541626,0.3298490345478058,165.6022186279297,0.43500005804522907,-1.125218383338368,0.32523980869834007,-0.6639162676399186
-2.595993995666504,0.7739850878715515,165.47752380371094,0.44010848056366525,-1.1362069993183097,0.2877708935140012,-0.6547176499530907
-1.229923963546753,0.9519981145858765,165.50225830078125,0.44463897337506436,-1.146999100206246,0.25588824385389075,-0.6403344565992788
-0.8604908585548401,-0.696016252040863,165.6350555419922,0.4487586097433166,-1.157653564631335,0.2384681203363775,-0.6382012744114037
-1.2307989597320557,0.47440534830093384,165.66696166992188,0.45258784995598633,-1.1683056421842848,0.2210407051839867,-0.6400480319425698
-1.6173627376556396,0.7020023465156555,165.7252655029297,0.4560740727022897,-1.1788914144045208,0.19730602437242256,-0.6302446344857648
-0.04667017236351967,0.6281244158744812,165.7117462158203,0.4560740727022897,-1.1788914144045208,0.19730602437242256,-0.6302446344857648
-0.1123732328414917,0.8889639377593994,165.46466064453125,0.45935146176091307,-1.189290138288059,0.1959806626623808,-0.6176022315388159
0.05627129599452019,-0.2887597978115082,165.1881866455078,0.46261391017078285,-1.199541827970654,0.19551314652198937,-0.6126005303725834
0.5859568119049072,0,164.98959350585938,0.4659170617869757,-1.209771889573934,0.20086504742115127,-0.6150068620210126
-0.4512099325656891,-0.15886689722537994,164.87307739257812,0.46927416999950455,-1.2200330363643692,0.2019879380823114,-0.6163307528312241
-1.4151990413665771,0.8982006311416626,164.8273162841797,0.4725110238999089,-1.230253872957812,0.18643452996620918,-0.6101696383819217
-3.0547029972076416,0.8966123461723328,164.66595458984375,0.4753078562022225,-1.2402987271407528,0.14918534631142402,-0.5952128635709718
-0.41009432077407837,-0.3815504312515259,164.58651733398438,0.47755366771588637,-1.2501831733450661,0.12031203532824303,-0.5909206809466317
-0.8219190239906311,0.7447381615638733,164.5723419189453,0.4794733118224151,-1.2600066299906827,0.11004525745520378,-0.5878941165273622
-0.7614305019378662,0.3285730183124542,164.5380096435547,0.481197444618479,-1.2697303297675362,0.0968506780724663,-0.5789498566950595
-0.14714550971984863,0.17409999668598175,164.52841186523438,0.48274852702998833,-1.2793445861975234,0.08927921130865202,-0.5747609149034059
-0.7770811915397644,0.7157852649688721,164.49667358398438,0.48274852702998833,-1.2793445861975234,0.08927921130865202,-0.5747609149034059
-0.6841512322425842,-0.2100527137517929,164.43063354492188,0.48274852702998833,-1.2793445861975234,0.08927921130865202,-0.5747609149034059
0.4373144507408142,-0.6446077227592468,164.3408660888672,0.48274852702998833,-1.2793445861975234,0.08927921130865202,-0.5747609149034059
3.925814151763916,0.6077272295951843,164.510009765625,0.48274852702998833,-1.2793445861975234,0.08927921130865202,-0.5747609149034059
2.2893271446228027,-0.9022068977355957,164.97250366210938,0.48274852702998833,-1.2793445861975234,0.08927921130865202,-0.5747609149034059
0.6861220598220825,-0.48252132534980774,165.71096801757812,0.48274852702998833,-1.2793445861975234,0.08927921130865202,-0.5747609149034059
-0.30406421422958374,-1.3948947191238403,166.61390686035156,0.48274852702998833,-1.2793445861975234,0.08927921130865202,-0.5747609149034059
2.525554895401001,0.26543760299682617,167.50686645507812,0.48274852702998833,-1.2793445861975234,0.08927921130865202,-0.5747609149034059
-1.257515788078308,-0.8511466383934021,168.45785522460938,0.48274852702998833,-1.2793445861975234,0.08927921130865202,-0.5747609149034059
1.671030044555664,0.2590952217578888,169.31268310546875,0.48274852702998833,-1.2793445861975234,0.08927921130865202,-0.5747609149034059
0.27433720231056213,0.7660053372383118,170.20375061035156,0.48274852702998833,-1.2793445861975234,0.08927921130865202,-0.5747609149034059
-0.4046907126903534,-0.8807661533355713,171.11111450195312,0.48274852702998833,-1.2793445861975234,0.08927921130865202,-0.5747609149034059
1.287925362586975,0.889017641544342,172.0825958251953,0.48274852702998833,-1.2793445861975234,0.08927921130865202,-0.5747609149034059
0.3805443048477173,-0.9807592034339905,172.91224670410156,0.48274852702998833,-1.2793445861975234,0.08927921130865202,-0.5747609149034059
0.7637114524841309,1.6031469106674194,173.84703063964844,0.48274852702998833,-1.2793445861975234,0.08927921130865202,-0.5747609149034059
-0.26638296246528625,-0.5426607131958008,174.90499877929688,0.48274852702998833,-1.2793445861975234,0.08927921130865202,-0.5747609149034059
0.21530123054981232,0.22394175827503204,175.9620361328125,0.48274852702998833,-1.2793445861975234,0.08927921130865202,-0.5747609149034059
1.4009307622909546,0.36140045523643494,177.01983642578125,0.48274852702998833,-1.2793445861975234,0.08927921130865202,-0.5747609149034059
0.4092329442501068,0.019262032583355904,178.12399291992188,0.48274852702998833,-1.2793445861975234,0.08927921130865202,-0.5747609149034059
-0.07778072357177734,-0.3905009329319,179.23556518554688,0.48274852702998833,-1.2793445861975234,0.08927921130865202,-0.5747609149034059
0.12982629239559174,-0.031007826328277588,-179.62924194335938,0.48274852702998833,-1.2793445861975234,0.08927921130865202,-0.5747609149034059
0.5117800831794739,-0.5580763220787048,-178.5107421875,0.48274852702998833,-1.2793445861975234,0.08927921130865202,-0.5747609149034059
0.13292497396469116,-0.5440524220466614,-177.4378204345703,0.48274852702998833,-1.2793445861975234,0.08927921130865202,-0.5747609149034059
-0.3412705957889557,-0.7807793617248535,-176.30567932128906,0.48274852702998833,-1.2793445861975234,0.08927921130865202,-0.5747609149034059
1.0864436626434326,0.08765794336795807,-175.19017028808594,0.48274852702998833,-1.2793445861975234,0.08927921130865202,-0.5747609149034059
0.005863146390765905,-0.22259432077407837,-174.11570739746094,0.48274852702998833,-1.2793445861975234,0.08927921130865202,-0.5747609149034059
-0.010150285437703133,-0.7732651829719543,-173.00376892089844,0.48274852702998833,-1.2793445861975234,0.08927921130865202,-0.5747609149034059
0.8728960156440735,0.8352314233779907,-171.87525939941406,0.48274852702998833,-1.2793445861975234,0.08927921130865202,-0.5747609149034059
0.6629599332809448,0.11901181936264038,-170.72402954101562,0.48274852702998833,-1.2793445861975234,0.08927921130865202,-0.5747609149034059
-0.4929367005825043,-0.43140536546707153,-169.56263732910156,0.48274852702998833,-1.2793445861975234,0.08927921130865202,-0.5747609149034059
-0.2484528124332428,-0.3579213619232178,-168.4013214111328,0.48274852702998833,-1.2793445861975234,0.08927921130865202,-0.5747609149034059
0.8547652363777161,0.9083175659179688,-167.27232360839844,0.48274852702998833,-1.2793445861975234,0.08927921130865202,-0.5747609149034059
0.1897825300693512,0.22493045032024384,-166.1493682861328,0.48274852702998833,-1.2793445861975234,0.08927921130865202,-0.5747609149034059
-0.16501069068908691,-0.24351468682289124,-164.9552459716797,0.48274852702998833,-1.2793445861975234,0.08927921130865202,-0.5747609149034059
0.11838342994451523,0.041290923953056335,-163.71835327148438,0.48274852702998833,-1.2793445861975234,0.08927921130865202,-0.5747609149034059
0.6693515777587891,0.9000571370124817,-162.46485900878906,0.48274852702998833,-1.2793445861975234,0.08927921130865202,-0.5747609149034059
0.0434868186712265,-0.9101268649101257,-161.16598510742188,0.48274852702998833,-1.2793445861975234,0.08927921130865202,-0.5747609149034059
0.12290822714567184,-0.4669090211391449,-159.82614135742188,0.48274852702998833,-1.2793445861975234,0.08927921130865202,-0.5747609149034059
0.24626845121383667,0.44936898350715637,-158.51666259765625,0.48274852702998833,-1.2793445861975234,0.08927921130865202,-0.5747609149034059
0.28739362955093384,0.4711901843547821,-157.1761932373047,0.48274852702998833,-1.2793445861975234,0.08927921130865202,-0.5747609149034059
-0.1112755537033081,-0.5118238925933838,-155.80654907226562,0.48274852702998833,-1.2793445861975234,0.08927921130865202,-0.5747609149034059
-0.3547900915145874,0.2345605343580246,-154.39524841308594,0.48274852702998833,-1.2793445861975234,0.08927921130865202,-0.5747609149034059
0.27708619832992554,-0.16078510880470276,-152.93145751953125,0.48274852702998833,-1.2793445861975234,0.08927921130865202,-0.5747609149034059
-0.02073700539767742,0.437472403049469,-151.44992065429688,0.48274852702998833,-1.2793445861975234,0.08927921130865202,-0.5747609149034059
0.5458076000213623,-0.03280656784772873,-149.91445922851562,0.48274852702998833,-1.2793445861975234,0.08927921130865202,-0.5747609149034059
0.07015524804592133,0.2716986835002899,-148.25953674316406,0.48274852702998833,-1.2793445861975234,0.08927921130865202,-0.5747609149034059
0.18752354383468628,-0.500598669052124,-146.66525268554688,0.48274852702998833,-1.2793445861975234,0.08927921130865202,-0.5747609149034059
-0.1923518031835556,1.3424172401428223,-145.09165954589844,0.48274852702998833,-1.2793445861975234,0.08927921130865202,-0.5747609149034059
0.0012424133019521832,-0.22845019400119781,-143.5,0.48274852702998833,-1.2793445861975234,0.08927921130865202,-0.5747609149034059
-0.3746615946292877,-1.027647852897644,-141.86361694335938,0.48274852702998833,-1.2793445861975234,0.08927921130865202,-0.5747609149034059
-0.38335302472114563,0.13048787415027618,-140.13052368164062,0.48274852702998833,-1.2793445861975234,0.08927921130865202,-0.5747609149034059
-0.39984652400016785,0.18789517879486084,-138.4696807861328,0.48274852702998833,-1.2793445861975234,0.08927921130865202,-0.5747609149034059
-0.2358824908733368,0.8775547742843628,-136.8836669921875,0.48274852702998833,-1.2793445861975234,0.08927921130865202,-0.5747609149034059
-0.18691571056842804,-0.5885564088821411,-135.29879760742188,0.48274852702998833,-1.2793445861975234,0.08927921130865202,-0.5747609149034059
0.6784499287605286,0.1246635690331459,-133.6486358642578,0.48274852702998833,-1.2793445861975234,0.08927921130865202,-0.5747609149034059
-0.04093892499804497,1.3554662466049194,-132.09361267089844,0.48274852702998833,-1.2793445861975234,0.08927921130865202,-0.5747609149034059
0.2517441213130951,-1.4156389236450195,-130.6248016357422,0.48274852702998833,-1.2793445861975234,0.08927921130865202,-0.5747609149034059
-0.4662097990512848,-0.16835129261016846,-129.17984008789062,0.48274852702998833,-1.2793445861975234,0.08927921130865202,-0.5747609149034059
0.3309086561203003,1.2062019109725952,-127.76303100585938,0.48274852702998833,-1.2793445861975234,0.08927921130865202,-0.5747609149034059
0.19528332352638245,-0.39343711733818054,-126.41967010498047,0.48274852702998833,-1.2793445861975234,0.08927921130865202,-0.5747609149034059
-0.05461392551660538,0.3035632371902466,-125.07820892333984,0.48274852702998833,-1.2793445861975234,0.08927921130865202,-0.5747609149034059
-0.12122437357902527,-0.15158461034297943,-123.71896362304688,0.48274852702998833,-1.2793445861975234,0.08927921130865202,-0.5747609149034059
-0.10506927222013474,0.8331157565116882,-122.4518814086914,0.48274852702998833,-1.2793445861975234,0.08927921130865202,-0.5747609149034059
0.14158518612384796,0.3771182894706726,-121.18673706054688,0.48274852702998833,-1.2793445861975234,0.08927921130865202,-0.5747609149034059
0.09005749225616455,0.15028031170368195,-119.88075256347656,0.48274852702998833,-1.2793445861975234,0.08927921130865202,-0.5747609149034059
0.19448192417621613,-0.17213484644889832,-118.60031127929688,0.48274852702998833,-1.2793445861975234,0.08927921130865202,-0.5747609149034059
-0.26148393750190735,0.45551976561546326,-117.35935974121094,0.48274852702998833,-1.2793445861975234,0.08927921130865202,-0.5747609149034059
-0.34341737627983093,0.2446170449256897,-116.0474853515625,0.48274852702998833,-1.2793445861975234,0.08927921130865202,-0.5747609149034059
0.5690686702728271,0.15141069889068604,-114.73468017578125,0.48274852702998833,-1.2793445861975234,0.08927921130865202,-0.5747609149034059
0.44106781482696533,0.29407763481140137,-113.44165802001953,0.48274852702998833,-1.2793445861975234,0.08927921130865202,-0.5747609149034059
0.011686689220368862,0.6900755167007446,-112.07978820800781,0.48274852702998833,-1.2793445861975234,0.08927921130865202,-0.5747609149034059
-0.024310261011123657,0.29167401790618896,-110.75021362304688,0.48274852702998833,-1.2793445861975234,0.08927921130865202,-0.5747609149034059
0.016760313883423805,-0.3497476577758789,-109.38275146484375,0.48274852702998833,-1.2793445861975234,0.08927921130865202,-0.5747609149034059
-0.25900331139564514,1.2031193971633911,-108.01995849609375,0.48274852702998833,-1.2793445861975234,0.08927921130865202,-0.5747609149034059
0.3070049285888672,-0.43724146485328674,-106.71421813964844,0.48274852702998833,-1.2793445861975234,0.08927921130865202,-0.5747609149034059
-0.058109551668167114,-0.680561363697052,-105.43690490722656,0.48274852702998833,-1.2793445861975234,0.08927921130865202,-0.5747609149034059
-0.13627387583255768,0.7550227642059326,-104.0589599609375,0.48274852702998833,-1.2793445861975234,0.08927921130865202,-0.5747609149034059
0.10690584033727646,0.7644719481468201,-102.7295913696289,0.48274852702998833,-1.2793445861975234,0.08927921130865202,-0.5747609149034059
0.5988662242889404,-0.47785332798957825,-101.42754364013672,0.48274852702998833,-1.2793445861975234,0.08927921130865202,-0.5747609149034059
-1.2954696416854858,0.8221511840820312,-100.09908294677734,0.48274852702998833,-1.2793445861975234,0.08927921130865202,-0.5747609149034059
-0.023869330063462257,-0.06875712424516678,-98.70538330078125,0.48274852702998833,-1.2793445861975234,0.08927921130865202,-0.5747609149034059
-1.2655353546142578,0.28762927651405334,-97.66542053222656,0.48274852702998833,-1.2793445861975234,0.08927921130865202,-0.5747609149034059
-0.8355704545974731,-0.3834661841392517,-97.14022064208984,0.48274852702998833,-1.2793445861975234,0.08927921130865202,-0.5747609149034059
-2.379995346069336,0.8473577499389648,-97.02088928222656,0.48274852702998833,-1.2793445861975234,0.08927921130865202,-0.5747609149034059
0.5494596362113953,-0.35463011264801025,-97.16060638427734,0.48274852702998833,-1.2793445861975234,0.08927921130865202,-0.5747609149034059
-0.10784801095724106,-0.4052272140979767,-97.22563171386719,0.48274852702998833,-1.2793445861975234,0.08927921130865202,-0.5747609149034059
-0.006292920093983412,-0.3014364540576935,-97.20397186279297,0.48274852702998833,-1.2793445861975234,0.08927921130865202,-0.5747609149034059
-0.1248638927936554,-0.26481446623802185,-97.19795989990234,0.48274852702998833,-1.2793445861975234,0.08927921130865202,-0.5747609149034059
-0.0891718938946724,-0.058269064873456955,-97.20731353759766,0.48274852702998833,-1.2793445861975234,0.08927921130865202,-0.5747609149034059
-0.02711305394768715,-0.037758514285087585,-97.19928741455078,0.48274852702998833,-1.2793445861975234,0.08927921130865202,-0.5747609149034059
-0.025752753019332886,0.06285611540079117,-97.192626953125,0.48274852702998833,-1.2793445861975234,0.08927921130865202,-0.5747609149034059
-0.07610348612070084,0.09727896004915237,-97.19342041015625,0.48274852702998833,-1.2793445861975234,0.08927921130865202,-0.5747609149034059
-0.05149517580866814,0.08030799776315689,-97.19587707519531,0.48274852702998833,-1.2793445861975234,0.08927921130865202,-0.5747609149034059
-0.052930910140275955,0.03462951257824898,-97.19673156738281,0.48274852702998833,-1.2793445861975234,0.08927921130865202,-0.5747609149034059
-0.04724578186869621,-0.03646337240934372,-97.19772338867188,0.48274852702998833,-1.2793445861975234,0.08927921130865202,-0.5747609149034059
-0.04772057384252548,-0.06714247912168503,-97.19904327392578,0.48274852702998833,-1.2793445861975234,0.08927921130865202,-0.5747609149034059
-0.06013656407594681,-0.050611529499292374,-97.1988754272461,0.48274852702998833,-1.2793445861975234,0.08927921130865202,-0.5747609149034059
-0.041233837604522705,0.01629962958395481,-97.20037078857422,0.48274852702998833,-1.2793445861975234,0.08927921130865202,-0.5747609149034059
-0.04339363053441048,0.0400802344083786,-97.20128631591797,0.48274852702998833,-1.2793445861975234,0.08927921130865202,-0.5747609149034059
-0.04901513084769249,0.016879184171557426,-97.20230102539062,0.48274852702998833,-1.2793445861975234,0.08927921130865202,-0.5747609149034059
-0.05335157737135887,-0.03379198908805847,-97.20220947265625,0.48274852702998833,-1.2793445861975234,0.08927921130865202,-0.5747609149034059
-0.06928844004869461,-0.05100467801094055,-97.20169830322266,0.48274852702998833,-1.2793445861975234,0.08927921130865202,-0.5747609149034059
-0.05003815144300461,-0.024048544466495514,-97.20015716552734,0.48274852702998833,-1.2793445861975234,0.08927921130865202,-0.5747609149034059
-0.05819425359368324,0.001040386501699686,-97.20001220703125,0.48274852702998833,-1.2793445861975234,0.08927921130865202,-0.5747609149034059
-0.050564274191856384,-0.0027237357571721077,-97.20035552978516,0.48274852702998833,-1.2793445861975234,0.08927921130865202,-0.5747609149034059
-0.053983282297849655,-0.006461052224040031,-97.2000503540039,0.48274852702998833,-1.2793445861975234,0.08927921130865202,-0.5747609149034059
-0.06946045160293579,-0.025241879746317863,-97.19938659667969,0.48274852702998833,-1.2793445861975234,0.08927921130865202,-0.5747609149034059
-0.05242879316210747,-0.026113705709576607,-97.19881439208984,0.48274852702998833,-1.2793445861975234,0.08927921130865202,-0.5747609149034059
-0.04826302081346512,-0.0169040746986866,-97.19866943359375,0.48274852702998833,-1.2793445861975234,0.08927921130865202,-0.5747609149034059
0,0,-97.19755554199219,0.4842331622864649,-1.288925108673323,0.0888770194685398,-0.5749017821925616
-0.051970478147268295,0,-97.19833374023438,0.4857108368832915,-1.2985068050431992,0.0884439321506459,-0.5749017821925616
-0.11777597665786743,-0.2726561427116394,-97.19607543945312,0.48717311447088524,-1.30810743586743,0.08702937836060311,-0.5771739167151586
-0.39476242661476135,-1.6360630989074707,-97.23352813720703,0.4885880111655569,-1.3178595510933506,0.08275822499999787,-0.5930799103953178
-0.5658153891563416,-2.754869222640991,-97.3745346069336,0.48990060812279496,-1.328049142122269,0.07475340986857201,-0.6296710130748884
0.5351850390434265,-1.8975319862365723,-97.37251281738281,0.49114437117962445,-1.3388667424241338,0.07449815695096439,-0.6684410231488681
-0.6165888905525208,-0.9552301168441772,-97.31942749023438,0.4923803540835635,-1.3502055346226622,0.07381979152172194,-0.6922140406745411
-0.5560704469680786,-1.3460023403167725,-97.2923812866211,0.4935292492660422,-1.3619022431100962,0.06404763037571695,-0.711390977817549
0.31036248803138733,-1.017526388168335,-97.33888244628906,0.4945796467196002,-1.3739228933465335,0.06200006405124452,-0.731087050554925
-0.3477976620197296,-1.673823595046997,-97.3599853515625,0.495610381455594,-1.3862945768268389,0.06168810426800834,-0.7535149670817194
0.5364165902137756,-1.580532431602478,-97.28349304199219,0.495610381455594,-1.3862945768268389,0.06168810426800834,-0.7535149670817194
-0.4560927450656891,-0.47230300307273865,-97.37786102294922,0.4966440945715294,-1.3989957176278311,0.062357469644242394,-0.7706219290373462
-0.6736143827438354,-0.5165820717811584,-97.4693603515625,0.4976049338483911,-1.4119080890197628,0.052943243579163024,-0.778862637994462
0.4868297576904297,0.05187360942363739,-97.47249603271484,0.4984743500868596,-1.4249214044073342,0.05138670503705131,-0.7827352085141079
-0.47638139128685,0,-97.5219497680664,0.4993315207518107,-1.4379633888819148,0.05147377475708114,-0.7823029284355776
-0.18814212083816528,-0.2938898801803589,-97.61986541748047,0.5001432695316422,-1.4510221800419647,0.04593607882270601,-0.7847520107704139
0.09715190529823303,-1.3311693668365479,-97.6851577758789,0.5009025520803859,-1.46421423155807,0.04517782702653991,-0.7982941711622215
-0.6415795683860779,-0.8470779061317444,-97.66461944580078,0.5016177083875583,-1.4776704015825075,0.04064092983414121,-0.8164462317702905
0.26212626695632935,-0.9263492226600647,-97.68561553955078,0.5022687062944169,-1.4914009934404007,0.037478818988893305,-0.831224791176889
-0.10527846962213516,-0.21607781946659088,-97.7765121459961,0.5022687062944169,-1.4914009934404007,0.037478818988893305,-0.831224791176889
0.23859739303588867,-1.212144374847412,-97.79654693603516,0.5022687062944169,-1.4914009934404007,0.037478818988893305,-0.831224791176889
-0.88486647605896,-0.9668782949447632,-97.86408233642578,0.5022687062944169,-1.4914009934404007,0.037478818988893305,-0.831224791176889
-0.5513843894004822,0.21836604177951813,-98.00033569335938,0.5022687062944169,-1.4914009934404007,0.037478818988893305,-0.831224791176889
0.7916701436042786,2.663356065750122,-98.22396850585938,0.5022687062944169,-1.4914009934404007,0.037478818988893305,-0.831224791176889
-0.41995906829833984,1.6340124607086182,-98.82233428955078,0.5022687062944169,-1.4914009934404007,0.037478818988893305,-0.831224791176889
-0.25680479407310486,1.9266116619110107,-99.69385528564453,0.5022687062944169,-1.4914009934404007,0.037478818988893305,-0.831224791176889
-0.7732318043708801,2.033569812774658,-100.68878173828125,0.5022687062944169,-1.4914009934404007,0.037478818988893305,-0.831224791176889
-0.8191386461257935,1.2554996013641357,-101.73744201660156,0.5022687062944169,-1.4914009934404007,0.037478818988893305,-0.831224791176889
-0.3583511710166931,0.6941333413124084,-102.82440185546875,0.5022687062944169,-1.4914009934404007,0.037478818988893305,-0.831224791176889
-0.738195538520813,0.925314724445343,-103.950927734375,0.5022687062944169,-1.4914009934404007,0.037478818988893305,-0.831224791176889
-0.2834618389606476,0.4398426413536072,-104.97662353515625,0.5022687062944169,-1.4914009934404007,0.037478818988893305,-0.831224791176889
0.11006008088588715,0.6420595049858093,-106.05345153808594,0.5022687062944169,-1.4914009934404007,0.037478818988893305,-0.831224791176889
0.3732333779335022,0.5152871012687683,-107.11891174316406,0.5022687062944169,-1.4914009934404007,0.037478818988893305,-0.831224791176889
0.2244899868965149,0.9129854440689087,-108.23362731933594,0.5022687062944169,-1.4914009934404007,0.037478818988893305,-0.831224791176889
-0.6109047532081604,-0.5497463941574097,-109.34967041015625,0.5022687062944169,-1.4914009934404007,0.037478818988893305,-0.831224791176889
0.6462318301200867,0.36730989813804626,-110.49376678466797,0.5022687062944169,-1.4914009934404007,0.037478818988893305,-0.831224791176889
-0.6288672089576721,0.8924919962882996,-111.54573059082031,0.5022687062944169,-1.4914009934404007,0.037478818988893305,-0.831224791176889
-0.06373800337314606,0.008138654753565788,-112.57125854492188,0.5022687062944169,-1.4914009934404007,0.037478818988893305,-0.831224791176889
-0.12315428256988525,0.07205470651388168,-113.5771255493164,0.5022687062944169,-1.4914009934404007,0.037478818988893305,-0.831224791176889
0.356395959854126,0.7918854355812073,-114.61029052734375,0.5022687062944169,-1.4914009934404007,0.037478818988893305,-0.831224791176889
-0.7424118518829346,-0.2128271609544754,-115.60604858398438,0.5022687062944169,-1.4914009934404007,0.037478818988893305,-0.831224791176889
0.27307918667793274,-0.17631416022777557,-116.64167022705078,0.5022687062944169,-1.4914009934404007,0.037478818988893305,-0.831224791176889
-0.2677593529224396,1.2920163869857788,-117.67192077636719,0.5022687062944169,-1.4914009934404007,0.037478818988893305,-0.831224791176889
-0.01580943539738655,-0.1362818479537964,-118.70873260498047,0.5022687062944169,-1.4914009934404007,0.037478818988893305,-0.831224791176889
0.38707593083381653,0.8495956063270569,-119.73394012451172,0.5022687062944169,-1.4914009934404007,0.037478818988893305,-0.831224791176889
-0.14860233664512634,0.1580754518508911,-120.84241485595703,0.5022687062944169,-1.4914009934404007,0.037478818988893305,-0.831224791176889
-0.8740451335906982,0.1154041513800621,-121.97429656982422,0.5022687062944169,-1.4914009934404007,0.037478818988893305,-0.831224791176889
-0.3767341077327728,0.49847257137298584,-123.01129913330078,0.5022687062944169,-1.4914009934404007,0.037478818988893305,-0.831224791176889
0.6276504397392273,0.32714107632637024,-124.08564758300781,0.5022687062944169,-1.4914009934404007,0.037478818988893305,-0.831224791176889
-0.536190390586853,0.2687126100063324,-125.23435974121094,0.5022687062944169,-1.4914009934404007,0.037478818988893305,-0.831224791176889
-0.16435952484607697,0.08409565687179565,-126.4393310546875,0.5022687062944169,-1.4914009934404007,0.037478818988893305,-0.831224791176889
-0.17503228783607483,-0.009920650161802769,-127.66696166992188,0.5022687062944169,-1.4914009934404007,0.037478818988893305,-0.831224791176889
-0.22483403980731964,0.2971591651439667,-128.7760772705078,0.5022687062944169,-1.4914009934404007,0.037478818988893305,-0.831224791176889
0.3420557379722595,-0.04765874147415161,-129.83511352539062,0.5022687062944169,-1.4914009934404007,0.037478818988893305,-0.831224791176889
-0.26438775658607483,0.244390606880188,-131.0098876953125,0.5022687062944169,-1.4914009934404007,0.037478818988893305,-0.831224791176889
-0.9771450161933899,0.04170972481369972,-132.22164916992188,0.5022687062944169,-1.4914009934404007,0.037478818988893305,-0.831224791176889
0.03988926112651825,-0.14777660369873047,-133.40029907226562,0.5022687062944169,-1.4914009934404007,0.037478818988893305,-0.831224791176889
0.2970238924026489,0.18852084875106812,-134.65452575683594,0.5022687062944169,-1.4914009934404007,0.037478818988893305,-0.831224791176889
-0.6021324992179871,0.2778201103210449,-135.9105682373047,0.5022687062944169,-1.4914009934404007,0.037478818988893305,-0.831224791176889
-0.408113032579422,0.1665571928024292,-137.22935485839844,0.5022687062944169,-1.4914009934404007,0.037478818988893305,-0.831224791176889
0.09929713606834412,-0.04188505560159683,-138.5130615234375,0.5022687062944169,-1.4914009934404007,0.037478818988893305,-0.831224791176889
0.9074247479438782,0.3855072557926178,-139.69253540039062,0.5022687062944169,-1.4914009934404007,0.037478818988893305,-0.831224791176889
-0.0858171135187149,0.03830694779753685,-140.83856201171875,0.5022687062944169,-1.4914009934404007,0.037478818988893305,-0.831224791176889
0.5088072419166565,0.27639898657798767,-141.9482879638672,0.5022687062944169,-1.4914009934404007,0.037478818988893305,-0.831224791176889
0.11830756068229675,0.13378624618053436,-142.98269653320312,0.5022687062944169,-1.4914009934404007,0.037478818988893305,-0.831224791176889
0.38904744386672974,0.007733153644949198,-143.8946533203125,0.5022687062944169,-1.4914009934404007,0.037478818988893305,-0.831224791176889
0.014568393118679523,0.291877418756485,-144.7423858642578,0.5022687062944169,-1.4914009934404007,0.037478818988893305,-0.831224791176889
0.02377966046333313,0.16906340420246124,-145.5287628173828,0.5022687062944169,-1.4914009934404007,0.037478818988893305,-0.831224791176889
0.4396924376487732,0.0015121070900931954,-146.3076934814453,0.5022687062944169,-1.4914009934404007,0.037478818988893305,-0.831224791176889
-0.05468938499689102,-0.006816940847784281,-147.02565002441406,0.5022687062944169,-1.4914009934404007,0.037478818988893305,-0.831224791176889
0.5195911526679993,-0.0724385529756546,-147.62327575683594,0.5022687062944169,-1.4914009934404007,0.037478818988893305,-0.831224791176889
0.5983834266662598,-0.09644562751054764,-148.1834259033203,0.5022687062944169,-1.4914009934404007,0.037478818988893305,-0.831224791176889
0.14648739993572235,-0.1411084234714508,-148.56719970703125,0.5022687062944169,-1.4914009934404007,0.037478818988893305,-0.831224791176889
0.32513758540153503,-0.10803201049566269,-148.8245086669922,0.5022687062944169,-1.4914009934404007,0.037478818988893305,-0.831224791176889
0.18486738204956055,0.29738157987594604,-149.10897827148438,0.5022687062944169,-1.4914009934404007,0.037478818988893305,-0.831224791176889
0.2545901834964752,0.37918657064437866,-149.33929443359375,0.5022687062944169,-1.4914009934404007,0.037478818988893305,-0.831224791176889
0.06946354359388351,-0.023679349571466446,-149.56097412109375,0.5022687062944169,-1.4914009934404007,0.037478818988893305,-0.831224791176889
0.11927761882543564,-0.07286670804023743,-149.77783203125,0.5022687062944169,-1.4914009934404007,0.037478818988893305,-0.831224791176889
-0.09671472012996674,-0.1966312825679779,-149.96505737304688,0.5022687062944169,-1.4914009934404007,0.037478818988893305,-0.831224791176889
0.0944008082151413,-0.03825713321566582,-150.096923828125,0.5022687062944169,-1.4914009934404007,0.037478818988893305,-0.831224791176889
0.48958227038383484,0.18483200669288635,-150.1335906982422,0.5022687062944169,-1.4914009934404007,0.037478818988893305,-0.831224791176889
0.3612293303012848,0.4110822081565857,-150.10098266601562,0.5022687062944169,-1.4914009934404007,0.037478818988893305,-0.831224791176889
-0.30778926610946655,0.7564151883125305,-150.1603240966797,0.5022687062944169,-1.4914009934404007,0.037478818988893305,-0.831224791176889
-0.20835557579994202,0.16811363399028778,-150.3162078857422,0.5022687062944169,-1.4914009934404007,0.037478818988893305,-0.831224791176889
0.04137785732746124,-0.3832201361656189,-150.41458129882812,0.5022687062944169,-1.4914009934404007,0.037478818988893305,-0.831224791176889
0.22944128513336182,-0.699429988861084,-150.39913940429688,0.5022687062944169,-1.4914009934404007,0.037478818988893305,-0.831224791176889
-0.49554896354675293,-0.2117816060781479,-150.3202667236328,0.5022687062944169,-1.4914009934404007,0.037478818988893305,-0.831224791176889
-0.03342752158641815,0.7204657793045044,-150.26112365722656,0.5022687062944169,-1.4914009934404007,0.037478818988893305,-0.831224791176889
0.25369003415107727,0.23997530341148376,-150.29544067382812,0.5022687062944169,-1.4914009934404007,0.037478818988893305,-0.831224791176889
0.07342067360877991,-0.0472421795129776,-150.28541564941406,0.5022687062944169,-1.4914009934404007,0.037478818988893305,-0.831224791176889
-0.10502820461988449,0.42388731241226196,-150.2620849609375,0.5022687062944169,-1.4914009934404007,0.037478818988893305,-0.831224791176889
-0.3448980450630188,0.09952784329652786,-150.29959106445312,0.5022687062944169,-1.4914009934404007,0.037478818988893305,-0.831224791176889
0.12306331098079681,-0.38566854596138,-150.30319213867188,0.5022687062944169,-1.4914009934404007,0.037478818988893305,-0.831224791176889
-0.09710877388715744,-0.034819550812244415,-150.27572631835938,0.5022687062944169,-1.4914009934404007,0.037478818988893305,-0.831224791176889
-0.058696847409009933,0.4146718382835388,-150.26405334472656,0.5022687062944169,-1.4914009934404007,0.037478818988893305,-0.831224791176889
-0.07842753827571869,0.2447338104248047,-150.29998779296875,0.5022687062944169,-1.4914009934404007,0.037478818988893305,-0.831224791176889
0.201939195394516,0.021463047713041306,-150.30540466308594,0.5022687062944169,-1.4914009934404007,0.037478818988893305,-0.831224791176889
-0.22160227596759796,-0.21326425671577454,-150.2549591064453,0.5022687062944169,-1.4914009934404007,0.037478818988893305,-0.831224791176889
-0.39148443937301636,0.5044528245925903,-150.28005981445312,0.5022687062944169,-1.4914009934404007,0.037478818988893305,-0.831224791176889
0.15790267288684845,0.12185733765363693,-150.35545349121094,0.5022687062944169,-1.4914009934404007,0.037478818988893305,-0.831224791176889
0.23402905464172363,-0.3588394224643707,-150.38619995117188,0.5022687062944169,-1.4914009934404007,0.037478818988893305,-0.831224791176889
-0.25930291414260864,0.1213742271065712,-150.3522186279297,0.5022687062944169,-1.4914009934404007,0.037478818988893305,-0.831224791176889
-0.4928008019924164,0.39693281054496765,-150.35809326171875,0.5022687062944169,-1.4914009934404007,0.037478818988893305,-0.831224791176889
0.02869199588894844,-0.12835000455379486,-150.38296508789062,0.5022687062944169,-1.4914009934404007,0.037478818988893305,-0.831224791176889
0.26595669984817505,0.07425104081630707,-150.36981201171875,0.5022687062944169,-1.4914009934404007,0.037478818988893305,-0.831224791176889
-0.17650507390499115,-0.04318995401263237,-150.35678100585938,0.5022687062944169,-1.4914009934404007,0.037478818988893305,-0.831224791176889
-0.11071176826953888,-0.06730681657791138,-150.35183715820312,0.5022687062944169,-1.4914009934404007,0.037478818988893305,-0.831224791176889
-0.033939313143491745,-0.0662938579916954,-150.33428955078125,0.5022687062944169,-1.4914009934404007,0.037478818988893305,-0.831224791176889
-0.12284315377473831,0.3007547855377197,-150.3558807373047,0.5022687062944169,-1.4914009934404007,0.037478818988893305,-0.831224791176889
0.08116071671247482,0.5906281471252441,-150.37632751464844,0.5022687062944169,-1.4914009934404007,0.037478818988893305,-0.831224791176889
0.17757166922092438,0.3728087842464447,-150.44744873046875,0.5022687062944169,-1.4914009934404007,0.037478818988893305,-0.831224791176889
-0.27547892928123474,-0.5656397938728333,-150.45103454589844,0.5022687062944169,-1.4914009934404007,0.037478818988893305,-0.831224791176889
-0.1299130767583847,-0.3703508675098419,-150.40386962890625,0.5022687062944169,-1.4914009934404007,0.037478818988893305,-0.831224791176889
-0.5827303528785706,-0.4502161741256714,-150.3590087890625,0.5022687062944169,-1.4914009934404007,0.037478818988893305,-0.831224791176889
-0.16787752509117126,0.4690903425216675,-150.29884338378906,0.5022687062944169,-1.4914009934404007,0.037478818988893305,-0.831224791176889
0.4046342670917511,0.5464621782302856,-150.31915283203125,0.5022687062944169,-1.4914009934404007,0.037478818988893305,-0.831224791176889
0.07710395753383636,0.10897523164749146,-150.30978393554688,0.5022687062944169,-1.4914009934404007,0.037478818988893305,-0.831224791176889
0.0202835313975811,0.3387623429298401,-150.29571533203125,0.5022687062944169,-1.4914009934404007,0.037478818988893305,-0.831224791176889
-0.41745781898498535,-0.06242828443646431,-150.30331420898438,0.5022687062944169,-1.4914009934404007,0.037478818988893305,-0.831224791176889
-0.2994895279407501,-0.1189332976937294,-150.3282470703125,0.5022687062944169,-1.4914009934404007,0.037478818988893305,-0.831224791176889
0.4439343810081482,-0.184962198138237,-150.30784606933594,0.5022687062944169,-1.4914009934404007,0.037478818988893305,-0.831224791176889
-0.22455599904060364,0.2650287449359894,-150.29039001464844,0.5022687062944169,-1.4914009934404007,0.037478818988893305,-0.831224791176889
-0.2675905227661133,0.3097040355205536,-150.29881286621094,0.5022687062944169,-1.4914009934404007,0.037478818988893305,-0.831224791176889
0.35557103157043457,0.196323424577713,-150.32008361816406,0.5022687062944169,-1.4914009934404007,0.037478818988893305,-0.831224791176889
-0.07419920712709427,-0.2889924645423889,-150.32032775878906,0.5022687062944169,-1.4914009934404007,0.037478818988893305,-0.831224791176889
-0.41681402921676636,-0.1766626238822937,-150.28826904296875,0.5022687062944169,-1.4914009934404007,0.037478818988893305,-0.831224791176889
-0.15213963389396667,0.39523789286613464,-150.28981018066406,0.5022687062944169,-1.4914009934404007,0.037478818988893305,-0.831224791176889
0.1415591537952423,0.4515448808670044,-150.341796875,0.5022687062944169,-1.4914009934404007,0.037478818988893305,-0.831224791176889
0.17643782496452332,0.01583722047507763,-150.38792419433594,0.5022687062944169,-1.4914009934404007,0.037478818988893305,-0.831224791176889
0.0755048543214798,-0.16184140741825104,-150.36610412597656,0.5022687062944169,-1.4914009934404007,0.037478818988893305,-0.831224791176889
-0.7960762977600098,-0.30359330773353577,-150.3607177734375,0.5022687062944169,-1.4914009934404007,0.037478818988893305,-0.831224791176889
0.42317306995391846,-0.07689319550991058,-150.3898468017578,0.5022687062944169,-1.4914009934404007,0.037478818988893305,-0.831224791176889
-0.24231012165546417,-0.02719663828611374,-150.3900909423828,0.5022687062944169,-1.4914009934404007,0.037478818988893305,-0.831224791176889
0.25924038887023926,0.7655829191207886,-150.38458251953125,0.5022687062944169,-1.4914009934404007,0.037478818988893305,-0.831224791176889
-0.17991307377815247,-0.2710145115852356,-150.38096618652344,0.5022687062944169,-1.4914009934404007,0.037478818988893305,-0.831224791176889
-0.2117965817451477,0.018842065706849098,-150.347900390625,0.5022687062944169,-1.4914009934404007,0.037478818988893305,-0.831224791176889
-0.059188928455114365,0.020683445036411285,-150.3273162841797,0.5022687062944169,-1.4914009934404007,0.037478818988893305,-0.831224791176889
-0.14815664291381836,0.37074074149131775,-150.3763885498047,0.5022687062944169,-1.4914009934404007,0.037478818988893305,-0.831224791176889
0.4992859363555908,0.42581385374069214,-150.39785766601562,0.5022687062944169,-1.4914009934404007,0.037478818988893305,-0.831224791176889
-0.2872752547264099,0.39090120792388916,-150.4447479248047,0.5022687062944169,-1.4914009934404007,0.037478818988893305,-0.831224791176889
0.03202008455991745,-0.5691676735877991,-150.46615600585938,0.5022687062944169,-1.4914009934404007,0.037478818988893305,-0.831224791176889
-0.40430089831352234,-0.539509654045105,-150.42857360839844,0.5022687062944169,-1.4914009934404007,0.037478818988893305,-0.831224791176889
-0.5199832916259766,-0.19388221204280853,-150.40431213378906,0.5022687062944169,-1.4914009934404007,0.037478818988893305,-0.831224791176889
0.27307915687561035,0.17184486985206604,-150.34510803222656,0.5022687062944169,-1.4914009934404007,0.037478818988893305,-0.831224791176889
-0.3223034143447876,0.670253574848175,-150.34437561035156,0.5022687062944169,-1.4914009934404007,0.037478818988893305,-0.831224791176889
0.05161512270569801,0.1619180589914322,-150.41490173339844,0.5022687062944169,-1.4914009934404007,0.037478818988893305,-0.831224791176889
0.19383461773395538,-0.25825002789497375,-150.46775817871094,0.5022687062944169,-1.4914009934404007,0.037478818988893305,-0.831224791176889
0.22929108142852783,0.12823203206062317,-150.38722229003906,0.5022687062944169,-1.4914009934404007,0.037478818988893305,-0.831224791176889
-0.39135485887527466,0.5065939426422119,-150.40274047851562,0.5022687062944169,-1.4914009934404007,0.037478818988893305,-0.831224791176889
0.1286521703004837,-0.06750623136758804,-150.44891357421875,0.5022687062944169,-1.4914009934404007,0.037478818988893305,-0.831224791176889
0.13765600323677063,-0.3275173306465149,-150.42654418945312,0.5022687062944169,-1.4914009934404007,0.037478818988893305,-0.831224791176889
-0.5111629366874695,0.2690148651599884,-150.39341735839844,0.5022687062944169,-1.4914009934404007,0.037478818988893305,-0.831224791176889
-0.08346128463745117,0.18157745897769928,-150.43104553222656,0.5022687062944169,-1.4914009934404007,0.037478818988893305,-0.831224791176889
0.1750727891921997,-0.1711345613002777,-150.4524383544922,0.5022687062944169,-1.4914009934404007,0.037478818988893305,-0.831224791176889
-0.02961386740207672,0.01900789514183998,-150.4129180908203,0.5022687062944169,-1.4914009934404007,0.037478818988893305,-0.831224791176889
-0.15753085911273956,0.3402242660522461,-150.39305114746094,0.5022687062944169,-1.4914009934404007,0.037478818988893305,-0.831224791176889
-0.20145156979560852,0.5932804942131042,-150.4552459716797,0.5022687062944169,-1.4914009934404007,0.037478818988893305,-0.831224791176889
0.2722182273864746,-0.26877644658088684,-150.5148162841797,0.5022687062944169,-1.4914009934404007,0.037478818988893305,-0.831224791176889
0.0044078887440264225,-0.31974223256111145,-150.503173828125,0.5022687062944169,-1.4914009934404007,0.037478818988893305,-0.831224791176889
-0.4249807596206665,0.018433937802910805,-150.492919921875,0.5022687062944169,-1.4914009934404007,0.037478818988893305,-0.831224791176889
0.04346497356891632,0.0063597955740988255,-150.5342254638672,0.5022687062944169,-1.4914009934404007,0.037478818988893305,-0.831224791176889
-0.045018091797828674,0.08004480600357056,-150.5314178466797,0.5022687062944169,-1.4914009934404007,0.037478818988893305,-0.831224791176889
-0.029269197955727577,0.4766511619091034,-150.52142333984375,0.5022687062944169,-1.4914009934404007,0.037478818988893305,-0.831224791176889
-0.11384337395429611,-0.07331329584121704,-150.5181427001953,0.5022687062944169,-1.4914009934404007,0.037478818988893305,-0.831224791176889
-0.16612407565116882,-0.1784646362066269,-150.49220275878906,0.5022687062944169,-1.4914009934404007,0.037478818988893305,-0.831224791176889
-0.14357629418373108,0.046285536140203476,-150.48365783691406,0.5022687062944169,-1.4914009934404007,0.037478818988893305,-0.831224791176889
0.0961126908659935,0.22269652783870697,-150.51620483398438,0.5022687062944169,-1.4914009934404007,0.037478818988893305,-0.831224791176889
0.23070581257343292,0.5415971279144287,-150.52964782714844,0.5022687062944169,-1.4914009934404007,0.037478818988893305,-0.831224791176889
0.02429722249507904,0.32678303122520447,-150.59600830078125,0.5022687062944169,-1.4914009934404007,0.037478818988893305,-0.831224791176889
-0.18689772486686707,-0.5050253868103027,-150.60421752929688,0.5022687062944169,-1.4914009934404007,0.037478818988893305,-0.831224791176889
-0.27114373445510864,-0.4404357671737671,-150.5740966796875,0.5022687062944169,-1.4914009934404007,0.037478818988893305,-0.831224791176889
-0.4514103829860687,-0.38690584897994995,-150.5481414794922,0.5022687062944169,-1.4914009934404007,0.037478818988893305,-0.831224791176889
0.11180920898914337,0.19278326630592346,-150.4694366455078,0.5022687062944169,-1.4914009934404007,0.037478818988893305,-0.831224791176889
-0.11264371126890182,0.8706603646278381,-150.47561645507812,0.5022687062944169,-1.4914009934404007,0.037478818988893305,-0.831224791176889
0.4679546654224396,0.0993267223238945,-150.49559020996094,0.5022687062944169,-1.4914009934404007,0.037478818988893305,-0.831224791176889
0.0320555754005909,-0.04881402105093002,-150.46202087402344,0.5022687062944169,-1.4914009934404007,0.037478818988893305,-0.831224791176889
-0.5722255110740662,0.11392585188150406,-150.4573211669922,0.5022687062944169,-1.4914009934404007,0.037478818988893305,-0.831224791176889
-0.1793944537639618,0.008088369853794575,-150.4873809814453,0.5022687062944169,-1.4914009934404007,0.037478818988893305,-0.831224791176889
0.32854369282722473,-0.15227104723453522,-150.47975158691406,0.5022687062944169,-1.4914009934404007,0.037478818988893305,-0.831224791176889
-0.23227298259735107,0.2267640084028244,-150.45928955078125,0.5022687062944169,-1.4914009934404007,0.037478818988893305,-0.831224791176889
0.05049419030547142,0.15225546061992645,-150.46170043945312,0.5022687062944169,-1.4914009934404007,0.037478818988893305,-0.831224791176889
-0.035855501890182495,0.06047482416033745,-150.4842529296875,0.5022687062944169,-1.4914009934404007,0.037478818988893305,-0.831224791176889
-0.03491726145148277,0.03146251663565636,-150.47976684570312,0.5022687062944169,-1.4914009934404007,0.037478818988893305,-0.831224791176889
-0.19141820073127747,-0.4681333899497986,-150.4613037109375,0.5022687062944169,-1.4914009934404007,0.037478818988893305,-0.831224791176889
-0.20218472182750702,0.4454745054244995,-150.45179748535156,0.5022687062944169,-1.4914009934404007,0.037478818988893305,-0.831224791176889
0.22236225008964539,0.511638343334198,-150.4967498779297,0.5022687062944169,-1.4914009934404007,0.037478818988893305,-0.831224791176889
-0.06884726881980896,0.010976129211485386,-150.5484161376953,0.5022687062944169,-1.4914009934404007,0.037478818988893305,-0.831224791176889
0.3077038824558258,-0.2919190526008606,-150.5404052734375,0.5022687062944169,-1.4914009934404007,0.037478818988893305,-0.831224791176889
-0.6074395179748535,-0.27016204595565796,-150.537841796875,0.5022687062944169,-1.4914009934404007,0.037478818988893305,-0.831224791176889
-0.06918758153915405,0.48537102341651917,-150.56373596191406,0.5022687062944169,-1.4914009934404007,0.037478818988893305,-0.831224791176889
-0.224391371011734,-0.14997558295726776,-150.562744140625,0.5022687062944169,-1.4914009934404007,0.037478818988893305,-0.831224791176889
0.24499545991420746,0.5473739504814148,-150.53297424316406,0.5022687062944169,-1.4914009934404007,0.037478818988893305,-0.831224791176889
-0.009104152210056782,-0.3262850046157837,-150.56512451171875,0.5022687062944169,-1.4914009934404007,0.037478818988893305,-0.831224791176889
0.024295728653669357,-0.16710291802883148,-150.53189086914062,0.5022687062944169,-1.4914009934404007,0.037478818988893305,-0.831224791176889
-0.3598513901233673,0.26308804750442505,-150.5146484375,0.5022687062944169,-1.4914009934404007,0.037478818988893305,-0.831224791176889
0.03617393225431442,0.2726196050643921,-150.5185546875,0.5022687062944169,-1.4914009934404007,0.037478818988893305,-0.831224791176889
0.08312360942363739,0.1872340440750122,-150.54493713378906,0.5022687062944169,-1.4914009934404007,0.037478818988893305,-0.831224791176889
-0.02126537635922432,0.11716528981924057,-150.5797119140625,0.5022687062944169,-1.4914009934404007,0.037478818988893305,-0.831224791176889
-0.011051902547478676,-0.15664297342300415,-150.6282958984375,0.5022687062944169,-1.4914009934404007,0.037478818988893305,-0.831224791176889
0.027068478986620903,-0.003848163178190589,-150.61343383789062,0.5022687062944169,-1.4914009934404007,0.037478818988893305,-0.831224791176889
-0.676067054271698,-0.12171294540166855,-150.62054443359375,0.5022687062944169,-1.4914009934404007,0.037478818988893305,-0.831224791176889
-0.3179740309715271,-0.4929633140563965,-150.6268768310547,0.5022687062944169,-1.4914009934404007,0.037478818988893305,-0.831224791176889
-0.032320115715265274,0.06811589747667313,-150.61395263671875,0.5022687062944169,-1.4914009934404007,0.037478818988893305,-0.831224791176889
0.5120181441307068,0.5297244787216187,-150.5700225830078,0.5022687062944169,-1.4914009934404007,0.037478818988893305,-0.831224791176889
0.020224446430802345,0.43263790011405945,-150.57774353027344,0.5022687062944169,-1.4914009934404007,0.037478818988893305,-0.831224791176889
0.1389448344707489,0.15723547339439392,-150.5794677734375,0.5022687062944169,-1.4914009934404007,0.037478818988893305,-0.831224791176889
-0.20837604999542236,-0.20867334306240082,-150.58316040039062,0.5022687062944169,-1.4914009934404007,0.037478818988893305,-0.831224791176889
-0.151234969496727,-0.0331779345870018,-150.59634399414062,0.5022687062944169,-1.4914009934404007,0.037478818988893305,-0.831224791176889
-0.17103329300880432,0.15793846547603607,-150.59056091308594,0.5022687062944169,-1.4914009934404007,0.037478818988893305,-0.831224791176889
