faccX,faccY,yaw,posX,posY,velX,velY
0,0,-100.66625213623047,0.0,0.0,0.0,0.0
0,0,-100.66633605957031,0.0,0.0,0.0,0.0
0,0,-100.66694641113281,0.0,0.0,0.0,0.0
0.05482812970876694,-0.2252884805202484,-100.67139434814453,3.807509007553259e-06,-1.5645033369461694e-05,0.00045690108090639113,-0.0018774040043354034
-0.3533070981502533,-0.5886105298995972,-100.64398193359375,-9.30517911911011e-06,-0.00010345586472087435,-0.0020304236561059954,-0.008659895757834116
0.07659626007080078,-1.840502142906189,-100.63008117675781,-6.236160380972757e-05,-0.0004164758407407336,-0.0043363473067681,-0.028902501364549
0.37229135632514954,-2.2498726844787598,-100.531982421875,-0.00010346130778392156,-0.0011822380042738384,-0.0005956171701351804,-0.06298895825942358
-0.8456746339797974,-1.0216108560562134,-100.43075561523438,-0.0001462620993455251,-0.002459240332245827,-0.004540477817257246,-0.09025132109721502
-0.716931164264679,-1.6195112466812134,-100.52373504638672,-0.0003304510211779012,-0.004146840274333954,-0.01756219280262788,-0.11226067195336024
-0.12078208476305008,-0.8358414769172668,-100.6102066040039,-0.0006813287657375137,-0.006188362079362074,-0.024543136544525623,-0.13272194465001425
0.29528847336769104,-1.52704656124115,-100.69831848144531,-0.0010782625422709516,-0.00856448393728998,-0.023088916639486947,-0.15241267830133437
-0.44319406151771545,-1.7188301086425781,-100.7857894897461,-0.0014733490409950414,-0.011330103344387478,-0.024321463207403818,-0.17946165055036545
-0.4340578019618988,-1.0825601816177368,-100.81046295166016,-0.0019396270294156337,-0.014515671845939424,-0.03163189540306727,-0.20280656963586807
0.5270086526870728,-0.8212776780128479,-100.87582397460938,-0.0024603703659441733,-0.018027992302344906,-0.030857304980357485,-0.21867188513278962
-0.8643521666526794,-0.3669789433479309,-100.94475555419922,-0.002998085415197743,-0.021755041542152565,-0.03366850093007087,-0.22857402364412943
0.07741421461105347,-0.8842724561691284,-100.89599609375,-0.0036138755662573708,-0.02565150106118785,-0.04022631719708442,-0.23900111864010493
-0.2588694393634796,-1.2673476934432983,-100.94013977050781,-0.004296915243483252,-0.02978427110446824,-0.04173844407002131,-0.2569312865535418
0.145471453666687,-0.9915183186531067,-100.84397888183594,-0.00500043083810144,-0.03422332490897841,-0.042683427284161246,-0.2757551699876785
-0.08813630789518356,-0.23688875138759613,-100.84378051757812,-0.005707839685492218,-0.03890455045530366,-0.04220563440273205,-0.285991895571351
-1.529715895652771,0.19933873414993286,-100.88591003417969,-0.00652361777300636,-0.043673689688245455,-0.055687736098965004,-0.2863048123816649
0.3236680328845978,-1.3900223970413208,-100.78426361083984,-0.0075355000317924555,-0.04852812292675177,-0.06573813495536644,-0.2962271762390931
1.2430315017700195,0.08043014258146286,-100.83951568603516,-0.008522337035586436,-0.05355618643729637,-0.0526823054999113,-0.3071404450262586
-0.4577399492263794,-0.21611496806144714,-101.0145263671875,-0.009345841324991649,-0.058684616411725676,-0.0461382092287143,-0.30827115190525844
0.05765455588698387,-1.1689295768737793,-101.14317321777344,-0.010142595186674345,-0.06391865259243382,-0.04947225417320926,-0.3198131897797187
0,-0.8239114284515381,-101.23282623291016,-0.01096312896762457,-0.06938726415857671,-0.048991799540817726,-0.33642019815742963
-0.07880544662475586,-0.07588351517915726,-101.23015594482422,-0.011785131560431584,-0.07505675322117489,-0.04964851159602403,-0.3439184893543521
-0.49458080530166626,-0.7291860580444336,-101.19977569580078,-0.012652425243415763,-0.08084463565299906,-0.05442673036207755,-0.3506274024645487
0,0,-101.04747009277344,-0.013593883305374116,-0.08673906361477239,-0.058548237072924766,-0.3567039529482523
-0.30729731917381287,-0.44008636474609375,-100.82144927978516,-0.014591027348198822,-0.09271469105035063,-0.061109048066039874,-0.3603713393211364
0.4479510188102722,0.09357327222824097,-100.74549865722656,-0.01559974386460251,-0.09874494344823886,-0.05993693390240271,-0.36325894842545187
-0.3221339285373688,-0.12240805476903915,-100.78426361083984,-0.01658995546504027,-0.10480126167078395,-0.05888845815012852,-0.3634992382799585
-0.9816564917564392,-0.31219157576560974,-100.86814880371094,-0.01658995546504027,-0.10480126167078395,-0.05888845815012852,-0.3634992382799585
0.6613290905952454,-0.41494160890579224,-100.93961334228516,-0.017593674725956385,-0.11091007766882988,-0.06155785315980514,-0.36955868148555354
1.2412526607513428,0.43972328305244446,-100.97659301757812,-0.018487515212554068,-0.11706766807732892,-0.04570300523191691,-0.3693521675343314
0.12922967970371246,2.343366861343384,-101.14131927490234,-0.019154059581665526,-0.12303026738731807,-0.034282319061458115,-0.3461597496643662
-0.2033960223197937,0.6279141902923584,-101.29525756835938,-0.01973058200648261,-0.1285932575864717,-0.03490037191659213,-0.3213990742340683
0,-0.8652186393737793,-101.34524536132812,-0.020326379595531352,-0.13396638829933682,-0.03659533876925707,-0.3233766113097468
-1.1029270887374878,-0.6745727062225342,-101.44114685058594,-0.021012894067292405,-0.13946292844238792,-0.04578639784206947,-0.3362082058563828
-0.9077567458152771,-1.5759642124176025,-101.4272232055664,-0.021915631519837504,-0.14522268582601097,-0.06254209646334251,-0.3549626801783839
-0.6373711228370667,-1.0037275552749634,-101.5373764038086,-0.023065300340660736,-0.15131787575729602,-0.07541816203544538,-0.37646011157582193
1.5150398015975952,0.4377392530441284,-101.62909698486328,-0.024261320494115345,-0.15763151569343686,-0.06810425637910764,-0.3811766807610789
-0.28093093633651733,0.11370903998613358,-101.7192153930664,-0.02531068942923512,-0.16394616535243886,-0.05782001583526532,-0.37658127831916005
-0.36969831585884094,-0.13493035733699799,-101.7674789428711,-0.026319538946780886,-0.17022399369368535,-0.06324192627022664,-0.37675812263041725
0.6173341274261475,0.09588370472192764,-101.73074340820312,-0.027356374119925822,-0.1765060073106239,-0.06117829450716575,-0.3770835114022095
-0.32019543647766113,-0.28873682022094727,-101.68318939208984,-0.02835537773039605,-0.18280412507812593,-0.058702138749261695,-0.37869062069803466
0,-0.245566725730896,-101.75023651123047,-0.02935598250375025,-0.1891527398360065,-0.061370434053242204,-0.38314315024763335
-0.3023975193500519,-1.503093957901001,-101.8062515258789,-0.030399822899036928,-0.19565989377649706,-0.0638904133811593,-0.3977153226112325
0.850688099861145,-0.39872869849205017,-101.94477844238281,-0.03142658738729853,-0.20242055350448934,-0.05932132521023353,-0.41356384474784125
-0.26519548892974854,-0.4353908896446228,-102.04151916503906,-0.03237461693170997,-0.2093712092216851,-0.05444222011913856,-0.42051484131564687
0.08708284050226212,0.4815903604030609,-101.98683166503906,-0.03237461693170997,-0.2093712092216851,-0.05444222011913856,-0.42051484131564687
-0.1950962394475937,0.2673131823539734,-101.91275024414062,-0.033289488197511256,-0.21632778271980996,-0.05534233177701632,-0.4142739784593383
-0.5811873078346252,0.5930759906768799,-101.8904037475586,-0.03426576897346724,-0.22317259977933845,-0.06181136133770148,-0.40710406868408117
-0.8446166515350342,2.8622608184814453,-101.95699310302734,-0.03539497249294071,-0.22971771364565938,-0.07369306099911531,-0.3783095952744285
2.0503501892089844,0.5071443915367126,-102.02845001220703,-0.0365394586805875,-0.23578888709398194,-0.06364528151849906,-0.3502312185242772
0.726936936378479,-0.6858156323432922,-102.04090881347656,-0.037407346211063355,-0.24163848179444256,-0.040501222138603535,-0.3517201455309987
-0.3001319169998169,-1.0631375312805176,-102.26651000976562,-0.03805272734258323,-0.2476219393007664,-0.03694451364378135,-0.36629475522786376
-1.4164904356002808,-1.2073105573654175,-102.43437957763672,-0.03878767912224348,-0.2538845218940534,-0.05124969991544883,-0.3852151559665799
-0.1768830418586731,-0.4501851201057434,-102.31491088867188,-0.03975249172343561,-0.2604198783599875,-0.06452781222760678,-0.39902761994550623
0.056514184921979904,0.24147512018680573,-102.21807098388672,-0.04083631420896077,-0.26708483244240694,-0.06553088603541256,-0.4007668699448307
-0.14973364770412445,-0.3028219938278198,-102.09126281738281,-0.04193496921668863,-0.2737685404743792,-0.06630771489193044,-0.40127809389183916
-0.14585097134113312,0,-102.04020690917969,-0.043060624507876726,-0.2804775380110368,-0.06877092005064092,-0.403801610507071
0.30080491304397583,-0.11141800880432129,-102.09451293945312,-0.04419604581832471,-0.28721530221454383,-0.06747963720311723,-0.4047300939137736
-0.17873531579971313,0,-102.20049285888672,-0.04531222938301248,-0.2939685411414959,-0.06646239055941504,-0.4056585773204763
-0.18853257596492767,-0.4463547468185425,-102.29719543457031,-0.04644544060704194,-0.30076051428758843,-0.06952295632412038,-0.4093782002106308
0.40432530641555786,-0.4491366744041443,-102.3135986328125,-0.04758917093949599,-0.3076456711953505,-0.06772468357036512,-0.4168406287208199
0.7343057990074158,0.3039788603782654,-102.29721069335938,-0.04863884406112548,-0.314603095411116,-0.05823609102517368,-0.41805027717103554
-0.38900431990623474,0.2149444818496704,-102.31134796142578,-0.04863884406112548,-0.314603095411116,-0.05823609102517368,-0.41805027717103554
-1.0265005826950073,-0.7093959450721741,-102.3761215209961,-0.04970774452978124,-0.32160493693780146,-0.07003196521351736,-0.4221707060312231
-0.6207560300827026,0.6859647631645203,-102.44734954833984,-0.05098933677033831,-0.32864274253706544,-0.08375910365333161,-0.42236596588045355
0.17394278943538666,0.9498578906059265,-102.61532592773438,-0.052416350528494346,-0.3355685765063389,-0.08748254732539258,-0.4087341104323665
0.2700997591018677,0.11196289211511612,-102.77671813964844,-0.05384355669582469,-0.3423070741258561,-0.0837821927542488,-0.39988560390969113
0.34726274013519287,0.3392614424228668,-102.85286712646484,-0.05519705417928182,-0.3489404991677858,-0.07863750526060662,-0.3961254011218746
-0.17230108380317688,0.6627435684204102,-102.85379791259766,-0.05649552915193554,-0.35547300550517513,-0.07717949145783981,-0.3877753593648473
0.09249777346849442,-1.7696951627731323,-102.88069152832031,-0.05778739590611723,-0.36201279979975265,-0.07784451904396217,-0.3969999559844533
0.9963321089744568,-0.07601511478424072,-102.89649200439453,-0.05900919137056917,-0.36875764005765727,-0.0687709366902709,-0.4123808749640981
-0.819408118724823,-0.8033754229545593,-102.90829467773438,-0.06014308726052857,-0.3756917234277352,-0.06729657010485729,-0.41970912944525474
0.9267429113388062,-0.4494651257991791,-103.00011444091797,-0.06125724295723355,-0.3827738784010418,-0.06640211349974076,-0.43014946735153586
-0.16292288899421692,0.4519757926464081,-103.07957458496094,-0.062310901791788637,-0.3899428618383697,-0.060036946646869184,-0.43012854512780896
-0.6192978024482727,0.5253725051879883,-103.05155944824219,-0.06336583845058663,-0.39704379951426133,-0.06655545240888994,-0.42198397597918896
-0.3709671199321747,-0.05064695328474045,-103.01509094238281,-0.06454386438812233,-0.40404389872836566,-0.07480766009539366,-0.4180279297133286
-0.7106220126152039,-0.3171045780181885,-103.09812927246094,-0.06586576907947246,-0.41103656919103937,-0.08382090286662182,-0.42109252580751966
0.35160374641418457,-0.8061860203742981,-103.18683624267578,-0.06728771595129122,-0.41813278424605305,-0.08681272175163031,-0.4304532807941237
1.789997935295105,1.1374492645263672,-103.23965454101562,-0.06728771595129122,-0.41813278424605305,-0.08681272175163031,-0.4304532807941237
0.08565060049295425,-1.329216718673706,-103.28045654296875,-0.06860434127661089,-0.42532032277693754,-0.07118231728672982,-0.4320513429120182
-0.7228085994720459,0,-103.2856674194336,-0.06983496031465215,-0.4326134852087124,-0.07649196727822224,-0.44312814890096575
-0.478084921836853,1.5280327796936035,-103.18175506591797,-0.07119322181938009,-0.4398928409695831,-0.08649941328912973,-0.43039454240351904
-0.2546546161174774,0.6268775463104248,-103.06306457519531,-0.07268576339766797,-0.4469164367925581,-0.09260557610541582,-0.4124369563534855
-0.4541143774986267,0.14666157960891724,-103.05500030517578,-0.07427840973509268,-0.4537366680702607,-0.09851198438555002,-0.4059907969708243
0,-0.08537130057811737,-103.12435913085938,-0.07595181186217814,-0.46049892508373064,-0.10229627086470525,-0.40548004464556764
0.6438724994659424,-0.6335974335670471,-103.1728744506836,-0.07761203634190476,-0.4673068542121391,-0.09693066670248907,-0.411471450763444
0.10241396725177765,-0.15977764129638672,-103.25751495361328,-0.07917572200453529,-0.47421980721617313,-0.09071161281317473,-0.4180829097206393
0.31809890270233154,0.2096962332725525,-103.32733154296875,-0.08065837993545251,-0.4811843891426299,-0.08720733889689049,-0.4176669214541712
0.21034392714500427,0,-103.31147766113281,-0.08207513816499462,-0.4881309422617777,-0.08280364864816268,-0.41591945284356663
-0.23240284621715546,-0.2717164158821106,-103.3628158569336,-0.08345673084517734,-0.4950818023380512,-0.08298747297376394,-0.41818375630925086
0.24641691148281097,-0.599435031414032,-103.4415512084961,-0.08483888219576328,-0.5021120282381565,-0.08287068909655014,-0.4254433517033854
-2.173090696334839,0,-103.42688751220703,-0.08635385713798718,-0.5092443781992834,-0.09892630397031704,-0.43043864363183565
-0.34498950839042664,0.5075259804725647,-103.57848358154297,-0.0881774955517095,-0.5163831107333923,-0.11991030567636092,-0.4262092604612309
1.0431463718414307,0.01605340652167797,-103.7835922241211,-0.0881774955517095,-0.5163831107333923,-0.11991030567636092,-0.4262092604612309
0.5782294869422913,0.1505834311246872,-103.88225555419922,-0.0881774955517095,-0.5163831107333923,-0.11991030567636092,-0.4262092604612309
0.3372002840042114,0.3210969567298889,-103.8515396118164,-0.0881774955517095,-0.5163831107333923,-0.11991030567636092,-0.4262092604612309
0.06600023806095123,2.7725565433502197,-103.84374237060547,-0.0881774955517095,-0.5163831107333923,-0.11991030567636092,-0.4262092604612309
-0.2529534697532654,2.4957714080810547,-104.1166763305664,-0.0881774955517095,-0.5163831107333923,-0.11991030567636092,-0.4262092604612309
1.124114990234375,1.7878749370574951,-104.71731567382812,-0.0881774955517095,-0.5163831107333923,-0.11991030567636092,-0.4262092604612309
-0.5083288550376892,1.5198462009429932,-105.59415435791016,-0.0881774955517095,-0.5163831107333923,-0.11991030567636092,-0.4262092604612309
0.5702410340309143,2.1295077800750732,-106.77294921875,-0.0881774955517095,-0.5163831107333923,-0.11991030567636092,-0.4262092604612309
-0.06968935579061508,1.9177391529083252,-108.12495422363281,-0.0881774955517095,-0.5163831107333923,-0.11991030567636092,-0.4262092604612309
-0.27972182631492615,1.6820592880249023,-109.58257293701172,-0.0881774955517095,-0.5163831107333923,-0.11991030567636092,-0.4262092604612309
0.2195315957069397,1.6479560136795044,-111.03192901611328,-0.0881774955517095,-0.5163831107333923,-0.11991030567636092,-0.4262092604612309
-0.1527675986289978,1.1960761547088623,-112.5439682006836,-0.0881774955517095,-0.5163831107333923,-0.11991030567636092,-0.4262092604612309
-0.1988687664270401,0.7364804744720459,-114.03801727294922,-0.0881774955517095,-0.5163831107333923,-0.11991030567636092,-0.4262092604612309
0.08030034601688385,0.3457508087158203,-115.4549789428711,-0.0881774955517095,-0.5163831107333923,-0.11991030567636092,-0.4262092604612309
-0.1735467165708542,0.6224076151847839,-116.82388305664062,-0.0881774955517095,-0.5163831107333923,-0.11991030567636092,-0.4262092604612309
0.13515058159828186,0.44445112347602844,-118.07715606689453,-0.0881774955517095,-0.5163831107333923,-0.11991030567636092,-0.4262092604612309
-0.19100211560726166,0.4620954394340515,-119.2726058959961,-0.0881774955517095,-0.5163831107333923,-0.11991030567636092,-0.4262092604612309
-0.12327271699905396,0.5225634574890137,-120.46284484863281,-0.0881774955517095,-0.5163831107333923,-0.11991030567636092,-0.4262092604612309
0.04295382276177406,0.6024898886680603,-121.59734344482422,-0.0881774955517095,-0.5163831107333923,-0.11991030567636092,-0.4262092604612309
0.08652696758508682,0.4017127454280853,-122.71630096435547,-0.0881774955517095,-0.5163831107333923,-0.11991030567636092,-0.4262092604612309
0.16713663935661316,0.3464478850364685,-123.80255126953125,-0.0881774955517095,-0.5163831107333923,-0.11991030567636092,-0.4262092604612309
0.05700215324759483,0.2003387063741684,-124.873779296875,-0.0881774955517095,-0.5163831107333923,-0.11991030567636092,-0.4262092604612309
0.08401338011026382,0.2421221137046814,-125.89163208007812,-0.0881774955517095,-0.5163831107333923,-0.11991030567636092,-0.4262092604612309
-0.183464914560318,0.3723942041397095,-126.90382385253906,-0.0881774955517095,-0.5163831107333923,-0.11991030567636092,-0.4262092604612309
0.25256872177124023,0.1393001824617386,-127.8587646484375,-0.0881774955517095,-0.5163831107333923,-0.11991030567636092,-0.4262092604612309
-0.23837906122207642,0.35248902440071106,-128.80519104003906,-0.0881774955517095,-0.5163831107333923,-0.11991030567636092,-0.4262092604612309
-0.23414190113544464,1.0746395587921143,-129.77259826660156,-0.0881774955517095,-0.5163831107333923,-0.11991030567636092,-0.4262092604612309
-0.3389056324958801,0.6735572814941406,-130.76400756835938,-0.0881774955517095,-0.5163831107333923,-0.11991030567636092,-0.4262092604612309
-0.3041451573371887,1.4797157049179077,-131.74205017089844,-0.0881774955517095,-0.5163831107333923,-0.11991030567636092,-0.4262092604612309
0.8513410687446594,0.5507621765136719,-132.69381713867188,-0.0881774955517095,-0.5163831107333923,-0.11991030567636092,-0.4262092604612309
-0.6656858325004578,0.669349193572998,-133.75914001464844,-0.0881774955517095,-0.5163831107333923,-0.11991030567636092,-0.4262092604612309
-0.37686192989349365,0.6604784727096558,-134.9409637451172,-0.0881774955517095,-0.5163831107333923,-0.11991030567636092,-0.4262092604612309
0.18223586678504944,0.4356430768966675,-136.16453552246094,-0.0881774955517095,-0.5163831107333923,-0.11991030567636092,-0.4262092604612309
0.10903818160295486,0.11785893887281418,-137.39132690429688,-0.0881774955517095,-0.5163831107333923,-0.11991030567636092,-0.4262092604612309
0.14159347116947174,-0.008676689118146896,-138.6741485595703,-0.0881774955517095,-0.5163831107333923,-0.11991030567636092,-0.4262092604612309
-0.2316335290670395,0.8116989135742188,-139.9894561767578,-0.0881774955517095,-0.5163831107333923,-0.11991030567636092,-0.4262092604612309
0.47035351395606995,-0.1828361600637436,-141.45164489746094,-0.0881774955517095,-0.5163831107333923,-0.11991030567636092,-0.4262092604612309
-0.19566099345684052,0.8182797431945801,-143.00448608398438,-0.0881774955517095,-0.5163831107333923,-0.11991030567636092,-0.4262092604612309
0.3866308629512787,0.6581313014030457,-144.53311157226562,-0.0881774955517095,-0.5163831107333923,-0.11991030567636092,-0.4262092604612309
-0.1605864316225052,-0.1780499666929245,-146.140869140625,-0.0881774955517095,-0.5163831107333923,-0.11991030567636092,-0.4262092604612309
0.23331573605537415,0.4375774562358856,-147.90457153320312,-0.0881774955517095,-0.5163831107333923,-0.11991030567636092,-0.4262092604612309
-1.0645557641983032,-0.08493603765964508,-149.7794189453125,-0.0881774955517095,-0.5163831107333923,-0.11991030567636092,-0.4262092604612309
0.26084521412849426,-0.3245921730995178,-151.6083221435547,-0.0881774955517095,-0.5163831107333923,-0.11991030567636092,-0.4262092604612309
0.2571375370025635,0.5510389804840088,-153.41758728027344,-0.0881774955517095,-0.5163831107333923,-0.11991030567636092,-0.4262092604612309
0.6038922667503357,0.923875629901886,-155.12583923339844,-0.0881774955517095,-0.5163831107333923,-0.11991030567636092,-0.4262092604612309
0.052960220724344254,-0.02576093003153801,-156.75416564941406,-0.0881774955517095,-0.5163831107333923,-0.11991030567636092,-0.4262092604612309
0.2917403280735016,0.2228306233882904,-158.39617919921875,-0.0881774955517095,-0.5163831107333923,-0.11991030567636092,-0.4262092604612309
0.15327009558677673,0.6989233493804932,-160.06146240234375,-0.0881774955517095,-0.5163831107333923,-0.11991030567636092,-0.4262092604612309
0.16801254451274872,0.41327419877052307,-161.71322631835938,-0.0881774955517095,-0.5163831107333923,-0.11991030567636092,-0.4262092604612309
-0.1689240038394928,0.4033387303352356,-163.34542846679688,-0.0881774955517095,-0.5163831107333923,-0.11991030567636092,-0.4262092604612309
0.04402855411171913,0.5110916495323181,-164.94915771484375,-0.0881774955517095,-0.5163831107333923,-0.11991030567636092,-0.4262092604612309
0.5817806124687195,0.1107049435377121,-166.49603271484375,-0.0881774955517095,-0.5163831107333923,-0.11991030567636092,-0.4262092604612309
-0.41586050391197205,0.5185931921005249,-168.03872680664062,-0.0881774955517095,-0.5163831107333923,-0.11991030567636092,-0.4262092604612309
0.5825368762016296,0.3329802453517914,-169.60763549804688,-0.0881774955517095,-0.5163831107333923,-0.11991030567636092,-0.4262092604612309
0.30956047773361206,0.20208008587360382,-171.21304321289062,-0.0881774955517095,-0.5163831107333923,-0.11991030567636092,-0.4262092604612309
0.3815611004829407,0.3046221435070038,-172.82582092285156,-0.0881774955517095,-0.5163831107333923,-0.11991030567636092,-0.4262092604612309
-0.1499253660440445,0.3153144121170044,-174.4571075439453,-0.0881774955517095,-0.5163831107333923,-0.11991030567636092,-0.4262092604612309
0.4028266370296478,0.022951876744627953,-176.16287231445312,-0.0881774955517095,-0.5163831107333923,-0.11991030567636092,-0.4262092604612309
0.43819624185562134,0.13782250881195068,-177.96685791015625,-0.0881774955517095,-0.5163831107333923,-0.11991030567636092,-0.4262092604612309
0.02498052828013897,-0.24779529869556427,-179.6861114501953,-0.0881774955517095,-0.5163831107333923,-0.11991030567636092,-0.4262092604612309
0.42753371596336365,-0.26830384135246277,178.61880493164062,-0.0881774955517095,-0.5163831107333923,-0.11991030567636092,-0.4262092604612309
0.7777299880981445,-0.25048089027404785,176.89999389648438,-0.0881774955517095,-0.5163831107333923,-0.11991030567636092,-0.4262092604612309
-0.14270123839378357,0.6782045960426331,175.16494750976562,-0.0881774955517095,-0.5163831107333923,-0.11991030567636092,-0.4262092604612309
-0.19152721762657166,-0.07174402475357056,173.53515625,-0.0881774955517095,-0.5163831107333923,-0.11991030567636092,-0.4262092604612309
-0.1039246991276741,0.4450977146625519,172.0347137451172,-0.0881774955517095,-0.5163831107333923,-0.11991030567636092,-0.4262092604612309
0.47646987438201904,0.32692575454711914,170.52542114257812,-0.0881774955517095,-0.5163831107333923,-0.11991030567636092,-0.4262092604612309
0.25777292251586914,0.6980229616165161,168.9764862060547,-0.0881774955517095,-0.5163831107333923,-0.11991030567636092,-0.4262092604612309
0.34771326184272766,-0.21607959270477295,167.58749389648438,-0.0881774955517095,-0.5163831107333923,-0.11991030567636092,-0.4262092604612309
-0.5128209590911865,-0.3004896342754364,166.5383758544922,-0.0881774955517095,-0.5163831107333923,-0.11991030567636092,-0.4262092604612309
-0.5018865466117859,-1.9974350929260254,165.86526489257812,-0.0881774955517095,-0.5163831107333923,-0.11991030567636092,-0.4262092604612309
-0.054451435804367065,-1.082659125328064,165.5574188232422,-0.0881774955517095,-0.5163831107333923,-0.11991030567636092,-0.4262092604612309
-0.2761934697628021,-0.10568730533123016,165.5853271484375,-0.0881774955517095,-0.5163831107333923,-0.11991030567636092,-0.4262092604612309
0.8598734736442566,0.3942115008831024,165.62753295898438,-0.0881774955517095,-0.5163831107333923,-0.11991030567636092,-0.4262092604612309
1.2442737817764282,-0.0797007754445076,165.50955200195312,-0.0881774955517095,-0.5163831107333923,-0.11991030567636092,-0.4262092604612309
0.46903952956199646,-0.44212183356285095,165.4773712158203,-0.0881774955517095,-0.5163831107333923,-0.11991030567636092,-0.4262092604612309
0.31319132447242737,0.44350558519363403,165.54156494140625,-0.0881774955517095,-0.5163831107333923,-0.11991030567636092,-0.4262092604612309
-0.17606033384799957,0.0024944432079792023,165.53932189941406,-0.0881774955517095,-0.5163831107333923,-0.11991030567636092,-0.4262092604612309
-0.3554438054561615,0.49418339133262634,165.53689575195312,-0.0881774955517095,-0.5163831107333923,-0.11991030567636092,-0.4262092604612309
-0.2563745379447937,0.17352403700351715,165.54981994628906,-0.0881774955517095,-0.5163831107333923,-0.11991030567636092,-0.4262092604612309
0.10802759975194931,0.19082200527191162,165.54483032226562,-0.0881774955517095,-0.5163831107333923,-0.11991030567636092,-0.4262092604612309
0.36588698625564575,0.07698375731706619,165.5359649658203,-0.0881774955517095,-0.5163831107333923,-0.11991030567636092,-0.4262092604612309
0.2515275180339813,0.18389542400836945,165.54249572753906,-0.0881774955517095,-0.5163831107333923,-0.11991030567636092,-0.4262092604612309
-0.0853823646903038,0.15315605700016022,165.54196166992188,-0.0881774955517095,-0.5163831107333923,-0.11991030567636092,-0.4262092604612309
-0.12851330637931824,0.2618529200553894,165.5418243408203,-0.0881774955517095,-0.5163831107333923,-0.11991030567636092,-0.4262092604612309
-0.0014341878704726696,0.19098404049873352,165.54351806640625,-0.0881774955517095,-0.5163831107333923,-0.11991030567636092,-0.4262092604612309
0.15430143475532532,0.1362130492925644,165.5428009033203,-0.0881774955517095,-0.5163831107333923,-0.11991030567636092,-0.4262092604612309
0.15448123216629028,0.15381301939487457,165.54147338867188,-0.0881774955517095,-0.5163831107333923,-0.11991030567636092,-0.4262092604612309
0.018064336851239204,0.18091203272342682,165.54302978515625,-0.0881774955517095,-0.5163831107333923,-0.11991030567636092,-0.4262092604612309
-0.030630137771368027,0.20789006352424622,165.54273986816406,-0.0881774955517095,-0.5163831107333923,-0.11991030567636092,-0.4262092604612309
0.04994601756334305,0.1914444863796234,165.54331970214844,-0.0881774955517095,-0.5163831107333923,-0.11991030567636092,-0.4262092604612309
0.11403094232082367,0.14971020817756653,165.54278564453125,-0.0881774955517095,-0.5163831107333923,-0.11991030567636092,-0.4262092604612309
0.07633692026138306,0.17487148940563202,165.54185485839844,-0.0881774955517095,-0.5163831107333923,-0.11991030567636092,-0.4262092604612309
0.012140093371272087,0.1885913908481598,165.54248046875,-0.0881774955517095,-0.5163831107333923,-0.11991030567636092,-0.4262092604612309
-0.000993995345197618,0.16926831007003784,165.5418701171875,-0.0881774955517095,-0.5163831107333923,-0.11991030567636092,-0.4262092604612309
0.06613561511039734,0.15855976939201355,165.54141235351562,-0.09017147692272072,-0.5234638325688946,-0.11936745884498426,-0.42347735979904716
-0.2000104933977127,0.1153724268078804,165.54318237304688,-0.09217023143668486,-0.5305027654963649,-0.1204830828307119,-0.42119459149738137
-0.2597566246986389,0.44524338841438293,165.56065368652344,-0.09421021108928675,-0.5374837437008196,-0.12431447548151482,-0.41652279303719586
-1.7945971488952637,0.7218796610832214,165.52352905273438,-0.09642478247047824,-0.5443447400396689,-0.141434090261464,-0.40679676762471584
-3.211603879928589,1.087247610092163,165.46414184570312,-0.09912967015739318,-0.5509990523284715,-0.18315243216832944,-0.3917207070315876
-1.3648126125335693,-0.16438210010528564,165.54896545410156,-0.10250001739439743,-0.55746364289636,-0.22128923627218075,-0.3840301611150303
-0.41034233570098877,0.3521054983139038,165.44224548339844,-0.10631144598145006,-0.5638511092345126,-0.2360821941741354,-0.3824657994632918
-0.8265448212623596,1.4013481140136719,165.372802734375,-0.11033204415914144,-0.5701037716136004,-0.24638958714882997,-0.3678536860272287
-1.6777303218841553,-0.28531256318092346,165.30123901367188,-0.11461244527434045,-0.5761571639119131,-0.26725854667505095,-0.3585533897702891
-1.7862255573272705,0.7286966443061829,165.2114715576172,-0.1193073068772032,-0.5821022631802286,-0.2961248456684795,-0.3548585224275786
-0.7359744906425476,0.14952929317951202,165.23936462402344,-0.12441787375278687,-0.5879555839750296,-0.31714317940156134,-0.3475399729485311
-0.5336318016052246,0.5541329979896545,165.2546844482422,-0.12979176051310787,-0.5936990514206183,-0.32772323183695945,-0.3416761205221214
-0.9859904050827026,0.06998303532600403,165.2300567626953,-0.1353593436969661,-0.5993503120381178,-0.3403867502260255,-0.3364751535778242
-0.0512603297829628,-0.2905731201171875,165.1880340576172,-0.14110448750176552,-0.6049735500203032,-0.349030506349906,-0.3383134042844174
-1.2058820724487305,0.9142269492149353,165.20079040527344,-0.14110448750176552,-0.6049735500203032,-0.349030506349906,-0.3383134042844174
-0.5557420253753662,0.7551565170288086,165.2428741455078,-0.14704399761439063,-0.6104961773509988,-0.36371070716510684,-0.3244018753990529
0.5934632420539856,0.4415246546268463,165.21044921875,-0.15310322320487307,-0.6158197724151736,-0.363396363692785,-0.31442953230192244
1.2143155336380005,-0.2092137336730957,165.1457977294922,-0.1590342890736631,-0.6210441319173616,-0.3483315405620184,-0.3124936079606412
1.1080846786499023,-1.0664923191070557,165.0827178955078,-0.16467853695717674,-0.6263409494148153,-0.32897820545961926,-0.32312449173380914
0.05986158177256584,1.839381456375122,165.1143035888672,-0.1700803996689744,-0.631672684753624,-0.31924531995609867,-0.3166837489232419
-1.4101413488388062,0.7801596522331238,164.9983673095703,-0.17549492442984452,-0.6367688346586914,-0.3304976513483173,-0.29485423968483987
-1.5959069728851318,0,164.77120971679688,-0.1812119719746584,-0.6416288942331447,-0.35554805402935014,-0.28835290924956386
-0.858953595161438,0,164.8041229248047,-0.18730824930348414,-0.6464347760539708,-0.37600522542973824,-0.28835290924956386
-0.1461096853017807,0,164.879150390625,-0.19364479912178972,-0.6512406578747969,-0.38438075276693173,-0.28835290924956386
-0.4699030816555023,0.4856680631637573,164.96090698242188,-0.20009392366561063,-0.6560128127467921,-0.38951419249157576,-0.2843056753898659
-0.4908272922039032,-0.849028468132019,165.02996826171875,-0.20665254426087712,-0.6607764740314127,-0.39752027894040415,-0.2873336787646014
-1.044890284538269,0.9550693035125732,165.05006408691406,-0.21338452929715762,-0.665558004730588,-0.41031792541325557,-0.28645000513643015
-0.5273385643959045,0.26897701621055603,164.99310302734375,-0.2203323439463323,-0.6702471682662144,-0.42341983248770704,-0.2762496191387374
-0.4354577958583832,-0.043395426124334335,164.84817504882812,-0.2203323439463323,-0.6702471682662144,-0.42341983248770704,-0.2762496191387374
-0.2404364049434662,0.7641530632972717,164.70277404785156,-0.22743627825173865,-0.6748012759715009,-0.4290522841610558,-0.2702433054956296
0.1804158091545105,0.7816735506057739,164.540283203125,-0.2345913177513527,-0.6791979819926848,-0.4295524557926304,-0.25736141704643756
-0.6902552247047424,0,164.50497436523438,-0.2417859308628653,-0.683433056058,-0.43380111758888235,-0.2508474707913894
0.2543107867240906,0,164.51986694335938,-0.24904622340865087,-0.6876138472378565,-0.4374339879053878,-0.2508474707913894
0.19181782007217407,0.7814838290214539,164.483642578125,-0.2563058087204909,-0.6917403687073642,-0.43371624951541893,-0.24433510554954396
-0.6831210255622864,0.18220645189285278,164.51580810546875,-0.26356853115724027,-0.6957456975303487,-0.4378104428945032,-0.23630435320859142
-1.7614331245422363,-1.041704773902893,164.44244384765625,-0.271035132577017,-0.6997437908006314,-0.45818172747870756,-0.24346683922534176
0.10814817249774933,0.39598843455314636,164.2653350830078,-0.2787863061566652,-0.703846412866842,-0.47195910207907826,-0.24884780871992299
0.3323242962360382,1.3790675401687622,164.24378967285156,-0.28662170282543226,-0.707870608569485,-0.46828849817296336,-0.23405567559724041
-0.4096536934375763,-0.9086062908172607,164.3192596435547,-0.29443188122534286,-0.7117388655760118,-0.46893290981630953,-0.2301351651859779
0.7195575833320618,1.0171082019805908,164.15255737304688,-0.3022259086188165,-0.715566916807503,-0.46635037740052215,-0.22923098259295016
0.4385019540786743,0.39415860176086426,163.9910430908203,-0.3099179941076161,-0.7192894285449034,-0.4566998812554327,-0.2174704258951047
-0.8624924421310425,0.4017380475997925,163.99606323242188,-0.3099179941076161,-0.7192894285449034,-0.4566998812554327,-0.2174704258951047
-1.8989405632019043,-0.5930718779563904,164.0700225830078,-0.31772142497613254,-0.7229272227147077,-0.4797118229665406,-0.21906487448140968
0.6480628252029419,0.588736891746521,164.15206909179688,-0.32580348853515817,-0.7265786049967735,-0.49013580411653196,-0.21910099936649194
1.5595275163650513,-0.19542822241783142,164.27456665039062,-0.3338191137189359,-0.7302029752175117,-0.4717392179367987,-0.2158234271220862
2.3811192512512207,0.14704670011997223,164.14895629882812,-0.34140777799235367,-0.7338033921641505,-0.43890049487332977,-0.21622660647456834
0.06257537007331848,-0.20659947395324707,164.08242797851562,-0.3485530852248727,-0.7374113045480206,-0.41853637302895863,-0.21672287958984562
-0.12744355201721191,0.3441082537174225,164.06289672851562,-0.35553319617687923,-0.7410138033203677,-0.4190769412118244,-0.21557697309181084
-0.8030691146850586,-0.29444193840026855,164.0166473388672,-0.3625824307989306,-0.7446033038222231,-0.4268312134343433,-0.21516308713083457
-1.4711159467697144,0.7419514060020447,163.95321655273438,-0.3698542138743262,-0.7481582782280424,-0.4457827556131331,-0.21143384156748643
0,1.4280517101287842,164.04617309570312,-0.3773860872975152,-0.7515314809266581,-0.4580420551695474,-0.1933504822663962
-0.7943328619003296,-0.32891401648521423,164.07310485839844,-0.38507528355463966,-0.7546776599579283,-0.46466149568538345,-0.18419100148603312
0.793623685836792,0.9836843013763428,163.993896484375,-0.39281969106440046,-0.7577020398240226,-0.46466740548591295,-0.1787345824452737
0,0.21823959052562714,163.88565063476562,-0.4005090350665381,-0.7605974825945062,-0.45805387477060633,-0.1687185500127573
0.3297673463821411,0,163.89073181152344,-0.40812036580254946,-0.7633943029009324,-0.45530581355075517,-0.16689988675837705
-0.33269202709198,-0.1805570274591446,163.87782287597656,-0.40812036580254946,-0.7633943029009324,-0.45530581355075517,-0.16689988675837705
-0.8354517221450806,-0.3886081874370575,163.87127685546875,-0.40812036580254946,-0.7633943029009324,-0.45530581355075517,-0.16689988675837705
-0.38745418190956116,-0.5967162251472473,163.8120574951172,-0.40812036580254946,-0.7633943029009324,-0.45530581355075517,-0.16689988675837705
1.1704318523406982,-0.5425535440444946,163.8357391357422,-0.40812036580254946,-0.7633943029009324,-0.45530581355075517,-0.16689988675837705
3.063363790512085,0.5811437368392944,164.179931640625,-0.40812036580254946,-0.7633943029009324,-0.45530581355075517,-0.16689988675837705
1.5516799688339233,0.19186747074127197,164.67872619628906,-0.40812036580254946,-0.7633943029009324,-0.45530581355075517,-0.16689988675837705
0.1795387864112854,-1.0928330421447754,165.34347534179688,-0.40812036580254946,-0.7633943029009324,-0.45530581355075517,-0.16689988675837705
0.6938869953155518,-0.6150664687156677,166.24481201171875,-0.40812036580254946,-0.7633943029009324,-0.45530581355075517,-0.16689988675837705
1.8214644193649292,0.03344729170203209,167.34107971191406,-0.40812036580254946,-0.7633943029009324,-0.45530581355075517,-0.16689988675837705
1.5552798509597778,0.05456731095910072,168.5161590576172,-0.40812036580254946,-0.7633943029009324,-0.45530581355075517,-0.16689988675837705
1.137945294380188,0.11006179451942444,169.7876739501953,-0.40812036580254946,-0.7633943029009324,-0.45530581355075517,-0.16689988675837705
1.3188055753707886,-0.5304500460624695,171.14463806152344,-0.40812036580254946,-0.7633943029009324,-0.45530581355075517,-0.16689988675837705
1.5198173522949219,0.23190797865390778,172.54611206054688,-0.40812036580254946,-0.7633943029009324,-0.45530581355075517,-0.16689988675837705
-0.28589826822280884,-1.584425449371338,173.92898559570312,-0.40812036580254946,-0.7633943029009324,-0.45530581355075517,-0.16689988675837705
1.8350735902786255,0.5774802565574646,175.29119873046875,-0.40812036580254946,-0.7633943029009324,-0.45530581355075517,-0.16689988675837705
-0.21802328526973724,-2.0182735919952393,176.6872100830078,-0.40812036580254946,-0.7633943029009324,-0.45530581355075517,-0.16689988675837705
0.9728763699531555,0.645440936088562,178.09414672851562,-0.40812036580254946,-0.7633943029009324,-0.45530581355075517,-0.16689988675837705
0.7160420417785645,-1.1061123609542847,179.53201293945312,-0.40812036580254946,-0.7633943029009324,-0.45530581355075517,-0.16689988675837705
-0.329572468996048,0.06794999539852142,-179.03514099121094,-0.40812036580254946,-0.7633943029009324,-0.45530581355075517,-0.16689988675837705
2.246803045272827,0.32608941197395325,-177.63134765625,-0.40812036580254946,-0.7633943029009324,-0.45530581355075517,-0.16689988675837705
-0.8163142204284668,-1.0982149839401245,-176.12339782714844,-0.40812036580254946,-0.7633943029009324,-0.45530581355075517,-0.16689988675837705
1.4109715223312378,0.16128000617027283,-174.5994415283203,-0.40812036580254946,-0.7633943029009324,-0.45530581355075517,-0.16689988675837705
0.7818738222122192,-0.25221407413482666,-172.9976348876953,-0.40812036580254946,-0.7633943029009324,-0.45530581355075517,-0.16689988675837705
0.7579869031906128,0.3622893691062927,-171.36936950683594,-0.40812036580254946,-0.7633943029009324,-0.45530581355075517,-0.16689988675837705
0.2899608612060547,-1.9764012098312378,-169.72032165527344,-0.40812036580254946,-0.7633943029009324,-0.45530581355075517,-0.16689988675837705
0.7497622966766357,0.45070183277130127,-168.138916015625,-0.40812036580254946,-0.7633943029009324,-0.45530581355075517,-0.16689988675837705
-0.09118153899908066,-1.0649223327636719,-166.4784393310547,-0.40812036580254946,-0.7633943029009324,-0.45530581355075517,-0.16689988675837705
1.1058406829833984,1.061156153678894,-164.78858947753906,-0.40812036580254946,-0.7633943029009324,-0.45530581355075517,-0.16689988675837705
0.40858516097068787,-0.41499125957489014,-163.09893798828125,-0.40812036580254946,-0.7633943029009324,-0.45530581355075517,-0.16689988675837705
0.38234952092170715,0.20183829963207245,-161.42002868652344,-0.40812036580254946,-0.7633943029009324,-0.45530581355075517,-0.16689988675837705
-0.019788004457950592,0.2989693582057953,-159.6416778564453,-0.40812036580254946,-0.7633943029009324,-0.45530581355075517,-0.16689988675837705
0.6707403659820557,0.35667648911476135,-157.80844116210938,-0.40812036580254946,-0.7633943029009324,-0.45530581355075517,-0.16689988675837705
0.8928854465484619,-0.08349301666021347,-156.04193115234375,-0.40812036580254946,-0.7633943029009324,-0.45530581355075517,-0.16689988675837705
-0.9398547410964966,0.007423781789839268,-154.21286010742188,-0.40812036580254946,-0.7633943029009324,-0.45530581355075517,-0.16689988675837705
1.1580079793930054,-1.2203904390335083,-152.30609130859375,-0.40812036580254946,-0.7633943029009324,-0.45530581355075517,-0.16689988675837705
-0.20673854649066925,0.2353706806898117,-150.40499877929688,-0.40812036580254946,-0.7633943029009324,-0.45530581355075517,-0.16689988675837705
1.5482561588287354,0.9067268967628479,-148.552490234375,-0.40812036580254946,-0.7633943029009324,-0.45530581355075517,-0.16689988675837705
-0.8332930207252502,-0.5269438028335571,-146.67095947265625,-0.40812036580254946,-0.7633943029009324,-0.45530581355075517,-0.16689988675837705
0.6646648645401001,0.4093843698501587,-144.65599060058594,-0.40812036580254946,-0.7633943029009324,-0.45530581355075517,-0.16689988675837705
0.23498065769672394,0.11991862952709198,-142.59408569335938,-0.40812036580254946,-0.7633943029009324,-0.45530581355075517,-0.16689988675837705
0.18643298745155334,0.8816298842430115,-140.48806762695312,-0.40812036580254946,-0.7633943029009324,-0.45530581355075517,-0.16689988675837705
0.5811406970024109,-0.49615517258644104,-138.31765747070312,-0.40812036580254946,-0.7633943029009324,-0.45530581355075517,-0.16689988675837705
0.05025427043437958,0.11324318498373032,-136.14077758789062,-0.40812036580254946,-0.7633943029009324,-0.45530581355075517,-0.16689988675837705
0.37605059146881104,0.42827901244163513,-133.97940063476562,-0.40812036580254946,-0.7633943029009324,-0.45530581355075517,-0.16689988675837705
0.3332245647907257,-1.4498612880706787,-131.9289093017578,-0.40812036580254946,-0.7633943029009324,-0.45530581355075517,-0.16689988675837705
0.030304325744509697,1.1018447875976562,-129.8037109375,-0.40812036580254946,-0.7633943029009324,-0.45530581355075517,-0.16689988675837705
1.017919659614563,0.23410369455814362,-127.7138671875,-0.40812036580254946,-0.7633943029009324,-0.45530581355075517,-0.16689988675837705
0.40957698225975037,0.3547344505786896,-125.61134338378906,-0.40812036580254946,-0.7633943029009324,-0.45530581355075517,-0.16689988675837705
0.1638592779636383,0.4244067966938019,-123.44535827636719,-0.40812036580254946,-0.7633943029009324,-0.45530581355075517,-0.16689988675837705
0.31706738471984863,0.36473676562309265,-121.22718811035156,-0.40812036580254946,-0.7633943029009324,-0.45530581355075517,-0.16689988675837705
-0.3023398518562317,0.04304696246981621,-119.06698608398438,-0.40812036580254946,-0.7633943029009324,-0.45530581355075517,-0.16689988675837705
-0.27146005630493164,2.1951491832733154,-117.12957763671875,-0.40812036580254946,-0.7633943029009324,-0.45530581355075517,-0.16689988675837705
-0.8674793839454651,0.8911061882972717,-115.3436050415039,-0.40812036580254946,-0.7633943029009324,-0.45530581355075517,-0.16689988675837705
0.23118270933628082,-1.8679320812225342,-113.51665496826172,-0.40812036580254946,-0.7633943029009324,-0.45530581355075517,-0.16689988675837705
-0.2730199694633484,1.4186018705368042,-111.80622863769531,-0.40812036580254946,-0.7633943029009324,-0.45530581355075517,-0.16689988675837705
-0.6587018370628357,1.5759010314941406,-110.13690185546875,-0.40812036580254946,-0.7633943029009324,-0.45530581355075517,-0.16689988675837705
0.46946263313293457,-1.2736788988113403,-108.44732666015625,-0.40812036580254946,-0.7633943029009324,-0.45530581355075517,-0.16689988675837705
0.9982547760009766,0.16722959280014038,-106.67758178710938,-0.40812036580254946,-0.7633943029009324,-0.45530581355075517,-0.16689988675837705
-0.31745645403862,-0.032348401844501495,-104.84957885742188,-0.40812036580254946,-0.7633943029009324,-0.45530581355075517,-0.16689988675837705
2.1385180950164795,-0.7498810291290283,-102.91934967041016,-0.40812036580254946,-0.7633943029009324,-0.45530581355075517,-0.16689988675837705
-0.04131484776735306,0.6922211647033691,-100.93537902832031,-0.40812036580254946,-0.7633943029009324,-0.45530581355075517,-0.16689988675837705
1.1631953716278076,0.18886609375476837,-98.94739532470703,-0.40812036580254946,-0.7633943029009324,-0.45530581355075517,-0.16689988675837705
0.7675268650054932,-0.4383828043937683,-96.88639831542969,-0.40812036580254946,-0.7633943029009324,-0.45530581355075517,-0.16689988675837705
0.1716047078371048,0.38255542516708374,-94.81449890136719,-0.40812036580254946,-0.7633943029009324,-0.45530581355075517,-0.16689988675837705
-0.8319820761680603,-0.00524014700204134,-92.96649169921875,-0.40812036580254946,-0.7633943029009324,-0.45530581355075517,-0.16689988675837705
-2.306622266769409,0.7862372994422913,-91.48686218261719,-0.40812036580254946,-0.7633943029009324,-0.45530581355075517,-0.16689988675837705
-0.7903063297271729,0.15810970962047577,-90.542724609375,-0.40812036580254946,-0.7633943029009324,-0.45530581355075517,-0.16689988675837705
-1.9710136651992798,0.49193793535232544,-90.04344940185547,-0.40812036580254946,-0.7633943029009324,-0.45530581355075517,-0.16689988675837705
-1.117242693901062,0.9296451807022095,-89.84310150146484,-0.40812036580254946,-0.7633943029009324,-0.45530581355075517,-0.16689988675837705
-0.17884892225265503,-0.3256015479564667,-89.92987823486328,-0.40812036580254946,-0.7633943029009324,-0.45530581355075517,-0.16689988675837705
0.32314032316207886,-0.47266966104507446,-89.94873046875,-0.40812036580254946,-0.7633943029009324,-0.45530581355075517,-0.16689988675837705
-0.0942249596118927,-0.7127546072006226,-89.89795684814453,-0.40812036580254946,-0.7633943029009324,-0.45530581355075517,-0.16689988675837705
0.07368405908346176,-0.5109609365463257,-89.91053771972656,-0.40812036580254946,-0.7633943029009324,-0.45530581355075517,-0.16689988675837705
0.07655992358922958,-0.24237412214279175,-89.91543579101562,-0.40812036580254946,-0.7633943029009324,-0.45530581355075517,-0.16689988675837705
-0.007768081035465002,0.21882693469524384,-89.8980712890625,-0.40812036580254946,-0.7633943029009324,-0.45530581355075517,-0.16689988675837705
-0.04191376268863678,0.32015460729599,-89.9096908569336,-0.40812036580254946,-0.7633943029009324,-0.45530581355075517,-0.16689988675837705
0.03232968598604202,0.1383398175239563,-89.91827392578125,-0.40812036580254946,-0.7633943029009324,-0.45530581355075517,-0.16689988675837705
0.015417885035276413,-0.09701370447874069,-89.90898132324219,-0.40812036580254946,-0.7633943029009324,-0.45530581355075517,-0.16689988675837705
0.05281670019030571,-0.23128557205200195,-89.91645050048828,-0.40812036580254946,-0.7633943029009324,-0.45530581355075517,-0.16689988675837705
0.024585621431469917,-0.16055378317832947,-89.9163818359375,-0.40812036580254946,-0.7633943029009324,-0.45530581355075517,-0.16689988675837705
0.026712151244282722,0.017640016973018646,-89.9126968383789,-0.40812036580254946,-0.7633943029009324,-0.45530581355075517,-0.16689988675837705
0.0073158759623765945,0.09622085839509964,-89.9153060913086,-0.40812036580254946,-0.7633943029009324,-0.45530581355075517,-0.16689988675837705
0.00445098802447319,-0.0005927039892412722,-89.91281127929688,-0.40812036580254946,-0.7633943029009324,-0.45530581355075517,-0.16689988675837705
0.042481131851673126,-0.10113674402236938,-89.91339111328125,-0.40812036580254946,-0.7633943029009324,-0.45530581355075517,-0.16689988675837705
0.028254227712750435,-0.12044648081064224,-89.91452026367188,-0.40812036580254946,-0.7633943029009324,-0.45530581355075517,-0.16689988675837705
0.01186539139598608,-0.04217762127518654,-89.9139175415039,-0.40812036580254946,-0.7633943029009324,-0.45530581355075517,-0.16689988675837705
0.02183382399380207,0.020400788635015488,-89.9150390625,-0.40812036580254946,-0.7633943029009324,-0.45530581355075517,-0.16689988675837705
0.011139721609652042,0.002816305262967944,-89.916748046875,-0.40812036580254946,-0.7633943029009324,-0.45530581355075517,-0.16689988675837705
0.02661857381463051,-0.07709776610136032,-89.91578674316406,-0.40812036580254946,-0.7633943029009324,-0.45530581355075517,-0.16689988675837705
0.018631136044859886,-0.0852426066994667,-89.91478729248047,-0.40812036580254946,-0.7633943029009324,-0.45530581355075517,-0.16689988675837705
0.014762171544134617,-0.04845958948135376,-89.91512298583984,-0.40812036580254946,-0.7633943029009324,-0.45530581355075517,-0.16689988675837705
0,0,-89.91533660888672,-0.4157077708775937,-0.7661793329295081,-0.45518279545455403,-0.16730371667072166
0.1161966547369957,-0.2857228219509125,-89.90658569335938,-0.42328608158970177,-0.768987570069989,-0.4542144899984124,-0.16968474018697927
-0.5230801701545715,-1.0077064037322998,-89.94368743896484,-0.4308845788893571,-0.7719054705471111,-0.45760518596022554,-0.1804633170676727
0.2119637131690979,-1.9704434871673584,-90.089111328125,-0.4385329372982071,-0.7751200084628848,-0.46019782310177115,-0.20528123282516986
0.6031104922294617,-2.1122186183929443,-90.07544708251953,-0.44614629864119504,-0.7788248805450793,-0.45340553805678313,-0.23930341703817237
0.0898728221654892,-0.6660211086273193,-90.05529022216797,-0.4536549337675307,-0.7830062041434253,-0.44763067710349186,-0.2624554147633412
-0.3618353009223938,-1.0602471828460693,-90.08808898925781,-0.46113433133583587,-0.7875003407986111,-0.4498970310931327,-0.2768409838589528
0.16987262666225433,-1.3425288200378418,-90.17279052734375,-0.46864594592865616,-0.792281216640905,-0.45149672004530056,-0.2968641172163187
-0.17895212769508362,-1.9128050804138184,-90.24801635742188,-0.4761715217836496,-0.7974550167820417,-0.45157238255390747,-0.3239918997200826
0.6053058505058289,-1.2120966911315918,-90.28958129882812,-0.48366812026213063,-0.8030718888448448,-0.4480194348638179,-0.35003274781629434
-0.0907747745513916,-0.8844447135925293,-90.41161346435547,-0.4910993795184752,-0.8090513611282222,-0.44373167589753093,-0.36750392618899536
-0.996080219745636,-1.047234296798706,-90.53087615966797,-0.49857038349137134,-0.815310570940427,-0.45278880085000617,-0.383601251275589
0.724823534488678,-0.5267009139060974,-90.78365325927734,-0.49857038349137134,-0.815310570940427,-0.45278880085000617,-0.383601251275589
-0.21592043340206146,-1.4894046783447266,-90.93946838378906,-0.506081523012407,-0.8218439324611487,-0.44854794167428436,-0.4004021312110125
0,0.4489385187625885,-90.96504974365234,-0.5135723165148536,-0.828589555909081,-0.4503472786193015,-0.40907268254086365
-0.1710473746061325,1.7145005464553833,-90.87681579589844,-0.5210899827817451,-0.8352571951274552,-0.45177267340768595,-0.3910440236640472
0.09553787112236023,0.7910871505737305,-90.94747161865234,-0.5286247710540596,-0.841600596376229,-0.45240191927005075,-0.3701641261888046
0.18968451023101807,-0.885645866394043,-91.10308074951172,-0.5361449959320775,-0.8477765650568633,-0.4500250660921059,-0.3709521154873072
-1.1754710674285889,-1.681989073753357,-91.33113098144531,-0.5437138711000847,-0.8541374082969397,-0.45823995406875234,-0.39234907332186886
1.05868399143219,-1.8578466176986694,-91.44400024414062,-0.5513593138815082,-0.8609223814419884,-0.45921317970205566,-0.4218477040839691
0.37549930810928345,-1.2390151023864746,-91.46001434326172,-0.5589132708140743,-0.8681682363517271,-0.4472616522058767,-0.44765488508467866
-0.3112935721874237,-0.6588608026504517,-91.46920013427734,-0.5663631729525109,-0.8757609480409883,-0.4467266044065279,-0.46347051762665303
-0.21536783874034882,-0.6960259675979614,-91.47907257080078,-0.5738451900683786,-0.8835795460271442,-0.4511154494975927,-0.4747612407120565
0.3132120966911316,-0.1650019884109497,-91.4576416015625,-0.5738451900683786,-0.8835795460271442,-0.4511154494975927,-0.4747612407120565
0,0.1445077657699585,-91.49358367919922,-0.5813420300532905,-0.8914936565822508,-0.4485053486918333,-0.4749320259007314
-0.31539246439933777,0.34417247772216797,-91.55416870117188,-0.5888390214526266,-0.8993752542192427,-0.45113361922849443,-0.470859690538297
0.28652864694595337,1.744778037071228,-91.56505584716797,-0.5963599195382024,-0.9070778497202425,-0.45137415104060596,-0.45345176958168537
0.6663368940353394,0.10846409201622009,-91.59642791748047,-0.6038166508374222,-0.9145066818431951,-0.44343360486576183,-0.4380080851726233
0.07756070047616959,-0.48787766695022583,-91.60362243652344,-0.6111555513633438,-0.9218331647609981,-0.4372344582448326,-0.44116986496374
0.13499942421913147,-1.5546746253967285,-91.77155303955078,-0.6184280312143204,-0.9293278397529179,-0.43546312387237174,-0.45819113406663126
-1.0563474893569946,-2.2734882831573486,-91.80291748046875,-0.6257497324500501,-0.9372302033004558,-0.44314102441518727,-0.49009249163791524
0.31978291273117065,0.13745783269405365,-91.71239471435547,-0.6331865665081244,-0.94554674694237,-0.4492790625537358,-0.507892745391776
0.46345970034599304,-0.23826442658901215,-91.68070983886719,-0.6406201590358896,-0.9540186264901422,-0.44275204077809277,-0.5087328003409006
0.057688310742378235,0.21042785048484802,-91.59417724609375,-0.6479631688814211,-0.9624994395913867,-0.4384091406856897,-0.5089647718084354
-1.1690703630447388,-0.33350422978401184,-91.49922943115234,-0.6479631688814211,-0.9624994395913867,-0.4384091406856897,-0.5089647718084354
0,0.2041422575712204,-91.4759292602539,-0.6553511733347274,-0.9709911692584865,-0.44815139371106255,-0.510042788243542
1.1976940631866455,0.48635944724082947,-91.42930603027344,-0.6627371900310793,-0.9794439308886003,-0.43817060985117384,-0.5042886073701083
-0.567536473274231,0.6654669046401978,-91.46458435058594,-0.669996272584855,-0.9877687530703325,-0.4329192966019037,-0.49469005443776637
0.9848215579986572,0.8915137052536011,-91.4531021118164,-0.677182616064003,-0.9959054636574971,-0.4294419208958668,-0.4817152160219847
-1.1187682151794434,-0.6882814764976501,-91.42540740966797,-0.6843492832634606,-1.0039199372419776,-0.43055814303904,-0.4800216141156851
0.4908141791820526,-0.9296641945838928,-91.50735473632812,-0.6915688602332777,-1.0120326548155085,-0.4357910933390183,-0.4935044947080313
0.608336329460144,-1.9009805917739868,-91.60872650146484,-0.6987557152258278,-1.0204543022819172,-0.426631505767,-0.5170932012610137
0.1814308762550354,-0.8059243559837341,-91.64080047607422,-0.7058113953771031,-1.029260501813195,-0.4200501123860402,-0.539650742492328
0,0.06921125203371048,-91.69464111328125,-0.7127996312171305,-1.0383058414869526,-0.4185381884172482,-0.5457900183585782
-2.241647720336914,-0.25782591104507446,-91.82958984375,-0.7199309376713303,-1.047415440033138,-0.4372185860867225,-0.5473618071836729
0.08196957409381866,0.503268837928772,-91.90168762207031,-0.7199309376713303,-1.047415440033138,-0.4372185860867225,-0.5473618071836729
1.5162959098815918,-0.6916499733924866,-91.90479278564453,-0.7199309376713303,-1.047415440033138,-0.4372185860867225,-0.5473618071836729
0.35960152745246887,0.9190462231636047,-91.9606704711914,-0.7199309376713303,-1.047415440033138,-0.4372185860867225,-0.5473618071836729
0.03719409927725792,0.9742951989173889,-92.08319091796875,-0.7199309376713303,-1.047415440033138,-0.4372185860867225,-0.5473618071836729
0.2320316731929779,2.9723143577575684,-91.89945983886719,-0.7199309376713303,-1.047415440033138,-0.4372185860867225,-0.5473618071836729
0.08034014701843262,2.1102283000946045,-91.36373138427734,-0.7199309376713303,-1.047415440033138,-0.4372185860867225,-0.5473618071836729
-0.37728190422058105,0.36481568217277527,-90.4999771118164,-0.7199309376713303,-1.047415440033138,-0.4372185860867225,-0.5473618071836729
0.26649045944213867,1.8719638586044312,-89.35266876220703,-0.7199309376713303,-1.047415440033138,-0.4372185860867225,-0.5473618071836729
-0.5435249209403992,0.6996358036994934,-88.07601928710938,-0.7199309376713303,-1.047415440033138,-0.4372185860867225,-0.5473618071836729
0.18861758708953857,1.420966386795044,-86.7560806274414,-0.7199309376713303,-1.047415440033138,-0.4372185860867225,-0.5473618071836729
0.30884552001953125,0.06400683522224426,-85.31494140625,-0.7199309376713303,-1.047415440033138,-0.4372185860867225,-0.5473618071836729
0.7753652334213257,0.7274641394615173,-83.85037231445312,-0.7199309376713303,-1.047415440033138,-0.4372185860867225,-0.5473618071836729
-0.4736482501029968,0.7069350481033325,-82.33202362060547,-0.7199309376713303,-1.047415440033138,-0.4372185860867225,-0.5473618071836729
0.6471413969993591,0.6451310515403748,-80.7273178100586,-0.7199309376713303,-1.047415440033138,-0.4372185860867225,-0.5473618071836729
-0.47533583641052246,0.8252375721931458,-79.10647583007812,-0.7199309376713303,-1.047415440033138,-0.4372185860867225,-0.5473618071836729
0.006994597148150206,1.2249280214309692,-77.47132110595703,-0.7199309376713303,-1.047415440033138,-0.4372185860867225,-0.5473618071836729
0.1591099351644516,0.3569984436035156,-75.8472900390625,-0.7199309376713303,-1.047415440033138,-0.4372185860867225,-0.5473618071836729
-0.18968497216701508,0.7856736779212952,-74.23585510253906,-0.7199309376713303,-1.047415440033138,-0.4372185860867225,-0.5473618071836729
-0.7093164920806885,0.9742375612258911,-72.59197998046875,-0.7199309376713303,-1.047415440033138,-0.4372185860867225,-0.5473618071836729
1.8830881118774414,-0.3283464312553406,-70.9867935180664,-0.7199309376713303,-1.047415440033138,-0.4372185860867225,-0.5473618071836729
-0.3750172257423401,0.013460229150950909,-69.3952407836914,-0.7199309376713303,-1.047415440033138,-0.4372185860867225,-0.5473618071836729
-0.21994607150554657,0.9627028107643127,-67.79871368408203,-0.7199309376713303,-1.047415440033138,-0.4372185860867225,-0.5473618071836729
0.42324066162109375,-0.7537387013435364,-66.17652893066406,-0.7199309376713303,-1.047415440033138,-0.4372185860867225,-0.5473618071836729
-0.6403442621231079,1.0462557077407837,-64.48675537109375,-0.7199309376713303,-1.047415440033138,-0.4372185860867225,-0.5473618071836729
1.3698970079421997,-0.7927457690238953,-62.819427490234375,-0.7199309376713303,-1.047415440033138,-0.4372185860867225,-0.5473618071836729
-1.1923902034759521,0.4671330451965332,-61.19871520996094,-0.7199309376713303,-1.047415440033138,-0.4372185860867225,-0.5473618071836729
0.3346746265888214,-0.05693994462490082,-59.62351608276367,-0.7199309376713303,-1.047415440033138,-0.4372185860867225,-0.5473618071836729
-0.9809174537658691,0.019875606521964073,-58.178070068359375,-0.7199309376713303,-1.047415440033138,-0.4372185860867225,-0.5473618071836729
0.5969260334968567,0.281617134809494,-56.770572662353516,-0.7199309376713303,-1.047415440033138,-0.4372185860867225,-0.5473618071836729
-0.16776633262634277,0.27528589963912964,-55.29385757446289,-0.7199309376713303,-1.047415440033138,-0.4372185860867225,-0.5473618071836729
0.33052363991737366,0.536916196346283,-53.777503967285156,-0.7199309376713303,-1.047415440033138,-0.4372185860867225,-0.5473618071836729
-0.12466641515493393,0.13155949115753174,-52.25827407836914,-0.7199309376713303,-1.047415440033138,-0.4372185860867225,-0.5473618071836729
0.7571845054626465,-0.172014057636261,-50.72222137451172,-0.7199309376713303,-1.047415440033138,-0.4372185860867225,-0.5473618071836729
0.5854853391647339,0.1314302533864975,-49.148651123046875,-0.7199309376713303,-1.047415440033138,-0.4372185860867225,-0.5473618071836729
-0.40801724791526794,-0.161549374461174,-47.593387603759766,-0.7199309376713303,-1.047415440033138,-0.4372185860867225,-0.5473618071836729
1.1016271114349365,0.9852198362350464,-46.04009246826172,-0.7199309376713303,-1.047415440033138,-0.4372185860867225,-0.5473618071836729
-0.4105418920516968,0.18103712797164917,-44.48326110839844,-0.7199309376713303,-1.047415440033138,-0.4372185860867225,-0.5473618071836729
1.3205616474151611,0.731731116771698,-42.94606399536133,-0.7199309376713303,-1.047415440033138,-0.4372185860867225,-0.5473618071836729
0.18913105130195618,-0.01983768306672573,-41.5275993347168,-0.7199309376713303,-1.047415440033138,-0.4372185860867225,-0.5473618071836729
0.02873176708817482,0.3281691372394562,-40.1287956237793,-0.7199309376713303,-1.047415440033138,-0.4372185860867225,-0.5473618071836729
0.08978278189897537,0.4182470738887787,-38.72335433959961,-0.7199309376713303,-1.047415440033138,-0.4372185860867225,-0.5473618071836729
0.03781544417142868,0.662672221660614,-37.24380111694336,-0.7199309376713303,-1.047415440033138,-0.4372185860867225,-0.5473618071836729
0.24600942432880402,0.09423691034317017,-35.74637222290039,-0.7199309376713303,-1.047415440033138,-0.4372185860867225,-0.5473618071836729
-0.08319834619760513,0.3104991018772125,-34.21842956542969,-0.7199309376713303,-1.047415440033138,-0.4372185860867225,-0.5473618071836729
0.31350547075271606,0.2334907203912735,-32.66449737548828,-0.7199309376713303,-1.047415440033138,-0.4372185860867225,-0.5473618071836729
0.4486335217952728,0.08866981416940689,-31.0808162689209,-0.7199309376713303,-1.047415440033138,-0.4372185860867225,-0.5473618071836729
-0.12860828638076782,0.19798775017261505,-29.53631019592285,-0.7199309376713303,-1.047415440033138,-0.4372185860867225,-0.5473618071836729
-0.1524399220943451,-0.07767324894666672,-28.044065475463867,-0.7199309376713303,-1.047415440033138,-0.4372185860867225,-0.5473618071836729
0.015183920040726662,0.2686065137386322,-26.484256744384766,-0.7199309376713303,-1.047415440033138,-0.4372185860867225,-0.5473618071836729
0.7790907621383667,-0.31997406482696533,-24.850393295288086,-0.7199309376713303,-1.047415440033138,-0.4372185860867225,-0.5473618071836729
-0.965008020401001,0.3265661597251892,-23.094539642333984,-0.7199309376713303,-1.047415440033138,-0.4372185860867225,-0.5473618071836729
0.8141382932662964,0.23093286156654358,-21.29963493347168,-0.7199309376713303,-1.047415440033138,-0.4372185860867225,-0.5473618071836729
-1.414319634437561,-6.135430885478854e-05,-19.509517669677734,-0.7199309376713303,-1.047415440033138,-0.4372185860867225,-0.5473618071836729
1.1624609231948853,0.16498661041259766,-17.64799690246582,-0.7199309376713303,-1.047415440033138,-0.4372185860867225,-0.5473618071836729
0.1527964174747467,-0.22754697501659393,-15.701160430908203,-0.7199309376713303,-1.047415440033138,-0.4372185860867225,-0.5473618071836729
-0.9021345376968384,-0.23762835562229156,-13.758231163024902,-0.7199309376713303,-1.047415440033138,-0.4372185860867225,-0.5473618071836729
0.7488445043563843,0.889450192451477,-11.80970287322998,-0.7199309376713303,-1.047415440033138,-0.4372185860867225,-0.5473618071836729
-0.3345690071582794,-0.7270781397819519,-9.940556526184082,-0.7199309376713303,-1.047415440033138,-0.4372185860867225,-0.5473618071836729
-0.9358786344528198,0.02702280692756176,-8.32663345336914,-0.7199309376713303,-1.047415440033138,-0.4372185860867225,-0.5473618071836729
0.00647143367677927,-0.9106612205505371,-7.149840354919434,-0.7199309376713303,-1.047415440033138,-0.4372185860867225,-0.5473618071836729
-1.2906365394592285,-2.102785110473633,-6.3128662109375,-0.7199309376713303,-1.047415440033138,-0.4372185860867225,-0.5473618071836729
-0.7230363488197327,-1.156936764717102,-5.87618350982666,-0.7199309376713303,-1.047415440033138,-0.4372185860867225,-0.5473618071836729
-0.08620984107255936,-1.0532892942428589,-5.804081439971924,-0.7199309376713303,-1.047415440033138,-0.4372185860867225,-0.5473618071836729
1.0067545175552368,-0.1668718308210373,-5.868326663970947,-0.7199309376713303,-1.047415440033138,-0.4372185860867225,-0.5473618071836729
1.2579110860824585,0.2526516616344452,-5.894302845001221,-0.7199309376713303,-1.047415440033138,-0.4372185860867225,-0.5473618071836729
1.0363538265228271,-0.31502702832221985,-5.879872798919678,-0.7199309376713303,-1.047415440033138,-0.4372185860867225,-0.5473618071836729
0.5659525990486145,0.010090108029544353,-5.888421535491943,-0.7199309376713303,-1.047415440033138,-0.4372185860867225,-0.5473618071836729
0.08519688993692398,-0.12126193940639496,-5.901458263397217,-0.7199309376713303,-1.047415440033138,-0.4372185860867225,-0.5473618071836729
-0.15598154067993164,-0.062087640166282654,-5.9327545166015625,-0.7199309376713303,-1.047415440033138,-0.4372185860867225,-0.5473618071836729
-0.15981639921665192,0.11422394961118698,-5.937876224517822,-0.7199309376713303,-1.047415440033138,-0.4372185860867225,-0.5473618071836729
-0.16532602906227112,-0.20676358044147491,-5.930987358093262,-0.7199309376713303,-1.047415440033138,-0.4372185860867225,-0.5473618071836729
0.13488109409809113,0.08778699487447739,-5.933709144592285,-0.7199309376713303,-1.047415440033138,-0.4372185860867225,-0.5473618071836729
0.303873747587204,-0.18415863811969757,-5.93425178527832,-0.7199309376713303,-1.047415440033138,-0.4372185860867225,-0.5473618071836729
0.3698060214519501,0.021391233429312706,-5.931863307952881,-0.7199309376713303,-1.047415440033138,-0.4372185860867225,-0.5473618071836729
0.23263958096504211,-0.10785483568906784,-5.933546543121338,-0.7199309376713303,-1.047415440033138,-0.4372185860867225,-0.5473618071836729
0.08552084118127823,-0.040310896933078766,-5.929971694946289,-0.7199309376713303,-1.047415440033138,-0.4372185860867225,-0.5473618071836729
0.03313930332660675,-0.04557983577251434,-5.931079387664795,-0.7199309376713303,-1.047415440033138,-0.4372185860867225,-0.5473618071836729
0.12877781689167023,-0.0520571805536747,-5.930812358856201,-0.7199309376713303,-1.047415440033138,-0.4372185860867225,-0.5473618071836729
0.22899220883846283,-0.05538119748234749,-5.9317240715026855,-0.7199309376713303,-1.047415440033138,-0.4372185860867225,-0.5473618071836729
0.22630256414413452,-0.0529632493853569,-5.9317450523376465,-0.7199309376713303,-1.047415440033138,-0.4372185860867225,-0.5473618071836729
0.1750735640525818,-0.06919679045677185,-5.932684898376465,-0.7199309376713303,-1.047415440033138,-0.4372185860867225,-0.5473618071836729
0.12059064209461212,-0.054427653551101685,-5.933326721191406,-0.7199309376713303,-1.047415440033138,-0.4372185860867225,-0.5473618071836729
0.14160369336605072,-0.048201918601989746,-5.9330267906188965,-0.7199309376713303,-1.047415440033138,-0.4372185860867225,-0.5473618071836729
0.17684291303157806,-0.06010573357343674,-5.932900905609131,-0.7199309376713303,-1.047415440033138,-0.4372185860867225,-0.5473618071836729
0.19311796128749847,-0.05876500532031059,-5.933633327484131,-0.7199309376713303,-1.047415440033138,-0.4372185860867225,-0.5473618071836729
0.15413738787174225,-0.05977954715490341,-5.933260440826416,-0.7271937991513063,-1.0565463690801211,-0.4343247915103955,-0.5483496784542997
0.14986193180084229,-0.05430895462632179,-5.93184232711792,-0.7344114346126135,-1.0656934532003164,-0.4317914638464573,-0.5493004159691433
0.32414597272872925,0,-5.929594993591309,-0.7415750417944621,-1.0748522315883178,-0.4278413979753775,-0.5497529905910292
0.7615522742271423,-0.1926913559436798,-5.922263145446777,-0.7486303360491242,-1.0840281627756643,-0.4187939125840786,-0.5513587518905599
1.548878788948059,-0.298855185508728,-6.018616199493408,-0.7554497879905828,-1.0932516104836634,-0.39954032039095194,-0.55545497306933
2.5907716751098633,-0.2276892215013504,-6.172730445861816,-0.7618213176037614,-1.1025457589519723,-0.3650432331904693,-0.5598428431277473
2.4724698066711426,-0.3382938504219055,-6.238331317901611,-0.7675537574984789,-1.111915777384096,-0.32284955417562755,-0.5645593687271078
0.9838842749595642,-0.10283102840185165,-6.328420162200928,-0.7726945588124039,-1.121355733868355,-0.29404660349537165,-0.5682354093839724
0.700329065322876,-0.1097717210650444,-6.428939342498779,-0.7774783762775849,-1.1308410881045787,-0.2800114923263513,-0.5700070989628633
1.0362179279327393,-0.09857363253831863,-6.541648864746094,-0.7774783762775849,-1.1308410881045787,-0.2800114923263513,-0.5700070989628633
1.5570863485336304,-0.5494459867477417,-6.583300590515137,-0.7819651439082694,-1.1403862077830769,-0.2584006233557982,-0.5754072624569138
1.3755043745040894,0.525937557220459,-6.588232040405273,-0.7860681688306551,-1.1499779613538537,-0.2339623673304839,-0.5756031660363078
-0.6701106429100037,-0.06052081286907196,-6.612616062164307,-0.7899185559436913,-1.159539026847212,-0.2280840862338665,-0.5717246931667129
0.7157526612281799,-0.17199409008026123,-6.670035362243652,-0.793716787796317,-1.1690839186015844,-0.22770373608121502,-0.5736623173579574
1.2387866973876953,-0.7919430732727051,-6.790075778961182,-0.7973761181644334,-1.1787118973050055,-0.2114159080927494,-0.5816951270525654
1.078741192817688,0.15990734100341797,-6.87969446182251,-0.8007387771958261,-1.1884507074595114,-0.1921031756743712,-0.5869620914881428
1.4230605363845825,-0.3448309302330017,-6.78425931930542,-0.8037667605592044,-1.1982462509002325,-0.17125482793101895,-0.5885031213983893
0.2910101115703583,0.1236984133720398,-6.800311088562012,-0.8065019750075023,-1.2080699926816543,-0.15697090586472778,-0.5903458923722307
0.7347068190574646,-1.1765507459640503,-6.786965370178223,-0.8090469264295097,-1.217982205633177,-0.1484232647761626,-0.5991196618104975
0.7234190106391907,0.7544215321540833,-6.831267356872559,-0.811419388770939,-1.2279968478587555,-0.13627221619535715,-0.6026374052589138
1.3604339361190796,0.3498275578022003,-6.971080303192139,-0.811419388770939,-1.2279968478587555,-0.13627221619535715,-0.6026374052589138
0.7351586818695068,0,-7.068918228149414,-0.8135450651090569,-1.2380165110326677,-0.1188089443787856,-0.5997221756105622
0.6643862724304199,0,-7.056623458862305,-0.8154280235602103,-1.248011880626177,-0.10714606975961954,-0.5997221756105622
0.1637960821390152,0.12980647385120392,-6.924611568450928,-0.8171562787260255,-1.2579982358812245,-0.10024455013820759,-0.5986404549951355
-0.06911735236644745,-0.5521772503852844,-6.804778575897217,-0.8188204463165392,-1.2680049081017362,-0.09945556072343618,-0.6021602114662529
0.9605523943901062,-0.7662417888641357,-6.776656150817871,-0.8204161337840115,-1.2781324685038993,-0.09202693537323903,-0.6131470367933314
0.24637798964977264,0.576463520526886,-6.769922256469727,-0.8218661014302293,-1.2883647648302003,-0.0819691821729067,-0.6147285223628085
0.5433009266853333,-0.3260340988636017,-6.744125843048096,-0.82317741565281,-1.2985928492708538,-0.07538852453678083,-0.6126416105156145
1.05027174949646,-0.42208626866340637,-6.7024149894714355,-0.824323226292577,-1.3088554955827478,-0.06210875223526588,-0.6188759469116729
1.0826594829559326,0.5026673674583435,-6.648390293121338,-0.8252102519386889,-1.3191644987883038,-0.04433432529816261,-0.6182044377550484
0.5822412371635437,-0.7485775351524353,-6.676558017730713,-0.8258335392547611,-1.3294849831792,-0.030460152630500302,-0.6202536891524991
-0.09517811983823776,-0.010437559336423874,-6.813112258911133,-0.8258335392547611,-1.3294849831792,-0.030460152630500302,-0.6202536891524991
0.6450387835502625,0.26445096731185913,-6.8949127197265625,-0.8263030236969561,-1.3398049048450766,-0.025877980432900096,-0.6181369107527038
0.18388620018959045,-0.31852275133132935,-6.986490249633789,-0.8266767591358558,-1.3501109416759565,-0.01897027223506799,-0.6185875089528661
-1.0587847232818604,0.33859944343566895,-7.013031005859375,-0.8270536871816551,-1.360419339277108,-0.026261093260836907,-0.6184202031853299
1.3297423124313354,-0.9103630781173706,-6.914877414703369,-0.8274725555700891,-1.370766048471494,-0.024003113351257946,-0.6231849001410107
-0.06347180157899857,0.3250855803489685,-6.934221267700195,-0.8277846720071342,-1.3811931077445225,-0.01345085909415514,-0.628062212622414
0.8115105628967285,-0.06634815782308578,-6.962838649749756,-0.8279569058558343,-1.3916428434116652,-0.007217202749840723,-0.6259060674346983
1.057592511177063,0.20903101563453674,-6.93881368637085,-0.8279473937437432,-1.4020647026704511,0.008358656200774205,-0.6247170436196029
0.3554973900318146,-0.1421157866716385,-6.964076519012451,-0.8277099515639241,-1.4124720065065444,0.020134405377514854,-0.6241594167115787
0.717359185218811,-0.8194244503974915,-7.102216720581055,-0.8272998742121287,-1.4229414370793116,0.029074876837936733,-0.6321722520204881
-0.06451238691806793,0.34909045696258545,-7.2083845138549805,-0.8267699563482811,-1.4335103033625305,0.03451526682377626,-0.636091701965779
-0.17001591622829437,-0.17485949397087097,-7.344697952270508,-0.8267699563482811,-1.4335103033625305,0.03451526682377626,-0.636091701965779
0.4415823519229889,-0.3737735450267792,-7.498465061187744,-0.8261758431209616,-1.444149931245224,0.03677832045456538,-0.6406636439574261
0.3119049668312073,-0.13442562520503998,-7.594538688659668,-0.8255105456051387,-1.4548629502535582,0.04305738144418368,-0.6448986370426913
-0.6642143726348877,0.5591638684272766,-7.563830852508545,-0.8248173885120276,-1.4655817651596015,0.04012146972915301,-0.641359151682506
-1.5182536840438843,0.31248369812965393,-7.502569198608398,-0.8243002576315889,-1.476210553273299,0.021934235923496574,-0.6340954219611983
0.38645437359809875,-0.18857476115226746,-7.632329940795898,-0.8240132842072004,-1.4867702055186955,0.012502575003115027,-0.6330628474863867
0.6161854267120361,-0.9767597913742065,-7.776658058166504,-0.823735280193238,-1.4974021789873941,0.02085790667236615,-0.6427739687574408
1.2233799695968628,-0.30635055899620056,-7.866040229797363,-0.8232599008183994,-1.5082041833521271,0.03618761830827364,-0.6534665550105275
-0.09320399165153503,0.539755642414093,-7.824187755584717,-0.8225782894036819,-1.519079083915954,0.04560575145781804,-0.6515215126487117
0,-0.0922267809510231,-7.750049114227295,-0.8218246660454719,-1.5299066974002753,0.04482905152738858,-0.6477921054698528
0.2776469886302948,-0.6358240246772766,-7.777690410614014,-0.8210582341458049,-1.5407537915751637,0.04714277643264104,-0.6538591955167553
0.5980921387672424,0.19833998382091522,-7.965436935424805,-0.8210582341458049,-1.5407537915751637,0.04714277643264104,-0.6538591955167553
1.2201486825942993,0.421753853559494,-8.055356979370117,-0.8201462544815552,-1.551608382761736,0.062294783277320555,-0.6486917468719186
-1.242358684539795,0.6899242401123047,-7.932987213134766,-0.8191095504548461,-1.562342712008652,0.06210969992777476,-0.6394277627579869
-0.6021733283996582,-0.41310176253318787,-7.717605113983154,-0.8182024812902818,-1.5729806176047865,0.04673859981994598,-0.6371209087781609
-1.7467479705810547,-0.1572147160768509,-7.678737640380859,-0.8175866241612675,-1.5836389047287704,0.02716425566177337,-0.6418735460999112
-0.38818052411079407,-0.48795124888420105,-7.7333807945251465,-0.8172821454901471,-1.5943816003557802,0.00937318487267463,-0.6472499291412533
0.9712716341018677,-0.18490779399871826,-7.7677836418151855,-0.8170854333040753,-1.6052158254972235,0.014232277455933577,-0.6528570878319443
2.1211557388305664,-0.6593120098114014,-7.847413539886475,-0.8166334767789117,-1.6161554033363539,0.04000250556370386,-0.6598922528636952
0.5431783199310303,0.8835666179656982,-7.839807987213135,-0.8157817451543249,-1.6271380343140713,0.06220528938671717,-0.6580234644624094
0,0,-7.7938666343688965,-0.8147072696145511,-1.638043733262197,0.06673177538614242,-0.6506604093126953
-0.428162544965744,-1.0578025579452515,-7.823792457580566,-0.8136248068681824,-1.648961531928377,0.06316375417809456,-0.6594754306289058
0.3636576533317566,0.6940233707427979,-7.967399597167969,-0.8136248068681824,-1.648961531928377,0.06316375417809456,-0.6594754306289058
0.1142592653632164,-0.8807042837142944,-8.096785545349121,-0.8125388889569715,-1.6599657530578151,0.06714639516721933,-0.6610311049036682
0,-0.2780885696411133,-8.163826942443848,-0.8114118476996454,-1.6710634098654704,0.0680985557119128,-0.6706877120149632
-0.5364950895309448,0.6845108866691589,-8.030425071716309,-0.8103141283745531,-1.6822133146270373,0.06362776329915493,-0.6673008593730628
-1.092695713043213,0.36461141705513,-7.914053916931152,-0.8093668039030792,-1.693262139901052,0.050051173277703614,-0.6585581735086937
0.13174721598625183,-0.9531167149543762,-8.00997257232666,-0.808599350216302,-1.7042789778829954,0.04204326913556227,-0.6634623843245208
1.491463303565979,-0.06321211904287338,-8.191699981689453,-0.807785906111296,-1.715407262679654,0.055570023465164195,-0.6719317912744979
1.3418649435043335,-0.05421380698680878,-8.401216506958008,-0.8066629801474967,-1.7266142804457587,0.07918109219075013,-0.6729103406580785
0.9297492504119873,0.5559902787208557,-8.527543067932129,-0.8051855442919622,-1.7377946072017452,0.09811121047338614,-0.6687288700602948
-0.21172474324703217,-0.49554598331451416,-8.621133804321289,-0.8035004946377415,-1.7489358908489023,0.1040947480330941,-0.6682251675985753
-0.5885120034217834,-0.31903573870658875,-8.749859809875488,-0.8035004946377415,-1.7489358908489023,0.1040947480330941,-0.6682251675985753
0.8878943920135498,0,-8.850275039672852,-0.8017447917268711,-1.7600951322351777,0.10658960127135882,-0.6708837987544636
0.3542851507663727,0,-8.866618156433105,-0.7998820359040998,-1.7712765288810854,0.11694109746119151,-0.6708837987544636
-0.5457606911659241,0,-8.808952331542969,-0.7979463145256077,-1.7824579255269932,0.11534546795786191,-0.6708837987544636
0.38644298911094666,0.4080924093723297,-8.776859283447266,-0.7960349537889527,-1.7936109824222501,0.11401782044073709,-0.6674830286763608
0.6729037165641785,-0.6390289664268494,-8.907381057739258,-0.7940610910381575,-1.8047517368277628,0.12284570965469646,-0.6694074999851485
0,-0.24310995638370514,-8.966668128967285,-0.7919669331191511,-1.8159697881415993,0.1284532406260646,-0.6767586576752365
-0.4736834168434143,-0.8566590547561646,-8.954344749450684,-0.7898589404571086,-1.827325471950849,0.12450587881903616,-0.6859233994347353
0.23979590833187103,0,-8.95814323425293,-0.7878000846648824,-1.8388170188202304,0.12255681624810663,-0.6930622248910367
1.2679651975631714,0.07192078977823257,-9.005231857299805,-0.7856527654283935,-1.8503630614024575,0.13512149213056532,-0.6924628849762181
0.6246543526649475,0.6595171093940735,-8.97675895690918,-0.7856527654283935,-1.8503630614024575,0.13512149213056532,-0.6924628849762181
0.7572683691978455,0.41128382086753845,-8.871389389038086,-0.7833047737038658,-1.861829748309682,0.14663751481275525,-0.6835395438907047
-2.019712209701538,0.9903450012207031,-8.775229454040527,-0.7809484848347993,-1.8731247387063266,0.13611714947522446,-0.671859303706636
-2.1857807636260986,-1.5167121887207031,-8.743520736694336,-0.7789719138000266,-1.8843589470450135,0.10107137469749417,-0.6762456969358027
-0.594755232334137,-0.2205127328634262,-8.771462440490723,-0.777480483665899,-1.8957503492801646,0.07790024139782553,-0.6907225712823372
0.3813325762748718,0.18289229273796082,-8.71435260772705,-0.7761969673270505,-1.9072650046654345,0.07612171926399833,-0.6910360749500494
1.973886251449585,-0.8492224216461182,-8.784481048583984,-0.7747647151429474,-1.9188285455068872,0.0957485428283688,-0.6965888260242841
1.094109296798706,0.4637080430984497,-8.776061058044434,-0.7729558508494018,-1.930465131105802,0.12131517239710456,-0.6998014458455146
0.5107623934745789,0.8715142011642456,-8.681655883789062,-0.7708224818865144,-1.942035764769598,0.13468910314938193,-0.6886745938099922
-0.4149126410484314,-1.2759064435958862,-8.705748558044434,-0.768571007267884,-1.9535417574610445,0.1354878510862665,-0.6920445291635892
0.38159093260765076,-0.11169793456792831,-8.84762191772461,-0.768571007267884,-1.9535417574610445,0.1354878510862665,-0.6920445291635892
0.7265424132347107,0.3634437024593353,-8.953021049499512,-0.768571007267884,-1.9535417574610445,0.1354878510862665,-0.6920445291635892
-0.10522761940956116,0.04916577413678169,-9.034659385681152,-0.768571007267884,-1.9535417574610445,0.1354878510862665,-0.6920445291635892
-1.8977210521697998,-0.6196010708808899,-8.969503402709961,-0.768571007267884,-1.9535417574610445,0.1354878510862665,-0.6920445291635892
-2.4473094940185547,1.2768689393997192,-8.368800163269043,-0.768571007267884,-1.9535417574610445,0.1354878510862665,-0.6920445291635892
-1.6089929342269897,-0.6760823130607605,-7.420820236206055,-0.768571007267884,-1.9535417574610445,0.1354878510862665,-0.6920445291635892
-1.4917198419570923,1.442071557044983,-6.253312110900879,-0.768571007267884,-1.9535417574610445,0.1354878510862665,-0.6920445291635892
-2.2815723419189453,-0.5895900130271912,-4.923482894897461,-0.768571007267884,-1.9535417574610445,0.1354878510862665,-0.6920445291635892
-1.2461514472961426,0.2606484591960907,-3.5724294185638428,-0.768571007267884,-1.9535417574610445,0.1354878510862665,-0.6920445291635892
-0.09396535158157349,1.3530468940734863,-2.15459942817688,-0.768571007267884,-1.9535417574610445,0.1354878510862665,-0.6920445291635892
-0.8994755148887634,0.28993523120880127,-0.7268542647361755,-0.768571007267884,-1.9535417574610445,0.1354878510862665,-0.6920445291635892
-0.722042977809906,0.990242063999176,0.7221850156784058,-0.768571007267884,-1.9535417574610445,0.1354878510862665,-0.6920445291635892
0.14776846766471863,1.2239984273910522,2.165357828140259,-0.768571007267884,-1.9535417574610445,0.1354878510862665,-0.6920445291635892
-0.9660682678222656,0.5646678805351257,3.6042566299438477,-0.768571007267884,-1.9535417574610445,0.1354878510862665,-0.6920445291635892
-0.06826815009117126,1.6492581367492676,5.06433629989624,-0.768571007267884,-1.9535417574610445,0.1354878510862665,-0.6920445291635892
-1.2201645374298096,-0.49069496989250183,6.567596435546875,-0.768571007267884,-1.9535417574610445,0.1354878510862665,-0.6920445291635892
-0.07148103415966034,1.3558846712112427,8.035012245178223,-0.768571007267884,-1.9535417574610445,0.1354878510862665,-0.6920445291635892
-0.567931056022644,-0.3113814890384674,9.466672897338867,-0.768571007267884,-1.9535417574610445,0.1354878510862665,-0.6920445291635892
-0.6090735793113708,0.52056884765625,10.856607437133789,-0.768571007267884,-1.9535417574610445,0.1354878510862665,-0.6920445291635892
0.2222159206867218,-0.2012578696012497,12.235569953918457,-0.768571007267884,-1.9535417574610445,0.1354878510862665,-0.6920445291635892
-0.3594869077205658,0.33692681789398193,13.659356117248535,-0.768571007267884,-1.9535417574610445,0.1354878510862665,-0.6920445291635892
0.028709499165415764,0.6292093396186829,15.078771591186523,-0.768571007267884,-1.9535417574610445,0.1354878510862665,-0.6920445291635892
-0.14943785965442657,-0.5510962009429932,16.47773551940918,-0.768571007267884,-1.9535417574610445,0.1354878510862665,-0.6920445291635892
-0.7663275003433228,-0.30612125992774963,17.878467559814453,-0.768571007267884,-1.9535417574610445,0.1354878510862665,-0.6920445291635892
0.7595354914665222,0.5830021500587463,19.257770538330078,-0.768571007267884,-1.9535417574610445,0.1354878510862665,-0.6920445291635892
0.04441381245851517,-0.9874457120895386,20.685440063476562,-0.768571007267884,-1.9535417574610445,0.1354878510862665,-0.6920445291635892
-0.2110368311405182,0.7295653820037842,22.07586097717285,-0.768571007267884,-1.9535417574610445,0.1354878510862665,-0.6920445291635892
-0.9250256419181824,-0.8384164571762085,23.496288299560547,-0.768571007267884,-1.9535417574610445,0.1354878510862665,-0.6920445291635892
-0.30236509442329407,1.079996943473816,25.07756805419922,-0.768571007267884,-1.9535417574610445,0.1354878510862665,-0.6920445291635892
-0.6746444702148438,-0.044612906873226166,26.76434326171875,-0.768571007267884,-1.9535417574610445,0.1354878510862665,-0.6920445291635892
-1.0788825750350952,-0.4570319950580597,28.46641731262207,-0.768571007267884,-1.9535417574610445,0.1354878510862665,-0.6920445291635892
-0.2982884347438812,0.6540677547454834,30.214929580688477,-0.768571007267884,-1.9535417574610445,0.1354878510862665,-0.6920445291635892
0.18491162359714508,0.3611812889575958,32.05095672607422,-0.768571007267884,-1.9535417574610445,0.1354878510862665,-0.6920445291635892
-0.8730922937393188,0.06473743915557861,33.94804763793945,-0.768571007267884,-1.9535417574610445,0.1354878510862665,-0.6920445291635892
-0.45881855487823486,-0.14305523037910461,35.87826156616211,-0.768571007267884,-1.9535417574610445,0.1354878510862665,-0.6920445291635892
0.05509474128484726,-0.8227794170379639,37.829708099365234,-0.768571007267884,-1.9535417574610445,0.1354878510862665,-0.6920445291635892
0.28972744941711426,0.6155180931091309,39.82216262817383,-0.768571007267884,-1.9535417574610445,0.1354878510862665,-0.6920445291635892
0.33562925457954407,-1.2358919382095337,41.89689636230469,-0.768571007267884,-1.9535417574610445,0.1354878510862665,-0.6920445291635892
-0.1033906638622284,0.6016387939453125,43.94667434692383,-0.768571007267884,-1.9535417574610445,0.1354878510862665,-0.6920445291635892
-0.3527011573314667,-0.9795576930046082,45.88154220581055,-0.768571007267884,-1.9535417574610445,0.1354878510862665,-0.6920445291635892
0.6630732417106628,-0.47019609808921814,47.82101058959961,-0.768571007267884,-1.9535417574610445,0.1354878510862665,-0.6920445291635892
-0.209844708442688,0.29604366421699524,49.81132125854492,-0.768571007267884,-1.9535417574610445,0.1354878510862665,-0.6920445291635892
-0.2883729934692383,-1.5544711351394653,51.754981994628906,-0.768571007267884,-1.9535417574610445,0.1354878510862665,-0.6920445291635892
-0.11483411490917206,0.8087825179100037,53.656280517578125,-0.768571007267884,-1.9535417574610445,0.1354878510862665,-0.6920445291635892
-0.04240911453962326,-0.6843995451927185,55.523319244384766,-0.768571007267884,-1.9535417574610445,0.1354878510862665,-0.6920445291635892
0.20055897533893585,-0.16058668494224548,57.49757766723633,-0.768571007267884,-1.9535417574610445,0.1354878510862665,-0.6920445291635892
0.08514691144227982,-0.20409248769283295,59.453887939453125,-0.768571007267884,-1.9535417574610445,0.1354878510862665,-0.6920445291635892
-0.40036827325820923,-0.7878124117851257,61.39013671875,-0.768571007267884,-1.9535417574610445,0.1354878510862665,-0.6920445291635892
0.6126284599304199,1.3563657999038696,63.312870025634766,-0.768571007267884,-1.9535417574610445,0.1354878510862665,-0.6920445291635892
-1.3143386840820312,-0.37358060479164124,65.28563690185547,-0.768571007267884,-1.9535417574610445,0.1354878510862665,-0.6920445291635892
0.04946343973278999,0.9171279072761536,67.22299194335938,-0.768571007267884,-1.9535417574610445,0.1354878510862665,-0.6920445291635892
0.07236076146364212,-1.2957570552825928,69.05976867675781,-0.768571007267884,-1.9535417574610445,0.1354878510862665,-0.6920445291635892
-0.2667979300022125,0.9382460117340088,70.82955932617188,-0.768571007267884,-1.9535417574610445,0.1354878510862665,-0.6920445291635892
0.39617815613746643,-0.21030138432979584,72.651123046875,-0.768571007267884,-1.9535417574610445,0.1354878510862665,-0.6920445291635892
-0.03430384397506714,-0.702519953250885,74.54841613769531,-0.768571007267884,-1.9535417574610445,0.1354878510862665,-0.6920445291635892
0.6884458661079407,-0.03826237469911575,76.29644775390625,-0.768571007267884,-1.9535417574610445,0.1354878510862665,-0.6920445291635892
0.37334176898002625,-1.0369371175765991,77.71714782714844,-0.768571007267884,-1.9535417574610445,0.1354878510862665,-0.6920445291635892
1.4535764455795288,-0.9882600903511047,78.77216339111328,-0.768571007267884,-1.9535417574610445,0.1354878510862665,-0.6920445291635892
1.4306793212890625,-0.3967232406139374,79.43184661865234,-0.768571007267884,-1.9535417574610445,0.1354878510862665,-0.6920445291635892
0.923287034034729,0.4109475612640381,79.79515075683594,-0.768571007267884,-1.9535417574610445,0.1354878510862665,-0.6920445291635892
1.0628694295883179,-0.01669551059603691,79.9028091430664,-0.768571007267884,-1.9535417574610445,0.1354878510862665,-0.6920445291635892
0.10225667804479599,0.01582934893667698,79.8203353881836,-0.768571007267884,-1.9535417574610445,0.1354878510862665,-0.6920445291635892
-0.01662934571504593,0.17413191497325897,79.81221771240234,-0.768571007267884,-1.9535417574610445,0.1354878510862665,-0.6920445291635892
0.30177557468414307,-0.07298444211483002,79.84505462646484,-0.768571007267884,-1.9535417574610445,0.1354878510862665,-0.6920445291635892
-0.08974713832139969,0.078178770840168,79.82721710205078,-0.768571007267884,-1.9535417574610445,0.1354878510862665,-0.6920445291635892
0.28273341059684753,0.021649422124028206,79.82494354248047,-0.768571007267884,-1.9535417574610445,0.1354878510862665,-0.6920445291635892
0.05211372673511505,0.04292714595794678,79.83099365234375,-0.768571007267884,-1.9535417574610445,0.1354878510862665,-0.6920445291635892
0.14730428159236908,0.07581309229135513,79.8233413696289,-0.768571007267884,-1.9535417574610445,0.1354878510862665,-0.6920445291635892
0.15232190489768982,0.1195623055100441,79.82837677001953,-0.768571007267884,-1.9535417574610445,0.1354878510862665,-0.6920445291635892
0.12713421881198883,0.09537524729967117,79.82658386230469,-0.768571007267884,-1.9535417574610445,0.1354878510862665,-0.6920445291635892
0.1238684207201004,0.07039211690425873,79.82701873779297,-0.768571007267884,-1.9535417574610445,0.1354878510862665,-0.6920445291635892
0.15310831367969513,0.05323090776801109,79.82740783691406,-0.768571007267884,-1.9535417574610445,0.1354878510862665,-0.6920445291635892
0.1333504468202591,0.08945872634649277,79.82723236083984,-0.768571007267884,-1.9535417574610445,0.1354878510862665,-0.6920445291635892
0.15106691420078278,0.0931750237941742,79.82792663574219,-0.768571007267884,-1.9535417574610445,0.1354878510862665,-0.6920445291635892
0.11729288101196289,0.10169436782598495,79.82843780517578,-0.768571007267884,-1.9535417574610445,0.1354878510862665,-0.6920445291635892
0.12273113429546356,0.08060692995786667,79.82843780517578,-0.768571007267884,-1.9535417574610445,0.1354878510862665,-0.6920445291635892
0.1418616771697998,0.062080688774585724,79.82862091064453,-0.768571007267884,-1.9535417574610445,0.1354878510862665,-0.6920445291635892
0.13457393646240234,0.09328678995370865,79.82884979248047,-0.768571007267884,-1.9535417574610445,0.1354878510862665,-0.6920445291635892
0.13593381643295288,0.09852738678455353,79.82867431640625,-0.768571007267884,-1.9535417574610445,0.1354878510862665,-0.6920445291635892
0.13402457535266876,0.09822908043861389,79.8302001953125,-0.768571007267884,-1.9535417574610445,0.1354878510862665,-0.6920445291635892
0.12710162997245789,0.09485866129398346,79.83036804199219,-0.768571007267884,-1.9535417574610445,0.1354878510862665,-0.6920445291635892
0.1363188475370407,0.08171464502811432,79.82965087890625,-0.768571007267884,-1.9535417574610445,0.1354878510862665,-0.6920445291635892
0.14110153913497925,0.07562518864870071,79.82891082763672,-0.768571007267884,-1.9535417574610445,0.1354878510862665,-0.6920445291635892
0.13315534591674805,0.0829383134841919,79.8288803100586,-0.7662938307994287,-1.9650648215927895,0.1377733251283642,-0.690723166645815
0.12638898193836212,0.08546765148639679,79.8286361694336,-0.7639795848022993,-1.9765651795115413,0.1399361945271568,-0.6893197836043934
0.08798612654209137,0.3389340937137604,79.83108520507812,-0.7616324277332023,-1.988024370228198,0.14172265376449392,-0.6857831023943921
0.49535322189331055,1.6557376384735107,79.83650970458984,-0.7592298738268194,-1.9993155697311469,0.1465838150014556,-0.6691608379594982
0.549329936504364,2.244445562362671,79.77061462402344,-0.7567142628019065,-2.0101974043081916,0.15528950798810287,-0.6366593112858634
0.33497557044029236,3.1665427684783936,79.79499053955078,-0.7540646942307891,-2.020432629751092,0.162658720545975,-0.5915677418621879
0.5551953911781311,0.7476341128349304,79.82220458984375,-0.7512918981271327,-2.030020274276482,0.1700768118927952,-0.5589496011845768
0.24912698566913605,1.3340226411819458,79.83812713623047,-0.7484014288749717,-2.0391915414660846,0.17677949836652243,-0.5416024615677695
0.1308232992887497,1.164758563041687,79.87665557861328,-0.745428718465741,-2.0480447226863654,0.17994575074117147,-0.5207792848659059
0.4516567587852478,1.1969718933105469,79.81008911132812,-0.7423891726160219,-2.0565603683746616,0.18479975122512146,-0.5010981977296373
0.539277970790863,1.331984519958496,79.87748718261719,-0.7423891726160219,-2.0565603683746616,0.18479975122512146,-0.5010981977296373
-0.5342598557472229,0.6016950607299805,79.9521713256836,-0.7393088282820585,-2.0647777216992744,0.18484156885048514,-0.48498420122389996
0.43904775381088257,0.6970560550689697,79.87187957763672,-0.7362347474194071,-2.0727706006699647,0.1840481346676823,-0.4741612752589087
0.318939745426178,0.05836259201169014,79.79642486572266,-0.7331146404874987,-2.080620828962677,0.19036469716132448,-0.4678661198665699
0.18547891080379486,0.1437975913286209,79.71305847167969,-0.7299068664614607,-2.088404558725499,0.1945681859632409,-0.4661814516720673
0.4300556480884552,1.284498691558838,79.60152435302734,-0.7266213179065948,-2.0960750623448328,0.19969764062067633,-0.45427898264800515
0.7904278635978699,0.8821524977684021,79.53472137451172,-0.7232082680968275,-2.103495916834152,0.2098683365513957,-0.43622355607027813
0.12836995720863342,1.9275468587875366,79.54850006103516,-0.7196466570834149,-2.110571191424451,0.21752498505811654,-0.4128093947656453
0.21647082269191742,-0.1718498319387436,79.68766784667969,-0.7159972933893977,-2.1173294245992365,0.22039865822395446,-0.39817858620857205
-0.9479293823242188,0.46390119194984436,79.84101104736328,-0.7123747781523062,-2.123945453024934,0.2143031702270186,-0.39574482487514623
0.2581739127635956,0.4284653067588806,79.82131958007812,-0.7088509583339088,-2.130479230210443,0.20855520798068009,-0.38830843738590687
1.2182358503341675,0.09671524912118912,79.8504409790039,-0.7052725097451268,-2.136914566628272,0.22085862267316145,-0.38393193275357296
-1.3035389184951782,1.0631792545318604,79.9304428100586,-0.7015974565247519,-2.1432328839447443,0.2201477637718197,-0.3742661452231309
-0.1401049643754959,1.0954355001449585,79.85444641113281,-0.6980285801759765,-2.149320749229388,0.20811739808123073,-0.3562776889341574
0.7899086475372314,0.6183255910873413,79.72755432128906,-0.6980285801759765,-2.149320749229388,0.20811739808123073,-0.3562776889341574
1.9363327026367188,0.7120693325996399,79.62445068359375,-0.6943706345586383,-2.155166322175257,0.23083607599934697,-0.34519106457009924
-0.5895153880119324,-1.6754560470581055,79.63013458251953,-0.6904298376451337,-2.1609864084399293,0.2420595536212202,-0.35321928719058643
0.43666499853134155,-0.7520244717597961,79.52474975585938,-0.6864061263618273,-2.1670419715958014,0.24078580037554861,-0.37344829151406894
-0.7820298671722412,-0.5889961123466492,79.2859878540039,-0.6824170133603349,-2.1733592362171543,0.23790775980354112,-0.3846234630482893
1.275908350944519,0.5019820332527161,79.17800903320312,-0.6784175869133472,-2.1797756699123405,0.24202341383497677,-0.3853485803740721
0,1.6500158309936523,79.18824768066406,-0.6742952586028376,-2.18604870195578,0.2526559834261811,-0.3674152648386857
-0.9241575598716736,1.6454205513000488,79.19963836669922,-0.6701485031540589,-2.191943439954321,0.2449546704272505,-0.33995329498623816
-0.28047141432762146,0.9264180064201355,79.29024505615234,-0.6661495801034797,-2.19743072830425,0.23491609564225638,-0.3185213070052366
0.6719889044761658,-0.4011479318141937,79.3327407836914,-0.6622071231281818,-2.202702939665823,0.23817874139349424,-0.31414405638352044
0.9218857288360596,-0.06523482501506805,79.30939483642578,-0.6581267916998658,-2.207971061630328,0.25146103000442943,-0.3180305793570976
0.23803621530532837,0.6980092525482178,79.27242279052734,-0.6538552243981155,-2.213227628617701,0.26112704620560767,-0.3127574591276547
0.33471328020095825,0.33719199895858765,79.21803283691406,-0.6494633326908341,-2.218368363960696,0.2658999586681601,-0.30413078203176463
0.9761173129081726,0.4510454833507538,78.98979187011719,-0.6449406368107322,-2.223382471613843,0.2768235469440695,-0.29756213634585343
-0.1387176811695099,0.6126771569252014,78.8404769897461,-0.640268758276127,-2.2282679709251436,0.2838018772085584,-0.2886977810102205
-0.07918358594179153,0.531987726688385,78.72381591796875,-0.6355538590217559,-2.2330001099917296,0.28198603331596417,-0.27915890698010726
-0.46364420652389526,-0.18934869766235352,78.70418548583984,-0.6355538590217559,-2.2330001099917296,0.28198603331596417,-0.27915890698010726
1.0307506322860718,0.41455334424972534,78.74454498291016,-0.6308147094091452,-2.2376371192298294,0.2867119201973156,-0.27728220159187916
-0.8623716235160828,-0.5772220492362976,78.78191375732422,-0.6260244844191365,-2.242269785694207,0.2881150786037322,-0.27863777413343394
0,-0.8231145739555359,78.716796875,-0.6212824533607073,-2.2470109941952634,0.2809286484077648,-0.2903072459933659
0.241404727101326,-1.6385509967803955,78.63803100585938,-0.616583545003418,-2.2520203972931205,0.28294035446694255,-0.31082112574949866
1.3603181838989258,-0.11118032783269882,78.68334197998047,-0.6117566416712606,-2.2573222585087103,0.29628804539194464,-0.32540222012127445
-0.6642627120018005,1.2294238805770874,78.64673614501953,-0.6067701703958465,-2.262667973041791,0.302088507657754,-0.31608352384840455
-0.17973753809928894,0.997416079044342,78.63117218017578,-0.6017939730633631,-2.2677813901087354,0.29505517224024497,-0.2975265241848926
0.6308048963546753,1.4422593116760254,78.65899658203125,-0.596845062737258,-2.2725707436096836,0.29881406689237316,-0.27719589592888955
-0.06723850965499878,0.6415265798568726,78.60863494873047,-0.5918256917344199,-2.2770459678549195,0.3035104534482038,-0.2598310134994487
-0.1493968963623047,0,78.56329345703125,-0.5867822283023677,-2.2813319342896423,0.3017051583980596,-0.2544849586673081
0.6989960670471191,0.2882145345211029,78.53288269042969,-0.5817156423866581,-2.2855533353692,0.3062851514870997,-0.2520831708796322
-1.1591322422027588,-0.6691930890083313,78.55159759521484,-0.5766428437629255,-2.289781178394589,0.3024506833608027,-0.25525799216702577
0.7260358333587646,0.7565173506736755,78.5908203125,-0.5716320751797486,-2.2940294140792017,0.2988415466204361,-0.25453028998648125
0.764809787273407,-0.1977458894252777,78.62013244628906,-0.5665478517901974,-2.2982327820052784,0.3112652601257042,-0.2498738611427446
-0.3788221478462219,0.7044562101364136,78.58116912841797,-0.5613332927575866,-2.3023621581409413,0.3144818237875974,-0.24565127513681848
0.2807847559452057,0.26630228757858276,78.36591339111328,-0.5613332927575866,-2.3023621581409413,0.3144818237875974,-0.24565127513681848
1.306079387664795,0.7734692692756653,78.16222381591797,-0.5559817301289315,-2.3063841397017733,0.3277056916510141,-0.23698651216303307
0.3863633871078491,0.3330031931400299,78.08708190917969,-0.5504024378531664,-2.310257076539045,0.34180938144078615,-0.22776590830956894
-0.8713083863258362,1.0189177989959717,78.00900268554688,-0.5447392915652102,-2.3139592916086396,0.3377681731139696,-0.21649990004176894
0.8101470470428467,-0.9422414302825928,78.05335998535156,-0.5391140693285387,-2.317562298528175,0.3372584952866114,-0.2158609303024908
0,-0.5441770553588867,78.02947235107422,-0.5334368341954949,-2.3212632042058305,0.3440097206786351,-0.2282477510161698
-1.256669044494629,-0.5698059797286987,77.99002075195312,-0.5277906075344965,-2.3251446933224256,0.3335374786411799,-0.237530942975233
0.38838228583335876,0,77.95344543457031,-0.5222919472487172,-2.329143112231716,0.326301755652336,-0.24227932613963882
0.9406566023826599,-0.21132902801036835,77.931640625,-0.5167612902872744,-2.3331957766276554,0.33737707972080283,-0.24404040137305855
0.9884546399116516,1.1812537908554077,77.89814758300781,-0.5110043729001017,-2.337195760764231,0.3534530067399221,-0.23595769501601654
-0.281486451625824,1.388190746307373,77.799560546875,-0.505064394441361,-2.3409499553660837,0.35934440830897063,-0.2145456572063267
0,0,77.6763687133789,-0.4990948686397966,-2.3444293141843624,0.35699868787875544,-0.2029774009870986
0.5270928740501404,-0.3080633282661438,77.6194076538086,-0.49310828683667496,-2.347833664154166,0.36139112849583993,-0.20554459538931646
0,-0.6095314025878906,77.59367370605469,-0.48704849768993524,-2.351323129266964,0.3657835691129244,-0.2131912181464334
0,0.27800145745277405,77.57176971435547,-0.4809521048713865,-2.3548993391489277,0.3657835691129244,-0.21595396768922603
-0.21092455089092255,0.10966154932975769,77.55433654785156,-0.4748703595910941,-2.3584716509016106,0.36402586452216673,-0.21272344263270493
0.4072258770465851,-0.611016035079956,77.56407165527344,-0.4748703595910941,-2.3584716509016106,0.36402586452216673,-0.21272344263270493
0.6275980472564697,0.9675788879394531,77.5692138671875,-0.4748703595910941,-2.3584716509016106,0.36402586452216673,-0.21272344263270493
-0.3393413722515106,-0.3651997148990631,77.568115234375,-0.4748703595910941,-2.3584716509016106,0.36402586452216673,-0.21272344263270493
-0.6152563691139221,-0.9487094283103943,77.60289001464844,-0.4748703595910941,-2.3584716509016106,0.36402586452216673,-0.21272344263270493
-0.7607679963111877,-1.7434550523757935,77.83488464355469,-0.4748703595910941,-2.3584716509016106,0.36402586452216673,-0.21272344263270493
0.15184850990772247,-2.741424083709717,78.2372055053711,-0.4748703595910941,-2.3584716509016106,0.36402586452216673,-0.21272344263270493
-0.716057300567627,-1.2139322757720947,78.79000091552734,-0.4748703595910941,-2.3584716509016106,0.36402586452216673,-0.21272344263270493
-1.1592371463775635,-0.0738973617553711,79.62298583984375,-0.4748703595910941,-2.3584716509016106,0.36402586452216673,-0.21272344263270493
-2.252795457839966,-0.5907309055328369,80.5702896118164,-0.4748703595910941,-2.3584716509016106,0.36402586452216673,-0.21272344263270493
0.5025118589401245,-1.8778308629989624,81.51950073242188,-0.4748703595910941,-2.3584716509016106,0.36402586452216673,-0.21272344263270493
-1.0311262607574463,-2.080904006958008,82.53315734863281,-0.4748703595910941,-2.3584716509016106,0.36402586452216673,-0.21272344263270493
0.5342344045639038,-1.4212414026260376,83.6794662475586,-0.4748703595910941,-2.3584716509016106,0.36402586452216673,-0.21272344263270493
0.21406619250774384,-1.7748610973358154,84.96597290039062,-0.4748703595910941,-2.3584716509016106,0.36402586452216673,-0.21272344263270493
1.4485734701156616,-1.5215357542037964,86.35223388671875,-0.4748703595910941,-2.3584716509016106,0.36402586452216673,-0.21272344263270493
0.6914005279541016,-1.7442940473556519,87.67604064941406,-0.4748703595910941,-2.3584716509016106,0.36402586452216673,-0.21272344263270493
-0.2707677483558655,0.055761080235242844,88.92431640625,-0.4748703595910941,-2.3584716509016106,0.36402586452216673,-0.21272344263270493
0.8072613477706909,-0.9193599224090576,90.03882598876953,-0.4748703595910941,-2.3584716509016106,0.36402586452216673,-0.21272344263270493
0.5492478609085083,-1.1613729000091553,90.96178436279297,-0.4748703595910941,-2.3584716509016106,0.36402586452216673,-0.21272344263270493
0.7139060497283936,-0.4907224774360657,91.83839416503906,-0.4748703595910941,-2.3584716509016106,0.36402586452216673,-0.21272344263270493
0.1721910685300827,-0.8633723855018616,92.7034683227539,-0.4748703595910941,-2.3584716509016106,0.36402586452216673,-0.21272344263270493
-0.33353886008262634,-0.7688934803009033,93.51214599609375,-0.4748703595910941,-2.3584716509016106,0.36402586452216673,-0.21272344263270493
-0.3328445255756378,0.19944007694721222,94.30623626708984,-0.4748703595910941,-2.3584716509016106,0.36402586452216673,-0.21272344263270493
-0.09177514165639877,0.041477516293525696,95.03301239013672,-0.4748703595910941,-2.3584716509016106,0.36402586452216673,-0.21272344263270493
-0.47925040125846863,0.2971050441265106,95.78485870361328,-0.4748703595910941,-2.3584716509016106,0.36402586452216673,-0.21272344263270493
-0.45770666003227234,-0.22052226960659027,96.50532531738281,-0.4748703595910941,-2.3584716509016106,0.36402586452216673,-0.21272344263270493
-1.1179096698760986,0.10646691173315048,97.28357696533203,-0.4748703595910941,-2.3584716509016106,0.36402586452216673,-0.21272344263270493
-0.6586825251579285,-0.4856405258178711,98.17212677001953,-0.4748703595910941,-2.3584716509016106,0.36402586452216673,-0.21272344263270493
0.30153292417526245,-0.8821497559547424,99.12096405029297,-0.4748703595910941,-2.3584716509016106,0.36402586452216673,-0.21272344263270493
-0.9173650145530701,0.01385722029954195,100.1291275024414,-0.4748703595910941,-2.3584716509016106,0.36402586452216673,-0.21272344263270493
-0.9098835587501526,0.007050171494483948,101.13500213623047,-0.4748703595910941,-2.3584716509016106,0.36402586452216673,-0.21272344263270493
0.4041479825973511,-0.6827883720397949,102.2405014038086,-0.4748703595910941,-2.3584716509016106,0.36402586452216673,-0.21272344263270493
-0.562543511390686,-0.46950483322143555,103.35294342041016,-0.4748703595910941,-2.3584716509016106,0.36402586452216673,-0.21272344263270493
-0.013938934542238712,-0.38937515020370483,104.46827697753906,-0.4748703595910941,-2.3584716509016106,0.36402586452216673,-0.21272344263270493
0.5145488977432251,-0.5208397507667542,105.59923553466797,-0.4748703595910941,-2.3584716509016106,0.36402586452216673,-0.21272344263270493
0.30669018626213074,-0.5365685820579529,106.74669647216797,-0.4748703595910941,-2.3584716509016106,0.36402586452216673,-0.21272344263270493
-1.1440961360931396,0.18174712359905243,107.95034790039062,-0.4748703595910941,-2.3584716509016106,0.36402586452216673,-0.21272344263270493
0.4615212380886078,-0.4213533103466034,109.26016235351562,-0.4748703595910941,-2.3584716509016106,0.36402586452216673,-0.21272344263270493
-0.7416178584098816,-0.6583434343338013,110.66349029541016,-0.4748703595910941,-2.3584716509016106,0.36402586452216673,-0.21272344263270493
0.2554071545600891,0.9980704188346863,112.13330841064453,-0.4748703595910941,-2.3584716509016106,0.36402586452216673,-0.21272344263270493
-0.12756523489952087,0.06175924092531204,113.5986099243164,-0.4748703595910941,-2.3584716509016106,0.36402586452216673,-0.21272344263270493
0.5032248497009277,-0.08201437443494797,115.06501770019531,-0.4748703595910941,-2.3584716509016106,0.36402586452216673,-0.21272344263270493
-0.5607588887214661,-0.0661335214972496,116.53473663330078,-0.4748703595910941,-2.3584716509016106,0.36402586452216673,-0.21272344263270493
0.7125685214996338,-0.03232064098119736,118.06758117675781,-0.4748703595910941,-2.3584716509016106,0.36402586452216673,-0.21272344263270493
-0.7898210883140564,0.19640742242336273,119.5777587890625,-0.4748703595910941,-2.3584716509016106,0.36402586452216673,-0.21272344263270493
-0.12615738809108734,0.052582673728466034,121.17170715332031,-0.4748703595910941,-2.3584716509016106,0.36402586452216673,-0.21272344263270493
-0.005280802026391029,-0.18754923343658447,122.77151489257812,-0.4748703595910941,-2.3584716509016106,0.36402586452216673,-0.21272344263270493
0.2429662048816681,0.26124757528305054,124.4520034790039,-0.4748703595910941,-2.3584716509016106,0.36402586452216673,-0.21272344263270493
-0.1376049518585205,-0.1506701111793518,126.20398712158203,-0.4748703595910941,-2.3584716509016106,0.36402586452216673,-0.21272344263270493
-0.27947044372558594,-0.25934386253356934,127.96859741210938,-0.4748703595910941,-2.3584716509016106,0.36402586452216673,-0.21272344263270493
0.07592182606458664,-0.2768203616142273,129.7843780517578,-0.4748703595910941,-2.3584716509016106,0.36402586452216673,-0.21272344263270493
-0.04625651612877846,0.01142327580600977,131.66065979003906,-0.4748703595910941,-2.3584716509016106,0.36402586452216673,-0.21272344263270493
-0.3258790969848633,-0.23208487033843994,133.59132385253906,-0.4748703595910941,-2.3584716509016106,0.36402586452216673,-0.21272344263270493
0.9924854636192322,0.18451976776123047,135.55564880371094,-0.4748703595910941,-2.3584716509016106,0.36402586452216673,-0.21272344263270493
-0.536909818649292,0.23928673565387726,137.52316284179688,-0.4748703595910941,-2.3584716509016106,0.36402586452216673,-0.21272344263270493
-0.3026703894138336,-0.03246857598423958,139.4108123779297,-0.4748703595910941,-2.3584716509016106,0.36402586452216673,-0.21272344263270493
-0.0007501745130866766,0.05987420305609703,141.32452392578125,-0.4748703595910941,-2.3584716509016106,0.36402586452216673,-0.21272344263270493
1.5334441661834717,0.3099311590194702,143.28810119628906,-0.4748703595910941,-2.3584716509016106,0.36402586452216673,-0.21272344263270493
-1.369815468788147,0.12399306148290634,145.21444702148438,-0.4748703595910941,-2.3584716509016106,0.36402586452216673,-0.21272344263270493
2.657806396484375,0.09444602578878403,147.0889434814453,-0.4748703595910941,-2.3584716509016106,0.36402586452216673,-0.21272344263270493
-1.636743187904358,-0.2087281495332718,148.88552856445312,-0.4748703595910941,-2.3584716509016106,0.36402586452216673,-0.21272344263270493
-0.794792652130127,0.2576054036617279,150.61953735351562,-0.4748703595910941,-2.3584716509016106,0.36402586452216673,-0.21272344263270493
2.0844004154205322,-0.238133043050766,152.46725463867188,-0.4748703595910941,-2.3584716509016106,0.36402586452216673,-0.21272344263270493
-0.30954238772392273,0.149031400680542,154.36524963378906,-0.4748703595910941,-2.3584716509016106,0.36402586452216673,-0.21272344263270493
0.4344092607498169,-0.02474762685596943,156.19313049316406,-0.4748703595910941,-2.3584716509016106,0.36402586452216673,-0.21272344263270493
0.4322991967201233,0.3730371296405792,158.01852416992188,-0.4748703595910941,-2.3584716509016106,0.36402586452216673,-0.21272344263270493
-0.39068278670310974,0.022903069853782654,159.880126953125,-0.4748703595910941,-2.3584716509016106,0.36402586452216673,-0.21272344263270493
0.47501370310783386,0.13672278821468353,161.72988891601562,-0.4748703595910941,-2.3584716509016106,0.36402586452216673,-0.21272344263270493
-0.9398350715637207,0.01684001088142395,163.39610290527344,-0.4748703595910941,-2.3584716509016106,0.36402586452216673,-0.21272344263270493
0.6253253221511841,0.6786075234413147,164.63192749023438,-0.4748703595910941,-2.3584716509016106,0.36402586452216673,-0.21272344263270493
0.4313344359397888,1.9776079654693604,165.5193634033203,-0.4748703595910941,-2.3584716509016106,0.36402586452216673,-0.21272344263270493
0.6220852136611938,1.507241129875183,166.0296630859375,-0.4748703595910941,-2.3584716509016106,0.36402586452216673,-0.21272344263270493
0.5236837267875671,0.7516748905181885,166.04275512695312,-0.4748703595910941,-2.3584716509016106,0.36402586452216673,-0.21272344263270493
-0.05207507684826851,-0.384332537651062,165.8789520263672,-0.4748703595910941,-2.3584716509016106,0.36402586452216673,-0.21272344263270493
0.4832536280155182,0.6499010920524597,165.92431640625,-0.4748703595910941,-2.3584716509016106,0.36402586452216673,-0.21272344263270493
0.026761451736092567,-0.45311814546585083,165.9397735595703,-0.4748703595910941,-2.3584716509016106,0.36402586452216673,-0.21272344263270493
-0.286441832780838,0.26216283440589905,165.9000244140625,-0.4748703595910941,-2.3584716509016106,0.36402586452216673,-0.21272344263270493
-0.24071551859378815,0.31005555391311646,165.9207763671875,-0.4748703595910941,-2.3584716509016106,0.36402586452216673,-0.21272344263270493
-0.08657389879226685,-0.12918411195278168,165.92408752441406,-0.4748703595910941,-2.3584716509016106,0.36402586452216673,-0.21272344263270493
0.10909750312566757,0.11885780841112137,165.90814208984375,-0.4748703595910941,-2.3584716509016106,0.36402586452216673,-0.21272344263270493
0.03371699899435043,0.19505120813846588,165.91754150390625,-0.4748703595910941,-2.3584716509016106,0.36402586452216673,-0.21272344263270493
-0.14373117685317993,-0.04216373339295387,165.91732788085938,-0.4748703595910941,-2.3584716509016106,0.36402586452216673,-0.21272344263270493
-0.13760888576507568,0.18233664333820343,165.91078186035156,-0.4748703595910941,-2.3584716509016106,0.36402586452216673,-0.21272344263270493
-0.04989074915647507,0.11771254241466522,165.91690063476562,-0.4748703595910941,-2.3584716509016106,0.36402586452216673,-0.21272344263270493
0.0015428332844749093,0.009523958899080753,165.9170684814453,-0.4748703595910941,-2.3584716509016106,0.36402586452216673,-0.21272344263270493
-0.044821806252002716,0.13251793384552002,165.9130859375,-0.4748703595910941,-2.3584716509016106,0.36402586452216673,-0.21272344263270493
-0.1186295747756958,0.09154970198869705,165.91650390625,-0.4748703595910941,-2.3584716509016106,0.36402586452216673,-0.21272344263270493
-0.07326964288949966,0.05752961337566376,165.91473388671875,-0.4748703595910941,-2.3584716509016106,0.36402586452216673,-0.21272344263270493
-0.048674166202545166,0.11960864067077637,165.91424560546875,-0.4748703595910941,-2.3584716509016106,0.36402586452216673,-0.21272344263270493
-0.04348732903599739,0.06906510144472122,165.9169158935547,-0.4748703595910941,-2.3584716509016106,0.36402586452216673,-0.21272344263270493
-0.07781737297773361,0.06832508742809296,165.91551208496094,-0.4748703595910941,-2.3584716509016106,0.36402586452216673,-0.21272344263270493
-0.0843735784292221,0.11809741705656052,165.91514587402344,-0.4748703595910941,-2.3584716509016106,0.36402586452216673,-0.21272344263270493
-0.04837705194950104,0.06967844814062119,165.91610717773438,-0.4748703595910941,-2.3584716509016106,0.36402586452216673,-0.21272344263270493
-0.03764304518699646,0.07974520325660706,165.91502380371094,-0.4748703595910941,-2.3584716509016106,0.36402586452216673,-0.21272344263270493
-0.04327245056629181,0.10606662929058075,165.91554260253906,-0.4748703595910941,-2.3584716509016106,0.36402586452216673,-0.21272344263270493
-0.07528910040855408,0.08847474306821823,165.91661071777344,-0.4688114952900979,-2.3620035317946306,0.36303785159737634,-0.21110226452971495
-0.18898694217205048,0.11764691025018692,165.91087341308594,-0.46277921693309865,-2.365507588866423,0.36083555124253797,-0.2093845840853949
-0.750785768032074,0.4674558639526367,165.92250061035156,-0.4568305530728205,-2.368956699797416,0.3530041119908369,-0.2045087276337047
-1.3133659362792969,0.16576799750328064,165.9003143310547,-0.4510904950746615,-2.372321204712043,0.33580284778824215,-0.19923186212157207
-2.985529899597168,0.6562337279319763,165.8224334716797,-0.4457923153779044,-2.3755846522942474,0.29997871582260494,-0.19238184774294492
-2.947118043899536,0.883843719959259,165.7318572998047,-0.44120465955471494,-2.3786840666005262,0.2505399829601324,-0.17954786901051797
-0.6815983653068542,0.16219204664230347,165.7691650390625,-0.43728098736712984,-2.381603889711354,0.22030067955007915,-0.1708309042888383
-0.7230015397071838,0.40879786014556885,166.00584411621094,-0.4337068510346989,-2.384411419372641,0.20859568034162884,-0.16607265506560603
-1.171608567237854,0.15929703414440155,166.05857849121094,-0.43036182650865407,-2.387139845922742,0.19280726278375354,-0.16133853094652295
-1.2291922569274902,0.6189512014389038,165.9491424560547,-0.4273150944083808,-2.3897747764221573,0.17280058924904235,-0.15485312898332873
-1.351672649383545,0.6363747119903564,165.89016723632812,-0.4246143113171683,-2.392268486494558,0.1512933816964504,-0.14439207970475157
0.21678099036216736,-0.3127571642398834,165.73194885253906,-0.4221715668763262,-2.394652547715488,0.1418359512046056,-0.14169526680683095
-1.8767098188400269,0.40121254324913025,165.527587890625,-0.4199229071915604,-2.3970079927609484,0.12800321096729012,-0.14095813864842055
-0.8560550212860107,0.4578268527984619,165.46958923339844,-0.4179792956782254,-2.399297639558141,0.10523017063290646,-0.1337994770146906
-2.0815823078155518,0,165.41246032714844,-0.416429462093309,-2.4014958373102746,0.0807498595570601,-0.12998425324137008
-0.8711540699005127,-0.23558084666728973,165.4263153076172,-0.4152886822380327,-2.4036786013119826,0.056143723076092895,-0.1319474269635975
-0.33720311522483826,0.37552809715270996,165.53094482421875,-0.4144368672135093,-2.405868006535648,0.04607407986671497,-0.13078119987621897
0.09020444005727768,0.5109924674034119,165.56353759765625,-0.4136861185681729,-2.4079861292721576,0.04401575757365196,-0.12339352850491796
-1.4156256914138794,0.6479321122169495,165.5370330810547,-0.41304456575106735,-2.409962207206988,0.03297058047901361,-0.11373582367474828
0.18981479108333588,0,165.5388946533203,-0.4125801818333845,-2.4118128089826634,0.02275548964292575,-0.1083363894062737
-0.7188279628753662,0.41582101583480835,165.5017852783203,-0.412237660698488,-2.413589539013335,0.01834704654465883,-0.10487121427431696
-1.092362403869629,-0.8194613456726074,165.4053497314453,-0.41205765369821207,-2.4153654231630344,0.0032537934884505383,-0.10823488368963195
-0.9640333652496338,1.0291815996170044,165.25665283203125,-0.4121462290684823,-2.417154773984671,-0.013882837920876651,-0.10648721490676198
-0.3508516252040863,0.3774207830429077,165.18995666503906,-0.4124689211581673,-2.418831880178766,-0.024840212841324316,-0.09476552838459605
-0.771123468875885,0.659594714641571,165.14041137695312,-0.4129608396426116,-2.4203392906867256,-0.03419000529199075,-0.08612373257055873
-0.17493976652622223,-0.052670855075120926,165.13870239257812,-0.4135963718999366,-2.4217325387393207,-0.042073865587008305,-0.08106603374083832
0.6078063249588013,-0.15942776203155518,165.19131469726562,-0.41426754281538447,-2.4230983683723006,-0.038466644266736814,-0.08283352221672728
-0.36291104555130005,0.4769957661628723,165.3759765625,-0.4148916469365379,-2.4244568737422925,-0.036425850271674304,-0.08018712218229963
-1.3668632507324219,-1.0518074035644531,165.44407653808594,-0.4156188676560855,-2.4258332432534835,-0.05084063607403865,-0.08497721916064614
-0.1272886097431183,-0.17614935338497162,165.39932250976562,-0.4165699721365192,-2.4273348050142824,-0.06329190157800149,-0.09521019213522468
0.07481415569782257,1.1487007141113281,165.3773193359375,-0.4176284812221279,-2.4288541032609303,-0.06372918869504562,-0.08710559746250504
-0.6369665861129761,0.8953363299369812,165.38258361816406,-0.4187296727302686,-2.430163916201691,-0.06841379228183857,-0.07007195542876912
-0.5414602756500244,0.0603097528219223,165.3717803955078,-0.41995173780036615,-2.431265417814201,-0.07823401612986357,-0.06210823807244493
0,0.45858410000801086,165.2673797607422,-0.42129323947722846,-2.432264520820073,-0.08274618509361377,-0.057784122632195484
-0.1403016448020935,0.18500736355781555,165.1786346435547,-0.42268208573189997,-2.4331828956789727,-0.08391536546696454,-0.05242086043581359
-0.5418500900268555,0.08301682770252228,165.1205291748047,-0.42412804680460137,-2.4340379638951766,-0.08959996325720579,-0.05018732550864411
-0.07475573569536209,-0.07296767085790634,165.09292602539062,-0.4256641993745633,-2.4348737214622065,-0.09473834513822427,-0.050103582534938976
-0.9191344380378723,-0.7022626996040344,165.18577575683594,-0.4273121919444874,-2.4357626166135153,-0.10302076325266789,-0.05656383562212182
0.1403590887784958,-0.05656992271542549,165.2661895751953,-0.4290832862868415,-2.436758043917101,-0.10951055782982935,-0.06288744080811731
-0.41534629464149475,0.5512682199478149,165.28497314453125,-0.43092755858441245,-2.4377718138821507,-0.11180211787868767,-0.058764954997847396
0.2672937214374542,-0.7217841148376465,165.2734832763672,-0.4328012086444186,-2.438763071180371,-0.11303588932205468,-0.06018592078859599
-0.4976658523082733,2.2383785247802734,165.10409545898438,-0.43470113819776335,-2.4396608508039352,-0.1149556570793115,-0.047547634039074096
0.26909902691841125,-0.16178320348262787,165.0637664794922,-0.4366329385119595,-2.44030910336283,-0.11686038062422702,-0.030242673028260385
-1.5367077589035034,-0.6941450834274292,164.91551208496094,-0.43866863990652893,-2.4408725873776698,-0.1274237867241028,-0.03737540875251086
-0.8404017090797424,-0.9280757308006287,164.73117065429688,-0.4409574467316517,-2.4416081650800887,-0.14723303229062984,-0.05089391553774467
-0.18496035039424896,1.0339958667755127,164.75576782226562,-0.4434825363017368,-2.4424490414407196,-0.15577771611957977,-0.05001124773795397
0.10659794509410858,-0.3571701645851135,164.84666442871094,-0.44608427340409784,-2.4432355604514777,-0.1564307361637476,-0.04437103355303398
0.24499545991420746,0.8407565355300903,164.8421173095703,-0.4486670361314792,-2.4439414952904905,-0.15350079112201165,-0.0403411471284925
-0.06283405423164368,0.2538416385650635,164.80850219726562,-0.45121273255256256,-2.444537833980542,-0.1519827794079903,-0.031219495677699556
1.0628314018249512,-2.2227835655212402,164.74734497070312,-0.45367633461577955,-2.4451948909867642,-0.14364946817804605,-0.04762734506900103
-0.4477260708808899,2.450270652770996,164.62745666503906,-0.4560277767707648,-2.4459728823568554,-0.13852359042017887,-0.04573161934191973
-0.30781131982803345,0.9312191605567932,164.5316162109375,-0.45838897115212257,-2.446500250331073,-0.14481973534275322,-0.01755253756418815
-0.903110921382904,0.6608768701553345,164.49636840820312,-0.46088672523014146,-2.4466822303994546,-0.15491075401951104,-0.0042850706415870875
0.32384389638900757,-2.137230634689331,164.5369415283203,-0.46350879800720235,-2.4468561728104627,-0.1597379792277935,-0.016588018679370393
