faccX,faccY,yaw,posX,posY,velX,velY
0,0,-86.71314239501953,0.0,0.0,0.0,0.0
0,0,-86.71236419677734,0.0,0.0,0.0,0.0
0,0,-86.71277618408203,0.0,0.0,0.0,0.0
0,-0.08914916217327118,-86.71604919433594,0.0,-6.190914039810498e-06,0.0,-0.0007429096847772598
0.21100357174873352,-1.6012765169143677,-86.7125015258789,1.4653025815884271e-05,-0.0001359634142782953,0.0017583630979061127,-0.014829790343840916
0.6227613687515259,-1.8877843618392944,-86.57511138916016,0.0001018594205379486,-0.000625422481033537,0.008706404268741606,-0.0439052976667881
0,-1.4371925592422485,-86.4052505493164,0.0002902134756247202,-0.001588078617221779,0.013896082341670989,-0.07161343867580096
-0.41887998580932617,-1.2523174285888672,-86.42852783203125,0.0004927259600824779,-0.0029684074554178447,0.010405415793259938,-0.09402602190772692
0,-2.1213138103485107,-86.564208984375,0.0006370606687333848,-0.004769787767695056,0.006914749244848887,-0.1221396155655384
-0.2493514120578766,-1.0383620262145996,-86.58531188964844,0.0007349904191990693,-0.0070248699602153564,0.00483682081103325,-0.14847024753689766
0.4861326813697815,-0.9434654116630554,-86.57421875,0.0008320472430851724,-0.009637000991238487,0.006809998055299124,-0.1649854761858781
0.2663896679878235,-0.9339951276779175,-86.63740539550781,0.0009978057071566581,-0.01251713813179069,0.013081017633279166,-0.18063098068038622
-0.2997168004512787,-0.842044472694397,-86.6226577758789,0.00121350828351246,-0.015650990559822983,0.01280329152941704,-0.19543131068348885
0.5686987042427063,-1.229572057723999,-86.66718292236328,0.0014455757745438153,-0.019052041330271295,0.015044807394345603,-0.21269478177030882
-0.779495894908905,-0.881716251373291,-86.71583557128906,0.0016816838706533116,-0.022743571603463755,0.013288164138793947,-0.23028885101278623
0.671165943145752,-1.7310082912445068,-86.67830657958984,0.0018956303596496585,-0.026763158324691984,0.012385414540767671,-0.2520615555346012
0.7006275057792664,-1.7220267057418823,-86.54415130615234,0.002197317369282246,-0.031203978347281613,0.023817026615142824,-0.2808368471761544
0.6111019849777222,-0.522000789642334,-86.37227630615234,0.002685360138614973,-0.036040427709619204,0.0347481057047844,-0.2995370763043562
0.10798830538988113,-0.8228732943534851,-86.2293701171875,0.003314432059414686,-0.041126106348302625,0.04074052479118109,-0.31074436033765473
-0.4389403164386749,-0.24351836740970612,-86.08331298828125,0.003970458027389315,-0.0463792339971082,0.037982591365774476,-0.31963095751901466
0.11719759553670883,-0.7380481958389282,-85.97688293457031,0.004581157972311809,-0.051774580967095155,0.03530140202492476,-0.32781067887941995
0,-1.3786187171936035,-85.94599151611328,0.005177653394639493,-0.05738508303960164,0.036278048654397335,-0.3454495698213577
0.8528918027877808,-0.40613171458244324,-85.88565826416016,0.0058415161362952665,-0.06326651687216427,0.043385480344295506,-0.36032249008615813
-0.9757525324821472,-0.31002041697502136,-85.99148559570312,0.006556075480249194,-0.06932162449384728,0.04236164093017578,-0.3662904245158037
-0.5564401745796204,-1.430202841758728,-86.20001220703125,0.007155700557761723,-0.07554731373985607,0.02959336837132772,-0.3807922850052516
0.5073230862617493,-0.7578967809677124,-86.21575164794922,0.007645512455039555,-0.08204580318596627,0.02918405930201213,-0.3990264485279719
-0.6818362474441528,-0.32672932744026184,-86.05995178222656,0.008119794473879867,-0.08877156525229413,0.027729782958825434,-0.4080649994313717
0.2568148076534271,0.43446993827819824,-86.0501708984375,0.00855244214543038,-0.09556516658928657,0.024187937627236054,-0.4071671610077222
0.4344955384731293,-0.3433419167995453,-86.09693908691406,0.009003582102143103,-0.10234495760459036,0.02994885717829069,-0.4064077608287334
-0.06692500412464142,-1.0354728698730469,-86.0567855834961,0.00952825545333326,-0.10921417131192152,0.03301194496452809,-0.41789788405100503
0.6712484955787659,-0.21437984704971313,-85.90310668945312,0.010120421445204152,-0.11626593137366902,0.03804797405997913,-0.4283133233586947
0,-0.389225035905838,-85.85260009765625,0.010801168825063441,-0.1234464037687414,0.043641711523135514,-0.43334336404999096
-0.2965029180049896,0.5445386171340942,-85.9352798461914,0.011507940203365354,-0.1306580075042115,0.04117085387309393,-0.4320490842064222
-0.21027825772762299,-1.2274596691131592,-86.14688873291016,0.0121589279640466,-0.13790625064737264,0.03694767740865549,-0.4377400929729144
0.544520378112793,-0.7211624383926392,-86.31182098388672,0.012797933845884272,-0.1453372398432758,0.03973302841186524,-0.4539786105354627
-0.4222235083580017,0.09819319099187851,-86.35230255126953,0.01346864382425944,-0.15294681177215855,0.04075216899315517,-0.459170020930469
-0.13661623001098633,-0.6474921107292175,-86.38495635986328,0.014109038325647513,-0.16063779121264812,0.0360951711734136,-0.4637475119282802
0.45745977759361267,0.1300373673439026,-86.35453033447266,0.014732905313786532,-0.16840285076863232,0.03876886740326882,-0.4680596347898245
0.24412526190280914,0.39561647176742554,-86.31025695800781,0.015427774287139375,-0.17616734094296888,0.04461540939907233,-0.4636791861305634
0.20610731840133667,-1.3799299001693726,-86.24227142333984,0.01620263059520059,-0.18396368247767284,0.048367347568273544,-0.47188179803391295
0.8410218954086304,0.8598508238792419,-86.21564483642578,0.017081470361186395,-0.19186449571409153,0.05709342435002327,-0.4762157903363307
-1.9505542516708374,1.8846447467803955,-86.38397979736328,0.017955976575613018,-0.19961083558284567,0.047847321381171544,-0.45334499391416705
0.11819391697645187,-1.3132941722869873,-86.46393585205078,0.01862618468650099,-0.20712690835818642,0.032577651925385,-0.448583739126722
-0.5384712219238281,-1.1047303676605225,-86.52058410644531,0.019139959627969393,-0.21477122238112814,0.029075341050823527,-0.46873394362628457
0.4959666430950165,-0.9072996377944946,-86.59813690185547,0.019621596938620006,-0.22272317908083392,0.028721136227250095,-0.4855008603384097
1.3785251379013062,0.9146401882171631,-86.51631927490234,0.020230455582754475,-0.23081435032602807,0.044341901068886115,-0.4854396890848875
0.49414077401161194,-0.46019816398620605,-86.29386901855469,0.02109953351111875,-0.23887345333687127,0.059947450334827096,-0.4816526722162962
-0.5006846189498901,0.6152761578559875,-86.1758041381836,0.0220982032496896,-0.2468902285686797,0.059892918293674775,-0.4803603556007147
0.4874641001224518,-0.329545259475708,-86.15657043457031,0.02309550046299894,-0.25487639207185964,0.05978274730344612,-0.47797926478087904
-0.8923611044883728,0.32667356729507446,-86.23632049560547,0.02406376173719763,-0.26284291257460907,0.056408605600396775,-0.47800319554905096
0.13628090918064117,-0.666702926158905,-86.37163543701172,0.024951399594752316,-0.27083324565034766,0.05010793730616568,-0.4808367735395829
-0.6963350176811218,-1.3273478746414185,-86.44666290283203,0.025747639236764767,-0.27898566762606297,0.04544081973532834,-0.4974538635462522
-0.2166622430086136,0.174626886844635,-86.3799057006836,0.026441583644805675,-0.28735661542043084,0.03783250922958054,-0.507059871777892
0.6515492796897888,0.5607584118843079,-86.38279724121094,0.0271023259539571,-0.29575654485987285,0.04145656786859034,-0.5009316609551508
0,-0.39283743500709534,-86.41114807128906,0.027838515229523176,-0.30409374469684225,0.04688614519933858,-0.4995323194811741
-0.7261919975280762,-0.051491379737854004,-86.27869415283203,0.028569520983017148,-0.31245013952255246,0.04083454521993794,-0.5032350596040487
0.7046422362327576,0.36331453919410706,-86.01897430419922,0.029248600225481716,-0.3208157361298799,0.04065496387581029,-0.5006365332752466
-1.363919973373413,1.674923062324524,-86.09339141845703,0.029880399780554897,-0.32901813407325076,0.03516098273297149,-0.483651219929258
2.1108956336975098,-1.8351869583129883,-86.40486907958984,0.030518289469182485,-0.3370901171759598,0.041385779902338965,-0.48498675239582856
-1.4349476099014282,0.9285823106765747,-86.66537475585938,0.03125499330254064,-0.34523618837197617,0.04701868010063964,-0.492541791126132
0.6451135873794556,-1.4285752773284912,-86.60934448242188,0.031983788385987276,-0.35347993995787363,0.040436729912956534,-0.4967083991815646
-0.4910350441932678,0.28772085905075073,-86.56552124023438,0.03266843378336893,-0.36183763927883567,0.041720717772841434,-0.5062155193338791
0.49491801857948303,0.44412943720817566,-86.48824310302734,0.033364048730582,-0.37022374166382677,0.04175307589272656,-0.5001167668650547
0,-0.7291978597640991,-86.44779968261719,0.0340943026356399,-0.3785788175298107,0.045877392714222254,-0.5024923370530208
1.3235483169555664,0.2041018009185791,-86.47789001464844,0.034950838925109966,-0.3869901548181142,0.05690696202218531,-0.5068681375434001
-1.2138440608978271,1.1570274829864502,-86.56363677978516,0.03590690664326151,-0.3953434342435664,0.057821164155999805,-0.49552539351085817
-0.3763168752193451,-0.3000629246234894,-86.6574478149414,0.036760164869742255,-0.40354267937441657,0.04456982302169003,-0.48838402219116683
-0.5920412540435791,-0.4626238942146301,-86.66033172607422,0.036760164869742255,-0.40354267937441657,0.04456982302169003,-0.48838402219116683
1.2559175491333008,-0.4040876626968384,-86.6153335571289,0.036760164869742255,-0.40354267937441657,0.04456982302169003,-0.48838402219116683
-0.15006369352340698,0.10034672170877457,-86.48180389404297,0.036760164869742255,-0.40354267937441657,0.04456982302169003,-0.48838402219116683
1.1678004264831543,0.46362969279289246,-86.2401123046875,0.036760164869742255,-0.40354267937441657,0.04456982302169003,-0.48838402219116683
-1.8538628816604614,2.9287073612213135,-86.32542419433594,0.036760164869742255,-0.40354267937441657,0.04456982302169003,-0.48838402219116683
0.06195639446377754,2.2304575443267822,-86.81049346923828,0.036760164869742255,-0.40354267937441657,0.04456982302169003,-0.48838402219116683
-1.3386242389678955,1.3933926820755005,-87.49637603759766,0.036760164869742255,-0.40354267937441657,0.04456982302169003,-0.48838402219116683
-0.8588703870773315,1.3840229511260986,-88.40623474121094,0.036760164869742255,-0.40354267937441657,0.04456982302169003,-0.48838402219116683
-1.3580907583236694,1.8121732473373413,-89.4868392944336,0.036760164869742255,-0.40354267937441657,0.04456982302169003,-0.48838402219116683
-0.553993284702301,0.9837141633033752,-90.7773208618164,0.036760164869742255,-0.40354267937441657,0.04456982302169003,-0.48838402219116683
-0.23466236889362335,3.022264003753662,-92.27076721191406,0.036760164869742255,-0.40354267937441657,0.04456982302169003,-0.48838402219116683
-0.024686116725206375,1.2044094800949097,-93.8885726928711,0.036760164869742255,-0.40354267937441657,0.04456982302169003,-0.48838402219116683
-0.4345111846923828,0.5685632824897766,-95.61006164550781,0.036760164869742255,-0.40354267937441657,0.04456982302169003,-0.48838402219116683
0.7795308232307434,2.0132367610931396,-97.3946304321289,0.036760164869742255,-0.40354267937441657,0.04456982302169003,-0.48838402219116683
-0.12727439403533936,1.5056028366088867,-99.1702651977539,0.036760164869742255,-0.40354267937441657,0.04456982302169003,-0.48838402219116683
-1.0925544500350952,0.8720294237136841,-101.05500030517578,0.036760164869742255,-0.40354267937441657,0.04456982302169003,-0.48838402219116683
0.7867206335067749,1.8186920881271362,-103.09252166748047,0.036760164869742255,-0.40354267937441657,0.04456982302169003,-0.48838402219116683
-1.1464983224868774,0.9181782603263855,-105.277099609375,0.036760164869742255,-0.40354267937441657,0.04456982302169003,-0.48838402219116683
-0.1532091349363327,0.6515583992004395,-107.5652847290039,0.036760164869742255,-0.40354267937441657,0.04456982302169003,-0.48838402219116683
1.896757960319519,1.3758103847503662,-109.9322509765625,0.036760164869742255,-0.40354267937441657,0.04456982302169003,-0.48838402219116683
-1.6789144277572632,1.2463561296463013,-112.31426239013672,0.036760164869742255,-0.40354267937441657,0.04456982302169003,-0.48838402219116683
0.7701852917671204,0.6011720299720764,-114.75455474853516,0.036760164869742255,-0.40354267937441657,0.04456982302169003,-0.48838402219116683
-0.8434990644454956,1.1360794305801392,-117.24302673339844,0.036760164869742255,-0.40354267937441657,0.04456982302169003,-0.48838402219116683
-0.7729889154434204,1.5551716089248657,-119.73466491699219,0.036760164869742255,-0.40354267937441657,0.04456982302169003,-0.48838402219116683
1.769707441329956,0.6990480422973633,-122.24532318115234,0.036760164869742255,-0.40354267937441657,0.04456982302169003,-0.48838402219116683
-1.571874976158142,0.4017864465713501,-124.78351593017578,0.036760164869742255,-0.40354267937441657,0.04456982302169003,-0.48838402219116683
1.0199307203292847,1.3929184675216675,-127.4272232055664,0.036760164869742255,-0.40354267937441657,0.04456982302169003,-0.48838402219116683
-1.3509418964385986,0.3555169701576233,-130.1006622314453,0.036760164869742255,-0.40354267937441657,0.04456982302169003,-0.48838402219116683
-0.08642909675836563,1.2794376611709595,-132.81239318847656,0.036760164869742255,-0.40354267937441657,0.04456982302169003,-0.48838402219116683
0.3665115237236023,0.3288969397544861,-135.47332763671875,0.036760164869742255,-0.40354267937441657,0.04456982302169003,-0.48838402219116683
0.04141591116786003,0.595947802066803,-138.10678100585938,0.036760164869742255,-0.40354267937441657,0.04456982302169003,-0.48838402219116683
0.06914445757865906,0.9487871527671814,-140.6936798095703,0.036760164869742255,-0.40354267937441657,0.04456982302169003,-0.48838402219116683
-0.652014970779419,0.24372106790542603,-143.27345275878906,0.036760164869742255,-0.40354267937441657,0.04456982302169003,-0.48838402219116683
1.7810471057891846,0.9071815609931946,-145.8357696533203,0.036760164869742255,-0.40354267937441657,0.04456982302169003,-0.48838402219116683
-1.4892172813415527,1.1392431259155273,-148.35720825195312,0.036760164869742255,-0.40354267937441657,0.04456982302169003,-0.48838402219116683
1.1925448179244995,-0.046642839908599854,-150.88917541503906,0.036760164869742255,-0.40354267937441657,0.04456982302169003,-0.48838402219116683
-1.400390863418579,0.936048686504364,-153.3994598388672,0.036760164869742255,-0.40354267937441657,0.04456982302169003,-0.48838402219116683
1.3382786512374878,0.3890199065208435,-155.9147186279297,0.036760164869742255,-0.40354267937441657,0.04456982302169003,-0.48838402219116683
-1.255413293838501,0.3020350933074951,-158.45347595214844,0.036760164869742255,-0.40354267937441657,0.04456982302169003,-0.48838402219116683
0.9768044948577881,1.27082359790802,-161.0076904296875,0.036760164869742255,-0.40354267937441657,0.04456982302169003,-0.48838402219116683
0.6689053773880005,-0.12011450529098511,-163.49766540527344,0.036760164869742255,-0.40354267937441657,0.04456982302169003,-0.48838402219116683
-0.7175201177597046,0.7164180278778076,-166.08802795410156,0.036760164869742255,-0.40354267937441657,0.04456982302169003,-0.48838402219116683
0.28933021426200867,0.23709139227867126,-168.73619079589844,0.036760164869742255,-0.40354267937441657,0.04456982302169003,-0.48838402219116683
0.9754518866539001,0.35237550735473633,-171.45045471191406,0.036760164869742255,-0.40354267937441657,0.04456982302169003,-0.48838402219116683
1.1262203454971313,0.04631924629211426,-174.21478271484375,0.036760164869742255,-0.40354267937441657,0.04456982302169003,-0.48838402219116683
-0.6983262300491333,0.47297459840774536,-177.01925659179688,0.036760164869742255,-0.40354267937441657,0.04456982302169003,-0.48838402219116683
1.0987740755081177,-0.6072734594345093,-179.87538146972656,0.036760164869742255,-0.40354267937441657,0.04456982302169003,-0.48838402219116683
0.19529640674591064,0.36691316962242126,177.21963500976562,0.036760164869742255,-0.40354267937441657,0.04456982302169003,-0.48838402219116683
1.043161153793335,-0.8669779300689697,174.42742919921875,0.036760164869742255,-0.40354267937441657,0.04456982302169003,-0.48838402219116683
-0.018105398863554,0.6872990131378174,171.92710876464844,0.036760164869742255,-0.40354267937441657,0.04456982302169003,-0.48838402219116683
0.7281184196472168,-0.6770934462547302,169.8587646484375,0.036760164869742255,-0.40354267937441657,0.04456982302169003,-0.48838402219116683
-1.16793692111969,1.1988898515701294,168.2378692626953,0.036760164869742255,-0.40354267937441657,0.04456982302169003,-0.48838402219116683
0.05446081981062889,-1.8573310375213623,167.0071258544922,0.036760164869742255,-0.40354267937441657,0.04456982302169003,-0.48838402219116683
-0.8334730267524719,-0.9092103242874146,166.085693359375,0.036760164869742255,-0.40354267937441657,0.04456982302169003,-0.48838402219116683
-0.32912349700927734,-1.0486814975738525,165.4676513671875,0.036760164869742255,-0.40354267937441657,0.04456982302169003,-0.48838402219116683
-0.6122557520866394,-1.2523554563522339,165.22706604003906,0.036760164869742255,-0.40354267937441657,0.04456982302169003,-0.48838402219116683
-0.05559341236948967,-0.3700883984565735,165.28427124023438,0.036760164869742255,-0.40354267937441657,0.04456982302169003,-0.48838402219116683
0.3477131128311157,0.5879029631614685,165.3589630126953,0.036760164869742255,-0.40354267937441657,0.04456982302169003,-0.48838402219116683
0.25957190990448,-0.007940497249364853,165.31690979003906,0.036760164869742255,-0.40354267937441657,0.04456982302169003,-0.48838402219116683
0.12039671838283539,0.2772606909275055,165.31431579589844,0.036760164869742255,-0.40354267937441657,0.04456982302169003,-0.48838402219116683
0.08577216416597366,0.1366572082042694,165.34408569335938,0.036760164869742255,-0.40354267937441657,0.04456982302169003,-0.48838402219116683
-0.14499665796756744,0.23321904242038727,165.32974243164062,0.036760164869742255,-0.40354267937441657,0.04456982302169003,-0.48838402219116683
-0.11022919416427612,0.3295656144618988,165.33119201660156,0.036760164869742255,-0.40354267937441657,0.04456982302169003,-0.48838402219116683
-0.12308984249830246,0.14907455444335938,165.33990478515625,0.036760164869742255,-0.40354267937441657,0.04456982302169003,-0.48838402219116683
0.05062410607933998,0.2481205314397812,165.32867431640625,0.036760164869742255,-0.40354267937441657,0.04456982302169003,-0.48838402219116683
0.08360518515110016,0.17192251980304718,165.33860778808594,0.036760164869742255,-0.40354267937441657,0.04456982302169003,-0.48838402219116683
0.07724857330322266,0.1828482449054718,165.3340606689453,0.036760164869742255,-0.40354267937441657,0.04456982302169003,-0.48838402219116683
0.011456324718892574,0.2157633751630783,165.3345184326172,0.036760164869742255,-0.40354267937441657,0.04456982302169003,-0.48838402219116683
-0.01963062584400177,0.2123388797044754,165.33868408203125,0.036760164869742255,-0.40354267937441657,0.04456982302169003,-0.48838402219116683
0.004325438290834427,0.2062491625547409,165.33517456054688,0.036760164869742255,-0.40354267937441657,0.04456982302169003,-0.48838402219116683
0.04364318400621414,0.2324945628643036,165.33712768554688,0.036760164869742255,-0.40354267937441657,0.04456982302169003,-0.48838402219116683
0.05118301510810852,0.1808314472436905,165.33592224121094,0.036760164869742255,-0.40354267937441657,0.04456982302169003,-0.48838402219116683
0.011922521516680717,0.22870272397994995,165.33624267578125,0.036760164869742255,-0.40354267937441657,0.04456982302169003,-0.48838402219116683
-0.00998038798570633,0.18936370313167572,165.33738708496094,0.036760164869742255,-0.40354267937441657,0.04456982302169003,-0.48838402219116683
0.0053134155459702015,0.20993512868881226,165.3363037109375,0.036760164869742255,-0.40354267937441657,0.04456982302169003,-0.48838402219116683
0.041233357042074203,0.1847887486219406,165.33779907226562,0.036760164869742255,-0.40354267937441657,0.04456982302169003,-0.48838402219116683
0.0347248837351799,0.19551365077495575,165.33621215820312,0.036760164869742255,-0.40354267937441657,0.04456982302169003,-0.48838402219116683
0.023553237318992615,0.20940211415290833,165.3355255126953,0.036760164869742255,-0.40354267937441657,0.04456982302169003,-0.48838402219116683
0.0169550571590662,0.19746822118759155,165.33709716796875,0.036760164869742255,-0.40354267937441657,0.04456982302169003,-0.48838402219116683
0.020946292206645012,0.2081516981124878,165.33595275878906,0.036760164869742255,-0.40354267937441657,0.04456982302169003,-0.48838402219116683
0.029338711872696877,0.20720382034778595,165.3375244140625,0.036760164869742255,-0.40354267937441657,0.04456982302169003,-0.48838402219116683
0.02394464984536171,0.1919952630996704,165.33665466308594,0.036760164869742255,-0.40354267937441657,0.04456982302169003,-0.48838402219116683
0.0019779072608798742,0.20397773385047913,165.33822631835938,0.036760164869742255,-0.40354267937441657,0.04456982302169003,-0.48838402219116683
0.02064565382897854,0.19131731986999512,165.3396453857422,0.036760164869742255,-0.40354267937441657,0.04456982302169003,-0.48838402219116683
0.018949639052152634,0.18819016218185425,165.33912658691406,0.036760164869742255,-0.40354267937441657,0.04456982302169003,-0.48838402219116683
0.022141115739941597,0.20759965479373932,165.34019470214844,0.036760164869742255,-0.40354267937441657,0.04456982302169003,-0.48838402219116683
0.015257886610925198,0.19837626814842224,165.34083557128906,0.036760164869742255,-0.40354267937441657,0.04456982302169003,-0.48838402219116683
0.016229821369051933,0.19437876343727112,165.3412322998047,0.036760164869742255,-0.40354267937441657,0.04456982302169003,-0.48838402219116683
0.023010965436697006,0.20696254074573517,165.3423309326172,0.036760164869742255,-0.40354267937441657,0.04456982302169003,-0.48838402219116683
0.014810334891080856,0.2001163810491562,165.34207153320312,0.036760164869742255,-0.40354267937441657,0.04456982302169003,-0.48838402219116683
0.01842278242111206,0.1922280639410019,165.3428192138672,0.036760164869742255,-0.40354267937441657,0.04456982302169003,-0.48838402219116683
0.017002081498503685,0.19778963923454285,165.34271240234375,0.036760164869742255,-0.40354267937441657,0.04456982302169003,-0.48838402219116683
0.009694557636976242,0.19393543899059296,165.34207153320312,0.036760164869742255,-0.40354267937441657,0.04456982302169003,-0.48838402219116683
0.009321783669292927,0.1945892721414566,165.34307861328125,0.036760164869742255,-0.40354267937441657,0.04456982302169003,-0.48838402219116683
0.013897488825023174,0.18910224735736847,165.34268188476562,0.036760164869742255,-0.40354267937441657,0.04456982302169003,-0.48838402219116683
0.01673196069896221,0.19337843358516693,165.34336853027344,0.036760164869742255,-0.40354267937441657,0.04456982302169003,-0.48838402219116683
0.015003230422735214,0.19164855778217316,165.3428955078125,0.036760164869742255,-0.40354267937441657,0.04456982302169003,-0.48838402219116683
0.016008758917450905,0.1868618130683899,165.34458923339844,0.036760164869742255,-0.40354267937441657,0.04456982302169003,-0.48838402219116683
0.02681490033864975,0.20510239899158478,165.34622192382812,0.036760164869742255,-0.40354267937441657,0.04456982302169003,-0.48838402219116683
0.014778937213122845,0.20060542225837708,165.3455352783203,0.036760164869742255,-0.40354267937441657,0.04456982302169003,-0.48838402219116683
0.017689023166894913,0.20879223942756653,165.34664916992188,0.036760164869742255,-0.40354267937441657,0.04456982302169003,-0.48838402219116683
0.019329171627759933,0.2055213898420334,165.34664916992188,0.036760164869742255,-0.40354267937441657,0.04456982302169003,-0.48838402219116683
0.017281215637922287,0.20144104957580566,165.3463897705078,0.036760164869742255,-0.40354267937441657,0.04456982302169003,-0.48838402219116683
0.016593480482697487,0.2000100165605545,165.34634399414062,0.036760164869742255,-0.40354267937441657,0.04456982302169003,-0.48838402219116683
0.022118594497442245,0.18656691908836365,165.34713745117188,0.036760164869742255,-0.40354267937441657,0.04456982302169003,-0.48838402219116683
0.03022732026875019,0.19694405794143677,165.34805297851562,0.036760164869742255,-0.40354267937441657,0.04456982302169003,-0.48838402219116683
0.011620402336120605,0.19365930557250977,165.34756469726562,0.036760164869742255,-0.40354267937441657,0.04456982302169003,-0.48838402219116683
0.02191801927983761,0.1919395476579666,165.34873962402344,0.036760164869742255,-0.40354267937441657,0.04456982302169003,-0.48838402219116683
0.01797965168952942,0.193746879696846,165.34994506835938,0.036760164869742255,-0.40354267937441657,0.04456982302169003,-0.48838402219116683
0.0355205237865448,0.1832921952009201,165.3494415283203,0.036760164869742255,-0.40354267937441657,0.04456982302169003,-0.48838402219116683
0.023715810850262642,0.19042672216892242,165.34947204589844,0.036760164869742255,-0.40354267937441657,0.04456982302169003,-0.48838402219116683
0.024656789377331734,0.20602434873580933,165.3494110107422,0.036760164869742255,-0.40354267937441657,0.04456982302169003,-0.48838402219116683
0.008612028323113918,0.17738953232765198,165.34805297851562,0.036760164869742255,-0.40354267937441657,0.04456982302169003,-0.48838402219116683
0.008987002074718475,0.20177742838859558,165.34747314453125,0.036760164869742255,-0.40354267937441657,0.04456982302169003,-0.48838402219116683
0.02150355651974678,0.19529378414154053,165.34765625,0.036760164869742255,-0.40354267937441657,0.04456982302169003,-0.48838402219116683
0.009811020456254482,0.1943511813879013,165.34677124023438,0.036760164869742255,-0.40354267937441657,0.04456982302169003,-0.48838402219116683
0.02213428169488907,0.18844367563724518,165.3466033935547,0.036760164869742255,-0.40354267937441657,0.04456982302169003,-0.48838402219116683
0.030287528410553932,0.19292253255844116,165.34814453125,0.036760164869742255,-0.40354267937441657,0.04456982302169003,-0.48838402219116683
0.010427298955619335,0.18975263833999634,165.3484344482422,0.036760164869742255,-0.40354267937441657,0.04456982302169003,-0.48838402219116683
0.01865542121231556,0.19531193375587463,165.34915161132812,0.036760164869742255,-0.40354267937441657,0.04456982302169003,-0.48838402219116683
0.01790793612599373,0.19831210374832153,165.34921264648438,0.036760164869742255,-0.40354267937441657,0.04456982302169003,-0.48838402219116683
0.009932199493050575,0.18992964923381805,165.34945678710938,0.036760164869742255,-0.40354267937441657,0.04456982302169003,-0.48838402219116683
0.019032442942261696,0.19770465791225433,165.3497772216797,0.036760164869742255,-0.40354267937441657,0.04456982302169003,-0.48838402219116683
0.03262706845998764,0.19689130783081055,165.34811401367188,0.036760164869742255,-0.40354267937441657,0.04456982302169003,-0.48838402219116683
0.02435978688299656,0.18852972984313965,165.34854125976562,0.036760164869742255,-0.40354267937441657,0.04456982302169003,-0.48838402219116683
0.03566332533955574,0.1988808959722519,165.3489990234375,0.036760164869742255,-0.40354267937441657,0.04456982302169003,-0.48838402219116683
0.03844839334487915,0.17939510941505432,165.3504180908203,0.036760164869742255,-0.40354267937441657,0.04456982302169003,-0.48838402219116683
0.02431320771574974,0.19594863057136536,165.3507843017578,0.036760164869742255,-0.40354267937441657,0.04456982302169003,-0.48838402219116683
0.021775156259536743,0.18237391114234924,165.3511199951172,0.036760164869742255,-0.40354267937441657,0.04456982302169003,-0.48838402219116683
0.01396393496543169,0.19398556649684906,165.3515625,0.036760164869742255,-0.40354267937441657,0.04456982302169003,-0.48838402219116683
0.019909022375941277,0.19037365913391113,165.35147094726562,0.036760164869742255,-0.40354267937441657,0.04456982302169003,-0.48838402219116683
0.015804428607225418,0.19923071563243866,165.35267639160156,0.036760164869742255,-0.40354267937441657,0.04456982302169003,-0.48838402219116683
0.016326317563652992,0.18150010704994202,165.35247802734375,0.036760164869742255,-0.40354267937441657,0.04456982302169003,-0.48838402219116683
0.014926380477845669,0.19279758632183075,165.35243225097656,0.036760164869742255,-0.40354267937441657,0.04456982302169003,-0.48838402219116683
0.023543663322925568,0.19051752984523773,165.35203552246094,0.036760164869742255,-0.40354267937441657,0.04456982302169003,-0.48838402219116683
0.026266561821103096,0.18961045145988464,165.35220336914062,0.036760164869742255,-0.40354267937441657,0.04456982302169003,-0.48838402219116683
0.011542996391654015,0.19657336175441742,165.35316467285156,0.036760164869742255,-0.40354267937441657,0.04456982302169003,-0.48838402219116683
0.021836040541529655,0.18656601011753082,165.35365295410156,0.036760164869742255,-0.40354267937441657,0.04456982302169003,-0.48838402219116683
0.0255192369222641,0.18575020134449005,165.35328674316406,0.036760164869742255,-0.40354267937441657,0.04456982302169003,-0.48838402219116683
0.023280499503016472,0.1895735114812851,165.35321044921875,0.036760164869742255,-0.40354267937441657,0.04456982302169003,-0.48838402219116683
0.029804352670907974,0.19589224457740784,165.35379028320312,0.036760164869742255,-0.40354267937441657,0.04456982302169003,-0.48838402219116683
0.018044842407107353,0.18383067846298218,165.3548583984375,0.036760164869742255,-0.40354267937441657,0.04456982302169003,-0.48838402219116683
0.015935327857732773,0.1922704577445984,165.35574340820312,0.036760164869742255,-0.40354267937441657,0.04456982302169003,-0.48838402219116683
0.02584615908563137,0.19988617300987244,165.35610961914062,0.036760164869742255,-0.40354267937441657,0.04456982302169003,-0.48838402219116683
0.04210587963461876,0.182123601436615,165.35572814941406,0.036760164869742255,-0.40354267937441657,0.04456982302169003,-0.48838402219116683
0.024076923727989197,0.18348249793052673,165.3558349609375,0.036760164869742255,-0.40354267937441657,0.04456982302169003,-0.48838402219116683
0.024634800851345062,0.19617590308189392,165.3561553955078,0.036760164869742255,-0.40354267937441657,0.04456982302169003,-0.48838402219116683
0.034094296395778656,0.18615145981311798,165.35511779785156,0.036760164869742255,-0.40354267937441657,0.04456982302169003,-0.48838402219116683
0.019884787499904633,0.19710364937782288,165.35548400878906,0.036760164869742255,-0.40354267937441657,0.04456982302169003,-0.48838402219116683
0.014069993048906326,0.17666535079479218,165.35488891601562,0.036760164869742255,-0.40354267937441657,0.04456982302169003,-0.48838402219116683
0.01953674852848053,0.18055419623851776,165.3551788330078,0.036760164869742255,-0.40354267937441657,0.04456982302169003,-0.48838402219116683
0.03257317841053009,0.18406078219413757,165.35540771484375,0.036760164869742255,-0.40354267937441657,0.04456982302169003,-0.48838402219116683
0.015622755512595177,0.19128300249576569,165.3564453125,0.036760164869742255,-0.40354267937441657,0.04456982302169003,-0.48838402219116683
0.02418982982635498,0.1815612018108368,165.3560333251953,0.036760164869742255,-0.40354267937441657,0.04456982302169003,-0.48838402219116683
0.03213883191347122,0.1899440884590149,165.3559112548828,0.036760164869742255,-0.40354267937441657,0.04456982302169003,-0.48838402219116683
0.025011176243424416,0.18452967703342438,165.35601806640625,0.036760164869742255,-0.40354267937441657,0.04456982302169003,-0.48838402219116683
0.020870311185717583,0.17166127264499664,165.35574340820312,0.036760164869742255,-0.40354267937441657,0.04456982302169003,-0.48838402219116683
0.04218420386314392,0.17090043425559998,165.35548400878906,0.036760164869742255,-0.40354267937441657,0.04456982302169003,-0.48838402219116683
0.015243656933307648,0.18454085290431976,165.3559112548828,0.036760164869742255,-0.40354267937441657,0.04456982302169003,-0.48838402219116683
0.028355330228805542,0.18378497660160065,165.35650634765625,0.036760164869742255,-0.40354267937441657,0.04456982302169003,-0.48838402219116683
0.022094303742051125,0.16650275886058807,165.35763549804688,0.036760164869742255,-0.40354267937441657,0.04456982302169003,-0.48838402219116683
0.022671403363347054,0.1914992332458496,165.35694885253906,0.036760164869742255,-0.40354267937441657,0.04456982302169003,-0.48838402219116683
0.027284041047096252,0.1775452047586441,165.3570556640625,0.036760164869742255,-0.40354267937441657,0.04456982302169003,-0.48838402219116683
0.017482265830039978,0.16955672204494476,165.35691833496094,0.036760164869742255,-0.40354267937441657,0.04456982302169003,-0.48838402219116683
0.02889932505786419,0.18582221865653992,165.3556365966797,0.036760164869742255,-0.40354267937441657,0.04456982302169003,-0.48838402219116683
0.030223876237869263,0.17841027677059174,165.35537719726562,0.036760164869742255,-0.40354267937441657,0.04456982302169003,-0.48838402219116683
0.02432129718363285,0.16893573105335236,165.3553924560547,0.036760164869742255,-0.40354267937441657,0.04456982302169003,-0.48838402219116683
0.022676946595311165,0.1878671944141388,165.3551025390625,0.036760164869742255,-0.40354267937441657,0.04456982302169003,-0.48838402219116683
0.02106667496263981,0.17675019800662994,165.354736328125,0.036760164869742255,-0.40354267937441657,0.04456982302169003,-0.48838402219116683
0.041235193610191345,0.17841477692127228,165.35415649414062,0.036760164869742255,-0.40354267937441657,0.04456982302169003,-0.48838402219116683
0.032037198543548584,0.18154974281787872,165.3542938232422,0.036760164869742255,-0.40354267937441657,0.04456982302169003,-0.48838402219116683
0.038649145513772964,0.17056073248386383,165.35366821289062,0.036760164869742255,-0.40354267937441657,0.04456982302169003,-0.48838402219116683
0.03442930802702904,0.180763840675354,165.3529510498047,0.036760164869742255,-0.40354267937441657,0.04456982302169003,-0.48838402219116683
0.018607931211590767,0.17699654400348663,165.35308837890625,0.036760164869742255,-0.40354267937441657,0.04456982302169003,-0.48838402219116683
0.02334747277200222,0.18082918226718903,165.35316467285156,0.036760164869742255,-0.40354267937441657,0.04456982302169003,-0.48838402219116683
0.014291565865278244,0.17145350575447083,165.35354614257812,0.036760164869742255,-0.40354267937441657,0.04456982302169003,-0.48838402219116683
0.031253427267074585,0.17582762241363525,165.35372924804688,0.036760164869742255,-0.40354267937441657,0.04456982302169003,-0.48838402219116683
0.015651730820536613,0.1698644757270813,165.35467529296875,0.036760164869742255,-0.40354267937441657,0.04456982302169003,-0.48838402219116683
0.017525717616081238,0.1689811795949936,165.35511779785156,0.036760164869742255,-0.40354267937441657,0.04456982302169003,-0.48838402219116683
0.014352348633110523,0.17849287390708923,165.35533142089844,0.036760164869742255,-0.40354267937441657,0.04456982302169003,-0.48838402219116683
0.014298460446298122,0.17373812198638916,165.3556671142578,0.036760164869742255,-0.40354267937441657,0.04456982302169003,-0.48838402219116683
0.01783270761370659,0.17682301998138428,165.35511779785156,0.036760164869742255,-0.40354267937441657,0.04456982302169003,-0.48838402219116683
0.025509357452392578,0.17037342488765717,165.35321044921875,0.036760164869742255,-0.40354267937441657,0.04456982302169003,-0.48838402219116683
0.018329836428165436,0.17622902989387512,165.35260009765625,0.036760164869742255,-0.40354267937441657,0.04456982302169003,-0.48838402219116683
0.02017291821539402,0.16863912343978882,165.3521270751953,0.036760164869742255,-0.40354267937441657,0.04456982302169003,-0.48838402219116683
0.031105386093258858,0.1619701087474823,165.3522491455078,0.036760164869742255,-0.40354267937441657,0.04456982302169003,-0.48838402219116683
0.004580067936331034,0.16605748236179352,165.3520050048828,0.036760164869742255,-0.40354267937441657,0.04456982302169003,-0.48838402219116683
0.017780067399144173,0.17275932431221008,165.3519287109375,0.036760164869742255,-0.40354267937441657,0.04456982302169003,-0.48838402219116683
0.020716434344649315,0.16505931317806244,165.353515625,0.036760164869742255,-0.40354267937441657,0.04456982302169003,-0.48838402219116683
0.010234094224870205,0.16382884979248047,165.3544464111328,0.036760164869742255,-0.40354267937441657,0.04456982302169003,-0.48838402219116683
0.025453070178627968,0.17585696280002594,165.35552978515625,0.036760164869742255,-0.40354267937441657,0.04456982302169003,-0.48838402219116683
0.018240805715322495,0.17083057761192322,165.3548583984375,0.036760164869742255,-0.40354267937441657,0.04456982302169003,-0.48838402219116683
0.032879073172807693,0.17290765047073364,165.35504150390625,0.036760164869742255,-0.40354267937441657,0.04456982302169003,-0.48838402219116683
0.017477739602327347,0.16908735036849976,165.3557891845703,0.036760164869742255,-0.40354267937441657,0.04456982302169003,-0.48838402219116683
0.02778947912156582,0.16823704540729523,165.35630798339844,0.036760164869742255,-0.40354267937441657,0.04456982302169003,-0.48838402219116683
0.01438198797404766,0.18022646009922028,165.3548583984375,0.036760164869742255,-0.40354267937441657,0.04456982302169003,-0.48838402219116683
0.023521840572357178,0.15724073350429535,165.3547821044922,0.036760164869742255,-0.40354267937441657,0.04456982302169003,-0.48838402219116683
0.023488089442253113,0.1581927090883255,165.3543243408203,0.036760164869742255,-0.40354267937441657,0.04456982302169003,-0.48838402219116683
0.029771115630865097,0.1826709657907486,165.35433959960938,0.036760164869742255,-0.40354267937441657,0.04456982302169003,-0.48838402219116683
0.021502971649169922,0.1669997125864029,165.35446166992188,0.036760164869742255,-0.40354267937441657,0.04456982302169003,-0.48838402219116683
0.014713134616613388,0.17693084478378296,165.3545684814453,0.036760164869742255,-0.40354267937441657,0.04456982302169003,-0.48838402219116683
0.02526778168976307,0.1510179042816162,165.35470581054688,0.036760164869742255,-0.40354267937441657,0.04456982302169003,-0.48838402219116683
0.02529088966548443,0.14836718142032623,165.35458374023438,0.036760164869742255,-0.40354267937441657,0.04456982302169003,-0.48838402219116683
0.013929339125752449,0.17708072066307068,165.3548583984375,0.036760164869742255,-0.40354267937441657,0.04456982302169003,-0.48838402219116683
0.026263443753123283,0.16506166756153107,165.3552703857422,0.036760164869742255,-0.40354267937441657,0.04456982302169003,-0.48838402219116683
0.030184241011738777,0.15871839225292206,165.3558807373047,0.036760164869742255,-0.40354267937441657,0.04456982302169003,-0.48838402219116683
0.016240093857049942,0.16697603464126587,165.3543243408203,0.036760164869742255,-0.40354267937441657,0.04456982302169003,-0.48838402219116683
0.027434350922703743,0.18019074201583862,165.35427856445312,0.036760164869742255,-0.40354267937441657,0.04456982302169003,-0.48838402219116683
0.024530263617634773,0.1633671671152115,165.3544464111328,0.036760164869742255,-0.40354267937441657,0.04456982302169003,-0.48838402219116683
0.02734261192381382,0.15951654314994812,165.35423278808594,0.036760164869742255,-0.40354267937441657,0.04456982302169003,-0.48838402219116683
0.023719806224107742,0.17391140758991241,165.35531616210938,0.036760164869742255,-0.40354267937441657,0.04456982302169003,-0.48838402219116683
0.02065148390829563,0.15667355060577393,165.35586547851562,0.036760164869742255,-0.40354267937441657,0.04456982302169003,-0.48838402219116683
0.025411704555153847,0.1641528308391571,165.3565673828125,0.036760164869742255,-0.40354267937441657,0.04456982302169003,-0.48838402219116683
0.020364180207252502,0.1629021167755127,165.35610961914062,0.036760164869742255,-0.40354267937441657,0.04456982302169003,-0.48838402219116683
0.025498133152723312,0.15515130758285522,165.3567352294922,0.036760164869742255,-0.40354267937441657,0.04456982302169003,-0.48838402219116683
0.03701015189290047,0.16308392584323883,165.35585021972656,0.036760164869742255,-0.40354267937441657,0.04456982302169003,-0.48838402219116683
0.018386639654636383,0.16245770454406738,165.35528564453125,0.036760164869742255,-0.40354267937441657,0.04456982302169003,-0.48838402219116683
0.017463048920035362,0.17212270200252533,165.3546142578125,0.036760164869742255,-0.40354267937441657,0.04456982302169003,-0.48838402219116683
0.021869562566280365,0.16327784955501556,165.35372924804688,0.036760164869742255,-0.40354267937441657,0.04456982302169003,-0.48838402219116683
0.02619885466992855,0.16193611919879913,165.35464477539062,0.036760164869742255,-0.40354267937441657,0.04456982302169003,-0.48838402219116683
0.021603815257549286,0.17091123759746552,165.3551025390625,0.036760164869742255,-0.40354267937441657,0.04456982302169003,-0.48838402219116683
0.02548101544380188,0.16364938020706177,165.35472106933594,0.036760164869742255,-0.40354267937441657,0.04456982302169003,-0.48838402219116683
0.031091053038835526,0.15633535385131836,165.355712890625,0.036760164869742255,-0.40354267937441657,0.04456982302169003,-0.48838402219116683
0.01762455888092518,0.16497623920440674,165.3563232421875,0.036760164869742255,-0.40354267937441657,0.04456982302169003,-0.48838402219116683
0.017484726384282112,0.1536683440208435,165.3538360595703,0.036760164869742255,-0.40354267937441657,0.04456982302169003,-0.48838402219116683
0.023589525371789932,0.15342386066913605,165.35385131835938,0.036760164869742255,-0.40354267937441657,0.04456982302169003,-0.48838402219116683
0,0.15681545436382294,165.35238647460938,0.03750463341492124,-0.4116608686807254,0.04476640239978828,-0.4857986945658922
0,0.15869224071502686,165.3528289794922,0.03825074012158438,-0.4197356033335542,0.04476640239978828,-0.48316946377356845
-0.4645097553730011,0.23430781066417694,165.35028076171875,0.038964589206346614,-0.4277611360595457,0.04089548777167994,-0.4798944633454084
-2.4965884685516357,0.20731215178966522,165.41851806640625,0.03944054884810207,-0.43572870906235434,0.016219669238974638,-0.4762142969916264
-2.470457077026367,0.18772628903388977,165.64356994628906,0.03936594295030873,-0.4436381807871576,-0.02517237697417539,-0.4729223099847634
-0.5616310238838196,0.831901490688324,165.8125762939453,0.03873584166039815,-0.4514494118022007,-0.05043977781509361,-0.46442541182041164
-0.6782587170600891,1.1140263080596924,165.80665588378906,0.03780907524258104,-0.45905470145762783,-0.060772192322959516,-0.44820934683084485
-1.7348284721374512,0.24155011773109436,165.7452850341797,0.03662862987128189,-0.4664307199863509,-0.08088125223293902,-0.4369128766159216
-2.2614262104034424,0.3769485652446747,165.60867309570312,0.035003091314445345,-0.47366964996585403,-0.11418337458744646,-0.43175872092445683
-1.3837379217147827,1.217263102531433,165.4450225830078,0.03284689867325747,-0.48075491950433275,-0.14455974235509833,-0.41847362369298924
-0.4597821533679962,0.15416927635669708,165.33062744140625,0.030309547406569527,-0.4876342415395709,-0.15992240964745483,-0.40704502053558816
-1.1477718353271484,-0.3618042767047882,165.29891967773438,0.027532538218785894,-0.49443274431241047,-0.17331869288658103,-0.4087753122051556
-1.0119130611419678,0.6640127301216125,165.34622192382812,0.024493915219532522,-0.5012246794843425,-0.19131606702382367,-0.4062569084266821
-1.212591528892517,-0.33702948689460754,165.45359802246094,0.02115083461704973,-0.5079729207884519,-0.20985360527411104,-0.40353204806645704
0.4227946698665619,1.0308339595794678,165.54708862304688,0.017598427525048855,-0.5146502740567341,-0.216435245765994,-0.39775034412741656
-2.082444429397583,0.7800699472427368,165.55613708496094,0.013875919973425969,-0.5211536892431062,-0.2302656604287525,-0.3826594782372315
-0.7730405926704407,0.6144971251487732,165.65643310546875,0.009839861395303148,-0.527434502278144,-0.254061368945986,-0.37103808596730226
-0.7292101383209229,-0.15681219100952148,165.6906280517578,0.005501182278773425,-0.5335866867016171,-0.2665801250375807,-0.3672240448494752
-1.1606916189193726,1.2136541604995728,165.66647338867188,0.0009269370172276152,-0.5396336956456715,-0.28232930634791653,-0.3584170284370581
-0.22700004279613495,-0.2692275643348694,165.62982177734375,-0.0038749188984123478,-0.545541727606,-0.2938934035288791,-0.35054680680235223
-1.2572063207626343,-0.7461221218109131,165.6498565673828,-0.008876212176918582,-0.5514546847809104,-0.30626178989186886,-0.3590080541869004
-0.11297448724508286,0.927906334400177,165.66444396972656,-0.0140757267867836,-0.5574255284470401,-0.31767996329193315,-0.3574931857486565
0.26260748505592346,0.7386183142662048,165.6809844970703,-0.019360001661245622,-0.5632680173311381,-0.3164330216435095,-0.34360548034310334
-1.0590895414352417,-0.47481152415275574,165.64512634277344,-0.024689196609219345,-0.5689764554208764,-0.32307037211333717,-0.3414070904254913
-1.060429334640503,1.2106188535690308,165.65061950683594,-0.03022089162194689,-0.5746154758634251,-0.3407330294139684,-0.3352753626803556
-0.4244098365306854,-0.23172351717948914,165.7979736328125,-0.03600288927684436,-0.5801354197319595,-0.3531066891737283,-0.3271179015437761
0.1313970535993576,0,166.02000427246094,-0.041908348872998956,-0.5856034766686044,-0.3555484623648227,-0.3290489308536052
0.228525310754776,0.487275630235672,166.16629028320312,-0.04780916197044363,-0.5910537869307314,-0.3525491093285382,-0.32498830060164124
-0.1890542358160019,0.827576220035553,166.2564239501953,-0.05368223941238185,-0.5963789494511565,-0.35222018370404845,-0.31403120184938105
-1.0863964557647705,-0.10358832776546478,166.40589904785156,-0.05964114877214243,-0.6015625258783497,-0.3628489394672216,-0.307997969413797
-0.6509290933609009,-0.35318422317504883,166.52392578125,-0.0658092787041743,-0.6067275456846172,-0.3773266523766022,-0.3118044073383013
0,-0.9081007838249207,166.54803466796875,-0.07214325965304551,-0.6120118750435194,-0.382751061487943,-0.3223151157299677
-0.4748156666755676,-0.10909207165241241,166.50450134277344,-0.0785554173213637,-0.6174544320317603,-0.38670785871023944,-0.3307917228589455
-0.7793515920639038,0.9516910910606384,166.39732360839844,-0.08508764324839127,-0.6229091135919504,-0.3971592525330684,-0.32377006436387695
-0.8478267788887024,-0.07377110421657562,166.2996063232422,-0.09181996262192522,-0.6282443146655954,-0.4107190722910068,-0.31645406447350977
-0.5267997980117798,1.3551377058029175,166.21920776367188,-0.09876074067239343,-0.6334295652817103,-0.42217429376517746,-0.30577600946029027
0.8556486368179321,1.197712779045105,166.2552032470703,-0.10577414217689596,-0.6383485508223785,-0.41943388677512616,-0.2845022554198901
1.0503579378128052,0.2997575104236603,166.27565002441406,-0.11263234538879871,-0.6429862640870525,-0.40355049865320336,-0.27202333634098375
-0.9320307970046997,-0.559517502784729,166.13662719726562,-0.11934996987046265,-0.6475380252477606,-0.40256443914646917,-0.27418800294399265
-0.3749007284641266,-0.6238659024238586,165.92877197265625,-0.1261501363232836,-0.6521900046999667,-0.4134555351920427,-0.28404953132073085
-1.6779824495315552,-0.8914927840232849,165.9123992919922,-0.1331836232416229,-0.6570293967974266,-0.4305628950086734,-0.29667752037445705
0.7302398681640625,0.7543006539344788,165.9706268310547,-0.14042548694880685,-0.661983549368257,-0.4384607498534025,-0.2978207881251971
0.20778696238994598,1.250047206878662,165.9887237548828,-0.14766802536090842,-0.666808038346676,-0.43064385959878576,-0.2811178892850876
0.22869178652763367,0.5520667433738708,165.95175170898438,-0.1548151119966578,-0.6713681896993267,-0.42700653669113925,-0.2661002730329831
-0.2159733921289444,0.5589096546173096,165.8718719482422,-0.16193100438634353,-0.6757260431111269,-0.4269005500711502,-0.2568421363830566
0.3580184876918793,0.09031368046998978,165.8182830810547,-0.1690361493114486,-0.6799616604303523,-0.42571684094145906,-0.25143194192399576
-0.21667982637882233,-0.8572729825973511,165.79273986816406,-0.17612161480899285,-0.6842054538584,-0.42453901876385025,-0.2578232694417238
-0.8735913634300232,0.53151935338974,165.74171447753906,-0.18327297839879375,-0.6885251301289015,-0.43362461201225727,-0.2605378830184539
-0.0629640519618988,-0.5271710753440857,165.748046875,-0.19056509383617803,-0.6928671262154559,-0.4414292404738566,-0.2605016473680734
0.456704705953598,-0.05555972456932068,165.7412109375,-0.197894904743104,-0.6972492877549178,-0.4381480683572591,-0.2653577373673518
-0.11575081199407578,1.0949652194976807,165.76800537109375,-0.20517369519531115,-0.7015997357738926,-0.4353067859075964,-0.25669602490961546
0,0.4298800230026245,165.8905792236328,-0.212436846544604,-0.7057721108249903,-0.43627137600754706,-0.24398898122211293
0.29992926120758057,-0.10431148111820221,166.0331268310547,-0.21968720772381262,-0.709815984918839,-0.43377196549748387,-0.24127591003974275
-0.3974857032299042,0.4922104477882385,166.1338653564453,-0.22692351523502224,-0.713810312657927,-0.4345849358476699,-0.2380434186508258
-0.011433830484747887,-0.021180078387260437,166.19325256347656,-0.22692351523502224,-0.713810312657927,-0.4345849358476699,-0.2380434186508258
0.6692295670509338,-1.231624722480774,166.19680786132812,-0.22692351523502224,-0.713810312657927,-0.4345849358476699,-0.2380434186508258
-0.986179530620575,-0.27931904792785645,166.1647491455078,-0.22692351523502224,-0.713810312657927,-0.4345849358476699,-0.2380434186508258
1.6312094926834106,0.6293027400970459,165.9789276123047,-0.22692351523502224,-0.713810312657927,-0.4345849358476699,-0.2380434186508258
1.1685190200805664,-0.5514508485794067,165.47950744628906,-0.22692351523502224,-0.713810312657927,-0.4345849358476699,-0.2380434186508258
2.650012969970703,1.6241352558135986,164.77223205566406,-0.22692351523502224,-0.713810312657927,-0.4345849358476699,-0.2380434186508258
2.327954053878784,-0.29726988077163696,163.9833984375,-0.22692351523502224,-0.713810312657927,-0.4345849358476699,-0.2380434186508258
2.596742630004883,0.9296822547912598,163.0475616455078,-0.22692351523502224,-0.713810312657927,-0.4345849358476699,-0.2380434186508258
0.9484990239143372,-0.009835761040449142,161.93458557128906,-0.22692351523502224,-0.713810312657927,-0.4345849358476699,-0.2380434186508258
0.6944746971130371,0.7142454981803894,160.68435668945312,-0.22692351523502224,-0.713810312657927,-0.4345849358476699,-0.2380434186508258
1.838642954826355,0.31622153520584106,159.28335571289062,-0.22692351523502224,-0.713810312657927,-0.4345849358476699,-0.2380434186508258
2.1584885120391846,-0.046563975512981415,157.84158325195312,-0.22692351523502224,-0.713810312657927,-0.4345849358476699,-0.2380434186508258
1.4411273002624512,0.26041701436042786,156.33963012695312,-0.22692351523502224,-0.713810312657927,-0.4345849358476699,-0.2380434186508258
1.3147279024124146,0.0486752912402153,154.80099487304688,-0.22692351523502224,-0.713810312657927,-0.4345849358476699,-0.2380434186508258
0.47391390800476074,0.6163031458854675,153.08413696289062,-0.22692351523502224,-0.713810312657927,-0.4345849358476699,-0.2380434186508258
1.470270037651062,-1.6598058938980103,151.24734497070312,-0.22692351523502224,-0.713810312657927,-0.4345849358476699,-0.2380434186508258
0.5630622506141663,1.350737452507019,149.30274963378906,-0.22692351523502224,-0.713810312657927,-0.4345849358476699,-0.2380434186508258
2.3175816535949707,-1.8947827816009521,147.27284240722656,-0.22692351523502224,-0.713810312657927,-0.4345849358476699,-0.2380434186508258
0.6914051175117493,0.7590277194976807,145.11041259765625,-0.22692351523502224,-0.713810312657927,-0.4345849358476699,-0.2380434186508258
0.8327826857566833,-0.23666343092918396,142.8706817626953,-0.22692351523502224,-0.713810312657927,-0.4345849358476699,-0.2380434186508258
1.019883155822754,0.3306288719177246,140.5359344482422,-0.22692351523502224,-0.713810312657927,-0.4345849358476699,-0.2380434186508258
1.0042048692703247,-2.5060324668884277,138.05807495117188,-0.22692351523502224,-0.713810312657927,-0.4345849358476699,-0.2380434186508258
1.3180783987045288,1.0370992422103882,135.4968719482422,-0.22692351523502224,-0.713810312657927,-0.4345849358476699,-0.2380434186508258
0.44501781463623047,0.10179367661476135,132.92088317871094,-0.22692351523502224,-0.713810312657927,-0.4345849358476699,-0.2380434186508258
1.1812142133712769,0.06609612703323364,130.32652282714844,-0.22692351523502224,-0.713810312657927,-0.4345849358476699,-0.2380434186508258
0.3735978901386261,0.35966822504997253,127.6843490600586,-0.22692351523502224,-0.713810312657927,-0.4345849358476699,-0.2380434186508258
0.43691548705101013,-2.0939781665802,125.0419692993164,-0.22692351523502224,-0.713810312657927,-0.4345849358476699,-0.2380434186508258
1.376542568206787,2.009686231613159,122.39749908447266,-0.22692351523502224,-0.713810312657927,-0.4345849358476699,-0.2380434186508258
0.31248611211776733,-1.1787681579589844,119.71199035644531,-0.22692351523502224,-0.713810312657927,-0.4345849358476699,-0.2380434186508258
0.4240909814834595,-0.30389219522476196,116.98274230957031,-0.22692351523502224,-0.713810312657927,-0.4345849358476699,-0.2380434186508258
1.2697941064834595,1.1306034326553345,114.25296783447266,-0.22692351523502224,-0.713810312657927,-0.4345849358476699,-0.2380434186508258
-0.11218715459108353,-1.0795074701309204,111.47599792480469,-0.22692351523502224,-0.713810312657927,-0.4345849358476699,-0.2380434186508258
1.5002784729003906,-0.13268029689788818,108.69945526123047,-0.22692351523502224,-0.713810312657927,-0.4345849358476699,-0.2380434186508258
-0.1131717786192894,-1.3854711055755615,105.88529968261719,-0.22692351523502224,-0.713810312657927,-0.4345849358476699,-0.2380434186508258
0.6685264110565186,-0.013333605602383614,103.05777740478516,-0.22692351523502224,-0.713810312657927,-0.4345849358476699,-0.2380434186508258
1.6184967756271362,0.47823312878608704,100.22103881835938,-0.22692351523502224,-0.713810312657927,-0.4345849358476699,-0.2380434186508258
0.3157859444618225,1.1942423582077026,97.39820861816406,-0.22692351523502224,-0.713810312657927,-0.4345849358476699,-0.2380434186508258
0.4059126079082489,-0.913028359413147,94.54814147949219,-0.22692351523502224,-0.713810312657927,-0.4345849358476699,-0.2380434186508258
1.1943658590316772,-0.638221025466919,91.69854736328125,-0.22692351523502224,-0.713810312657927,-0.4345849358476699,-0.2380434186508258
-0.7427467703819275,-0.1523534506559372,88.8639907836914,-0.22692351523502224,-0.713810312657927,-0.4345849358476699,-0.2380434186508258
1.2915356159210205,-0.18124498426914215,86.05367279052734,-0.22692351523502224,-0.713810312657927,-0.4345849358476699,-0.2380434186508258
0.07356148213148117,-0.2721017599105835,83.30838012695312,-0.22692351523502224,-0.713810312657927,-0.4345849358476699,-0.2380434186508258
0.11376433074474335,-1.1385611295700073,80.52942657470703,-0.22692351523502224,-0.713810312657927,-0.4345849358476699,-0.2380434186508258
0.35539132356643677,0.14073976874351501,77.84849548339844,-0.22692351523502224,-0.713810312657927,-0.4345849358476699,-0.2380434186508258
-0.4046765863895416,-0.4680142104625702,75.1600112915039,-0.22692351523502224,-0.713810312657927,-0.4345849358476699,-0.2380434186508258
1.0998873710632324,0.6557672023773193,72.56382751464844,-0.22692351523502224,-0.713810312657927,-0.4345849358476699,-0.2380434186508258
-1.3846861124038696,-1.11521315574646,69.95337677001953,-0.22692351523502224,-0.713810312657927,-0.4345849358476699,-0.2380434186508258
1.325183391571045,1.4757815599441528,67.40645599365234,-0.22692351523502224,-0.713810312657927,-0.4345849358476699,-0.2380434186508258
0.29981982707977295,-1.2452976703643799,64.71245574951172,-0.22692351523502224,-0.713810312657927,-0.4345849358476699,-0.2380434186508258
-0.4976945221424103,-0.40875545144081116,62.09943771362305,-0.22692351523502224,-0.713810312657927,-0.4345849358476699,-0.2380434186508258
-0.05911831185221672,-0.6605878472328186,59.49763488769531,-0.22692351523502224,-0.713810312657927,-0.4345849358476699,-0.2380434186508258
0.22779695689678192,-0.2768620252609253,56.76919937133789,-0.22692351523502224,-0.713810312657927,-0.4345849358476699,-0.2380434186508258
-0.3696054518222809,-0.4208500385284424,53.936222076416016,-0.22692351523502224,-0.713810312657927,-0.4345849358476699,-0.2380434186508258
-0.45359668135643005,-0.07936089485883713,51.06632614135742,-0.22692351523502224,-0.713810312657927,-0.4345849358476699,-0.2380434186508258
0.44865304231643677,-0.42647796869277954,48.11445617675781,-0.22692351523502224,-0.713810312657927,-0.4345849358476699,-0.2380434186508258
-0.2577840983867645,-0.5054574608802795,45.24995422363281,-0.22692351523502224,-0.713810312657927,-0.4345849358476699,-0.2380434186508258
-0.611041247844696,0.8591282367706299,42.3553352355957,-0.22692351523502224,-0.713810312657927,-0.4345849358476699,-0.2380434186508258
1.5286411046981812,-1.3783503770828247,39.396575927734375,-0.22692351523502224,-0.713810312657927,-0.4345849358476699,-0.2380434186508258
-0.9740627408027649,0.49617999792099,36.455204010009766,-0.22692351523502224,-0.713810312657927,-0.4345849358476699,-0.2380434186508258
-0.33970123529434204,-1.0849027633666992,33.58445739746094,-0.22692351523502224,-0.713810312657927,-0.4345849358476699,-0.2380434186508258
-0.7553088665008545,-0.134576678276062,30.64876365661621,-0.22692351523502224,-0.713810312657927,-0.4345849358476699,-0.2380434186508258
0.42096537351608276,-0.07505008578300476,27.71455192565918,-0.22692351523502224,-0.713810312657927,-0.4345849358476699,-0.2380434186508258
-0.3916267156600952,-0.20619696378707886,24.715999603271484,-0.22692351523502224,-0.713810312657927,-0.4345849358476699,-0.2380434186508258
-1.2058420181274414,0.7359842658042908,21.771345138549805,-0.22692351523502224,-0.713810312657927,-0.4345849358476699,-0.2380434186508258
2.7965848445892334,-1.936833381652832,18.831539154052734,-0.22692351523502224,-0.713810312657927,-0.4345849358476699,-0.2380434186508258
-1.356990933418274,0.9574252367019653,15.788175582885742,-0.22692351523502224,-0.713810312657927,-0.4345849358476699,-0.2380434186508258
0.25831881165504456,-1.5570199489593506,12.793058395385742,-0.22692351523502224,-0.713810312657927,-0.4345849358476699,-0.2380434186508258
0.15995290875434875,-0.2370457947254181,9.812193870544434,-0.22692351523502224,-0.713810312657927,-0.4345849358476699,-0.2380434186508258
-1.8928210735321045,0.20214182138442993,6.889087200164795,-0.22692351523502224,-0.713810312657927,-0.4345849358476699,-0.2380434186508258
1.0987204313278198,-1.1975338459014893,4.0283660888671875,-0.22692351523502224,-0.713810312657927,-0.4345849358476699,-0.2380434186508258
-2.0132060050964355,1.644437551498413,1.191650152206421,-0.22692351523502224,-0.713810312657927,-0.4345849358476699,-0.2380434186508258
1.1281557083129883,-0.7703901529312134,-1.550008773803711,-0.22692351523502224,-0.713810312657927,-0.4345849358476699,-0.2380434186508258
-2.0367324352264404,1.8699042797088623,-4.427270889282227,-0.22692351523502224,-0.713810312657927,-0.4345849358476699,-0.2380434186508258
0.5191439390182495,-0.6760854125022888,-7.193746566772461,-0.22692351523502224,-0.713810312657927,-0.4345849358476699,-0.2380434186508258
-0.16805648803710938,0.6279317140579224,-9.82194709777832,-0.22692351523502224,-0.713810312657927,-0.4345849358476699,-0.2380434186508258
0.044104959815740585,-0.5971701741218567,-12.40424633026123,-0.22692351523502224,-0.713810312657927,-0.4345849358476699,-0.2380434186508258
-0.6010323762893677,0.5224905014038086,-14.899811744689941,-0.22692351523502224,-0.713810312657927,-0.4345849358476699,-0.2380434186508258
-0.1736241728067398,-0.13535428047180176,-17.2728328704834,-0.22692351523502224,-0.713810312657927,-0.4345849358476699,-0.2380434186508258
-0.015072851441800594,0.5580827593803406,-19.66277313232422,-0.22692351523502224,-0.713810312657927,-0.4345849358476699,-0.2380434186508258
0.8968276977539062,-0.4626975655555725,-22.119651794433594,-0.22692351523502224,-0.713810312657927,-0.4345849358476699,-0.2380434186508258
-0.46151211857795715,1.273936152458191,-24.64059066772461,-0.22692351523502224,-0.713810312657927,-0.4345849358476699,-0.2380434186508258
0.7832683324813843,-0.20023055374622345,-27.17435646057129,-0.22692351523502224,-0.713810312657927,-0.4345849358476699,-0.2380434186508258
-1.0726748704910278,0.6527476906776428,-29.830120086669922,-0.22692351523502224,-0.713810312657927,-0.4345849358476699,-0.2380434186508258
0.1796281784772873,-0.9666827917098999,-32.55036544799805,-0.22692351523502224,-0.713810312657927,-0.4345849358476699,-0.2380434186508258
-1.1160799264907837,2.0209763050079346,-35.3309326171875,-0.22692351523502224,-0.713810312657927,-0.4345849358476699,-0.2380434186508258
-0.6870630979537964,-1.2038345336914062,-38.207096099853516,-0.22692351523502224,-0.713810312657927,-0.4345849358476699,-0.2380434186508258
-0.6942139267921448,-0.1847720891237259,-41.18988800048828,-0.22692351523502224,-0.713810312657927,-0.4345849358476699,-0.2380434186508258
-0.03805798292160034,-0.5414783954620361,-44.223907470703125,-0.22692351523502224,-0.713810312657927,-0.4345849358476699,-0.2380434186508258
0.4231102466583252,1.0893701314926147,-47.34083557128906,-0.22692351523502224,-0.713810312657927,-0.4345849358476699,-0.2380434186508258
-1.1295799016952515,-1.0489195585250854,-50.45816421508789,-0.22692351523502224,-0.713810312657927,-0.4345849358476699,-0.2380434186508258
0.03163900598883629,0.4145956337451935,-53.5617790222168,-0.22692351523502224,-0.713810312657927,-0.4345849358476699,-0.2380434186508258
-0.497775137424469,0.7856628894805908,-56.593631744384766,-0.22692351523502224,-0.713810312657927,-0.4345849358476699,-0.2380434186508258
0.18390138447284698,1.318925142288208,-59.70281982421875,-0.22692351523502224,-0.713810312657927,-0.4345849358476699,-0.2380434186508258
-0.030602402985095978,0.33278244733810425,-62.79549026489258,-0.22692351523502224,-0.713810312657927,-0.4345849358476699,-0.2380434186508258
-0.38776859641075134,0.06597664952278137,-65.91925811767578,-0.22692351523502224,-0.713810312657927,-0.4345849358476699,-0.2380434186508258
0.3496144115924835,0.5724929571151733,-69.02629089355469,-0.22692351523502224,-0.713810312657927,-0.4345849358476699,-0.2380434186508258
-0.04240703210234642,0.5990655422210693,-72.24633026123047,-0.22692351523502224,-0.713810312657927,-0.4345849358476699,-0.2380434186508258
-0.15586082637310028,-0.3755873739719391,-75.3883056640625,-0.22692351523502224,-0.713810312657927,-0.4345849358476699,-0.2380434186508258
0.3716394603252411,1.0933411121368408,-78.5523910522461,-0.22692351523502224,-0.713810312657927,-0.4345849358476699,-0.2380434186508258
-0.41464200615882874,-0.017891839146614075,-81.73756408691406,-0.22692351523502224,-0.713810312657927,-0.4345849358476699,-0.2380434186508258
0.7142580151557922,0.6702109575271606,-84.91704559326172,-0.22692351523502224,-0.713810312657927,-0.4345849358476699,-0.2380434186508258
0.04838138446211815,2.2470810413360596,-88.09258270263672,-0.22692351523502224,-0.713810312657927,-0.4345849358476699,-0.2380434186508258
0.24463939666748047,-0.18501339852809906,-91.22920227050781,-0.22692351523502224,-0.713810312657927,-0.4345849358476699,-0.2380434186508258
0.8844006061553955,0.9253193140029907,-94.37346649169922,-0.22692351523502224,-0.713810312657927,-0.4345849358476699,-0.2380434186508258
-0.6724510192871094,-0.33856400847435,-97.5374755859375,-0.22692351523502224,-0.713810312657927,-0.4345849358476699,-0.2380434186508258
2.0091168880462646,0.7650326490402222,-100.58634948730469,-0.22692351523502224,-0.713810312657927,-0.4345849358476699,-0.2380434186508258
-0.29711517691612244,-0.24442842602729797,-103.6883773803711,-0.22692351523502224,-0.713810312657927,-0.4345849358476699,-0.2380434186508258
-0.8032681941986084,0.6526228785514832,-106.69896697998047,-0.22692351523502224,-0.713810312657927,-0.4345849358476699,-0.2380434186508258
1.289533257484436,0.64146488904953,-109.66077423095703,-0.22692351523502224,-0.713810312657927,-0.4345849358476699,-0.2380434186508258
0.3024378716945648,0.008488278836011887,-112.49699401855469,-0.22692351523502224,-0.713810312657927,-0.4345849358476699,-0.2380434186508258
0.47632521390914917,1.0345224142074585,-115.28770446777344,-0.22692351523502224,-0.713810312657927,-0.4345849358476699,-0.2380434186508258
0.3079194128513336,-0.2461494505405426,-118.08626556396484,-0.22692351523502224,-0.713810312657927,-0.4345849358476699,-0.2380434186508258
1.0476973056793213,1.2992724180221558,-120.8182601928711,-0.22692351523502224,-0.713810312657927,-0.4345849358476699,-0.2380434186508258
-0.23139993846416473,-1.056573510169983,-123.53704833984375,-0.22692351523502224,-0.713810312657927,-0.4345849358476699,-0.2380434186508258
0.13001663982868195,-0.37752410769462585,-126.41636657714844,-0.22692351523502224,-0.713810312657927,-0.4345849358476699,-0.2380434186508258
0.1384498029947281,0.0941656157374382,-129.3262481689453,-0.22692351523502224,-0.713810312657927,-0.4345849358476699,-0.2380434186508258
-0.42148011922836304,0.6458279490470886,-132.12765502929688,-0.22692351523502224,-0.713810312657927,-0.4345849358476699,-0.2380434186508258
1.4492522478103638,0.316812127828598,-134.84197998046875,-0.22692351523502224,-0.713810312657927,-0.4345849358476699,-0.2380434186508258
-0.5807803273200989,0.31139642000198364,-137.54415893554688,-0.22692351523502224,-0.713810312657927,-0.4345849358476699,-0.2380434186508258
0.90300452709198,0.18264052271842957,-140.28424072265625,-0.22692351523502224,-0.713810312657927,-0.4345849358476699,-0.2380434186508258
0.4790758192539215,0.4184395372867584,-142.99232482910156,-0.22692351523502224,-0.713810312657927,-0.4345849358476699,-0.2380434186508258
0.6823034882545471,0.2512440085411072,-145.6958465576172,-0.22692351523502224,-0.713810312657927,-0.4345849358476699,-0.2380434186508258
0.7596444487571716,-0.006930175703018904,-148.42724609375,-0.22692351523502224,-0.713810312657927,-0.4345849358476699,-0.2380434186508258
-0.5701871514320374,0.34300071001052856,-151.16000366210938,-0.22692351523502224,-0.713810312657927,-0.4345849358476699,-0.2380434186508258
-0.2808782458305359,0.3629835546016693,-153.8595733642578,-0.22692351523502224,-0.713810312657927,-0.4345849358476699,-0.2380434186508258
0.7543489933013916,0.4606685936450958,-156.5852508544922,-0.22692351523502224,-0.713810312657927,-0.4345849358476699,-0.2380434186508258
0.7738140821456909,0.45733577013015747,-159.3370361328125,-0.22692351523502224,-0.713810312657927,-0.4345849358476699,-0.2380434186508258
-0.020200073719024658,-0.13735264539718628,-162.0084686279297,-0.22692351523502224,-0.713810312657927,-0.4345849358476699,-0.2380434186508258
-0.22788135707378387,-0.20075644552707672,-164.7410888671875,-0.22692351523502224,-0.713810312657927,-0.4345849358476699,-0.2380434186508258
1.263775110244751,-1.0203334093093872,-167.629638671875,-0.22692351523502224,-0.713810312657927,-0.4345849358476699,-0.2380434186508258
-0.7193885445594788,1.1720389127731323,-170.5024871826172,-0.22692351523502224,-0.713810312657927,-0.4345849358476699,-0.2380434186508258
2.5836706161499023,-1.0889819860458374,-173.43643188476562,-0.22692351523502224,-0.713810312657927,-0.4345849358476699,-0.2380434186508258
-0.41517725586891174,0.310775488615036,-176.32034301757812,-0.22692351523502224,-0.713810312657927,-0.4345849358476699,-0.2380434186508258
0.561045229434967,0.23832543194293976,-179.28817749023438,-0.22692351523502224,-0.713810312657927,-0.4345849358476699,-0.2380434186508258
0.2301652431488037,0.08105451613664627,177.76385498046875,-0.22692351523502224,-0.713810312657927,-0.4345849358476699,-0.2380434186508258
0.41912510991096497,-0.8144926428794861,174.77784729003906,-0.22692351523502224,-0.713810312657927,-0.4345849358476699,-0.2380434186508258
0.4715866446495056,0.5398955941200256,171.75521850585938,-0.22692351523502224,-0.713810312657927,-0.4345849358476699,-0.2380434186508258
0.0693848729133606,0.4655584394931793,168.62109375,-0.22692351523502224,-0.713810312657927,-0.4345849358476699,-0.2380434186508258
0.01669461652636528,-0.9392359852790833,165.47662353515625,-0.22692351523502224,-0.713810312657927,-0.4345849358476699,-0.2380434186508258
0.42174336314201355,-0.0710698738694191,162.3504180908203,-0.22692351523502224,-0.713810312657927,-0.4345849358476699,-0.2380434186508258
-0.315580815076828,1.6222978830337524,159.26051330566406,-0.22692351523502224,-0.713810312657927,-0.4345849358476699,-0.2380434186508258
1.3785288333892822,-3.1175484657287598,156.26947021484375,-0.22692351523502224,-0.713810312657927,-0.4345849358476699,-0.2380434186508258
0.995311439037323,1.9177054166793823,153.29937744140625,-0.22692351523502224,-0.713810312657927,-0.4345849358476699,-0.2380434186508258
-0.3711676597595215,-1.4109606742858887,150.32345581054688,-0.22692351523502224,-0.713810312657927,-0.4345849358476699,-0.2380434186508258
0.7302039265632629,-0.20754702389240265,147.3214874267578,-0.22692351523502224,-0.713810312657927,-0.4345849358476699,-0.2380434186508258
0.7022501230239868,0.1969674825668335,144.32884216308594,-0.22692351523502224,-0.713810312657927,-0.4345849358476699,-0.2380434186508258
-0.22725270688533783,-0.7803415656089783,141.34559631347656,-0.22692351523502224,-0.713810312657927,-0.4345849358476699,-0.2380434186508258
0.06827998906373978,-0.7502044439315796,138.3269805908203,-0.22692351523502224,-0.713810312657927,-0.4345849358476699,-0.2380434186508258
0.08219978213310242,0.3811858594417572,135.34584045410156,-0.22692351523502224,-0.713810312657927,-0.4345849358476699,-0.2380434186508258
-0.022628584876656532,-0.00034895402495749295,132.3150177001953,-0.22692351523502224,-0.713810312657927,-0.4345849358476699,-0.2380434186508258
0.9627302289009094,-1.7378538846969604,129.3245391845703,-0.22692351523502224,-0.713810312657927,-0.4345849358476699,-0.2380434186508258
0.05379338189959526,0.5715216994285583,126.363037109375,-0.22692351523502224,-0.713810312657927,-0.4345849358476699,-0.2380434186508258
0.4373975396156311,-0.25819337368011475,123.42794036865234,-0.22692351523502224,-0.713810312657927,-0.4345849358476699,-0.2380434186508258
-0.08925316482782364,0.560841977596283,120.52450561523438,-0.22692351523502224,-0.713810312657927,-0.4345849358476699,-0.2380434186508258
0.5476805567741394,-0.4527800679206848,117.57990264892578,-0.22692351523502224,-0.713810312657927,-0.4345849358476699,-0.2380434186508258
0.8255723118782043,-0.033327050507068634,114.67628479003906,-0.22692351523502224,-0.713810312657927,-0.4345849358476699,-0.2380434186508258
-0.8400266766548157,-1.0649584531784058,111.75450897216797,-0.22692351523502224,-0.713810312657927,-0.4345849358476699,-0.2380434186508258
1.739992380142212,1.2315126657485962,108.79171752929688,-0.22692351523502224,-0.713810312657927,-0.4345849358476699,-0.2380434186508258
-0.46178746223449707,-1.0593619346618652,105.85237884521484,-0.22692351523502224,-0.713810312657927,-0.4345849358476699,-0.2380434186508258
-0.8691775798797607,-1.1550624370574951,103.0615005493164,-0.22692351523502224,-0.713810312657927,-0.4345849358476699,-0.2380434186508258
1.185886025428772,0.605570912361145,100.14559173583984,-0.22692351523502224,-0.713810312657927,-0.4345849358476699,-0.2380434186508258
-0.8142145872116089,-1.4925388097763062,97.27653503417969,-0.22692351523502224,-0.713810312657927,-0.4345849358476699,-0.2380434186508258
0.7936910390853882,-0.23875854909420013,94.39903259277344,-0.22692351523502224,-0.713810312657927,-0.4345849358476699,-0.2380434186508258
-0.28672558069229126,-0.7331928610801697,91.4939193725586,-0.22692351523502224,-0.713810312657927,-0.4345849358476699,-0.2380434186508258
0.497554212808609,0.23817498981952667,88.61148071289062,-0.22692351523502224,-0.713810312657927,-0.4345849358476699,-0.2380434186508258
0.36534562706947327,0.3332957923412323,85.6460189819336,-0.22692351523502224,-0.713810312657927,-0.4345849358476699,-0.2380434186508258
-1.0269571542739868,-0.5428919196128845,82.64717102050781,-0.22692351523502224,-0.713810312657927,-0.4345849358476699,-0.2380434186508258
1.186514973640442,0.4799429476261139,79.74095153808594,-0.22692351523502224,-0.713810312657927,-0.4345849358476699,-0.2380434186508258
0.7086341977119446,0.0974365696310997,76.88916015625,-0.22692351523502224,-0.713810312657927,-0.4345849358476699,-0.2380434186508258
-1.8502322435379028,-1.4972219467163086,74.06391143798828,-0.22692351523502224,-0.713810312657927,-0.4345849358476699,-0.2380434186508258
0.7024849057197571,-0.716877281665802,71.2754898071289,-0.22692351523502224,-0.713810312657927,-0.4345849358476699,-0.2380434186508258
-1.3525677919387817,-1.1779881715774536,68.51583862304688,-0.22692351523502224,-0.713810312657927,-0.4345849358476699,-0.2380434186508258
2.0634846687316895,0.17119942605495453,65.79035186767578,-0.22692351523502224,-0.713810312657927,-0.4345849358476699,-0.2380434186508258
-1.7777363061904907,-0.3058018982410431,63.04114532470703,-0.22692351523502224,-0.713810312657927,-0.4345849358476699,-0.2380434186508258
0.43629947304725647,0.24382659792900085,60.36188507080078,-0.22692351523502224,-0.713810312657927,-0.4345849358476699,-0.2380434186508258
-0.5643202662467957,-0.9077600240707397,57.61711502075195,-0.22692351523502224,-0.713810312657927,-0.4345849358476699,-0.2380434186508258
0.017664868384599686,0.3830640912055969,54.877662658691406,-0.22692351523502224,-0.713810312657927,-0.4345849358476699,-0.2380434186508258
-0.011389346793293953,-0.4231814742088318,52.09120559692383,-0.22692351523502224,-0.713810312657927,-0.4345849358476699,-0.2380434186508258
0.1669343113899231,-0.40815359354019165,49.34678268432617,-0.22692351523502224,-0.713810312657927,-0.4345849358476699,-0.2380434186508258
-1.6934603452682495,-0.737479567527771,46.565513610839844,-0.22692351523502224,-0.713810312657927,-0.4345849358476699,-0.2380434186508258
0.9088744521141052,-0.6457769274711609,43.83729553222656,-0.22692351523502224,-0.713810312657927,-0.4345849358476699,-0.2380434186508258
-1.0892722606658936,0.49029338359832764,41.06254959106445,-0.22692351523502224,-0.713810312657927,-0.4345849358476699,-0.2380434186508258
1.6649901866912842,-0.4272393584251404,38.24800491333008,-0.22692351523502224,-0.713810312657927,-0.4345849358476699,-0.2380434186508258
-0.5947171449661255,0.4266336262226105,35.375308990478516,-0.22692351523502224,-0.713810312657927,-0.4345849358476699,-0.2380434186508258
0.9452061057090759,-0.7249337434768677,32.5024528503418,-0.22692351523502224,-0.713810312657927,-0.4345849358476699,-0.2380434186508258
-1.2624380588531494,-0.10116219520568848,29.5826416015625,-0.22692351523502224,-0.713810312657927,-0.4345849358476699,-0.2380434186508258
-0.07838689535856247,-0.14487074315547943,26.690452575683594,-0.22692351523502224,-0.713810312657927,-0.4345849358476699,-0.2380434186508258
0.029246078804135323,-0.5696316361427307,23.763090133666992,-0.22692351523502224,-0.713810312657927,-0.4345849358476699,-0.2380434186508258
-0.9842225313186646,-0.33041781187057495,20.875455856323242,-0.22692351523502224,-0.713810312657927,-0.4345849358476699,-0.2380434186508258
-0.7735998630523682,-0.3043674826622009,17.97681999206543,-0.22692351523502224,-0.713810312657927,-0.4345849358476699,-0.2380434186508258
-0.7080498933792114,-0.2824360728263855,14.948461532592773,-0.22692351523502224,-0.713810312657927,-0.4345849358476699,-0.2380434186508258
1.2704691886901855,-0.24575847387313843,12.014937400817871,-0.22692351523502224,-0.713810312657927,-0.4345849358476699,-0.2380434186508258
-0.31706178188323975,0.2568512260913849,8.964587211608887,-0.22692351523502224,-0.713810312657927,-0.4345849358476699,-0.2380434186508258
-0.22941024601459503,-0.583954393863678,6.017527103424072,-0.22692351523502224,-0.713810312657927,-0.4345849358476699,-0.2380434186508258
0.11938311904668808,0.057668883353471756,3.1496264934539795,-0.22692351523502224,-0.713810312657927,-0.4345849358476699,-0.2380434186508258
-0.9748200178146362,1.022502064704895,0.34581229090690613,-0.22692351523502224,-0.713810312657927,-0.4345849358476699,-0.2380434186508258
-0.4029383361339569,0.5299006104469299,-2.442744255065918,-0.22692351523502224,-0.713810312657927,-0.4345849358476699,-0.2380434186508258
0.33162379264831543,-0.1023670956492424,-5.297244548797607,-0.22692351523502224,-0.713810312657927,-0.4345849358476699,-0.2380434186508258
0.843537449836731,-0.9018760323524475,-8.106806755065918,-0.22692351523502224,-0.713810312657927,-0.4345849358476699,-0.2380434186508258
-2.114969253540039,1.7440481185913086,-10.977893829345703,-0.22692351523502224,-0.713810312657927,-0.4345849358476699,-0.2380434186508258
-0.7604836225509644,-0.6895342469215393,-13.854207992553711,-0.22692351523502224,-0.713810312657927,-0.4345849358476699,-0.2380434186508258
0.2257428914308548,0.4992682635784149,-16.806568145751953,-0.22692351523502224,-0.713810312657927,-0.4345849358476699,-0.2380434186508258
-0.6703648567199707,-0.08078236132860184,-19.81686782836914,-0.22692351523502224,-0.713810312657927,-0.4345849358476699,-0.2380434186508258
-0.19998733699321747,0.14947088062763214,-22.879981994628906,-0.22692351523502224,-0.713810312657927,-0.4345849358476699,-0.2380434186508258
-1.2378193140029907,1.0767425298690796,-25.879467010498047,-0.22692351523502224,-0.713810312657927,-0.4345849358476699,-0.2380434186508258
-0.4515528976917267,-1.7153739929199219,-28.8655948638916,-0.22692351523502224,-0.713810312657927,-0.4345849358476699,-0.2380434186508258
1.0388747453689575,0.47783058881759644,-31.905559539794922,-0.22692351523502224,-0.713810312657927,-0.4345849358476699,-0.2380434186508258
-1.7399322986602783,0.24562464654445648,-34.92289352416992,-0.22692351523502224,-0.713810312657927,-0.4345849358476699,-0.2380434186508258
-0.06868310272693634,0.1636662781238556,-37.93768310546875,-0.22692351523502224,-0.713810312657927,-0.4345849358476699,-0.2380434186508258
0.3524531424045563,1.6785962581634521,-40.99198532104492,-0.22692351523502224,-0.713810312657927,-0.4345849358476699,-0.2380434186508258
-0.48180481791496277,-1.5007011890411377,-44.046138763427734,-0.22692351523502224,-0.713810312657927,-0.4345849358476699,-0.2380434186508258
0.4261055588722229,1.0829813480377197,-47.117061614990234,-0.22692351523502224,-0.713810312657927,-0.4345849358476699,-0.2380434186508258
-0.6480509042739868,-0.4960898458957672,-50.186763763427734,-0.22692351523502224,-0.713810312657927,-0.4345849358476699,-0.2380434186508258
-0.37696167826652527,-0.46475204825401306,-53.27847671508789,-0.22692351523502224,-0.713810312657927,-0.4345849358476699,-0.2380434186508258
-0.28580036759376526,1.4355018138885498,-56.379669189453125,-0.22692351523502224,-0.713810312657927,-0.4345849358476699,-0.2380434186508258
-1.1714855432510376,-0.700061559677124,-59.43404769897461,-0.22692351523502224,-0.713810312657927,-0.4345849358476699,-0.2380434186508258
1.0195468664169312,1.4206610918045044,-62.50590133666992,-0.22692351523502224,-0.713810312657927,-0.4345849358476699,-0.2380434186508258
-0.07263309508562088,0.5810405611991882,-65.56745147705078,-0.22692351523502224,-0.713810312657927,-0.4345849358476699,-0.2380434186508258
-0.2231334149837494,-0.011802989058196545,-68.64446258544922,-0.22692351523502224,-0.713810312657927,-0.4345849358476699,-0.2380434186508258
0.33543169498443604,0.3700016736984253,-71.71012115478516,-0.22692351523502224,-0.713810312657927,-0.4345849358476699,-0.2380434186508258
-0.27382519841194153,-0.3497897684574127,-74.68022155761719,-0.22692351523502224,-0.713810312657927,-0.4345849358476699,-0.2380434186508258
0.14611457288265228,0.92913818359375,-77.62804412841797,-0.22692351523502224,-0.713810312657927,-0.4345849358476699,-0.2380434186508258
0.6321521997451782,0.748453676700592,-80.48776245117188,-0.22692351523502224,-0.713810312657927,-0.4345849358476699,-0.2380434186508258
-0.666164755821228,-0.509850025177002,-83.33830261230469,-0.22692351523502224,-0.713810312657927,-0.4345849358476699,-0.2380434186508258
0.1700904667377472,0.12458645552396774,-85.97509002685547,-0.22692351523502224,-0.713810312657927,-0.4345849358476699,-0.2380434186508258
0.8607776165008545,0.8708955645561218,-88.85231018066406,-0.22692351523502224,-0.713810312657927,-0.4345849358476699,-0.2380434186508258
-0.6163925528526306,1.0614765882492065,-91.63434600830078,-0.22692351523502224,-0.713810312657927,-0.4345849358476699,-0.2380434186508258
0.7892153263092041,-0.22592321038246155,-94.36717987060547,-0.22692351523502224,-0.713810312657927,-0.4345849358476699,-0.2380434186508258
0.6264647841453552,0.5620158910751343,-97.10686492919922,-0.22692351523502224,-0.713810312657927,-0.4345849358476699,-0.2380434186508258
-0.7895570993423462,-0.014795508235692978,-99.73788452148438,-0.22692351523502224,-0.713810312657927,-0.4345849358476699,-0.2380434186508258
1.284898281097412,0.6438602209091187,-102.51319885253906,-0.22692351523502224,-0.713810312657927,-0.4345849358476699,-0.2380434186508258
-0.6557318568229675,-0.07466123253107071,-105.24091339111328,-0.22692351523502224,-0.713810312657927,-0.4345849358476699,-0.2380434186508258
1.0516749620437622,0.8467977643013,-107.9519271850586,-0.22692351523502224,-0.713810312657927,-0.4345849358476699,-0.2380434186508258
-0.6546400785446167,0.16741931438446045,-110.72298431396484,-0.22692351523502224,-0.713810312657927,-0.4345849358476699,-0.2380434186508258
-0.13497506082057953,-0.12778425216674805,-113.6189956665039,-0.22692351523502224,-0.713810312657927,-0.4345849358476699,-0.2380434186508258
0.3784944415092468,-0.4705412685871124,-116.55168914794922,-0.22692351523502224,-0.713810312657927,-0.4345849358476699,-0.2380434186508258
0.4748953580856323,1.154996633529663,-119.51927185058594,-0.22692351523502224,-0.713810312657927,-0.4345849358476699,-0.2380434186508258
-0.7206627726554871,-0.04615563154220581,-122.45508575439453,-0.22692351523502224,-0.713810312657927,-0.4345849358476699,-0.2380434186508258
0.5678197741508484,0.5199365615844727,-125.3436050415039,-0.22692351523502224,-0.713810312657927,-0.4345849358476699,-0.2380434186508258
0.9582378268241882,0.9410664439201355,-128.1820526123047,-0.22692351523502224,-0.713810312657927,-0.4345849358476699,-0.2380434186508258
-0.022634539753198624,-0.01073651947081089,-130.9662322998047,-0.22692351523502224,-0.713810312657927,-0.4345849358476699,-0.2380434186508258
0.2853572964668274,0.0869523361325264,-133.8498077392578,-0.22692351523502224,-0.713810312657927,-0.4345849358476699,-0.2380434186508258
-0.062078189104795456,-0.539487361907959,-136.7576141357422,-0.22692351523502224,-0.713810312657927,-0.4345849358476699,-0.2380434186508258
0.40886759757995605,0.1585666686296463,-139.72979736328125,-0.22692351523502224,-0.713810312657927,-0.4345849358476699,-0.2380434186508258
-0.4498097896575928,0.324945867061615,-142.6471710205078,-0.22692351523502224,-0.713810312657927,-0.4345849358476699,-0.2380434186508258
0.8151167035102844,0.501993715763092,-145.44461059570312,-0.22692351523502224,-0.713810312657927,-0.4345849358476699,-0.2380434186508258
0.11662398278713226,-0.05232366919517517,-148.19190979003906,-0.22692351523502224,-0.713810312657927,-0.4345849358476699,-0.2380434186508258
1.1327168941497803,0.3189396560192108,-150.87535095214844,-0.22692351523502224,-0.713810312657927,-0.4345849358476699,-0.2380434186508258
-0.100919209420681,-0.3401089906692505,-153.56715393066406,-0.22692351523502224,-0.713810312657927,-0.4345849358476699,-0.2380434186508258
0.46468910574913025,-0.4228622019290924,-156.2307586669922,-0.22692351523502224,-0.713810312657927,-0.4345849358476699,-0.2380434186508258
0.2921141982078552,-0.17721909284591675,-158.94960021972656,-0.22692351523502224,-0.713810312657927,-0.4345849358476699,-0.2380434186508258
0.40219488739967346,0.2946750521659851,-161.65408325195312,-0.22692351523502224,-0.713810312657927,-0.4345849358476699,-0.2380434186508258
-0.10231275856494904,-0.6656221747398376,-164.40560913085938,-0.22692351523502224,-0.713810312657927,-0.4345849358476699,-0.2380434186508258
1.1774927377700806,0.6244163513183594,-167.23678588867188,-0.22692351523502224,-0.713810312657927,-0.4345849358476699,-0.2380434186508258
0.25830376148223877,-0.4498138129711151,-170.07888793945312,-0.22692351523502224,-0.713810312657927,-0.4345849358476699,-0.2380434186508258
0.48716452717781067,0.6650710105895996,-172.9422607421875,-0.22692351523502224,-0.713810312657927,-0.4345849358476699,-0.2380434186508258
0.9369484186172485,0.13409607112407684,-175.92784118652344,-0.22692351523502224,-0.713810312657927,-0.4345849358476699,-0.2380434186508258
-0.24833239614963531,0.27453720569610596,-178.90916442871094,-0.22692351523502224,-0.713810312657927,-0.4345849358476699,-0.2380434186508258
0.598859965801239,-0.6414086818695068,178.0812225341797,-0.22692351523502224,-0.713810312657927,-0.4345849358476699,-0.2380434186508258
-0.10758423805236816,0.36461353302001953,175.1798095703125,-0.22692351523502224,-0.713810312657927,-0.4345849358476699,-0.2380434186508258
1.3278475999832153,-1.1568182706832886,172.26248168945312,-0.22692351523502224,-0.713810312657927,-0.4345849358476699,-0.2380434186508258
-0.5850721001625061,1.110722303390503,169.32249450683594,-0.22692351523502224,-0.713810312657927,-0.4345849358476699,-0.2380434186508258
0.4619208574295044,-0.9650598764419556,166.38621520996094,-0.22692351523502224,-0.713810312657927,-0.4345849358476699,-0.2380434186508258
0.838733434677124,-0.35813772678375244,163.44187927246094,-0.22692351523502224,-0.713810312657927,-0.4345849358476699,-0.2380434186508258
0.9769433736801147,0.0001870912528829649,160.5817413330078,-0.22692351523502224,-0.713810312657927,-0.4345849358476699,-0.2380434186508258
-0.9227950572967529,0.07985928654670715,157.71311950683594,-0.22692351523502224,-0.713810312657927,-0.4345849358476699,-0.2380434186508258
0.5892821550369263,-0.2398194521665573,154.8307342529297,-0.22692351523502224,-0.713810312657927,-0.4345849358476699,-0.2380434186508258
0.2211276739835739,-0.33459722995758057,151.9983673095703,-0.22692351523502224,-0.713810312657927,-0.4345849358476699,-0.2380434186508258
-0.6502901315689087,-0.09458249807357788,149.2161102294922,-0.22692351523502224,-0.713810312657927,-0.4345849358476699,-0.2380434186508258
1.1726436614990234,0.5242369771003723,146.3441925048828,-0.22692351523502224,-0.713810312657927,-0.4345849358476699,-0.2380434186508258
-0.22160620987415314,-0.8971490859985352,143.4759979248047,-0.22692351523502224,-0.713810312657927,-0.4345849358476699,-0.2380434186508258
1.3020986318588257,0.8397474884986877,140.64149475097656,-0.22692351523502224,-0.713810312657927,-0.4345849358476699,-0.2380434186508258
-0.052031759172677994,-1.3281718492507935,137.79409790039062,-0.22692351523502224,-0.713810312657927,-0.4345849358476699,-0.2380434186508258
0.6631162166595459,0.1561553031206131,134.95010375976562,-0.22692351523502224,-0.713810312657927,-0.4345849358476699,-0.2380434186508258
0.5196127891540527,-0.3050960600376129,132.10888671875,-0.22692351523502224,-0.713810312657927,-0.4345849358476699,-0.2380434186508258
0.35523563623428345,-2.1204872131347656,129.27395629882812,-0.22692351523502224,-0.713810312657927,-0.4345849358476699,-0.2380434186508258
0.5618768334388733,1.787939190864563,126.47697448730469,-0.22692351523502224,-0.713810312657927,-0.4345849358476699,-0.2380434186508258
-0.9402381181716919,-1.9813122749328613,123.70417022705078,-0.22692351523502224,-0.713810312657927,-0.4345849358476699,-0.2380434186508258
0.1286851167678833,0.7434602975845337,121.04774475097656,-0.22692351523502224,-0.713810312657927,-0.4345849358476699,-0.2380434186508258
-0.15908072888851166,-1.197918176651001,118.38921356201172,-0.22692351523502224,-0.713810312657927,-0.4345849358476699,-0.2380434186508258
0.186013862490654,0.0016546995611861348,115.70014190673828,-0.22692351523502224,-0.713810312657927,-0.4345849358476699,-0.2380434186508258
-0.09213939309120178,-1.0027456283569336,113.0953598022461,-0.22692351523502224,-0.713810312657927,-0.4345849358476699,-0.2380434186508258
0.4079400300979614,0.8122273683547974,110.53520202636719,-0.22692351523502224,-0.713810312657927,-0.4345849358476699,-0.2380434186508258
0.45799052715301514,-0.5251826643943787,108.06825256347656,-0.22692351523502224,-0.713810312657927,-0.4345849358476699,-0.2380434186508258
-0.865267813205719,-0.23313352465629578,105.6131362915039,-0.22692351523502224,-0.713810312657927,-0.4345849358476699,-0.2380434186508258
1.1929831504821777,-1.1327595710754395,103.07555389404297,-0.22692351523502224,-0.713810312657927,-0.4345849358476699,-0.2380434186508258
-1.7226053476333618,-0.3963468372821808,100.49451446533203,-0.22692351523502224,-0.713810312657927,-0.4345849358476699,-0.2380434186508258
0.938565194606781,-1.0456104278564453,97.88249969482422,-0.22692351523502224,-0.713810312657927,-0.4345849358476699,-0.2380434186508258
-0.519853413105011,0.5257508158683777,95.25323486328125,-0.22692351523502224,-0.713810312657927,-0.4345849358476699,-0.2380434186508258
0.7619317770004272,0.6103257536888123,92.65357971191406,-0.22692351523502224,-0.713810312657927,-0.4345849358476699,-0.2380434186508258
-0.25564852356910706,-2.2192211151123047,90.00314331054688,-0.22692351523502224,-0.713810312657927,-0.4345849358476699,-0.2380434186508258
0.5031911730766296,0.42779406905174255,87.41922760009766,-0.22692351523502224,-0.713810312657927,-0.4345849358476699,-0.2380434186508258
-0.18313097953796387,-1.0218883752822876,84.85025024414062,-0.22692351523502224,-0.713810312657927,-0.4345849358476699,-0.2380434186508258
-0.3038157820701599,-0.045492179691791534,82.61335754394531,-0.22692351523502224,-0.713810312657927,-0.4345849358476699,-0.2380434186508258
-0.2641279995441437,0.5927091240882874,80.77172088623047,-0.22692351523502224,-0.713810312657927,-0.4345849358476699,-0.2380434186508258
-1.5381418466567993,1.055655837059021,79.44773864746094,-0.22692351523502224,-0.713810312657927,-0.4345849358476699,-0.2380434186508258
-1.5673924684524536,0.9095197319984436,78.43705749511719,-0.22692351523502224,-0.713810312657927,-0.4345849358476699,-0.2380434186508258
-0.8531249165534973,0.6000961661338806,77.82662200927734,-0.22692351523502224,-0.713810312657927,-0.4345849358476699,-0.2380434186508258
-1.5129764080047607,0.38534364104270935,77.5994873046875,-0.22692351523502224,-0.713810312657927,-0.4345849358476699,-0.2380434186508258
-0.11673159152269363,0.288794606924057,77.61599731445312,-0.22692351523502224,-0.713810312657927,-0.4345849358476699,-0.2380434186508258
0.1836441606283188,-0.5457397699356079,77.628662109375,-0.22692351523502224,-0.713810312657927,-0.4345849358476699,-0.2380434186508258
-0.04699546471238136,-0.1342959702014923,77.62073516845703,-0.22692351523502224,-0.713810312657927,-0.4345849358476699,-0.2380434186508258
0.2155885249376297,0.06046570837497711,77.62989807128906,-0.22692351523502224,-0.713810312657927,-0.4345849358476699,-0.2380434186508258
0.043655239045619965,0.2155638486146927,77.63373565673828,-0.22692351523502224,-0.713810312657927,-0.4345849358476699,-0.2380434186508258
0.1378292739391327,0.05164279416203499,77.63029479980469,-0.22692351523502224,-0.713810312657927,-0.4345849358476699,-0.2380434186508258
0.05552097037434578,-0.11085229367017746,77.63672637939453,-0.22692351523502224,-0.713810312657927,-0.4345849358476699,-0.2380434186508258
0.06786023080348969,-0.1383182257413864,77.63179016113281,-0.22692351523502224,-0.713810312657927,-0.4345849358476699,-0.2380434186508258
0.12072192132472992,0.009026181884109974,77.6363525390625,-0.22692351523502224,-0.713810312657927,-0.4345849358476699,-0.2380434186508258
0.08565539866685867,0.09043845534324646,77.63447570800781,-0.22692351523502224,-0.713810312657927,-0.4345849358476699,-0.2380434186508258
0.10709124058485031,0.00809953548014164,77.63638305664062,-0.22692351523502224,-0.713810312657927,-0.4345849358476699,-0.2380434186508258
0.057537466287612915,-0.0818757638335228,77.63584899902344,-0.22692351523502224,-0.713810312657927,-0.4345849358476699,-0.2380434186508258
0.10657130926847458,-0.047241680324077606,77.63599395751953,-0.22692351523502224,-0.713810312657927,-0.4345849358476699,-0.2380434186508258
0.08220915496349335,0.027750495821237564,77.63772583007812,-0.22692351523502224,-0.713810312657927,-0.4345849358476699,-0.2380434186508258
0.09058189392089844,0.03030417300760746,77.63530731201172,-0.22692351523502224,-0.713810312657927,-0.4345849358476699,-0.2380434186508258
0.08098626136779785,-0.03598116710782051,77.63677978515625,-0.22692351523502224,-0.713810312657927,-0.4345849358476699,-0.2380434186508258
0.08327222615480423,-0.0617871955037117,77.63610076904297,-0.22692351523502224,-0.713810312657927,-0.4345849358476699,-0.2380434186508258
0.08920342475175858,-0.01221588533371687,77.63705444335938,-0.22692351523502224,-0.713810312657927,-0.4345849358476699,-0.2380434186508258
0.08498793840408325,0.014097253791987896,77.63668060302734,-0.22692351523502224,-0.713810312657927,-0.4345849358476699,-0.2380434186508258
0.09827255457639694,-0.0035932152532041073,77.63689422607422,-0.22692351523502224,-0.713810312657927,-0.4345849358476699,-0.2380434186508258
0.0879490002989769,-0.03781849145889282,77.63636016845703,-0.22692351523502224,-0.713810312657927,-0.4345849358476699,-0.2380434186508258
0.08584790676832199,-0.02487635426223278,77.6373062133789,-0.22692351523502224,-0.713810312657927,-0.4345849358476699,-0.2380434186508258
0.06702208518981934,-0.011258414015173912,77.63774108886719,-0.22692351523502224,-0.713810312657927,-0.4345849358476699,-0.2380434186508258
0.09263157844543457,-0.012744875624775887,77.63841247558594,-0.22692351523502224,-0.713810312657927,-0.4345849358476699,-0.2380434186508258
0.0895051583647728,-0.02698463760316372,77.63773345947266,-0.22692351523502224,-0.713810312657927,-0.4345849358476699,-0.2380434186508258
0.06916625797748566,-0.027207370847463608,77.63805389404297,-0.22692351523502224,-0.713810312657927,-0.4345849358476699,-0.2380434186508258
0.07552430033683777,-0.004856451414525509,77.63761901855469,-0.22692351523502224,-0.713810312657927,-0.4345849358476699,-0.2380434186508258
0.07629420608282089,-0.008056733757257462,77.63788604736328,-0.22692351523502224,-0.713810312657927,-0.4345849358476699,-0.2380434186508258
0.07865145802497864,-0.024467915296554565,77.63890838623047,-0.22692351523502224,-0.713810312657927,-0.4345849358476699,-0.2380434186508258
0.0828387513756752,-0.034287381917238235,77.63807678222656,-0.22692351523502224,-0.713810312657927,-0.4345849358476699,-0.2380434186508258
0.08360368013381958,-0.023780006915330887,77.63831329345703,-0.22692351523502224,-0.713810312657927,-0.4345849358476699,-0.2380434186508258
0.07089752703905106,-0.02145412191748619,77.63994598388672,-0.22692351523502224,-0.713810312657927,-0.4345849358476699,-0.2380434186508258
0.08116177469491959,-0.006819489412009716,77.6416244506836,-0.22692351523502224,-0.713810312657927,-0.4345849358476699,-0.2380434186508258
0.07928487658500671,-0.013434340246021748,77.64146423339844,-0.22692351523502224,-0.713810312657927,-0.4345849358476699,-0.2380434186508258
0.08590114861726761,-0.015107679180800915,77.64249420166016,-0.22692351523502224,-0.713810312657927,-0.4345849358476699,-0.2380434186508258
0.07201461493968964,-0.026230601593852043,77.64368438720703,-0.22692351523502224,-0.713810312657927,-0.4345849358476699,-0.2380434186508258
0.07428309321403503,-0.007899284362792969,77.644775390625,-0.22692351523502224,-0.713810312657927,-0.4345849358476699,-0.2380434186508258
0.06978382170200348,-0.02761932462453842,77.64550018310547,-0.22692351523502224,-0.713810312657927,-0.4345849358476699,-0.2380434186508258
0.08779548853635788,-0.017511991783976555,77.64561462402344,-0.22692351523502224,-0.713810312657927,-0.4345849358476699,-0.2380434186508258
0.0784357413649559,-0.03833041712641716,77.6465072631836,-0.22692351523502224,-0.713810312657927,-0.4345849358476699,-0.2380434186508258
0.07682127505540848,-0.018396785482764244,77.64613342285156,-0.22692351523502224,-0.713810312657927,-0.4345849358476699,-0.2380434186508258
0.059388697147369385,-0.03627496957778931,77.64617156982422,-0.22692351523502224,-0.713810312657927,-0.4345849358476699,-0.2380434186508258
0.07629364728927612,-0.015276063233613968,77.64677429199219,-0.22692351523502224,-0.713810312657927,-0.4345849358476699,-0.2380434186508258
0.07198771834373474,-0.02987833507359028,77.64739227294922,-0.22692351523502224,-0.713810312657927,-0.4345849358476699,-0.2380434186508258
0.06635081022977829,-0.021771647036075592,77.6470718383789,-0.22692351523502224,-0.713810312657927,-0.4345849358476699,-0.2380434186508258
0.0740983784198761,-0.038454387336969376,77.6476821899414,-0.22692351523502224,-0.713810312657927,-0.4345849358476699,-0.2380434186508258
0.07666420191526413,-0.025207893922924995,77.64886474609375,-0.22692351523502224,-0.713810312657927,-0.4345849358476699,-0.2380434186508258
0.07534176111221313,-0.02930966578423977,77.64922332763672,-0.22692351523502224,-0.713810312657927,-0.4345849358476699,-0.2380434186508258
0.061437636613845825,-0.03655616194009781,77.6491928100586,-0.22692351523502224,-0.713810312657927,-0.4345849358476699,-0.2380434186508258
0.07455501705408096,-0.01941841095685959,77.648681640625,-0.22692351523502224,-0.713810312657927,-0.4345849358476699,-0.2380434186508258
0.06062751263380051,-0.028083615005016327,77.64921569824219,-0.22692351523502224,-0.713810312657927,-0.4345849358476699,-0.2380434186508258
0.051623713225126266,-0.03297184407711029,77.64852905273438,-0.22692351523502224,-0.713810312657927,-0.4345849358476699,-0.2380434186508258
0.06281943619251251,-0.03059379756450653,77.64824676513672,-0.22692351523502224,-0.713810312657927,-0.4345849358476699,-0.2380434186508258
0.0642165020108223,-0.024623354896903038,77.64811706542969,-0.22692351523502224,-0.713810312657927,-0.4345849358476699,-0.2380434186508258
0.06552447378635406,-0.024641532450914383,77.64918518066406,-0.22692351523502224,-0.713810312657927,-0.4345849358476699,-0.2380434186508258
0.0685882493853569,-0.025983216241002083,77.64942932128906,-0.22692351523502224,-0.713810312657927,-0.4345849358476699,-0.2380434186508258
0.0714925080537796,-0.029801487922668457,77.65027618408203,-0.22692351523502224,-0.713810312657927,-0.4345849358476699,-0.2380434186508258
0.06470481306314468,-0.022929023951292038,77.65174102783203,-0.22692351523502224,-0.713810312657927,-0.4345849358476699,-0.2380434186508258
0.06203936040401459,-0.02057492919266224,77.65217590332031,-0.22692351523502224,-0.713810312657927,-0.4345849358476699,-0.2380434186508258
0.06988900899887085,-0.016584578901529312,77.65152740478516,-0.22692351523502224,-0.713810312657927,-0.4345849358476699,-0.2380434186508258
0.05702025443315506,-0.022477731108665466,77.6509780883789,-0.22692351523502224,-0.713810312657927,-0.4345849358476699,-0.2380434186508258
0.05731857940554619,-0.024994881823658943,77.65153503417969,-0.22692351523502224,-0.713810312657927,-0.4345849358476699,-0.2380434186508258
0.06883302330970764,-0.02825447916984558,77.6509780883789,-0.22692351523502224,-0.713810312657927,-0.4345849358476699,-0.2380434186508258
0.06946912407875061,-0.024517210200428963,77.65003204345703,-0.22692351523502224,-0.713810312657927,-0.4345849358476699,-0.2380434186508258
0.06308509409427643,-0.015620454214513302,77.64984893798828,-0.22692351523502224,-0.713810312657927,-0.4345849358476699,-0.2380434186508258
0.056375935673713684,-0.02003439888358116,77.64938354492188,-0.22692351523502224,-0.713810312657927,-0.4345849358476699,-0.2380434186508258
0.054397448897361755,-0.024789826944470406,77.65005493164062,-0.22692351523502224,-0.713810312657927,-0.4345849358476699,-0.2380434186508258
0.05914764851331711,-0.02541351690888405,77.65045928955078,-0.22692351523502224,-0.713810312657927,-0.4345849358476699,-0.2380434186508258
0.06984785199165344,-0.0208363626152277,77.65176391601562,-0.22692351523502224,-0.713810312657927,-0.4345849358476699,-0.2380434186508258
0.06995411962270737,-0.012036687694489956,77.65174865722656,-0.22692351523502224,-0.713810312657927,-0.4345849358476699,-0.2380434186508258
0.06037329509854317,-0.019548457115888596,77.6531982421875,-0.22692351523502224,-0.713810312657927,-0.4345849358476699,-0.2380434186508258
0.06329513341188431,-0.026003846898674965,77.6538314819336,-0.22692351523502224,-0.713810312657927,-0.4345849358476699,-0.2380434186508258
0.06699299067258835,-0.032886844128370285,77.65435028076172,-0.22692351523502224,-0.713810312657927,-0.4345849358476699,-0.2380434186508258
0.05501436069607735,-0.020406026393175125,77.65442657470703,-0.22692351523502224,-0.713810312657927,-0.4345849358476699,-0.2380434186508258
0.0635950043797493,-0.025828521698713303,77.65316772460938,-0.22692351523502224,-0.713810312657927,-0.4345849358476699,-0.2380434186508258
0.05125240236520767,-0.03297959640622139,77.65411376953125,-0.22692351523502224,-0.713810312657927,-0.4345849358476699,-0.2380434186508258
0.0642511174082756,-0.03576701879501343,77.65487670898438,-0.22692351523502224,-0.713810312657927,-0.4345849358476699,-0.2380434186508258
0.058241527527570724,-0.017952067777514458,77.65501403808594,-0.22692351523502224,-0.713810312657927,-0.4345849358476699,-0.2380434186508258
0.041909340769052505,-0.03787950053811073,77.6552963256836,-0.22692351523502224,-0.713810312657927,-0.4345849358476699,-0.2380434186508258
0.057088542729616165,-0.035449713468551636,77.65634155273438,-0.22692351523502224,-0.713810312657927,-0.4345849358476699,-0.2380434186508258
0.05161367729306221,-0.019119491800665855,77.65613555908203,-0.22692351523502224,-0.713810312657927,-0.4345849358476699,-0.2380434186508258
0.05339830368757248,-0.014306887052953243,77.65612030029297,-0.22692351523502224,-0.713810312657927,-0.4345849358476699,-0.2380434186508258
0.05177034065127373,-0.037152666598558426,77.65723419189453,-0.22692351523502224,-0.713810312657927,-0.4345849358476699,-0.2380434186508258
0.06035219132900238,-0.03016570582985878,77.658447265625,-0.22692351523502224,-0.713810312657927,-0.4345849358476699,-0.2380434186508258
0.04619702324271202,-0.033983681350946426,77.65946197509766,-0.22692351523502224,-0.713810312657927,-0.4345849358476699,-0.2380434186508258
0.058874890208244324,-0.01794610731303692,77.65975952148438,-0.22692351523502224,-0.713810312657927,-0.4345849358476699,-0.2380434186508258
0.05590910091996193,-0.011755264364182949,77.66036987304688,-0.22692351523502224,-0.713810312657927,-0.4345849358476699,-0.2380434186508258
0.05217117816209793,-0.02693045139312744,77.66023254394531,-0.22692351523502224,-0.713810312657927,-0.4345849358476699,-0.2380434186508258
0.04028711095452309,-0.028830207884311676,77.66056060791016,-0.22692351523502224,-0.713810312657927,-0.4345849358476699,-0.2380434186508258
0.04430009424686432,-0.03463161364197731,77.65979766845703,-0.22692351523502224,-0.713810312657927,-0.4345849358476699,-0.2380434186508258
0.04919300973415375,-0.029506705701351166,77.65934753417969,-0.22692351523502224,-0.713810312657927,-0.4345849358476699,-0.2380434186508258
0.04374938830733299,-0.02820482850074768,77.66024780273438,-0.22692351523502224,-0.713810312657927,-0.4345849358476699,-0.2380434186508258
0.05241303890943527,-0.032317161560058594,77.66062927246094,-0.22692351523502224,-0.713810312657927,-0.4345849358476699,-0.2380434186508258
0.05049924924969673,-0.02684699185192585,77.66122436523438,-0.22692351523502224,-0.713810312657927,-0.4345849358476699,-0.2380434186508258
0.030875056982040405,-0.032184239476919174,77.66185760498047,-0.22692351523502224,-0.713810312657927,-0.4345849358476699,-0.2380434186508258
0.03988894075155258,-0.035284943878650665,77.6617431640625,-0.22692351523502224,-0.713810312657927,-0.4345849358476699,-0.2380434186508258
0.04406213015317917,-0.029603058472275734,77.66337585449219,-0.22692351523502224,-0.713810312657927,-0.4345849358476699,-0.2380434186508258
0.04785921424627304,-0.030263975262641907,77.66289520263672,-0.22692351523502224,-0.713810312657927,-0.4345849358476699,-0.2380434186508258
0.05113990232348442,-0.033018216490745544,77.66322326660156,-0.22692351523502224,-0.713810312657927,-0.4345849358476699,-0.2380434186508258
0.044194918125867844,-0.03714220970869064,77.66304016113281,-0.22692351523502224,-0.713810312657927,-0.4345849358476699,-0.2380434186508258
0.044010378420352936,-0.04026787728071213,77.66339874267578,-0.22692351523502224,-0.713810312657927,-0.4345849358476699,-0.2380434186508258
0.0458468496799469,-0.021031660959124565,77.66375732421875,-0.22692351523502224,-0.713810312657927,-0.4345849358476699,-0.2380434186508258
0.04069365933537483,-0.0223320834338665,77.66374206542969,-0.22692351523502224,-0.713810312657927,-0.4345849358476699,-0.2380434186508258
0.03959255293011665,-0.036329545080661774,77.66377258300781,-0.22692351523502224,-0.713810312657927,-0.4345849358476699,-0.2380434186508258
0.05375377833843231,-0.014582631178200245,77.66374969482422,-0.22692351523502224,-0.713810312657927,-0.4345849358476699,-0.2380434186508258
0.040649306029081345,-0.027408024296164513,77.6634292602539,-0.22692351523502224,-0.713810312657927,-0.4345849358476699,-0.2380434186508258
0.04066646099090576,-0.012669118121266365,77.66439056396484,-0.22692351523502224,-0.713810312657927,-0.4345849358476699,-0.2380434186508258
0.04989633709192276,-0.028462382033467293,77.66436004638672,-0.22692351523502224,-0.713810312657927,-0.4345849358476699,-0.2380434186508258
0.029312334954738617,-0.02976488135755062,77.66488647460938,-0.22692351523502224,-0.713810312657927,-0.4345849358476699,-0.2380434186508258
0.0332544669508934,-0.03455350920557976,77.66600799560547,-0.22692351523502224,-0.713810312657927,-0.4345849358476699,-0.2380434186508258
0.03891574591398239,-0.035164207220077515,77.66545867919922,-0.22692351523502224,-0.713810312657927,-0.4345849358476699,-0.2380434186508258
0.03643563389778137,-0.03168234974145889,77.66511535644531,-0.22692351523502224,-0.713810312657927,-0.4345849358476699,-0.2380434186508258
0.05281515419483185,-0.0223549697548151,77.66545867919922,-0.22692351523502224,-0.713810312657927,-0.4345849358476699,-0.2380434186508258
0.04777959734201431,-0.028761886060237885,77.66535949707031,-0.22692351523502224,-0.713810312657927,-0.4345849358476699,-0.2380434186508258
0.047421645373106,-0.019216051325201988,77.6642074584961,-0.22692351523502224,-0.713810312657927,-0.4345849358476699,-0.2380434186508258
0.04336472228169441,-0.03231191262602806,77.66432189941406,-0.22692351523502224,-0.713810312657927,-0.4345849358476699,-0.2380434186508258
0.0380333848297596,-0.03848377987742424,77.66419982910156,-0.22692351523502224,-0.713810312657927,-0.4345849358476699,-0.2380434186508258
0.039909228682518005,-0.02709803730249405,77.66276550292969,-0.22692351523502224,-0.713810312657927,-0.4345849358476699,-0.2380434186508258
0.04106743633747101,-0.03545588627457619,77.66281127929688,-0.22692351523502224,-0.713810312657927,-0.4345849358476699,-0.2380434186508258
0.02675611712038517,-0.03297755494713783,77.66314697265625,-0.22692351523502224,-0.713810312657927,-0.4345849358476699,-0.2380434186508258
0.027787288650870323,-0.019356753677129745,77.66305541992188,-0.22692351523502224,-0.713810312657927,-0.4345849358476699,-0.2380434186508258
0.026060542091727257,-0.017714230343699455,77.66456604003906,-0.22692351523502224,-0.713810312657927,-0.4345849358476699,-0.2380434186508258
0.032309532165527344,-0.028401101008057594,77.66558837890625,-0.22692351523502224,-0.713810312657927,-0.4345849358476699,-0.2380434186508258
0.03238112851977348,-0.035657137632369995,77.66597747802734,-0.22692351523502224,-0.713810312657927,-0.4345849358476699,-0.2380434186508258
0.024587322026491165,-0.01690775342285633,77.66575622558594,-0.22692351523502224,-0.713810312657927,-0.4345849358476699,-0.2380434186508258
0.03657632693648338,-0.020285645499825478,77.666748046875,-0.22692351523502224,-0.713810312657927,-0.4345849358476699,-0.2380434186508258
0.03388042747974396,-0.038725145161151886,77.66706848144531,-0.22692351523502224,-0.713810312657927,-0.4345849358476699,-0.2380434186508258
0.04479827731847763,-0.03713731840252876,77.66764831542969,-0.22692351523502224,-0.713810312657927,-0.4345849358476699,-0.2380434186508258
0.023139027878642082,-0.027841288596391678,77.6678695678711,-0.22692351523502224,-0.713810312657927,-0.4345849358476699,-0.2380434186508258
0.03316395729780197,-0.03056485578417778,77.6671142578125,-0.22692351523502224,-0.713810312657927,-0.4345849358476699,-0.2380434186508258
0.02632664516568184,-0.03427182883024216,77.66761779785156,-0.22692351523502224,-0.713810312657927,-0.4345849358476699,-0.2380434186508258
0.034738801419734955,-0.01622447744011879,77.66669464111328,-0.22692351523502224,-0.713810312657927,-0.4345849358476699,-0.2380434186508258
0.04752783849835396,-0.02219831570982933,77.6683349609375,-0.22692351523502224,-0.713810312657927,-0.4345849358476699,-0.2380434186508258
0.03692574054002762,-0.02236229181289673,77.56352996826172,-0.22692351523502224,-0.713810312657927,-0.4345849358476699,-0.2380434186508258
0.022715814411640167,-0.023806406185030937,77.56439208984375,-0.22692351523502224,-0.713810312657927,-0.4345849358476699,-0.2380434186508258
0.01716887205839157,-0.016866296529769897,77.56391906738281,-0.22692351523502224,-0.713810312657927,-0.4345849358476699,-0.2380434186508258
0.03023994155228138,-0.015936512500047684,77.56433868408203,-0.22692351523502224,-0.713810312657927,-0.4345849358476699,-0.2380434186508258
0.02490168623626232,-0.014303633011877537,77.564697265625,-0.22692351523502224,-0.713810312657927,-0.4345849358476699,-0.2380434186508258
0.03517618775367737,-0.0203812588006258,77.5658187866211,-0.22692351523502224,-0.713810312657927,-0.4345849358476699,-0.2380434186508258
0.02224346436560154,-0.017361903563141823,77.56607055664062,-0.22692351523502224,-0.713810312657927,-0.4345849358476699,-0.2380434186508258
0.022877836599946022,-0.034763846546411514,77.56737518310547,-0.22692351523502224,-0.713810312657927,-0.4345849358476699,-0.2380434186508258
0.02378610521554947,-0.004693933762609959,77.5666732788086,-0.22692351523502224,-0.713810312657927,-0.4345849358476699,-0.2380434186508258
0.015512092038989067,-0.0072757587768137455,77.56707000732422,-0.22692351523502224,-0.713810312657927,-0.4345849358476699,-0.2380434186508258
0.02420583926141262,-0.020353609696030617,77.56631469726562,-0.22692351523502224,-0.713810312657927,-0.4345849358476699,-0.2380434186508258
0.032996952533721924,-0.015560867264866829,77.56605529785156,-0.22692351523502224,-0.713810312657927,-0.4345849358476699,-0.2380434186508258
0.029572177678346634,-0.020598359405994415,77.56637573242188,-0.22692351523502224,-0.713810312657927,-0.4345849358476699,-0.2380434186508258
0.0428435355424881,-0.014115308411419392,77.56626892089844,-0.22692351523502224,-0.713810312657927,-0.4345849358476699,-0.2380434186508258
0.017618391662836075,-0.020231306552886963,77.56636047363281,-0.22692351523502224,-0.713810312657927,-0.4345849358476699,-0.2380434186508258
0.025582434609532356,-0.03562452271580696,77.56681060791016,-0.22692351523502224,-0.713810312657927,-0.4345849358476699,-0.2380434186508258
0.01043238677084446,-0.032340314239263535,77.56670379638672,-0.22692351523502224,-0.713810312657927,-0.4345849358476699,-0.2380434186508258
0.01317304652184248,-0.02154364250600338,77.56736755371094,-0.22692351523502224,-0.713810312657927,-0.4345849358476699,-0.2380434186508258
0.03389439731836319,-0.017332272604107857,77.5679702758789,-0.22692351523502224,-0.713810312657927,-0.4345849358476699,-0.2380434186508258
0.02807491458952427,-0.016869140788912773,77.5682601928711,-0.22692351523502224,-0.713810312657927,-0.4345849358476699,-0.2380434186508258
0.020984869450330734,-0.02864699624478817,77.56770324707031,-0.22692351523502224,-0.713810312657927,-0.4345849358476699,-0.2380434186508258
0.03157040849328041,-0.012460066005587578,77.56841278076172,-0.22692351523502224,-0.713810312657927,-0.4345849358476699,-0.2380434186508258
0.029969587922096252,-0.02333289012312889,77.56720733642578,-0.22692351523502224,-0.713810312657927,-0.4345849358476699,-0.2380434186508258
0.030198942869901657,-0.015557804144918919,77.56707000732422,-0.22692351523502224,-0.713810312657927,-0.4345849358476699,-0.2380434186508258
0.022734278813004494,-0.010714901611208916,77.56720733642578,-0.22692351523502224,-0.713810312657927,-0.4345849358476699,-0.2380434186508258
0.009052340872585773,-0.018539123237133026,77.56816101074219,-0.22692351523502224,-0.713810312657927,-0.4345849358476699,-0.2380434186508258
0.02322426438331604,-0.01827734149992466,77.56878662109375,-0.22692351523502224,-0.713810312657927,-0.4345849358476699,-0.2380434186508258
0.025682294741272926,-0.027992887422442436,77.56971740722656,-0.22692351523502224,-0.713810312657927,-0.4345849358476699,-0.2380434186508258
0.030696703121066093,-0.021201804280281067,77.56897735595703,-0.22692351523502224,-0.713810312657927,-0.4345849358476699,-0.2380434186508258
0.025026191025972366,-0.028382735326886177,77.57047271728516,-0.22692351523502224,-0.713810312657927,-0.4345849358476699,-0.2380434186508258
0.017103327438235283,-0.009284219704568386,77.57061004638672,-0.22692351523502224,-0.713810312657927,-0.4345849358476699,-0.2380434186508258
0.01257641427218914,-0.026585888117551804,77.5699462890625,-0.22692351523502224,-0.713810312657927,-0.4345849358476699,-0.2380434186508258
0.007201856467872858,-0.006105479784309864,77.56877899169922,-0.22692351523502224,-0.713810312657927,-0.4345849358476699,-0.2380434186508258
0.01693009026348591,-0.014351983554661274,77.56925201416016,-0.22692351523502224,-0.713810312657927,-0.4345849358476699,-0.2380434186508258
0.01133684255182743,-0.012091943994164467,77.56915283203125,-0.22692351523502224,-0.713810312657927,-0.4345849358476699,-0.2380434186508258
0.019517913460731506,-0.013012445531785488,77.56986236572266,-0.22692351523502224,-0.713810312657927,-0.4345849358476699,-0.2380434186508258
0.01076452061533928,-0.03250676020979881,77.57015228271484,-0.22692351523502224,-0.713810312657927,-0.4345849358476699,-0.2380434186508258
0.031351249665021896,-0.025708647444844246,77.56939697265625,-0.22692351523502224,-0.713810312657927,-0.4345849358476699,-0.2380434186508258
0,0,77.56887817382812,-0.23416442032903445,-0.7177794882915134,-0.4343236754337947,-0.23825765737953283
0,0,77.56761169433594,-0.24140314825293102,-0.7217504492478389,-0.4343236754337947,-0.23825765737953283
0.08548208326101303,0.5454452633857727,77.56643676757812,-0.24863593992104557,-0.7256835320608738,-0.4336113247399529,-0.2337122801846514
0.253638356924057,1.9535841941833496,77.61215209960938,-0.2558392453028097,-0.7294051930182868,-0.430785321071744,-0.21288703470490872
0.35332900285720825,3.2209560871124268,77.69290161132812,-0.2629768501429095,-0.7325939671882786,-0.42572725974023345,-0.1697658656941106
0.7630901336669922,1.8962023258209229,77.70679473876953,-0.2699947753652103,-0.7350680400600601,-0.41642376693586514,-0.127122878919666
0,1.6267558336257935,77.65423583984375,-0.2768821791104145,-0.7369421048365374,-0.4100646824886402,-0.09776489425761004
0.5896422266960144,0.18097396194934845,77.63261413574219,-0.2836756431083713,-0.7384459829494715,-0.40515099726617343,-0.08270047929448385
-0.08623188734054565,1.8276300430297852,77.69376373291016,-0.29039320067813007,-0.7396848378818116,-0.4009559111048779,-0.0659621125863244
0.08929722011089325,1.657056212425232,77.80130767822266,-0.29707558632621345,-0.7405422143238437,-0.400930366665125,-0.03692306045753259
0.4737117886543274,1.4832872152328491,77.79208374023438,-0.3037186612561346,-0.7409395192601042,-0.39623862492541484,-0.010753531893715248
0.6117046475410461,0,77.85928344726562,-0.3102472621968224,-0.7410157387350527,-0.38719348795712005,0.0016071948998918287
-0.12062868475914001,1.7954399585723877,77.87088012695312,-0.31666638449869233,-0.7408642688229314,-0.38310118826727085,0.016569194554661725
1.257880449295044,0.8591951131820679,77.94024658203125,-0.3229724284861652,-0.740403765922593,-0.37362409022947163,0.038691153485948857
0.33650559186935425,1.2003834247589111,78.03804016113281,-0.3290887754037978,-0.7396158870771369,-0.36033753988643497,0.055854307968790345
-1.178930640220642,0.41406816244125366,78.04474639892578,-0.33515290280804055,-0.7385728672507681,-0.3673577486226957,0.06930807119545838
0.34854593873023987,1.0212959051132202,78.15959930419922,-0.3413331975560223,-0.737318054670597,-0.37427762113511576,0.081269438425079
-1.1150692701339722,0.7248780727386475,78.26301574707031,-0.3476243886951773,-0.7358423019483837,-0.3806653155634802,0.09582088824051123
1.0540947914123535,1.137691617012024,78.33843994140625,-0.35397304496003545,-0.7341159420270315,-0.3811734362194937,0.11134230232176683
0.15452459454536438,-0.20905239880084991,78.33892059326172,-0.3602420036618911,-0.7321957481537373,-0.3711016080031794,0.1190809624735266
0,1.5409667491912842,78.252685546875,-0.36641629958732286,-0.7301185713937348,-0.36981390304863465,0.13018024872678022
-0.21690870821475983,-0.39347296953201294,78.11570739746094,-0.37259492774287056,-0.7278692135135899,-0.37162147561709097,0.13974269689060748
1.5111384391784668,1.3056460618972778,78.13168334960938,-0.37869874193850517,-0.7254768232117766,-0.36083622785906005,0.14734413932698467
0.2647802531719208,-0.2128000408411026,78.25434875488281,-0.3845893513825207,-0.7229451954715314,-0.34603690542280685,0.1564511895024528
0,0.22909140586853027,78.27626037597656,-0.3903382456219861,-0.7203365443016969,-0.3438304033130408,0.15658695087768135
1.0664379596710205,0.5342000722885132,78.21373748779297,-0.3959946941522263,-0.7176737554344191,-0.33494342031578234,0.1629477131956567
-2.0715749263763428,0.4991602599620819,78.17847442626953,-0.40164688566906614,-0.7148861990803075,-0.34331956170499334,0.171559049297745
0.19961786270141602,1.00740647315979,78.13990020751953,-0.4074988753824601,-0.7119222589022116,-0.3589192039022844,0.1841137720737606
0.6735127568244934,0,78.1459732055664,-0.4134202280433644,-0.7087837372514573,-0.3516431154062351,0.19250882601675884
-0.3109365701675415,0.10722740739583969,78.10417175292969,-0.41925576773161716,-0.7055678104701087,-0.34862164718409383,0.1934023877450575
0.5176944136619568,0,77.98917388916016,-0.42505177033444275,-0.7023369909932886,-0.3468986651549737,0.19429594947335616
0.5492165088653564,0.8022946119308472,77.82244873046875,-0.43075932371740566,-0.6990430102651264,-0.33800774080057944,0.2009817379061132
-1.4042218923568726,0.174850732088089,77.68903350830078,-0.4364521614379356,-0.695625457317801,-0.34513278566300876,0.20912461577293767
1.4945544004440308,0.355136513710022,77.70655822753906,-0.4421981014414797,-0.6921032423850716,-0.3443800147622824,0.2135411761545886
0.21595624089241028,-1.036142110824585,77.7816162109375,-0.4478189828929805,-0.6885915148378503,-0.3301257594178121,0.20786612951196723
-0.8150706887245178,0.533427894115448,77.70360565185547,-0.4533626840532657,-0.6851619900554778,-0.33511837981641296,0.20367684437272443
-0.25867876410484314,0.5478143095970154,77.54161071777344,-0.4590225563177635,-0.6816922897184524,-0.3440662919233243,0.2126871960703283
0,0.9738665223121643,77.49742889404297,-0.4647749583195484,-0.6780418308372865,-0.3462219482908646,0.22536786966957145
-0.6276339292526245,0.16054841876029968,77.6032943725586,-0.4705889098139276,-0.6742069208607747,-0.35145223103463646,0.23482132751184198
0.5817391872406006,-0.6846192479133606,77.75082397460938,-0.47644963413270014,-0.6703296258764908,-0.35183468721807,0.23045407060223314
0.4808209538459778,0.39117738604545593,77.7634048461914,-0.48223975668764807,-0.6665091026068611,-0.34298001937568184,0.22800872175333392
