faccX,faccY,yaw,posX,posY,velX,velY
0,0,-101.30684661865234,0.0,0.0,0.0,0.0
0,0,-101.30802917480469,0.0,0.0,0.0,0.0
0,0,-101.3092041015625,0.0,0.0,0.0,0.0
0,-0.11965206265449524,-101.30384063720703,0.0,-8.309171017673279e-06,0.0,-0.0009971005221207935
-0.4804271161556244,-1.4717620611190796,-101.28949737548828,-3.336299417747392e-05,-0.00013544238275951809,-0.00400355930129687,-0.014258884886900584
-0.3742988109588623,-2.4963183403015137,-101.28336334228516,-0.00015944494969314998,-0.0006486516031954024,-0.011126275360584258,-0.04732622156540553
-0.14946721494197845,-1.3428341150283813,-101.30770874023438,-0.0003812555130571127,-0.0017040297720167371,-0.015490992243091264,-0.07931915869315465
-0.22234728932380676,-1.813657283782959,-101.30538940429688,-0.0006652591687937577,-0.0032452165418201022,-0.01858944644530614,-0.10562325368324915
-0.6930408477783203,-0.4986203610897064,-101.25050354003906,-0.001038651896847619,-0.005166178939657078,-0.0262176809211572,-0.12489223405718802
0,-1.918797254562378,-101.2168960571289,-0.0015237410821848445,-0.007415592397252717,-0.03199302131930987,-0.14503738085428872
0.24575145542621613,-1.7400038242340088,-101.23082733154297,-0.002039892030879855,-0.010086965486407279,-0.0299450925240914,-0.1755273898442586
-1.1338016986846924,-1.6004400253295898,-101.15367889404297,-0.0026006470620632167,-0.013244397251142395,-0.037345511217912034,-0.20336442192395526
0.12585383653640747,-0.6262672543525696,-101.04830932617188,-0.0032930686283442704,-0.016788436733186245,-0.045745076735814405,-0.2219203159213066
-0.571722686290741,-0.8729050159454346,-101.05093383789062,-0.0040864496885074505,-0.020591217850645382,-0.04946065048376718,-0.23441341817378997
-0.7639557123184204,-0.8802435398101807,-101.09832000732422,-0.005003549307584762,-0.024619854581024912,-0.06059130380551019,-0.24902298947175341
0.529963493347168,-1.0804147720336914,-101.14390563964844,-0.006029653830660713,-0.02890639456609885,-0.06254123896360396,-0.265361808737119
-1.1096816062927246,-0.5689330697059631,-101.12462615966797,-0.007112266015675332,-0.03344362942294942,-0.06737222323815026,-0.2791063740849495
0,-1.7259689569473267,-101.1534194946289,-0.008312197625637053,-0.03825477052066061,-0.0766195699572563,-0.2982305576403936
-0.6605973839759827,0.45320042967796326,-101.10484313964844,-0.009635065276589656,-0.04331366651794977,-0.08212454815705615,-0.30883696203430494
0.8620319366455078,-1.8529847860336304,-100.98794555664062,-0.010989819235271875,-0.04855815646549066,-0.08044592688481011,-0.32050183167060214
0.11345729976892471,-1.5642156600952148,-100.84034729003906,-0.012262842375267707,-0.05413715924653742,-0.07231684991468984,-0.3489785020550092
-0.7799912095069885,0.6853680610656738,-100.74716186523438,-0.013514410284244348,-0.06001449869738684,-0.07787129916250704,-0.356302232046922
0.7528571486473083,-0.9015962481498718,-100.69073486328125,-0.014814149580068055,-0.0659678850778275,-0.07809741633633771,-0.358104133605957
0.05823586881160736,-1.6284663677215576,-100.67452239990234,-0.01605944728168348,-0.0721119860973623,-0.07133830785751341,-0.3791879887382189
-0.46990224719047546,-0.2340477854013443,-100.67769622802734,-0.01727700702225168,-0.07856112717029948,-0.07476886101067065,-0.3947089400142431
-0.4604523479938507,-0.7786624431610107,-100.71315002441406,-0.01858776266376177,-0.08520993660307591,-0.08252181597054004,-0.4031481919189294
0.9431637525558472,0.7831005454063416,-100.74732971191406,-0.019929604637953964,-0.09192876493351325,-0.0784992209325234,-0.4031112077335517
0,-0.19758987426757812,-100.7827377319336,-0.021172427504012974,-0.09860662459913225,-0.070639522994558,-0.39823195214072865
-2.5363211631774902,-0.3935125470161438,-100.76033020019531,-0.021172427504012974,-0.09860662459913225,-0.070639522994558,-0.39823195214072865
0.44256263971328735,-0.5521392226219177,-100.68313598632812,-0.0224951527847184,-0.10530949406325815,-0.08808751069009302,-0.4061123835543792
2.4042398929595947,-0.9491186141967773,-100.78810119628906,-0.02376558334256211,-0.11218228780561021,-0.06436415625115233,-0.4186228655278683
0,0.8263232707977295,-100.93792724609375,-0.024671358176403566,-0.11916786301881073,-0.04432882380982237,-0.4196461600561937
-0.5629711151123047,0.826273500919342,-100.8345718383789,-0.025449267122894515,-0.12604720202171138,-0.04902024976909158,-0.40587452029188475
-0.14932037889957428,-0.5930441617965698,-100.69986724853516,-0.026315735972796867,-0.13279558087802593,-0.05495601221919057,-0.40393094246586164
0,0.14587083458900452,-100.63558197021484,-0.02724203898054029,-0.13955881695573524,-0.05620034871002035,-0.407657386859258
-0.19720260798931122,-0.20840221643447876,-100.54249572753906,-0.028192406084595445,-0.14635744919379548,-0.05784370377659795,-0.4081784817079703
-0.557388186454773,-0.9022761583328247,-100.47148895263672,-0.029208869952708473,-0.15323755433162048,-0.06413196039696531,-0.41743413483103115
0,-0.5522056221961975,-100.57820892333984,-0.03031644347227281,-0.16029579559134108,-0.06877686195075508,-0.4295548163354397
-0.8970184326171875,-0.10551013797521591,-100.71845245361328,-0.03152501745149492,-0.16750071723583254,-0.0762520155558983,-0.4350357810035348
-0.3440176546573639,-0.44567468762397766,-100.72064208984375,-0.032882067439042845,-0.17478959030989139,-0.0865939829498529,-0.43962898788352806
1.262885332107544,0.16812662780284882,-100.52366638183594,-0.034261490232828574,-0.1821360142787711,-0.07893675230443474,-0.44194188838203746
1.1731621026992798,-0.6563478708267212,-100.43273162841797,-0.03540793281048535,-0.1895356166714595,-0.058636357014377874,-0.44601039874056975
-0.9310466647148132,0.7261098027229309,-100.47209930419922,-0.03636839185530939,-0.19696427873853176,-0.05661872836450732,-0.44542904930810134
-0.3303927481174469,-0.9292490482330322,-100.50776672363281,-0.03739963728727565,-0.2044022031190494,-0.06713072347144282,-0.44712187635401884
-0.9782804250717163,-0.21250516176223755,-100.54977416992188,-0.03739963728727565,-0.2044022031190494,-0.06713072347144282,-0.44712187635401884
0.48297327756881714,0.8675441145896912,-100.63671875,-0.03855287900815406,-0.21180874557544782,-0.07125828303396697,-0.4416632184137901
-0.5654416084289551,0,-100.67790222167969,-0.03974624402614102,-0.21910955309660893,-0.07194551912446813,-0.4344336841255427
0.6930562257766724,0.74385005235672,-100.57837677001953,-0.04093647388534412,-0.22629845824506542,-0.07088206397990382,-0.42823493368923665
1.1166462898254395,1.0345202684402466,-100.59803771972656,-0.041992167832536814,-0.2333122092009418,-0.055801209683219555,-0.4134151810159286
-0.49737271666526794,-0.3906113803386688,-100.61021423339844,-0.04287918288467657,-0.2401577463228669,-0.05064059657355146,-0.40804927361508214
-0.06415008008480072,-0.4145408570766449,-100.64429473876953,-0.0437621874662323,-0.24701448089960545,-0.05531995321313536,-0.4147588755935431
-0.2255268692970276,-0.3628462255001068,-100.7559814453125,-0.0447043031412694,-0.2539811140402323,-0.057733927791317266,-0.4212371012816827
0.2251710146665573,-0.4229371249675751,-100.82221221923828,-0.0456665599832518,-0.26105630068315394,-0.057736893246571185,-0.42778529586891334
0.45873841643333435,-0.4203735589981079,-100.82135009765625,-0.04658134782686827,-0.26824461885624457,-0.05203764798740542,-0.4348128849019607
-0.9157520532608032,0.2427796870470047,-100.84081268310547,-0.047480379018104715,-0.27550383317905164,-0.05584609496096766,-0.43629283383488654
-2.193057060241699,0.4540872573852539,-100.91730499267578,-0.048627036789225184,-0.2827269868718253,-0.08175283757348852,-0.43048560929795104
2.8638741970062256,-0.6251632571220398,-100.9406967163086,-0.04994299955873023,-0.2899136273045506,-0.07616269476711746,-0.4319112426290909
0.17407484352588654,-1.2916672229766846,-100.95086669921875,-0.05100140912147857,-0.2972452612428201,-0.05084645276268319,-0.44788482996324697
-0.36333736777305603,-0.8677781820297241,-100.93109893798828,-0.05186199323170712,-0.304859969895333,-0.05242364046474293,-0.46588020833830035
0.2013818323612213,0.5209792256355286,-100.7683334350586,-0.05186199323170712,-0.304859969895333,-0.05242364046474293,-0.46588020833830035
-0.8167091012001038,0.22103816270828247,-100.68419647216797,-0.05186199323170712,-0.304859969895333,-0.05242364046474293,-0.46588020833830035
-0.28617537021636963,1.3676694631576538,-100.54895782470703,-0.05186199323170712,-0.304859969895333,-0.05242364046474293,-0.46588020833830035
1.2649260759353638,1.0165401697158813,-100.5108871459961,-0.05186199323170712,-0.304859969895333,-0.05242364046474293,-0.46588020833830035
0.5419945120811462,2.848767042160034,-100.44027709960938,-0.05186199323170712,-0.304859969895333,-0.05242364046474293,-0.46588020833830035
-0.3813928961753845,1.9314110279083252,-100.14691162109375,-0.05186199323170712,-0.304859969895333,-0.05242364046474293,-0.46588020833830035
1.978857398033142,-0.4812556803226471,-99.57670593261719,-0.05186199323170712,-0.304859969895333,-0.05242364046474293,-0.46588020833830035
-0.06147873401641846,0.9549700617790222,-98.62381744384766,-0.05186199323170712,-0.304859969895333,-0.05242364046474293,-0.46588020833830035
1.2202918529510498,1.0186707973480225,-97.63079071044922,-0.05186199323170712,-0.304859969895333,-0.05242364046474293,-0.46588020833830035
0.27710089087486267,1.060462236404419,-96.48766326904297,-0.05186199323170712,-0.304859969895333,-0.05242364046474293,-0.46588020833830035
1.0296247005462646,1.6628965139389038,-95.16519927978516,-0.05186199323170712,-0.304859969895333,-0.05242364046474293,-0.46588020833830035
-0.2895156145095825,0.25077253580093384,-93.76375579833984,-0.05186199323170712,-0.304859969895333,-0.05242364046474293,-0.46588020833830035
0.17672649025917053,1.6853771209716797,-92.34247589111328,-0.05186199323170712,-0.304859969895333,-0.05242364046474293,-0.46588020833830035
0.26615336537361145,0.4832612872123718,-90.84864044189453,-0.05186199323170712,-0.304859969895333,-0.05242364046474293,-0.46588020833830035
0.6869920492172241,0.5850659608840942,-89.2633285522461,-0.05186199323170712,-0.304859969895333,-0.05242364046474293,-0.46588020833830035
0.6684651374816895,0.2886507213115692,-87.66346740722656,-0.05186199323170712,-0.304859969895333,-0.05242364046474293,-0.46588020833830035
0.14006894826889038,0.5212873816490173,-86.02127838134766,-0.05186199323170712,-0.304859969895333,-0.05242364046474293,-0.46588020833830035
0.5472522974014282,0.25764742493629456,-84.39563751220703,-0.05186199323170712,-0.304859969895333,-0.05242364046474293,-0.46588020833830035
0.16177040338516235,0.6870835423469543,-82.79305267333984,-0.05186199323170712,-0.304859969895333,-0.05242364046474293,-0.46588020833830035
0.7154355049133301,0.3832211196422577,-81.29714965820312,-0.05186199323170712,-0.304859969895333,-0.05242364046474293,-0.46588020833830035
0.03347061574459076,0.5810834765434265,-79.80132293701172,-0.05186199323170712,-0.304859969895333,-0.05242364046474293,-0.46588020833830035
1.5210013389587402,0.285179078578949,-78.34944915771484,-0.05186199323170712,-0.304859969895333,-0.05242364046474293,-0.46588020833830035
-0.2772241234779358,0.6193562746047974,-76.89854431152344,-0.05186199323170712,-0.304859969895333,-0.05242364046474293,-0.46588020833830035
1.2225477695465088,0.26064741611480713,-75.5030288696289,-0.05186199323170712,-0.304859969895333,-0.05242364046474293,-0.46588020833830035
-0.43375691771507263,1.4677373170852661,-74.04781341552734,-0.05186199323170712,-0.304859969895333,-0.05242364046474293,-0.46588020833830035
1.6215689182281494,-0.3128618896007538,-72.56819152832031,-0.05186199323170712,-0.304859969895333,-0.05242364046474293,-0.46588020833830035
0.4358682930469513,0.6040856242179871,-71.09290313720703,-0.05186199323170712,-0.304859969895333,-0.05242364046474293,-0.46588020833830035
0.4826052188873291,0.5753960609436035,-69.59768676757812,-0.05186199323170712,-0.304859969895333,-0.05242364046474293,-0.46588020833830035
-0.5218799114227295,0.6974197626113892,-68.13911437988281,-0.05186199323170712,-0.304859969895333,-0.05242364046474293,-0.46588020833830035
0.03505748510360718,0.9215752482414246,-66.69247436523438,-0.05186199323170712,-0.304859969895333,-0.05242364046474293,-0.46588020833830035
0.832210898399353,-0.5540394186973572,-65.2138671875,-0.05186199323170712,-0.304859969895333,-0.05242364046474293,-0.46588020833830035
0.038923125714063644,0.14713335037231445,-63.85843276977539,-0.05186199323170712,-0.304859969895333,-0.05242364046474293,-0.46588020833830035
-0.763816773891449,1.3353453874588013,-62.51780700683594,-0.05186199323170712,-0.304859969895333,-0.05242364046474293,-0.46588020833830035
1.5331594944000244,0.19101233780384064,-61.10547637939453,-0.05186199323170712,-0.304859969895333,-0.05242364046474293,-0.46588020833830035
0.13413120806217194,0.22865162789821625,-59.68360137939453,-0.05186199323170712,-0.304859969895333,-0.05242364046474293,-0.46588020833830035
0.2331503927707672,1.4426157474517822,-58.2490348815918,-0.05186199323170712,-0.304859969895333,-0.05242364046474293,-0.46588020833830035
1.2949841022491455,0.20329485833644867,-56.74248123168945,-0.05186199323170712,-0.304859969895333,-0.05242364046474293,-0.46588020833830035
0.27178698778152466,0.68941730260849,-55.185665130615234,-0.05186199323170712,-0.304859969895333,-0.05242364046474293,-0.46588020833830035
0.14477933943271637,0.11164874583482742,-53.63195037841797,-0.05186199323170712,-0.304859969895333,-0.05242364046474293,-0.46588020833830035
0.1337084323167801,-0.0831746757030487,-51.990108489990234,-0.05186199323170712,-0.304859969895333,-0.05242364046474293,-0.46588020833830035
-0.45513179898262024,0.42921561002731323,-50.35514831542969,-0.05186199323170712,-0.304859969895333,-0.05242364046474293,-0.46588020833830035
0.6305708885192871,-0.6125670075416565,-48.804847717285156,-0.05186199323170712,-0.304859969895333,-0.05242364046474293,-0.46588020833830035
-0.21035563945770264,0.5542799830436707,-47.26377487182617,-0.05186199323170712,-0.304859969895333,-0.05242364046474293,-0.46588020833830035
0.03690585866570473,0.057911794632673264,-45.679622650146484,-0.05186199323170712,-0.304859969895333,-0.05242364046474293,-0.46588020833830035
-0.10059329867362976,0.5095841288566589,-44.10597229003906,-0.05186199323170712,-0.304859969895333,-0.05242364046474293,-0.46588020833830035
0.15906566381454468,0.9203881025314331,-42.512516021728516,-0.05186199323170712,-0.304859969895333,-0.05242364046474293,-0.46588020833830035
0.7551193237304688,0.38028883934020996,-40.914669036865234,-0.05186199323170712,-0.304859969895333,-0.05242364046474293,-0.46588020833830035
-1.1848030090332031,0.485385924577713,-39.35941696166992,-0.05186199323170712,-0.304859969895333,-0.05242364046474293,-0.46588020833830035
-0.22443023324012756,1.1215928792953491,-37.90876770019531,-0.05186199323170712,-0.304859969895333,-0.05242364046474293,-0.46588020833830035
0.18303973972797394,-0.21036319434642792,-36.38121032714844,-0.05186199323170712,-0.304859969895333,-0.05242364046474293,-0.46588020833830035
-0.14066924154758453,0.3942153751850128,-34.681888580322266,-0.05186199323170712,-0.304859969895333,-0.05242364046474293,-0.46588020833830035
-0.4140026867389679,0.5524952411651611,-32.973167419433594,-0.05186199323170712,-0.304859969895333,-0.05242364046474293,-0.46588020833830035
-0.7890302538871765,0.18145717680454254,-31.177396774291992,-0.05186199323170712,-0.304859969895333,-0.05242364046474293,-0.46588020833830035
1.3901909589767456,1.4825513362884521,-29.268993377685547,-0.05186199323170712,-0.304859969895333,-0.05242364046474293,-0.46588020833830035
0.3908986449241638,0.9174500107765198,-27.252302169799805,-0.05186199323170712,-0.304859969895333,-0.05242364046474293,-0.46588020833830035
-0.6505018472671509,0.19434861838817596,-25.14094352722168,-0.05186199323170712,-0.304859969895333,-0.05242364046474293,-0.46588020833830035
-0.024868568405508995,0.5247600078582764,-22.97715950012207,-0.05186199323170712,-0.304859969895333,-0.05242364046474293,-0.46588020833830035
0.377774178981781,-0.2120026797056198,-20.563396453857422,-0.05186199323170712,-0.304859969895333,-0.05242364046474293,-0.46588020833830035
-0.5096906423568726,0.7114496827125549,-18.21322250366211,-0.05186199323170712,-0.304859969895333,-0.05242364046474293,-0.46588020833830035
0.453768253326416,-0.5938040614128113,-15.8750638961792,-0.05186199323170712,-0.304859969895333,-0.05242364046474293,-0.46588020833830035
-0.8870311379432678,0.3008512854576111,-13.489048957824707,-0.05186199323170712,-0.304859969895333,-0.05242364046474293,-0.46588020833830035
1.3691707849502563,0.30164089798927307,-11.179342269897461,-0.05186199323170712,-0.304859969895333,-0.05242364046474293,-0.46588020833830035
-1.5648682117462158,-1.034910798072815,-9.123982429504395,-0.05186199323170712,-0.304859969895333,-0.05242364046474293,-0.46588020833830035
0.883198618888855,0.7853479981422424,-7.575336456298828,-0.05186199323170712,-0.304859969895333,-0.05242364046474293,-0.46588020833830035
-1.2948496341705322,-2.154489278793335,-6.322953701019287,-0.05186199323170712,-0.304859969895333,-0.05242364046474293,-0.46588020833830035
0.4229844808578491,-0.5820066928863525,-5.4403181076049805,-0.05186199323170712,-0.304859969895333,-0.05242364046474293,-0.46588020833830035
-1.0283349752426147,-0.8701733946800232,-4.951147556304932,-0.05186199323170712,-0.304859969895333,-0.05242364046474293,-0.46588020833830035
-1.168199896812439,-1.5356258153915405,-4.747271537780762,-0.05186199323170712,-0.304859969895333,-0.05242364046474293,-0.46588020833830035
-0.8261125683784485,-0.03669767081737518,-4.7824530601501465,-0.05186199323170712,-0.304859969895333,-0.05242364046474293,-0.46588020833830035
-1.4719676971435547,0.11322581022977829,-4.903494834899902,-0.05186199323170712,-0.304859969895333,-0.05242364046474293,-0.46588020833830035
-0.4528866708278656,0.5136303901672363,-4.90651798248291,-0.05186199323170712,-0.304859969895333,-0.05242364046474293,-0.46588020833830035
0.5275329947471619,-0.18041443824768066,-4.883420467376709,-0.05186199323170712,-0.304859969895333,-0.05242364046474293,-0.46588020833830035
0.6373516917228699,0.03968408703804016,-4.875672817230225,-0.05186199323170712,-0.304859969895333,-0.05242364046474293,-0.46588020833830035
0.7836900949478149,-0.13450224697589874,-4.885998725891113,-0.05186199323170712,-0.304859969895333,-0.05242364046474293,-0.46588020833830035
0.16720972955226898,0.05077885836362839,-4.8775458335876465,-0.05186199323170712,-0.304859969895333,-0.05242364046474293,-0.46588020833830035
-0.1106150895357132,0.03801254555583,-4.885138988494873,-0.05186199323170712,-0.304859969895333,-0.05242364046474293,-0.46588020833830035
-0.10831742733716965,0.012255522422492504,-4.884637832641602,-0.05186199323170712,-0.304859969895333,-0.05242364046474293,-0.46588020833830035
0.24632032215595245,0.0006825876189395785,-4.885931015014648,-0.05186199323170712,-0.304859969895333,-0.05242364046474293,-0.46588020833830035
0.36472955346107483,-0.010261235758662224,-4.886070251464844,-0.05186199323170712,-0.304859969895333,-0.05242364046474293,-0.46588020833830035
0.1755574345588684,-0.010734167881309986,-4.8855881690979,-0.05186199323170712,-0.304859969895333,-0.05242364046474293,-0.46588020833830035
0.02799643576145172,0.03814616799354553,-4.883602142333984,-0.05186199323170712,-0.304859969895333,-0.05242364046474293,-0.46588020833830035
0.11286428570747375,0.005089711397886276,-4.8867926597595215,-0.05186199323170712,-0.304859969895333,-0.05242364046474293,-0.46588020833830035
0.2673386037349701,-0.012444450519979,-4.885708332061768,-0.05186199323170712,-0.304859969895333,-0.05242364046474293,-0.46588020833830035
0.23151853680610657,0.038857489824295044,-4.885690212249756,-0.05186199323170712,-0.304859969895333,-0.05242364046474293,-0.46588020833830035
0.09442924708127975,-0.006842161063104868,-4.885808944702148,-0.05186199323170712,-0.304859969895333,-0.05242364046474293,-0.46588020833830035
0.09330150485038757,0.025482116267085075,-4.88655948638916,-0.05186199323170712,-0.304859969895333,-0.05242364046474293,-0.46588020833830035
0.19687408208847046,0.0067498330026865005,-4.888984680175781,-0.05186199323170712,-0.304859969895333,-0.05242364046474293,-0.46588020833830035
0.19993306696414948,0.01537648681551218,-4.888972282409668,-0.05186199323170712,-0.304859969895333,-0.05242364046474293,-0.46588020833830035
0.14132508635520935,0.024405978620052338,-4.8899383544921875,-0.05186199323170712,-0.304859969895333,-0.05242364046474293,-0.46588020833830035
0.12077783793210983,0.011351313441991806,-4.8911309242248535,-0.05186199323170712,-0.304859969895333,-0.05242364046474293,-0.46588020833830035
0.15441350638866425,0,-4.892126560211182,-0.052716610062763895,-0.312623851748649,-0.05013037926206981,-0.4657856140596171
0.22587662935256958,0,-4.895131587982178,-0.05352570734659414,-0.3203869453163093,-0.04696129479755953,-0.4657856140596171
0.5254543423652649,0,-4.909640789031982,-0.054256219831295284,-0.3281500388839696,-0.04070020336657758,-0.4657856140596171
1.3272596597671509,-0.24651481211185455,-4.884627819061279,-0.05480589585947905,-0.3359302515358043,-0.025260920015474114,-0.4678399041605492
3.1946499347686768,-0.617107629776001,-4.902144432067871,-0.05491288969344974,-0.34378755705250014,0.012421659938991116,-0.475036757842948
3.54750657081604,0.3658377230167389,-4.925576210021973,-0.05423765671491206,-0.35172228564896313,0.06860629748553042,-0.47713067373260853
1.0339241027832031,-0.15075044333934784,-4.927502155303955,-0.05277606351559772,-0.35965952692786235,0.10678488643219078,-0.47533827973529696
1.3717763423919678,-0.12423501163721085,-4.919160842895508,-0.0508292528774796,-0.36760092780226844,0.12683239014198386,-0.47762982519343494
1.0299608707427979,-0.103345587849617,-4.9782233238220215,-0.04854859240197885,-0.3755772290971234,0.14684686691810692,-0.4795263301891585
1.968231439590454,-0.5581061244010925,-5.043663501739502,-0.0458929368206817,-0.3836152687469601,0.17183180283755067,-0.4850384277912478
1.6465319395065308,-0.15340791642665863,-5.054717063903809,-0.04277804820539634,-0.39174865324076064,0.2019548309966922,-0.4909677114648124
1.3691173791885376,-0.14276660978794098,-5.093773365020752,-0.03920271426387542,-0.39995201610727243,0.22708524198581778,-0.4934358325166007
-0.1266741305589676,0.3661693334579468,-5.1040825843811035,-0.03533167944962363,-0.4081604325711831,0.23743893572439753,-0.491574143152684
1.3501132726669312,-0.05283765494823456,-5.1142354011535645,-0.03533167944962363,-0.4081604325711831,0.23743893572439753,-0.491574143152684
1.6477628946304321,-0.3701188862323761,-5.021885395050049,-0.031166178009265796,-0.41638270693908763,0.2624212371185422,-0.49509878099585575
-0.7039788961410522,-0.7373784780502319,-4.971870422363281,-0.026726950168506108,-0.42471126282820487,0.27028610377262036,-0.5043279256982108
-0.9073397517204285,0.9766314625740051,-4.964491844177246,-0.022334078900619482,-0.4331001134659165,0.2568584483737747,-0.5023341508271794
-1.7618937492370605,1.3262349367141724,-5.136845111846924,-0.018238468198623063,-0.4413124280353078,0.23461483586579562,-0.48314359749977787
0.23850902915000916,-0.8371574282646179,-5.2483625411987305,-0.014434011539754737,-0.4493308576111062,0.22191996319840354,-0.4790679515960316
2.642742872238159,-0.08484312891960144,-5.338719367980957,-0.010535258548851612,-0.45737935128751117,0.2459303957099716,-0.48675128957256675
1.598488688468933,-1.1300607919692993,-5.3971943855285645,-0.006141888650858537,-0.4655762411082268,0.2812739920491974,-0.4968754889133076
2.2231552600860596,0.2642548680305481,-5.405910015106201,-0.0011885968425000403,-0.47391762466816656,0.3131210249538223,-0.5040905382794638
-0.5516849756240845,-0.5063149333000183,-5.327997207641602,0.0041461612320401915,-0.4823359433662458,0.32704994399100545,-0.5061077054900427
0.29294446110725403,1.0447392463684082,-5.2015156745910645,0.009579025540604393,-0.4907336812137834,0.32489377303669853,-0.5016208362144727
0.496427983045578,0.2058580368757248,-4.962876319885254,0.015048739288726649,-0.499007181450466,0.3314718767379721,-0.4911991921874383
1.2219007015228271,-0.06314564496278763,-4.740963935852051,0.015048739288726649,-0.499007181450466,0.3314718767379721,-0.4911991921874383
1.112570881843567,0.2338113635778427,-4.622238636016846,0.02073538664987107,-0.5071819828675751,0.35092580659935874,-0.48977697786564617
0.2838773727416992,-1.1473872661590576,-4.496947765350342,0.026681125666428804,-0.5154083752696818,0.36256287538756926,-0.4973901103871563
-1.8161762952804565,-0.13339769840240479,-4.481574535369873,0.0326174306088231,-0.5237871538431178,0.34979371769974626,-0.5080633184251685
-0.12153174728155136,0.3186788558959961,-4.581172943115234,0.038312762845307616,-0.5322420090698224,0.3336461506783962,-0.5065193087793886
-0.3021402955055237,-0.6386755108833313,-4.524198055267334,0.0438441103536429,-0.5407062195394086,0.33011555032183726,-0.5091859475709497
1.7106951475143433,0.47132405638694763,-4.416408061981201,0.049443852501507464,-0.5492042736277088,0.34185350742191073,-0.5105805430250863
2.9105865955352783,0.9348987340927124,-4.365837574005127,0.055462333301806645,-0.5576162949843436,0.3803641886139909,-0.49886201977108907
-0.17225101590156555,-0.8824908137321472,-4.294035911560059,0.06199189863840328,-0.5659270225416145,0.4031836517776052,-0.4984252871014177
0.37412071228027344,0,-4.292670726776123,0.06872564489694521,-0.5742953947442585,0.4048658992474277,-0.5057793772158523
0.10598524659872055,0.1254417896270752,-4.225125789642334,0.07550675057599116,-0.5827163397957986,0.408866782238086,-0.50473402896896
0.7610111832618713,0.5730617046356201,-4.06148624420166,0.07550675057599116,-0.5827163397957986,0.408866782238086,-0.50473402896896
0.309802770614624,-0.2945064902305603,-4.000551700592041,0.08239555902675623,-0.5911092294998365,0.41779023185372344,-0.5024127355155845
-0.06610673666000366,-0.5131345987319946,-4.123494625091553,0.08937565289334291,-0.5995388612784964,0.4198210321366786,-0.5091430779236058
-1.8238444328308105,-0.3475400507450104,-4.394443511962891,0.09624142348662847,-0.6080843483167702,0.40407143905758847,-0.5163153666692475
-0.8893121480941772,0.6375323534011841,-4.572294235229492,0.10278753381946848,-0.6166694660735732,0.3814618008832136,-0.5138987641471127
-0.05200309678912163,-0.6499330401420593,-4.4838104248046875,0.10907986138662737,-0.6252353066348265,0.37361750717585274,-0.5140021032032867
2.7068798542022705,1.645842432975769,-4.366028785705566,0.11549118628104527,-0.633732847980379,0.39574148015429567,-0.5057028582630058
1.1672743558883667,-0.7063851356506348,-4.513153553009033,0.12235591610376204,-0.642095988861337,0.42802609857171764,-0.49787404745196295
1.3364399671554565,-1.2385424375534058,-4.5868988037109375,0.12966355346350203,-0.650528954067009,0.44889038459708286,-0.5140817772286633
0.2973974347114563,0.9460194706916809,-4.591366291046143,0.1372585208041386,-0.6591172977824076,0.46250569627930715,-0.5165194686191777
0.12999658286571503,0.301126629114151,-4.573171615600586,0.1449966292155699,-0.6676393482246852,0.46606731309245025,-0.5061265844541292
-0.4446035325527191,-0.7719677686691284,-4.511860370635986,0.1449966292155699,-0.6676393482246852,0.46606731309245025,-0.5061265844541292
-0.4198060631752014,0.15309637784957886,-4.455804347991943,0.15270438932296299,-0.6761177684788386,0.4588638997947176,-0.5112838460442921
0.05026312544941902,0.9236342310905457,-4.5714802742004395,0.16032645828219955,-0.684564392953956,0.4557843753136694,-0.5023110909697911
-0.6414890885353088,-0.8787059187889099,-4.71083402633667,0.16788180717887974,-0.6929331244484316,0.45085749228795363,-0.5019366883672775
-0.5013847947120667,-0.08332167565822601,-4.776454448699951,0.1753167324751201,-0.7013655433930561,0.4413335432608922,-0.5099535849876703
0.4271107316017151,0.8780415058135986,-4.749425411224365,0.182667133608419,-0.7098095809324232,0.4407145927349726,-0.5033309197363756
1.2474497556686401,-0.20345041155815125,-4.642526626586914,0.19012866574339565,-0.7181515829909284,0.4546692634622256,-0.4977093272842468
0.9101153016090393,-0.6553706526756287,-4.493441104888916,0.1978563177078548,-0.7265063787973488,0.4726489722728729,-0.504866169486195
0.9024063944816589,0.1472901552915573,-4.304299831390381,0.20585967014129788,-0.734956098323326,0.4877533197402954,-0.5091001736310623
0,0.8537655472755432,-4.111780166625977,0.21405155924769736,-0.7433715834600543,0.49527337302764257,-0.5007580427763365
0.17141158878803253,-0.43414828181266785,-4.062750816345215,0.21405155924769736,-0.7433715834600543,0.49527337302764257,-0.5007580427763365
-0.07970497012138367,-0.993690013885498,-4.102121829986572,0.21405155924769736,-0.7433715834600543,0.49527337302764257,-0.5007580427763365
0.8122807145118713,0.052762649953365326,-4.062465190887451,0.21405155924769736,-0.7433715834600543,0.49527337302764257,-0.5007580427763365
-0.35295042395591736,0.21668022871017456,-3.9089927673339844,0.21405155924769736,-0.7433715834600543,0.49527337302764257,-0.5007580427763365
-1.417999267578125,1.403720736503601,-4.015903472900391,0.21405155924769736,-0.7433715834600543,0.49527337302764257,-0.5007580427763365
-2.747312068939209,-0.5137629508972168,-4.456084728240967,0.21405155924769736,-0.7433715834600543,0.49527337302764257,-0.5007580427763365
-1.8063063621520996,-0.30116915702819824,-5.162296772003174,0.21405155924769736,-0.7433715834600543,0.49527337302764257,-0.5007580427763365
-1.0448253154754639,-0.8064588904380798,-6.072902202606201,0.21405155924769736,-0.7433715834600543,0.49527337302764257,-0.5007580427763365
-1.2084516286849976,-0.6439135670661926,-7.189347267150879,0.21405155924769736,-0.7433715834600543,0.49527337302764257,-0.5007580427763365
-1.2172634601593018,-0.42130210995674133,-8.444930076599121,0.21405155924769736,-0.7433715834600543,0.49527337302764257,-0.5007580427763365
-1.642741084098816,0.3289434313774109,-9.736437797546387,0.21405155924769736,-0.7433715834600543,0.49527337302764257,-0.5007580427763365
-1.4265254735946655,-0.3619282841682434,-11.146004676818848,0.21405155924769736,-0.7433715834600543,0.49527337302764257,-0.5007580427763365
-0.7166860103607178,0.5093066692352295,-12.646693229675293,0.21405155924769736,-0.7433715834600543,0.49527337302764257,-0.5007580427763365
-0.9875896573066711,-0.13147976994514465,-14.290902137756348,0.21405155924769736,-0.7433715834600543,0.49527337302764257,-0.5007580427763365
-0.9790863394737244,1.148566722869873,-16.024063110351562,0.21405155924769736,-0.7433715834600543,0.49527337302764257,-0.5007580427763365
-1.134451150894165,-0.47081702947616577,-17.796470642089844,0.21405155924769736,-0.7433715834600543,0.49527337302764257,-0.5007580427763365
-1.0384531021118164,-0.17014482617378235,-19.607677459716797,0.21405155924769736,-0.7433715834600543,0.49527337302764257,-0.5007580427763365
-0.7057788968086243,0.18803703784942627,-21.454559326171875,0.21405155924769736,-0.7433715834600543,0.49527337302764257,-0.5007580427763365
-0.8397957682609558,0.3440946042537689,-23.310117721557617,0.21405155924769736,-0.7433715834600543,0.49527337302764257,-0.5007580427763365
-1.1588826179504395,0.28005358576774597,-25.139114379882812,0.21405155924769736,-0.7433715834600543,0.49527337302764257,-0.5007580427763365
-0.29713213443756104,0.47539299726486206,-26.98682403564453,0.21405155924769736,-0.7433715834600543,0.49527337302764257,-0.5007580427763365
-0.21968184411525726,-0.6159880757331848,-28.82866096496582,0.21405155924769736,-0.7433715834600543,0.49527337302764257,-0.5007580427763365
-1.622209072113037,0.45171305537223816,-30.714889526367188,0.21405155924769736,-0.7433715834600543,0.49527337302764257,-0.5007580427763365
0.2580602467060089,1.0422505140304565,-32.70268630981445,0.21405155924769736,-0.7433715834600543,0.49527337302764257,-0.5007580427763365
-1.0307673215866089,-2.0387392044067383,-34.74391174316406,0.21405155924769736,-0.7433715834600543,0.49527337302764257,-0.5007580427763365
-0.612991988658905,-0.027951586991548538,-36.77546691894531,0.21405155924769736,-0.7433715834600543,0.49527337302764257,-0.5007580427763365
-0.7187284827232361,0.4069936275482178,-38.86640548706055,0.21405155924769736,-0.7433715834600543,0.49527337302764257,-0.5007580427763365
0.2824949026107788,-0.7857709527015686,-40.998016357421875,0.21405155924769736,-0.7433715834600543,0.49527337302764257,-0.5007580427763365
-1.7544125318527222,1.0458873510360718,-43.199275970458984,0.21405155924769736,-0.7433715834600543,0.49527337302764257,-0.5007580427763365
-0.5733141899108887,-0.3465088903903961,-45.36509323120117,0.21405155924769736,-0.7433715834600543,0.49527337302764257,-0.5007580427763365
-0.21698270738124847,1.4323475360870361,-47.56517791748047,0.21405155924769736,-0.7433715834600543,0.49527337302764257,-0.5007580427763365
-0.31477099657058716,-0.0668201819062233,-49.67747497558594,0.21405155924769736,-0.7433715834600543,0.49527337302764257,-0.5007580427763365
-0.19459189474582672,0.15047189593315125,-51.80112838745117,0.21405155924769736,-0.7433715834600543,0.49527337302764257,-0.5007580427763365
-0.6243526339530945,0.048620451241731644,-53.93779754638672,0.21405155924769736,-0.7433715834600543,0.49527337302764257,-0.5007580427763365
-0.2625715136528015,0.24287009239196777,-56.16073226928711,0.21405155924769736,-0.7433715834600543,0.49527337302764257,-0.5007580427763365
-1.2462226152420044,0.1702675074338913,-58.21006393432617,0.21405155924769736,-0.7433715834600543,0.49527337302764257,-0.5007580427763365
0.39941340684890747,1.4898520708084106,-60.2779426574707,0.21405155924769736,-0.7433715834600543,0.49527337302764257,-0.5007580427763365
-1.032639503479004,-0.7859777808189392,-62.29522705078125,0.21405155924769736,-0.7433715834600543,0.49527337302764257,-0.5007580427763365
0.03244541957974434,0.6753552556037903,-64.42430114746094,0.21405155924769736,-0.7433715834600543,0.49527337302764257,-0.5007580427763365
0.034633003175258636,-0.14639438688755035,-66.60802459716797,0.21405155924769736,-0.7433715834600543,0.49527337302764257,-0.5007580427763365
-1.400295376777649,0.39240676164627075,-68.77307891845703,0.21405155924769736,-0.7433715834600543,0.49527337302764257,-0.5007580427763365
-0.032773707062006,-0.019321903586387634,-70.93863677978516,0.21405155924769736,-0.7433715834600543,0.49527337302764257,-0.5007580427763365
0.7430436015129089,2.4062719345092773,-73.12757873535156,0.21405155924769736,-0.7433715834600543,0.49527337302764257,-0.5007580427763365
-0.6192156672477722,-1.3791941404342651,-75.41576385498047,0.21405155924769736,-0.7433715834600543,0.49527337302764257,-0.5007580427763365
-0.24284884333610535,1.8915735483169556,-77.8655776977539,0.21405155924769736,-0.7433715834600543,0.49527337302764257,-0.5007580427763365
0.3341323137283325,-0.7448659539222717,-80.29973602294922,0.21405155924769736,-0.7433715834600543,0.49527337302764257,-0.5007580427763365
0.5387966632843018,-0.31320545077323914,-82.71078491210938,0.21405155924769736,-0.7433715834600543,0.49527337302764257,-0.5007580427763365
-0.7974513173103333,0.12101336568593979,-85.16663360595703,0.21405155924769736,-0.7433715834600543,0.49527337302764257,-0.5007580427763365
0.647835373878479,0.3796670734882355,-87.73640441894531,0.21405155924769736,-0.7433715834600543,0.49527337302764257,-0.5007580427763365
-0.742452085018158,-0.5949125289916992,-90.32221984863281,0.21405155924769736,-0.7433715834600543,0.49527337302764257,-0.5007580427763365
-0.5833129286766052,0.28028586506843567,-92.9067153930664,0.21405155924769736,-0.7433715834600543,0.49527337302764257,-0.5007580427763365
-0.22965601086616516,0.272373765707016,-95.53607177734375,0.21405155924769736,-0.7433715834600543,0.49527337302764257,-0.5007580427763365
0.8379936218261719,0.5766010880470276,-98.1395263671875,0.21405155924769736,-0.7433715834600543,0.49527337302764257,-0.5007580427763365
0.49603185057640076,0.8509830832481384,-100.76832580566406,0.21405155924769736,-0.7433715834600543,0.49527337302764257,-0.5007580427763365
-0.08217958360910416,0.13221067190170288,-103.41645812988281,0.21405155924769736,-0.7433715834600543,0.49527337302764257,-0.5007580427763365
-0.09674552828073502,0.3768473267555237,-106.19611358642578,0.21405155924769736,-0.7433715834600543,0.49527337302764257,-0.5007580427763365
0.2657619118690491,-0.1659550666809082,-108.82974243164062,0.21405155924769736,-0.7433715834600543,0.49527337302764257,-0.5007580427763365
1.704625129699707,1.235432744026184,-111.33922576904297,0.21405155924769736,-0.7433715834600543,0.49527337302764257,-0.5007580427763365
0.8663015365600586,-1.3838169574737549,-113.39541625976562,0.21405155924769736,-0.7433715834600543,0.49527337302764257,-0.5007580427763365
1.6576313972473145,-0.16820064187049866,-115.1412124633789,0.21405155924769736,-0.7433715834600543,0.49527337302764257,-0.5007580427763365
1.3408782482147217,-0.9650619029998779,-116.47401428222656,0.21405155924769736,-0.7433715834600543,0.49527337302764257,-0.5007580427763365
0.1585484892129898,-1.2275270223617554,-117.30426788330078,0.21405155924769736,-0.7433715834600543,0.49527337302764257,-0.5007580427763365
1.5768184661865234,-0.9664196372032166,-117.70081329345703,0.21405155924769736,-0.7433715834600543,0.49527337302764257,-0.5007580427763365
0.7620817422866821,-0.4144395589828491,-117.76661682128906,0.21405155924769736,-0.7433715834600543,0.49527337302764257,-0.5007580427763365
-0.24759404361248016,-0.780972957611084,-117.60227966308594,0.21405155924769736,-0.7433715834600543,0.49527337302764257,-0.5007580427763365
0.2209654301404953,-0.27824220061302185,-117.3932113647461,0.21405155924769736,-0.7433715834600543,0.49527337302764257,-0.5007580427763365
-1.0450979471206665,0.5576485991477966,-117.37240600585938,0.21405155924769736,-0.7433715834600543,0.49527337302764257,-0.5007580427763365
0.20847317576408386,-0.6280719041824341,-117.41585540771484,0.21405155924769736,-0.7433715834600543,0.49527337302764257,-0.5007580427763365
-0.3669056296348572,0.16267021000385284,-117.38125610351562,0.21405155924769736,-0.7433715834600543,0.49527337302764257,-0.5007580427763365
0.15217548608779907,0.08497770130634308,-117.39862060546875,0.21405155924769736,-0.7433715834600543,0.49527337302764257,-0.5007580427763365
0.01158082950860262,0.17400647699832916,-117.39373779296875,0.21405155924769736,-0.7433715834600543,0.49527337302764257,-0.5007580427763365
-0.11613862961530685,0.11224760860204697,-117.39547729492188,0.21405155924769736,-0.7433715834600543,0.49527337302764257,-0.5007580427763365
0.0018773229094222188,-0.15067771077156067,-117.38958740234375,0.21405155924769736,-0.7433715834600543,0.49527337302764257,-0.5007580427763365
-0.14291244745254517,0.07814883440732956,-117.39488983154297,0.21405155924769736,-0.7433715834600543,0.49527337302764257,-0.5007580427763365
0.03837810829281807,0.07854777574539185,-117.38964080810547,0.21405155924769736,-0.7433715834600543,0.49527337302764257,-0.5007580427763365
-0.05167371407151222,0.11483819037675858,-117.39337158203125,0.21405155924769736,-0.7433715834600543,0.49527337302764257,-0.5007580427763365
-0.0589585117995739,-0.01351909339427948,-117.3926773071289,0.21405155924769736,-0.7433715834600543,0.49527337302764257,-0.5007580427763365
-0.07898338884115219,0.03252609446644783,-117.39289093017578,0.21405155924769736,-0.7433715834600543,0.49527337302764257,-0.5007580427763365
-0.029372675344347954,0.05649622902274132,-117.39491271972656,0.21405155924769736,-0.7433715834600543,0.49527337302764257,-0.5007580427763365
-0.07259449362754822,0.09021611511707306,-117.39314270019531,0.21405155924769736,-0.7433715834600543,0.49527337302764257,-0.5007580427763365
-0.032968468964099884,0.018775926902890205,-117.39274597167969,0.21405155924769736,-0.7433715834600543,0.49527337302764257,-0.5007580427763365
-0.08790434896945953,0.021560415625572205,-117.39273071289062,0.21405155924769736,-0.7433715834600543,0.49527337302764257,-0.5007580427763365
-0.03243755176663399,0.04236997291445732,-117.39222717285156,0.21405155924769736,-0.7433715834600543,0.49527337302764257,-0.5007580427763365
-0.04726015031337738,0.06913511455059052,-117.39171600341797,0.21405155924769736,-0.7433715834600543,0.49527337302764257,-0.5007580427763365
-0.056304436177015305,0,-117.39126586914062,0.2222989234796518,-0.7517127497900383,0.4944103348068893,-0.5001819168217483
-0.1549103558063507,-0.16323897242546082,-117.4029312133789,0.23052442803254555,-0.7600604511101525,0.49265021154036126,-0.5015422415919605
-0.553608238697052,-0.4224886894226074,-117.38682556152344,0.23868606221137773,-0.7684601640020913,0.4867458899194996,-0.5064233054406944
-1.0831412076950073,-2.0739622116088867,-117.39240264892578,0.24668483055403662,-0.7770739170720078,0.47310631119956575,-0.5272270629492901
-1.5027968883514404,-2.9734127521514893,-117.32457733154297,0.2543903567062484,-0.7862115469380905,0.4515568270658454,-0.5692885209806265
-0.499184787273407,-1.7872986793518066,-117.17172241210938,0.2617772773187607,-0.7960302939149553,0.4348736464356383,-0.608961116243154
-0.6841315627098083,-1.0550782680511475,-117.062255859375,0.26894299667949473,-0.8063770331403552,0.42501267685244487,-0.6326475908048452
-1.532926321029663,-0.42160964012145996,-116.89486694335938,0.2758725789406647,-0.8170237074251702,0.4065371944879493,-0.6449533233729503
0.20828476548194885,-1.4975148439407349,-116.82949829101562,0.2825562098518841,-0.8279062020150014,0.395498514858385,-0.660946027406802
-0.582347571849823,-1.102783203125,-116.9507064819336,0.2825562098518841,-0.8279062020150014,0.395498514858385,-0.660946027406802
-0.7701004147529602,-0.11694968491792679,-116.97552490234375,0.2890539317671209,-0.8390066728112289,0.38422811497002846,-0.671110468140493
1.0455260276794434,0.31213507056236267,-116.95115661621094,0.2954768604619635,-0.8501782927395674,0.3865233284110825,-0.6694839232601227
0,1.6353437900543213,-117.17708587646484,0.3019915219096259,-0.8612011165396932,0.3952360453084112,-0.6532549327549837
-0.20472337305545807,0,-117.3478012084961,0.30856457243052615,-0.8719751332113003,0.3935300171996157,-0.6396270678378644
-0.6041362881660461,0.14792793989181519,-117.45966339111328,0.3150672352407127,-0.8826253115683278,0.38678952002276984,-0.6383943350054326
-1.843567967414856,-2.079026699066162,-117.51089477539062,0.32134374777889907,-0.8933993212322499,0.36639198455959565,-0.6544868246652189
0.18868841230869293,-3.3099923133850098,-117.58639526367188,0.3273353586635655,-0.9046816724080904,0.3526013216003776,-0.6993953164356453
-1.567232370376587,0.824769139289856,-117.71551513671875,0.3331163151375949,-0.9165108459579966,0.34111345528314513,-0.7201055095531049
-0.16380172967910767,-1.1590150594711304,-117.62171936035156,0.3331163151375949,-0.9165108459579966,0.34111345528314513,-0.7201055095531049
0.24252349138259888,0.694915235042572,-117.4496841430664,0.3331163151375949,-0.9165108459579966,0.34111345528314513,-0.7201055095531049
-0.05875811353325844,-0.09829983860254288,-117.32283020019531,0.3331163151375949,-0.9165108459579966,0.34111345528314513,-0.7201055095531049
0.9966906309127808,1.4473788738250732,-117.39610290527344,0.3331163151375949,-0.9165108459579966,0.34111345528314513,-0.7201055095531049
0.46615511178970337,2.985975980758667,-117.8113784790039,0.3331163151375949,-0.9165108459579966,0.34111345528314513,-0.7201055095531049
0.9046021103858948,1.548892617225647,-118.48702239990234,0.3331163151375949,-0.9165108459579966,0.34111345528314513,-0.7201055095531049
-0.771843433380127,0.8074355721473694,-119.47039031982422,0.3331163151375949,-0.9165108459579966,0.34111345528314513,-0.7201055095531049
0.16889362037181854,1.8358871936798096,-120.62059783935547,0.3331163151375949,-0.9165108459579966,0.34111345528314513,-0.7201055095531049
-0.4736453592777252,-0.5112354159355164,-121.85799407958984,0.3331163151375949,-0.9165108459579966,0.34111345528314513,-0.7201055095531049
1.0988566875457764,1.8898764848709106,-123.11003875732422,0.3331163151375949,-0.9165108459579966,0.34111345528314513,-0.7201055095531049
0.028268633410334587,0.7369387745857239,-124.47496795654297,0.3331163151375949,-0.9165108459579966,0.34111345528314513,-0.7201055095531049
-1.2916786670684814,1.0166561603546143,-126.00457763671875,0.3331163151375949,-0.9165108459579966,0.34111345528314513,-0.7201055095531049
1.3983851671218872,0.24532870948314667,-127.65312194824219,0.3331163151375949,-0.9165108459579966,0.34111345528314513,-0.7201055095531049
0.45379897952079773,1.2728430032730103,-129.37115478515625,0.3331163151375949,-0.9165108459579966,0.34111345528314513,-0.7201055095531049
0.7390758991241455,0.5326147675514221,-131.17666625976562,0.3331163151375949,-0.9165108459579966,0.34111345528314513,-0.7201055095531049
-0.6595198512077332,0.5476129651069641,-133.0003204345703,0.3331163151375949,-0.9165108459579966,0.34111345528314513,-0.7201055095531049
0.9108464121818542,1.157555103302002,-134.8660888671875,0.3331163151375949,-0.9165108459579966,0.34111345528314513,-0.7201055095531049
-0.4363168179988861,1.4356626272201538,-136.71072387695312,0.3331163151375949,-0.9165108459579966,0.34111345528314513,-0.7201055095531049
-0.023961413651704788,0.013111289590597153,-138.4851531982422,0.3331163151375949,-0.9165108459579966,0.34111345528314513,-0.7201055095531049
0.8458921909332275,1.2801177501678467,-140.3433074951172,0.3331163151375949,-0.9165108459579966,0.34111345528314513,-0.7201055095531049
-1.616548776626587,0.38471782207489014,-142.2251739501953,0.3331163151375949,-0.9165108459579966,0.34111345528314513,-0.7201055095531049
1.2316795587539673,1.245530366897583,-144.08995056152344,0.3331163151375949,-0.9165108459579966,0.34111345528314513,-0.7201055095531049
0.2713903784751892,-0.2622707486152649,-145.91270446777344,0.3331163151375949,-0.9165108459579966,0.34111345528314513,-0.7201055095531049
-0.5667544007301331,0.7668763995170593,-147.8195343017578,0.3331163151375949,-0.9165108459579966,0.34111345528314513,-0.7201055095531049
-0.7269278764724731,1.3178070783615112,-149.70794677734375,0.3331163151375949,-0.9165108459579966,0.34111345528314513,-0.7201055095531049
1.7618695497512817,-0.09119372069835663,-151.549560546875,0.3331163151375949,-0.9165108459579966,0.34111345528314513,-0.7201055095531049
0.7633216381072998,-0.22221429646015167,-153.46981811523438,0.3331163151375949,-0.9165108459579966,0.34111345528314513,-0.7201055095531049
-0.17930124700069427,1.3257032632827759,-155.53489685058594,0.3331163151375949,-0.9165108459579966,0.34111345528314513,-0.7201055095531049
1.0971810817718506,0.14856988191604614,-157.6952362060547,0.3331163151375949,-0.9165108459579966,0.34111345528314513,-0.7201055095531049
-0.20466864109039307,0.7415350079536438,-159.90704345703125,0.3331163151375949,-0.9165108459579966,0.34111345528314513,-0.7201055095531049
-0.05279410257935524,0.5623534321784973,-162.11431884765625,0.3331163151375949,-0.9165108459579966,0.34111345528314513,-0.7201055095531049
-0.42288345098495483,0.305979460477829,-164.36021423339844,0.3331163151375949,-0.9165108459579966,0.34111345528314513,-0.7201055095531049
-0.07085469365119934,0.7914999723434448,-166.64724731445312,0.3331163151375949,-0.9165108459579966,0.34111345528314513,-0.7201055095531049
0.9641191363334656,-0.0944330170750618,-168.9026336669922,0.3331163151375949,-0.9165108459579966,0.34111345528314513,-0.7201055095531049
1.134867548942566,-0.8370863199234009,-171.17446899414062,0.3331163151375949,-0.9165108459579966,0.34111345528314513,-0.7201055095531049
-0.6362221837043762,1.2409032583236694,-173.4408416748047,0.3331163151375949,-0.9165108459579966,0.34111345528314513,-0.7201055095531049
0.7639932036399841,0.670410692691803,-175.7966766357422,0.3331163151375949,-0.9165108459579966,0.34111345528314513,-0.7201055095531049
0.9645453691482544,0.00031000329181551933,-178.231689453125,0.3331163151375949,-0.9165108459579966,0.34111345528314513,-0.7201055095531049
-0.37134677171707153,0.48798662424087524,179.35549926757812,0.3331163151375949,-0.9165108459579966,0.34111345528314513,-0.7201055095531049
0.4985867738723755,0.9733145236968994,176.91268920898438,0.3331163151375949,-0.9165108459579966,0.34111345528314513,-0.7201055095531049
0.5031458139419556,-0.7529856562614441,174.3420867919922,0.3331163151375949,-0.9165108459579966,0.34111345528314513,-0.7201055095531049
0.7975776195526123,-0.0034938454627990723,171.77157592773438,0.3331163151375949,-0.9165108459579966,0.34111345528314513,-0.7201055095531049
-0.7349522709846497,-0.9691352844238281,169.3286895751953,0.3331163151375949,-0.9165108459579966,0.34111345528314513,-0.7201055095531049
1.547951579093933,-2.1943347454071045,167.19992065429688,0.3331163151375949,-0.9165108459579966,0.34111345528314513,-0.7201055095531049
-1.623181939125061,-0.8715859651565552,165.46835327148438,0.3331163151375949,-0.9165108459579966,0.34111345528314513,-0.7201055095531049
-0.29849475622177124,-0.548729419708252,164.2943878173828,0.3331163151375949,-0.9165108459579966,0.34111345528314513,-0.7201055095531049
-1.0945631265640259,0.027308443561196327,163.63790893554688,0.3331163151375949,-0.9165108459579966,0.34111345528314513,-0.7201055095531049
-0.23848384618759155,-1.1765331029891968,163.3578338623047,0.3331163151375949,-0.9165108459579966,0.34111345528314513,-0.7201055095531049
-0.8025955557823181,-0.7328095436096191,163.43309020996094,0.3331163151375949,-0.9165108459579966,0.34111345528314513,-0.7201055095531049
-0.7817959785461426,-0.07919865101575851,163.6510009765625,0.3331163151375949,-0.9165108459579966,0.34111345528314513,-0.7201055095531049
0.3699066638946533,0.8836719393730164,163.66970825195312,0.3331163151375949,-0.9165108459579966,0.34111345528314513,-0.7201055095531049
-0.26228076219558716,0.18780823051929474,163.6006317138672,0.3331163151375949,-0.9165108459579966,0.34111345528314513,-0.7201055095531049
0.15396694839000702,0.1902904212474823,163.6452178955078,0.3331163151375949,-0.9165108459579966,0.34111345528314513,-0.7201055095531049
0.16489176452159882,-0.005746256094425917,163.63424682617188,0.3331163151375949,-0.9165108459579966,0.34111345528314513,-0.7201055095531049
0.10007334500551224,0.1910708248615265,163.62759399414062,0.3331163151375949,-0.9165108459579966,0.34111345528314513,-0.7201055095531049
-0.05179789289832115,0.22004058957099915,163.6378936767578,0.3331163151375949,-0.9165108459579966,0.34111345528314513,-0.7201055095531049
-0.1902843713760376,0.10761041939258575,163.6349334716797,0.3331163151375949,-0.9165108459579966,0.34111345528314513,-0.7201055095531049
-0.015399672091007233,0.29366475343704224,163.63180541992188,0.3331163151375949,-0.9165108459579966,0.34111345528314513,-0.7201055095531049
0.059115950018167496,0.11056644469499588,163.63864135742188,0.3331163151375949,-0.9165108459579966,0.34111345528314513,-0.7201055095531049
0.08976581692695618,0.13912631571292877,163.6333770751953,0.3331163151375949,-0.9165108459579966,0.34111345528314513,-0.7201055095531049
-0.0156544279307127,0.20802219212055206,163.6353759765625,0.3331163151375949,-0.9165108459579966,0.34111345528314513,-0.7201055095531049
-0.12407276779413223,0.16039370000362396,163.63693237304688,0.3331163151375949,-0.9165108459579966,0.34111345528314513,-0.7201055095531049
-0.028246872127056122,0.18978449702262878,163.63465881347656,0.3331163151375949,-0.9165108459579966,0.34111345528314513,-0.7201055095531049
0.0443127416074276,0.1763601154088974,163.63710021972656,0.3331163151375949,-0.9165108459579966,0.34111345528314513,-0.7201055095531049
0.017912283539772034,0.1433616578578949,163.63636779785156,0.3331163151375949,-0.9165108459579966,0.34111345528314513,-0.7201055095531049
-0.02826949767768383,0.21028520166873932,163.6347198486328,0.3331163151375949,-0.9165108459579966,0.34111345528314513,-0.7201055095531049
-0.06924542784690857,0.18474143743515015,163.63626098632812,0.3331163151375949,-0.9165108459579966,0.34111345528314513,-0.7201055095531049
-0.010533647611737251,0.1716444194316864,163.63470458984375,0.3331163151375949,-0.9165108459579966,0.34111345528314513,-0.7201055095531049
0.030823903158307076,0.1735546886920929,163.63548278808594,0.3331163151375949,-0.9165108459579966,0.34111345528314513,-0.7201055095531049
0.011722122319042683,0.16303513944149017,163.63619995117188,0.3331163151375949,-0.9165108459579966,0.34111345528314513,-0.7201055095531049
-0.02765708602964878,0.17562513053417206,163.63558959960938,0.3331163151375949,-0.9165108459579966,0.34111345528314513,-0.7201055095531049
0,0.18789465725421906,163.63690185546875,0.3387996187613397,-0.9284873600208408,0.34088297956623137,-0.7170761779882017
0,0.16308487951755524,163.63717651367188,0.3444810017541102,-0.9404142560750349,0.34088297956623137,-0.7141513485151035
-0.24284140765666962,0.17702175676822662,163.63601684570312,0.3501455207602379,-0.9522931600338779,0.33885930116909246,-0.7113171265460554
-0.7478886842727661,0.4470978081226349,163.62225341796875,0.3557243750788944,-0.9641051038398614,0.3306032170696805,-0.7061161301719648
-2.1009743213653564,0.7827138304710388,163.73875427246094,0.3610365909879975,-0.9757883024233807,0.3068626920226961,-0.6958676998503509
-2.9671716690063477,-0.10194463282823563,164.02186584472656,0.36579901460571107,-0.9873388217821613,0.2646281421029319,-0.6901946232033276
-0.7665565013885498,0.7823889851570129,164.1731719970703,0.3699501969622603,-0.9987948124221939,0.23351374068297442,-0.6845242536005878
-1.0360820293426514,1.5324121713638306,164.2933807373047,0.3737169094090091,-1.0100427999018897,0.21849175292688108,-0.6652342439629141
-1.045047402381897,0.6079131960868835,164.3807830810547,0.3737169094090091,-1.0100427999018897,0.21849175292688108,-0.6652342439629141
-1.873404860496521,0,164.37327575683594,0.3771557683284239,-1.0210878211070988,0.19417131740289426,-0.66016830066219
0.4728955924510956,0.4496939778327942,164.34031677246094,0.38029469936374677,-1.0320593973696748,0.18250040683584903,-0.6564208508469167
1.8727730512619019,-0.43776804208755493,164.24058532714844,0.3834992664668243,-1.0429989166938078,0.20204764553345733,-0.6563214680490397
-0.5201447606086731,0.1579398661851883,164.2172088623047,0.3869606597458995,-1.053957040340174,0.21331954795556757,-0.6586533695148927
-1.3101214170455933,0.9140607714653015,164.18833923339844,0.3903888837272663,-1.0648601520100298,0.19806732980844868,-0.6497200308678053
-3.6070926189422607,0.9434111714363098,164.10052490234375,0.3933485326937969,-1.075559828084014,0.15709054617521656,-0.6342410980102918
-0.39173752069473267,1.559339165687561,164.08949279785156,0.39568901192590905,-1.0859567109441075,0.12376696167824161,-0.6133848452009263
-1.8220341205596924,-0.1777559071779251,164.05979919433594,0.39759806047879265,-1.0960838484156152,0.10531886466778807,-0.6018716513800126
-0.2868354022502899,-0.17742927372455597,163.96958923339844,0.3992069256175051,-1.1061397082428448,0.08774495197770489,-0.6048315278875334
-1.462268352508545,1.08263099193573,163.95814514160156,0.40054787594527524,-1.1161573724772056,0.0731690873547146,-0.5972881802357736
-2.197603702545166,-0.10026410967111588,164.06353759765625,0.40054787594527524,-1.1161573724772056,0.0731690873547146,-0.5972881802357736
0.06466668844223022,0.5224285125732422,164.17893981933594,0.40054787594527524,-1.1161573724772056,0.0731690873547146,-0.5972881802357736
1.3096123933792114,0.08589962124824524,164.28150939941406,0.40054787594527524,-1.1161573724772056,0.0731690873547146,-0.5972881802357736
1.8321889638900757,-0.9342625737190247,164.4527587890625,0.40054787594527524,-1.1161573724772056,0.0731690873547146,-0.5972881802357736
2.353994131088257,0.01718972995877266,164.78599548339844,0.40054787594527524,-1.1161573724772056,0.0731690873547146,-0.5972881802357736
-0.32985445857048035,-0.47902122139930725,165.30142211914062,0.40054787594527524,-1.1161573724772056,0.0731690873547146,-0.5972881802357736
-1.5650166273117065,-0.8605519533157349,166.1497039794922,0.40054787594527524,-1.1161573724772056,0.0731690873547146,-0.5972881802357736
0.9922254085540771,-0.503363311290741,167.05213928222656,0.40054787594527524,-1.1161573724772056,0.0731690873547146,-0.5972881802357736
1.9565922021865845,0.11050812900066376,168.03543090820312,0.40054787594527524,-1.1161573724772056,0.0731690873547146,-0.5972881802357736
0.5301493406295776,-1.1070095300674438,168.9554901123047,0.40054787594527524,-1.1161573724772056,0.0731690873547146,-0.5972881802357736
-0.39578181505203247,0.5158525705337524,169.99559020996094,0.40054787594527524,-1.1161573724772056,0.0731690873547146,-0.5972881802357736
0.029238205403089523,-1.6779025793075562,171.11070251464844,0.40054787594527524,-1.1161573724772056,0.0731690873547146,-0.5972881802357736
0.8165783882141113,1.2279763221740723,172.2764892578125,0.40054787594527524,-1.1161573724772056,0.0731690873547146,-0.5972881802357736
-0.47460082173347473,-0.6394739151000977,173.472900390625,0.40054787594527524,-1.1161573724772056,0.0731690873547146,-0.5972881802357736
1.726302146911621,0.7881771922111511,174.62779235839844,0.40054787594527524,-1.1161573724772056,0.0731690873547146,-0.5972881802357736
-0.5231123566627502,-0.5098209381103516,175.83909606933594,0.40054787594527524,-1.1161573724772056,0.0731690873547146,-0.5972881802357736
0.9121261239051819,-0.37817493081092834,177.05831909179688,0.40054787594527524,-1.1161573724772056,0.0731690873547146,-0.5972881802357736
-0.28104367852211,-0.0734097957611084,178.40956115722656,0.40054787594527524,-1.1161573724772056,0.0731690873547146,-0.5972881802357736
-0.5895178914070129,-2.6264545917510986,179.68911743164062,0.40054787594527524,-1.1161573724772056,0.0731690873547146,-0.5972881802357736
1.3125622272491455,0.8280579447746277,-178.84239196777344,0.40054787594527524,-1.1161573724772056,0.0731690873547146,-0.5972881802357736
-0.4897327125072479,-1.6658227443695068,-177.31600952148438,0.40054787594527524,-1.1161573724772056,0.0731690873547146,-0.5972881802357736
1.145304560661316,-0.35482069849967957,-175.7713623046875,0.40054787594527524,-1.1161573724772056,0.0731690873547146,-0.5972881802357736
-0.456876665353775,-0.9752062559127808,-174.20950317382812,0.40054787594527524,-1.1161573724772056,0.0731690873547146,-0.5972881802357736
1.097703456878662,0.9994092583656311,-172.54159545898438,0.40054787594527524,-1.1161573724772056,0.0731690873547146,-0.5972881802357736
0.4587132930755615,-0.7738755941390991,-170.79644775390625,0.40054787594527524,-1.1161573724772056,0.0731690873547146,-0.5972881802357736
-0.15582060813903809,-0.4518932104110718,-169.01242065429688,0.40054787594527524,-1.1161573724772056,0.0731690873547146,-0.5972881802357736
-0.5702164769172668,-0.3087626099586487,-167.15023803710938,0.40054787594527524,-1.1161573724772056,0.0731690873547146,-0.5972881802357736
1.5786583423614502,0.6173696517944336,-165.33065795898438,0.40054787594527524,-1.1161573724772056,0.0731690873547146,-0.5972881802357736
-0.8897202610969543,-1.3378676176071167,-163.53343200683594,0.40054787594527524,-1.1161573724772056,0.0731690873547146,-0.5972881802357736
0.2163877934217453,-0.11447811871767044,-161.69723510742188,0.40054787594527524,-1.1161573724772056,0.0731690873547146,-0.5972881802357736
0.32250022888183594,1.0127184391021729,-159.912109375,0.40054787594527524,-1.1161573724772056,0.0731690873547146,-0.5972881802357736
0.4579036235809326,0.6895304322242737,-158.16603088378906,0.40054787594527524,-1.1161573724772056,0.0731690873547146,-0.5972881802357736
0.08455026894807816,-0.7493800520896912,-156.45774841308594,0.40054787594527524,-1.1161573724772056,0.0731690873547146,-0.5972881802357736
0.08169901371002197,0.03794163092970848,-154.831298828125,0.40054787594527524,-1.1161573724772056,0.0731690873547146,-0.5972881802357736
0.6000921130180359,0.6196016669273376,-153.19964599609375,0.40054787594527524,-1.1161573724772056,0.0731690873547146,-0.5972881802357736
0.1105014905333519,-0.7775872945785522,-151.49407958984375,0.40054787594527524,-1.1161573724772056,0.0731690873547146,-0.5972881802357736
0.5299529433250427,0.6983638405799866,-149.85745239257812,0.40054787594527524,-1.1161573724772056,0.0731690873547146,-0.5972881802357736
-0.2183629274368286,-0.38641688227653503,-148.19293212890625,0.40054787594527524,-1.1161573724772056,0.0731690873547146,-0.5972881802357736
0.41818767786026,0.19524060189723969,-146.43685913085938,0.40054787594527524,-1.1161573724772056,0.0731690873547146,-0.5972881802357736
0.07040462642908096,-1.6557798385620117,-144.70826721191406,0.40054787594527524,-1.1161573724772056,0.0731690873547146,-0.5972881802357736
0.5137429237365723,1.1474961042404175,-143.0187530517578,0.40054787594527524,-1.1161573724772056,0.0731690873547146,-0.5972881802357736
0.874458372592926,-0.7985254526138306,-141.30763244628906,0.40054787594527524,-1.1161573724772056,0.0731690873547146,-0.5972881802357736
-0.3286222517490387,0.6494089365005493,-139.58856201171875,0.40054787594527524,-1.1161573724772056,0.0731690873547146,-0.5972881802357736
0.011258205398917198,-0.019151955842971802,-137.82923889160156,0.40054787594527524,-1.1161573724772056,0.0731690873547146,-0.5972881802357736
0.17438901960849762,-0.4707722067832947,-136.05491638183594,0.40054787594527524,-1.1161573724772056,0.0731690873547146,-0.5972881802357736
0.6372997760772705,-0.7054968476295471,-134.31468200683594,0.40054787594527524,-1.1161573724772056,0.0731690873547146,-0.5972881802357736
-0.18322448432445526,0.5311869382858276,-132.5651092529297,0.40054787594527524,-1.1161573724772056,0.0731690873547146,-0.5972881802357736
0.40132585167884827,-0.8757961392402649,-130.71649169921875,0.40054787594527524,-1.1161573724772056,0.0731690873547146,-0.5972881802357736
0.541359007358551,0.5822999477386475,-128.9451904296875,0.40054787594527524,-1.1161573724772056,0.0731690873547146,-0.5972881802357736
0.30143314599990845,-0.22380214929580688,-127.17816162109375,0.40054787594527524,-1.1161573724772056,0.0731690873547146,-0.5972881802357736
0.18070624768733978,0.3242129683494568,-125.36370086669922,0.40054787594527524,-1.1161573724772056,0.0731690873547146,-0.5972881802357736
0.16942889988422394,0.5699040293693542,-123.55084228515625,0.40054787594527524,-1.1161573724772056,0.0731690873547146,-0.5972881802357736
0.1355883777141571,-0.3704969882965088,-121.78678131103516,0.40054787594527524,-1.1161573724772056,0.0731690873547146,-0.5972881802357736
-0.13393276929855347,-0.12973380088806152,-119.99453735351562,0.40054787594527524,-1.1161573724772056,0.0731690873547146,-0.5972881802357736
0.4247342646121979,0.27143579721450806,-118.16630554199219,0.40054787594527524,-1.1161573724772056,0.0731690873547146,-0.5972881802357736
0.256237268447876,0.10930731892585754,-116.27777099609375,0.40054787594527524,-1.1161573724772056,0.0731690873547146,-0.5972881802357736
0.4110218584537506,-0.16279469430446625,-114.46984100341797,0.40054787594527524,-1.1161573724772056,0.0731690873547146,-0.5972881802357736
-0.3237669765949249,0.564795196056366,-112.63054656982422,0.40054787594527524,-1.1161573724772056,0.0731690873547146,-0.5972881802357736
0.755756139755249,-1.1674681901931763,-110.75018310546875,0.40054787594527524,-1.1161573724772056,0.0731690873547146,-0.5972881802357736
0.11794638633728027,-0.12015880644321442,-108.93833923339844,0.40054787594527524,-1.1161573724772056,0.0731690873547146,-0.5972881802357736
-0.27757319808006287,0.16626429557800293,-107.11003112792969,0.40054787594527524,-1.1161573724772056,0.0731690873547146,-0.5972881802357736
0.5591813921928406,0.686301589012146,-105.31027221679688,0.40054787594527524,-1.1161573724772056,0.0731690873547146,-0.5972881802357736
0.9020197987556458,-0.2570127248764038,-103.4549331665039,0.40054787594527524,-1.1161573724772056,0.0731690873547146,-0.5972881802357736
0.4578478932380676,-0.1722307950258255,-101.62852478027344,0.40054787594527524,-1.1161573724772056,0.0731690873547146,-0.5972881802357736
-0.26258671283721924,0.6829339265823364,-99.7982177734375,0.40054787594527524,-1.1161573724772056,0.0731690873547146,-0.5972881802357736
1.0757845640182495,-0.34368905425071716,-97.98758697509766,0.40054787594527524,-1.1161573724772056,0.0731690873547146,-0.5972881802357736
0.0373007170855999,1.061067819595337,-96.19828796386719,0.40054787594527524,-1.1161573724772056,0.0731690873547146,-0.5972881802357736
-0.007198698353022337,0.6255744695663452,-94.65817260742188,0.40054787594527524,-1.1161573724772056,0.0731690873547146,-0.5972881802357736
-2.1000304222106934,2.1472198963165283,-93.3917007446289,0.40054787594527524,-1.1161573724772056,0.0731690873547146,-0.5972881802357736
-0.588381290435791,1.2774806022644043,-92.34207916259766,0.40054787594527524,-1.1161573724772056,0.0731690873547146,-0.5972881802357736
-0.2329198271036148,0.4073745310306549,-91.59762573242188,0.40054787594527524,-1.1161573724772056,0.0731690873547146,-0.5972881802357736
-1.0803226232528687,1.792596697807312,-91.14408874511719,0.40054787594527524,-1.1161573724772056,0.0731690873547146,-0.5972881802357736
-1.1017587184906006,1.8145227432250977,-90.88609313964844,0.40054787594527524,-1.1161573724772056,0.0731690873547146,-0.5972881802357736
0.07503955811262131,1.3356926441192627,-90.81412506103516,0.40054787594527524,-1.1161573724772056,0.0731690873547146,-0.5972881802357736
0.48293158411979675,1.1805927753448486,-90.86636352539062,0.40054787594527524,-1.1161573724772056,0.0731690873547146,-0.5972881802357736
-0.34771719574928284,-0.049012262374162674,-90.90253448486328,0.40054787594527524,-1.1161573724772056,0.0731690873547146,-0.5972881802357736
0.01771993190050125,-0.9423354268074036,-90.9035873413086,0.40054787594527524,-1.1161573724772056,0.0731690873547146,-0.5972881802357736
-0.07560527324676514,-0.5761637091636658,-90.88892364501953,0.40054787594527524,-1.1161573724772056,0.0731690873547146,-0.5972881802357736
0.034943003207445145,-0.01416905876249075,-90.88975524902344,0.40054787594527524,-1.1161573724772056,0.0731690873547146,-0.5972881802357736
-0.07218102365732193,0.474674791097641,-90.88444519042969,0.40054787594527524,-1.1161573724772056,0.0731690873547146,-0.5972881802357736
0.017159808427095413,0.3129720091819763,-90.88910675048828,0.40054787594527524,-1.1161573724772056,0.0731690873547146,-0.5972881802357736
-0.024165552109479904,-0.23131272196769714,-90.90267181396484,0.40054787594527524,-1.1161573724772056,0.0731690873547146,-0.5972881802357736
-0.0925867035984993,-0.33284664154052734,-90.90260314941406,0.40054787594527524,-1.1161573724772056,0.0731690873547146,-0.5972881802357736
-0.006436814554035664,-0.030074451118707657,-90.8945541381836,0.40054787594527524,-1.1161573724772056,0.0731690873547146,-0.5972881802357736
-0.029232151806354523,0.23608480393886566,-90.8932876586914,0.40054787594527524,-1.1161573724772056,0.0731690873547146,-0.5972881802357736
0.00021571051911450922,0.0684625655412674,-90.89761352539062,0.40054787594527524,-1.1161573724772056,0.0731690873547146,-0.5972881802357736
-0.017077965661883354,-0.18722105026245117,-90.90129852294922,0.40054787594527524,-1.1161573724772056,0.0731690873547146,-0.5972881802357736
-0.04667366296052933,-0.12819723784923553,-90.89827728271484,0.40054787594527524,-1.1161573724772056,0.0731690873547146,-0.5972881802357736
-0.011567384004592896,0.07791852951049805,-90.89454650878906,0.40054787594527524,-1.1161573724772056,0.0731690873547146,-0.5972881802357736
-0.027345675975084305,0.09290491789579391,-90.89613342285156,0.40054787594527524,-1.1161573724772056,0.0731690873547146,-0.5972881802357736
-0.030604200437664986,-0.08103229850530624,-90.89973449707031,0.40054787594527524,-1.1161573724772056,0.0731690873547146,-0.5972881802357736
-0.021666208282113075,-0.12094554305076599,-90.90005493164062,0.40054787594527524,-1.1161573724772056,0.0731690873547146,-0.5972881802357736
-0.016499560326337814,-0.0004328572831582278,-90.89769744873047,0.40054787594527524,-1.1161573724772056,0.0731690873547146,-0.5972881802357736
-0.03004606068134308,0.05135577172040939,-90.89619445800781,0.40054787594527524,-1.1161573724772056,0.0731690873547146,-0.5972881802357736
0,0,-90.89803314208984,0.4017652742025287,-1.126108609108099,0.07291870351570341,-0.5968602154714369
0,-0.09583347290754318,-90.89676666259766,0.40298058592779046,-1.1360629344682416,0.07291870351570341,-0.5976588277456664
0,-0.10968434810638428,-90.89585876464844,0.4041958976530522,-1.146038187001573,0.07291870351570341,-0.5993714762541158
0.07143833488225937,-1.2828272581100464,-90.85298156738281,0.40541617037379185,-1.1561244138006843,0.07351402297305558,-0.6109757396392527
0.35568681359291077,-2.2236263751983643,-90.65150451660156,0.40667106555865357,-1.1665508465192072,0.07707339921034867,-0.6401961865834894
0.6902140378952026,-2.4173572063446045,-90.47000885009766,0.40802825421573496,-1.1775430734887613,0.08578923963941629,-0.6788710497630142
-0.787531316280365,-2.2397143840789795,-90.51813507080078,0.4094513167320596,-1.1891809987341466,0.08497826231953994,-0.7176799796832107
-0.6835750937461853,-1.3944400548934937,-90.58890533447266,0.410765460936689,-1.2013947035649066,0.07271904223598535,-0.7479646000079814
0.8940776586532593,-1.1598254442214966,-90.58546447753906,0.4119920632076295,-1.2140381597802559,0.07447323027687763,-0.7692501458339396
-1.0324342250823975,-1.1886459589004517,-90.5760726928711,0.4132236756173532,-1.2270220838360384,0.07332025888996815,-0.7888207408599558
-6.162234785733745e-05,-1.4406880140304565,-90.5040283203125,0.4132236756173532,-1.2270220838360384,0.07332025888996815,-0.7888207408599558
0.4937466084957123,-1.7530971765518188,-90.57052612304688,0.4144799636117796,-1.240390886821939,0.07743430044120028,-0.8154356174481414
-0.7022636532783508,0.22602470219135284,-90.6576156616211,0.41575605493546747,-1.254087527145683,0.07569665840134496,-0.8281612214011453
0.12923692166805267,1.1670291423797607,-90.64514923095703,0.4169778723857947,-1.267793474318718,0.0709214356379258,-0.8165524393630528
-0.32860898971557617,0.9300310015678406,-90.61166381835938,0.41814605103059016,-1.2812570524647726,0.06926000173752977,-0.7990769381634895
0.28611981868743896,-0.8971477746963501,-90.57717895507812,0.41929743375600537,-1.2945727178767426,0.0689059253122953,-0.7988029112728937
0.39078691601753235,-2.3837757110595703,-90.4403076171875,0.4204928732566759,-1.3081139416400238,0.07454681476817006,-0.8261439403208597
-0.9314507842063904,-2.3077802658081055,-90.30419158935547,0.4216977740675212,-1.3222088098104317,0.0700412825332629,-0.8652402401280903
-0.2540406584739685,-0.6912126541137695,-90.22136688232422,0.42278280298177834,-1.33683774387645,0.060162187177593245,-0.8902318477941059
0.021898893639445305,-0.9493271112442017,-90.18382263183594,0.42278280298177834,-1.33683774387645,0.060162187177593245,-0.8902318477941059
0.010935520753264427,-0.24128983914852142,-90.28768157958984,0.42278280298177834,-1.33683774387645,0.060162187177593245,-0.8902318477941059
-0.16616195440292358,0.12880414724349976,-90.26850128173828,0.42278280298177834,-1.33683774387645,0.060162187177593245,-0.8902318477941059
0.6642308235168457,1.1849217414855957,-90.1768569946289,0.42278280298177834,-1.33683774387645,0.060162187177593245,-0.8902318477941059
-0.360250860452652,1.666802167892456,-90.18067932128906,0.42278280298177834,-1.33683774387645,0.060162187177593245,-0.8902318477941059
-0.2344197779893875,3.1775522232055664,-90.5810546875,0.42278280298177834,-1.33683774387645,0.060162187177593245,-0.8902318477941059
0.7799989581108093,0.12037509679794312,-91.31383514404297,0.42278280298177834,-1.33683774387645,0.060162187177593245,-0.8902318477941059
-0.2807977497577667,1.5303345918655396,-92.30986022949219,0.42278280298177834,-1.33683774387645,0.060162187177593245,-0.8902318477941059
-0.5274050831794739,1.0326550006866455,-93.49225616455078,0.42278280298177834,-1.33683774387645,0.060162187177593245,-0.8902318477941059
0.7619963884353638,0.582753598690033,-94.75376892089844,0.42278280298177834,-1.33683774387645,0.060162187177593245,-0.8902318477941059
0.1896258443593979,1.5564137697219849,-96.0666275024414,0.42278280298177834,-1.33683774387645,0.060162187177593245,-0.8902318477941059
-1.4683688879013062,0.6400193572044373,-97.45211791992188,0.42278280298177834,-1.33683774387645,0.060162187177593245,-0.8902318477941059
-0.20726531744003296,1.1057566404342651,-98.93352508544922,0.42278280298177834,-1.33683774387645,0.060162187177593245,-0.8902318477941059
-0.3897671699523926,0.8408425450325012,-100.50529479980469,0.42278280298177834,-1.33683774387645,0.060162187177593245,-0.8902318477941059
-0.5392507314682007,0.5915672779083252,-102.10944366455078,0.42278280298177834,-1.33683774387645,0.060162187177593245,-0.8902318477941059
-0.268535315990448,0.49249789118766785,-103.7324447631836,0.42278280298177834,-1.33683774387645,0.060162187177593245,-0.8902318477941059
-0.9662401080131531,0.5725327134132385,-105.40361022949219,0.42278280298177834,-1.33683774387645,0.060162187177593245,-0.8902318477941059
0.3022444248199463,1.3092230558395386,-107.08609008789062,0.42278280298177834,-1.33683774387645,0.060162187177593245,-0.8902318477941059
-0.03168370574712753,0.5291888117790222,-108.8118896484375,0.42278280298177834,-1.33683774387645,0.060162187177593245,-0.8902318477941059
0.9116828441619873,0.905883252620697,-110.50711059570312,0.42278280298177834,-1.33683774387645,0.060162187177593245,-0.8902318477941059
0.18408077955245972,0.6671925783157349,-112.21491241455078,0.42278280298177834,-1.33683774387645,0.060162187177593245,-0.8902318477941059
-0.263928085565567,0.4591505825519562,-113.89176940917969,0.42278280298177834,-1.33683774387645,0.060162187177593245,-0.8902318477941059
0.8221663236618042,0.47442418336868286,-115.65065002441406,0.42278280298177834,-1.33683774387645,0.060162187177593245,-0.8902318477941059
-0.45463472604751587,0.6709415316581726,-117.40637969970703,0.42278280298177834,-1.33683774387645,0.060162187177593245,-0.8902318477941059
0.9971711039543152,0.5222356915473938,-119.12210845947266,0.42278280298177834,-1.33683774387645,0.060162187177593245,-0.8902318477941059
0.2097805142402649,0.4043028652667999,-120.7430191040039,0.42278280298177834,-1.33683774387645,0.060162187177593245,-0.8902318477941059
-1.0553730726242065,-0.22896786034107208,-122.294921875,0.42278280298177834,-1.33683774387645,0.060162187177593245,-0.8902318477941059
-0.10918501764535904,0.3591387867927551,-123.7880859375,0.42278280298177834,-1.33683774387645,0.060162187177593245,-0.8902318477941059
1.375515103340149,0.4374140501022339,-125.27666473388672,0.42278280298177834,-1.33683774387645,0.060162187177593245,-0.8902318477941059
0.2421320527791977,0.6749598979949951,-126.69612884521484,0.42278280298177834,-1.33683774387645,0.060162187177593245,-0.8902318477941059
0.7538512945175171,0.9533571004867554,-128.0736541748047,0.42278280298177834,-1.33683774387645,0.060162187177593245,-0.8902318477941059
-1.340852975845337,0.3120216727256775,-129.4055633544922,0.42278280298177834,-1.33683774387645,0.060162187177593245,-0.8902318477941059
-0.09478412568569183,0.29167813062667847,-130.7948455810547,0.42278280298177834,-1.33683774387645,0.060162187177593245,-0.8902318477941059
0.620799720287323,0.6831709742546082,-132.07376098632812,0.42278280298177834,-1.33683774387645,0.060162187177593245,-0.8902318477941059
-0.09724302589893341,0.6035251617431641,-133.3594970703125,0.42278280298177834,-1.33683774387645,0.060162187177593245,-0.8902318477941059
1.3963686227798462,0.062274202704429626,-134.5709686279297,0.42278280298177834,-1.33683774387645,0.060162187177593245,-0.8902318477941059
-0.3477882742881775,0.08992381393909454,-135.74937438964844,0.42278280298177834,-1.33683774387645,0.060162187177593245,-0.8902318477941059
0.2546813488006592,-0.3939751088619232,-137.0150146484375,0.42278280298177834,-1.33683774387645,0.060162187177593245,-0.8902318477941059
-0.22807861864566803,-0.6236987113952637,-138.28863525390625,0.42278280298177834,-1.33683774387645,0.060162187177593245,-0.8902318477941059
-0.4347134530544281,0.7689546346664429,-139.66806030273438,0.42278280298177834,-1.33683774387645,0.060162187177593245,-0.8902318477941059
-0.383992463350296,0.35800594091415405,-141.1075439453125,0.42278280298177834,-1.33683774387645,0.060162187177593245,-0.8902318477941059
-0.04036286845803261,0.16994115710258484,-142.575439453125,0.42278280298177834,-1.33683774387645,0.060162187177593245,-0.8902318477941059
0.0010046673705801368,1.3463199138641357,-144.14840698242188,0.42278280298177834,-1.33683774387645,0.060162187177593245,-0.8902318477941059
-0.6162341237068176,0.2804800271987915,-145.75938415527344,0.42278280298177834,-1.33683774387645,0.060162187177593245,-0.8902318477941059
0.1782607138156891,0.4424281716346741,-147.51922607421875,0.42278280298177834,-1.33683774387645,0.060162187177593245,-0.8902318477941059
0.46786263585090637,0.35538938641548157,-149.4229736328125,0.42278280298177834,-1.33683774387645,0.060162187177593245,-0.8902318477941059
-0.9479988217353821,0.2410002499818802,-151.45294189453125,0.42278280298177834,-1.33683774387645,0.060162187177593245,-0.8902318477941059
-0.437073290348053,0.1278671771287918,-153.61566162109375,0.42278280298177834,-1.33683774387645,0.060162187177593245,-0.8902318477941059
0.627601683139801,0.7689968943595886,-155.83291625976562,0.42278280298177834,-1.33683774387645,0.060162187177593245,-0.8902318477941059
0.7493539452552795,-0.34537774324417114,-157.9482421875,0.42278280298177834,-1.33683774387645,0.060162187177593245,-0.8902318477941059
0.2407252937555313,-1.538150668144226,-160.0723114013672,0.42278280298177834,-1.33683774387645,0.060162187177593245,-0.8902318477941059
-0.900580883026123,0.8669243454933167,-162.25054931640625,0.42278280298177834,-1.33683774387645,0.060162187177593245,-0.8902318477941059
-0.06240833178162575,1.0575265884399414,-164.38070678710938,0.42278280298177834,-1.33683774387645,0.060162187177593245,-0.8902318477941059
0.5599395632743835,-0.036842700093984604,-166.50035095214844,0.42278280298177834,-1.33683774387645,0.060162187177593245,-0.8902318477941059
0.18010538816452026,-0.1239243820309639,-168.68341064453125,0.42278280298177834,-1.33683774387645,0.060162187177593245,-0.8902318477941059
0.000168483195011504,-0.19582417607307434,-170.8994140625,0.42278280298177834,-1.33683774387645,0.060162187177593245,-0.8902318477941059
-0.07197948545217514,0.4668803811073303,-173.23519897460938,0.42278280298177834,-1.33683774387645,0.060162187177593245,-0.8902318477941059
0.059809595346450806,-0.15104442834854126,-175.55902099609375,0.42278280298177834,-1.33683774387645,0.060162187177593245,-0.8902318477941059
0.7270688414573669,-0.13258472084999084,-178.04209899902344,0.42278280298177834,-1.33683774387645,0.060162187177593245,-0.8902318477941059
0.7656740546226501,-0.946200430393219,179.44947814941406,0.42278280298177834,-1.33683774387645,0.060162187177593245,-0.8902318477941059
0.28037920594215393,1.4717804193496704,176.8722381591797,0.42278280298177834,-1.33683774387645,0.060162187177593245,-0.8902318477941059
-0.26648715138435364,-0.16917555034160614,174.27769470214844,0.42278280298177834,-1.33683774387645,0.060162187177593245,-0.8902318477941059
-0.04412811994552612,0.20226477086544037,171.70053100585938,0.42278280298177834,-1.33683774387645,0.060162187177593245,-0.8902318477941059
0.7690827250480652,-1.8354690074920654,169.1307373046875,0.42278280298177834,-1.33683774387645,0.060162187177593245,-0.8902318477941059
-0.57231605052948,1.7742846012115479,166.57992553710938,0.42278280298177834,-1.33683774387645,0.060162187177593245,-0.8902318477941059
1.2839044332504272,-0.9686326384544373,164.1561737060547,0.42278280298177834,-1.33683774387645,0.060162187177593245,-0.8902318477941059
-1.0879372358322144,-0.7781930565834045,162.00717163085938,0.42278280298177834,-1.33683774387645,0.060162187177593245,-0.8902318477941059
-1.0729012489318848,0.4088832139968872,160.35604858398438,0.42278280298177834,-1.33683774387645,0.060162187177593245,-0.8902318477941059
-0.3511841595172882,-2.981663227081299,159.04946899414062,0.42278280298177834,-1.33683774387645,0.060162187177593245,-0.8902318477941059
-1.1107343435287476,-0.15337489545345306,158.14251708984375,0.42278280298177834,-1.33683774387645,0.060162187177593245,-0.8902318477941059
-1.2284513711929321,-0.8272492289543152,157.76039123535156,0.42278280298177834,-1.33683774387645,0.060162187177593245,-0.8902318477941059
0.2338101863861084,-1.4104394912719727,157.6963348388672,0.42278280298177834,-1.33683774387645,0.060162187177593245,-0.8902318477941059
-0.10342712700366974,0.500049889087677,157.81329345703125,0.42278280298177834,-1.33683774387645,0.060162187177593245,-0.8902318477941059
-0.8025215864181519,0.5761182904243469,157.80320739746094,0.42278280298177834,-1.33683774387645,0.060162187177593245,-0.8902318477941059
-0.14334061741828918,0.0449480302631855,157.79078674316406,0.42278280298177834,-1.33683774387645,0.060162187177593245,-0.8902318477941059
-0.008493841625750065,0.6479665637016296,157.80197143554688,0.42278280298177834,-1.33683774387645,0.060162187177593245,-0.8902318477941059
0.18753553926944733,-0.3989502787590027,157.7928009033203,0.42278280298177834,-1.33683774387645,0.060162187177593245,-0.8902318477941059
0.37266480922698975,0.2759793996810913,157.7860107421875,0.42278280298177834,-1.33683774387645,0.060162187177593245,-0.8902318477941059
0.04190388321876526,-0.021433258429169655,157.7985076904297,0.42278280298177834,-1.33683774387645,0.060162187177593245,-0.8902318477941059
-0.05914292484521866,0.183171346783638,157.8004608154297,0.42278280298177834,-1.33683774387645,0.060162187177593245,-0.8902318477941059
-0.1683908998966217,0.2357943207025528,157.79824829101562,0.42278280298177834,-1.33683774387645,0.060162187177593245,-0.8902318477941059
-0.11550277471542358,0.17022572457790375,157.80503845214844,0.42278280298177834,-1.33683774387645,0.060162187177593245,-0.8902318477941059
0.05127363279461861,0.11015822738409042,157.796142578125,0.42278280298177834,-1.33683774387645,0.060162187177593245,-0.8902318477941059
0.09804761409759521,0.10726095736026764,157.79966735839844,0.42278280298177834,-1.33683774387645,0.060162187177593245,-0.8902318477941059
0.04769520089030266,0.112349733710289,157.798583984375,0.42278280298177834,-1.33683774387645,0.060162187177593245,-0.8902318477941059
-0.03412894532084465,0.15898722410202026,157.7993621826172,0.42278280298177834,-1.33683774387645,0.060162187177593245,-0.8902318477941059
-0.051318857818841934,0.16893330216407776,157.800537109375,0.42278280298177834,-1.33683774387645,0.060162187177593245,-0.8902318477941059
-0.008859798312187195,0.115326888859272,157.79832458496094,0.42278280298177834,-1.33683774387645,0.060162187177593245,-0.8902318477941059
0.06071982905268669,0.14377015829086304,157.79849243164062,0.42278280298177834,-1.33683774387645,0.060162187177593245,-0.8902318477941059
0.022341398522257805,0.10411598533391953,157.79904174804688,0.42278280298177834,-1.33683774387645,0.060162187177593245,-0.8902318477941059
-0.022842291742563248,0.15426822006702423,157.7985382080078,0.42278280298177834,-1.33683774387645,0.060162187177593245,-0.8902318477941059
-0.028311464935541153,0.14147202670574188,157.79879760742188,0.42278280298177834,-1.33683774387645,0.060162187177593245,-0.8902318477941059
0,0.1368240863084793,157.79759216308594,0.42378354002745106,-1.3516556152207257,0.0599262583031304,-0.8879127135189874
-0.0569973848760128,0.1885656714439392,157.7928466796875,0.4247783528474424,-1.3664315639350872,0.05945128009583029,-0.8852011322043839
-1.0034679174423218,0.16821852326393127,157.81219482421875,0.42569556409193415,-1.3811601394583055,0.050614069243177504,-0.8822279305818184
-2.5526139736175537,1.1110681295394897,157.93826293945312,0.42629218178133016,-1.3957750989504467,0.02098005348434521,-0.8715672084751231
-3.1169402599334717,1.6257835626602173,158.1306915283203,0.426248130295406,-1.4101111599464071,-0.026266231795246668,-0.8487601110401256
-0.8258421421051025,1.4878711700439453,158.16024780273438,0.4255365554320103,-1.4240409357739714,-0.05912275181223479,-0.822812988267591
-0.900079607963562,-0.12300214171409607,158.06651306152344,0.4244313205580516,-1.4376597030070195,-0.07350543306280699,-0.8114390796981755
-1.4025044441223145,0.36244601011276245,158.1217498779297,0.4244313205580516,-1.4376597030070195,-0.07350543306280699,-0.8114390796981755
-1.0894399881362915,0.05964434891939163,158.12318420410156,0.4230331783103202,-1.4511543758381675,-0.09427163666496204,-0.8079216600395742
0.1389022022485733,1.039064645767212,158.01138305664062,0.4213959747974398,-1.464543437603085,-0.10219278488069303,-0.7987657517505192
1.2966405153274536,-0.4725215435028076,157.99363708496094,0.41979245218259326,-1.4778168568612697,-0.0902299289008928,-0.7940445592316492
-0.5318911671638489,-0.3506399393081665,158.0825958251953,0.41834172762786753,-1.4911080968403259,-0.0838570176661961,-0.800904238255074
-1.2618125677108765,0.8958393335342407,158.21380615234375,0.41681954790739795,-1.5044186397422004,-0.09880454879015214,-0.7963609099698566
-2.227958917617798,1.3307887315750122,158.24729919433594,0.4149304601855254,-1.5175366946260653,-0.12788597783455777,-0.7778056760939462
0,1.5026838779449463,158.10926818847656,0.4126443078523371,-1.5303033536297477,-0.14645230214803942,-0.7541934043479466
0,-0.5109781622886658,157.97669982910156,0.41020343614986976,-1.5428043752497373,-0.14645230214803942,-0.7459291900508109
-1.9888195991516113,-0.43462637066841125,157.9574737548828,0.41020343614986976,-1.5428043752497373,-0.14645230214803942,-0.7459291900508109
1.7015881538391113,0.9608540534973145,158.09494018554688,0.40774261781925575,-1.5551999848281655,-0.1488458975256436,-0.74154395936057
-1.015834093093872,0.07533806562423706,158.1448516845703,0.405309474670269,-1.5674870930314582,-0.1431312803527666,-0.7329090250345571
0.21635302901268005,0.5721766352653503,158.2056427001953,0.40286843381271725,-1.579657277150028,-0.1497936225534432,-0.7275130691938105
-0.4282519817352295,-0.8990325927734375,158.1608123779297,0.40035715823177637,-1.5918051933003072,-0.15155944715946443,-0.7302368688397113
-1.3466030359268188,0.6967529058456421,158.1658935546875,0.3977079136251143,-1.6039898549814502,-0.1663499056399815,-0.7319225328974429
0.1966400295495987,1.4623008966445923,158.09988403320312,0.39485555665567174,-1.6160386295712346,-0.17593293069312502,-0.713930417876691
-1.7287296056747437,0.5180761218070984,158.1702880859375,0.3918169460346665,-1.6277999436873425,-0.18870034382750123,-0.6974272760562602
-1.8453915119171143,0.5570459365844727,158.4379425048828,0.3884237374488198,-1.6393490703675586,-0.21848468647410005,-0.6884679255696637
0.22836191952228546,0,158.57980346679688,0.3846700322858907,-1.6507848520481236,-0.2319599330773903,-0.6838258760981265
-0.23562709987163544,0.15075139701366425,158.5813751220703,0.3846700322858907,-1.6507848520481236,-0.2319599330773903,-0.6838258760981265
-1.010727047920227,0.6328519582748413,158.59228515625,0.3846700322858907,-1.6507848520481236,-0.2319599330773903,-0.6838258760981265
-1.009493112564087,0.2394009232521057,158.49867248535156,0.3846700322858907,-1.6507848520481236,-0.2319599330773903,-0.6838258760981265
0.7573714256286621,-0.4915850758552551,158.49871826171875,0.3846700322858907,-1.6507848520481236,-0.2319599330773903,-0.6838258760981265
1.656585931777954,-0.30682173371315,158.34580993652344,0.3846700322858907,-1.6507848520481236,-0.2319599330773903,-0.6838258760981265
2.166870594024658,-1.7165759801864624,157.9245147705078,0.3846700322858907,-1.6507848520481236,-0.2319599330773903,-0.6838258760981265
1.9806846380233765,1.6712580919265747,157.39279174804688,0.3846700322858907,-1.6507848520481236,-0.2319599330773903,-0.6838258760981265
2.014904499053955,-0.08078210800886154,156.6513671875,0.3846700322858907,-1.6507848520481236,-0.2319599330773903,-0.6838258760981265
0.9958998560905457,-0.16599558293819427,155.51927185058594,0.3846700322858907,-1.6507848520481236,-0.2319599330773903,-0.6838258760981265
0.8737180829048157,0.0019878405146300793,154.1617889404297,0.3846700322858907,-1.6507848520481236,-0.2319599330773903,-0.6838258760981265
1.1088744401931763,-0.7391604781150818,152.7425537109375,0.3846700322858907,-1.6507848520481236,-0.2319599330773903,-0.6838258760981265
0.9178773164749146,-0.49555835127830505,151.25424194335938,0.3846700322858907,-1.6507848520481236,-0.2319599330773903,-0.6838258760981265
1.4233611822128296,-0.7394344210624695,149.6750946044922,0.3846700322858907,-1.6507848520481236,-0.2319599330773903,-0.6838258760981265
0.8855838775634766,0.3510188162326813,147.97377014160156,0.3846700322858907,-1.6507848520481236,-0.2319599330773903,-0.6838258760981265
1.37233567237854,-0.25491082668304443,146.19268798828125,0.3846700322858907,-1.6507848520481236,-0.2319599330773903,-0.6838258760981265
0.9122509956359863,-0.6671602129936218,144.30609130859375,0.3846700322858907,-1.6507848520481236,-0.2319599330773903,-0.6838258760981265
0.9627407193183899,-0.25559791922569275,142.35507202148438,0.3846700322858907,-1.6507848520481236,-0.2319599330773903,-0.6838258760981265
0.5288054943084717,0.17702719569206238,140.3954620361328,0.3846700322858907,-1.6507848520481236,-0.2319599330773903,-0.6838258760981265
0.9251840710639954,-0.026065077632665634,138.41323852539062,0.3846700322858907,-1.6507848520481236,-0.2319599330773903,-0.6838258760981265
0.8330528736114502,-0.5472155213356018,136.44921875,0.3846700322858907,-1.6507848520481236,-0.2319599330773903,-0.6838258760981265
0.06530281901359558,0.8941676616668701,134.48583984375,0.3846700322858907,-1.6507848520481236,-0.2319599330773903,-0.6838258760981265
0.7581555843353271,-0.2564617693424225,132.54452514648438,0.3846700322858907,-1.6507848520481236,-0.2319599330773903,-0.6838258760981265
0.4640779495239258,-0.1435297727584839,130.6175079345703,0.3846700322858907,-1.6507848520481236,-0.2319599330773903,-0.6838258760981265
0.4319014251232147,-0.08671672642230988,128.68211364746094,0.3846700322858907,-1.6507848520481236,-0.2319599330773903,-0.6838258760981265
0.7692235112190247,-0.3668810725212097,126.77540588378906,0.3846700322858907,-1.6507848520481236,-0.2319599330773903,-0.6838258760981265
0.7191869020462036,0.6225624680519104,124.8685531616211,0.3846700322858907,-1.6507848520481236,-0.2319599330773903,-0.6838258760981265
0.4510294198989868,-1.1789065599441528,122.94416809082031,0.3846700322858907,-1.6507848520481236,-0.2319599330773903,-0.6838258760981265
0.6758901476860046,0.7915677428245544,121.0258560180664,0.3846700322858907,-1.6507848520481236,-0.2319599330773903,-0.6838258760981265
-0.5812469124794006,-0.697185218334198,119.11744689941406,0.3846700322858907,-1.6507848520481236,-0.2319599330773903,-0.6838258760981265
1.1294190883636475,0.8074673414230347,117.12105560302734,0.3846700322858907,-1.6507848520481236,-0.2319599330773903,-0.6838258760981265
0.2321198433637619,0.01310318149626255,115.09371948242188,0.3846700322858907,-1.6507848520481236,-0.2319599330773903,-0.6838258760981265
0.5711252093315125,1.2001533508300781,113.13072967529297,0.3846700322858907,-1.6507848520481236,-0.2319599330773903,-0.6838258760981265
0.3361649811267853,-1.9612274169921875,111.19805908203125,0.3846700322858907,-1.6507848520481236,-0.2319599330773903,-0.6838258760981265
0.8382704257965088,1.5957242250442505,109.2531509399414,0.3846700322858907,-1.6507848520481236,-0.2319599330773903,-0.6838258760981265
1.1114517450332642,0.6270886063575745,107.31990814208984,0.3846700322858907,-1.6507848520481236,-0.2319599330773903,-0.6838258760981265
1.1554601192474365,-0.30994588136672974,105.38044738769531,0.3846700322858907,-1.6507848520481236,-0.2319599330773903,-0.6838258760981265
-0.4273357093334198,-1.439016580581665,103.40453338623047,0.3846700322858907,-1.6507848520481236,-0.2319599330773903,-0.6838258760981265
0.05775979533791542,-0.364328533411026,101.49736022949219,0.3846700322858907,-1.6507848520481236,-0.2319599330773903,-0.6838258760981265
1.3499913215637207,-0.0005858588847331703,99.63321685791016,0.3846700322858907,-1.6507848520481236,-0.2319599330773903,-0.6838258760981265
0.39605528116226196,0.7471601963043213,97.796875,0.3846700322858907,-1.6507848520481236,-0.2319599330773903,-0.6838258760981265
-0.8501616716384888,-2.1500275135040283,95.95037841796875,0.3846700322858907,-1.6507848520481236,-0.2319599330773903,-0.6838258760981265
-0.40738505125045776,0.268730103969574,94.13920593261719,0.3846700322858907,-1.6507848520481236,-0.2319599330773903,-0.6838258760981265
0.9371980428695679,-0.37108224630355835,92.26848602294922,0.3846700322858907,-1.6507848520481236,-0.2319599330773903,-0.6838258760981265
0.2380719780921936,-0.2513713836669922,90.31700897216797,0.3846700322858907,-1.6507848520481236,-0.2319599330773903,-0.6838258760981265
-0.008694455027580261,-0.7834989428520203,88.3025131225586,0.3846700322858907,-1.6507848520481236,-0.2319599330773903,-0.6838258760981265
-0.20119619369506836,-0.8559275269508362,86.37388610839844,0.3846700322858907,-1.6507848520481236,-0.2319599330773903,-0.6838258760981265
-0.38136330246925354,-0.3116326928138733,84.35540008544922,0.3846700322858907,-1.6507848520481236,-0.2319599330773903,-0.6838258760981265
0.7830480337142944,0.20244470238685608,82.33426666259766,0.3846700322858907,-1.6507848520481236,-0.2319599330773903,-0.6838258760981265
0.16701041162014008,-0.1372968703508377,80.50707244873047,0.3846700322858907,-1.6507848520481236,-0.2319599330773903,-0.6838258760981265
-1.3063466548919678,-0.21218335628509521,78.97020721435547,0.3846700322858907,-1.6507848520481236,-0.2319599330773903,-0.6838258760981265
-1.233246922492981,-0.36443039774894714,77.79669952392578,0.3846700322858907,-1.6507848520481236,-0.2319599330773903,-0.6838258760981265
-1.1915571689605713,1.106427550315857,76.91556549072266,0.3846700322858907,-1.6507848520481236,-0.2319599330773903,-0.6838258760981265
-0.5747902393341064,0.34128719568252563,76.33358001708984,0.3846700322858907,-1.6507848520481236,-0.2319599330773903,-0.6838258760981265
-0.5905612111091614,1.2728784084320068,76.12838745117188,0.3846700322858907,-1.6507848520481236,-0.2319599330773903,-0.6838258760981265
-0.5207144021987915,1.5754107236862183,76.17768096923828,0.3846700322858907,-1.6507848520481236,-0.2319599330773903,-0.6838258760981265
0.735550045967102,1.3790298700332642,76.33455657958984,0.3846700322858907,-1.6507848520481236,-0.2319599330773903,-0.6838258760981265
0.6556637287139893,0.8657364845275879,76.43606567382812,0.3846700322858907,-1.6507848520481236,-0.2319599330773903,-0.6838258760981265
0.29389944672584534,0.1448267698287964,76.42952728271484,0.3846700322858907,-1.6507848520481236,-0.2319599330773903,-0.6838258760981265
-0.03219125047326088,0.2645144462585449,76.39131927490234,0.3846700322858907,-1.6507848520481236,-0.2319599330773903,-0.6838258760981265
0.30158644914627075,-0.3731943368911743,76.42394256591797,0.3846700322858907,-1.6507848520481236,-0.2319599330773903,-0.6838258760981265
-0.09232717752456665,-0.2575785517692566,76.42894744873047,0.3846700322858907,-1.6507848520481236,-0.2319599330773903,-0.6838258760981265
0.09311158955097198,-0.2913825809955597,76.41362762451172,0.3846700322858907,-1.6507848520481236,-0.2319599330773903,-0.6838258760981265
0.2180490791797638,-0.11702430993318558,76.41734313964844,0.3846700322858907,-1.6507848520481236,-0.2319599330773903,-0.6838258760981265
0.009806148707866669,0.14389505982398987,76.41715240478516,0.3846700322858907,-1.6507848520481236,-0.2319599330773903,-0.6838258760981265
0.27534234523773193,0.1270967423915863,76.40991973876953,0.3846700322858907,-1.6507848520481236,-0.2319599330773903,-0.6838258760981265
0.16911406815052032,0.2664952576160431,76.41696166992188,0.3846700322858907,-1.6507848520481236,-0.2319599330773903,-0.6838258760981265
0.14490137994289398,0.17368555068969727,76.41655731201172,0.3846700322858907,-1.6507848520481236,-0.2319599330773903,-0.6838258760981265
0.18718145787715912,0.04158303514122963,76.41651916503906,0.3846700322858907,-1.6507848520481236,-0.2319599330773903,-0.6838258760981265
0.1529853194952011,-0.014495277777314186,76.42132568359375,0.3846700322858907,-1.6507848520481236,-0.2319599330773903,-0.6838258760981265
0.12776748836040497,0.01156600657850504,76.41899871826172,0.3846700322858907,-1.6507848520481236,-0.2319599330773903,-0.6838258760981265
0.18307745456695557,0.04832067713141441,76.41885375976562,0.3846700322858907,-1.6507848520481236,-0.2319599330773903,-0.6838258760981265
0.1404060274362564,0.11239822208881378,76.41964721679688,0.3846700322858907,-1.6507848520481236,-0.2319599330773903,-0.6838258760981265
0.17715321481227875,0.09675382822751999,76.41895294189453,0.3846700322858907,-1.6507848520481236,-0.2319599330773903,-0.6838258760981265
0.1568368822336197,0.0693599209189415,76.41895294189453,0.3846700322858907,-1.6507848520481236,-0.2319599330773903,-0.6838258760981265
0.1397215574979782,0.0447353757917881,76.4193344116211,0.3846700322858907,-1.6507848520481236,-0.2319599330773903,-0.6838258760981265
0.15048421919345856,0.05459768325090408,76.419189453125,0.38082418658020445,-1.6621750518539922,-0.22954155160496165,-0.6829981006061041
0.15865689516067505,0.09049582481384277,76.4194107055664,0.37701996218639633,-1.6735482775927004,-0.22696537565201053,-0.6817889880388979
0.3977029025554657,1.3398034572601318,76.4116439819336,0.3732758420225931,-1.6848121010543158,-0.22232904400437603,-0.669869827354948
1.0544102191925049,2.883211612701416,76.47455596923828,0.3696711991448638,-1.6956833332414842,-0.21022810132314296,-0.6346780351052684
0.5075191259384155,2.6383469104766846,76.52153015136719,0.3662758647717788,-1.705877858929129,-0.19721202344705197,-0.5886650474121176
0.2992043197154999,1.1968799829483032,76.59442138671875,0.3630450201758317,-1.715422607851732,-0.19048932806660268,-0.5567048233002426
0.7621252536773682,1.6267703771591187,76.71147155761719,0.35994390148398503,-1.7245049347428398,-0.18164491495499546,-0.5331744036326808
0.13983814418315887,1.2622175216674805,76.70897674560547,0.35697912258180875,-1.7331905506437437,-0.17412855330615773,-0.5090995044757924
1.5445072650909424,1.5866624116897583,76.73594665527344,0.3541939484579057,-1.741477703500746,-0.1600923415622069,-0.4853588383644821
-0.5976890921592712,1.6935964822769165,76.70046997070312,0.3515914940272114,-1.7493392217169619,-0.15220219012110964,-0.4580233475814265
0.6015281081199646,1.8967217206954956,76.58885192871094,0.3515914940272114,-1.7493392217169619,-0.15220219012110964,-0.4580233475814265
0.7705740928649902,0.4811393618583679,76.59039306640625,0.34915007573359463,-1.7568078149348083,-0.1407680051129017,-0.4382078385601443
-0.45990803837776184,-0.050212036818265915,76.58614349365234,0.3468255163466079,-1.7640813534021274,-0.1381791213255081,-0.4346167775181434
1.3830161094665527,-0.07672753185033798,76.66838073730469,0.3445866357183417,-1.7713337816085872,-0.13048655406643486,-0.4356746072570485
0,-1.6606659889221191,76.85929107666016,0.34250790260261404,-1.7787156773907027,-0.11896141982088025,-0.45015288659681896
-0.4266590476036072,1.813045620918274,76.83890533447266,0.340495583171738,-1.786207643581761,-0.12251691188424364,-0.4488830563301843
0.6994571685791016,1.815362572669983,76.6947021484375,0.33847257895429056,-1.7934370550627095,-0.12024359420944786,-0.4186463213836155
0.3319009244441986,1.491138219833374,76.66676330566406,0.33654014114059305,-1.800184875641846,-0.11164894343425369,-0.3910921481127542
0.8199138641357422,0.27545231580734253,76.5143814086914,0.33475931255478464,-1.8065803982120834,-0.10205048686275418,-0.3763705603157482
-0.24091343581676483,1.1604399681091309,76.34777069091797,0.33309867947014976,-1.812753526142074,-0.09722548329342937,-0.36440479128311093
0.5372317433357239,1.0873197317123413,76.30046081542969,0.331498832408837,-1.8186708449065272,-0.09475616406410471,-0.34567346045126535
0.38441184163093567,0.21722497045993805,76.38661193847656,0.32998356603450235,-1.8243414758652863,-0.08707580085604921,-0.3348022545998297
0.9899833798408508,0.7399806976318359,76.5002212524414,0.32862774679950374,-1.8298550408261105,-0.07562250734378433,-0.32682554069906494
-0.08637196570634842,0.538087785243988,76.4904556274414,0.32743012246975556,-1.8352133784153397,-0.06809241222599681,-0.3161749700084331
-0.7446237802505493,0.3057991564273834,76.43096923828125,0.32623754089474194,-1.8404243579889754,-0.07501737677563762,-0.3091425788278383
0.42739957571029663,1.2799439430236816,76.45280456542969,0.324965221823166,-1.8454666132541997,-0.07766091181347307,-0.2959280529990794
1.0243191719055176,-0.3784247934818268,76.55341339111328,0.3237716870948592,-1.8503361419743551,-0.06556325558334128,-0.28841539341956396
0.11129036545753479,0.8635929226875305,76.6169662475586,0.3237716870948592,-1.8503361419743551,-0.06556325558334128,-0.28841539341956396
0.6736635565757751,0.8291282057762146,76.6864242553711,0.32273347685750026,-1.855025515119649,-0.059021972899730366,-0.27430938401569943
-0.4414849877357483,-0.7048520445823669,76.54559326171875,0.3217659008208964,-1.8595887078976057,-0.057087151492730144,-0.27327374933908405
0.5165582299232483,-2.563472032546997,76.31062316894531,0.32081966171561394,-1.864370237336391,-0.056461541141167644,-0.3005097833151621
-0.7409448027610779,-0.952344536781311,76.112060546875,0.3198630536290363,-1.8696228876534027,-0.05833142924814956,-0.3298082547262313
0.28667107224464417,0.3487839102745056,76.08673858642578,0.3188593163547257,-1.8751616058312361,-0.06211704366911984,-0.33483792661378803
0,1.3678427934646606,76.16818237304688,0.317843940006924,-1.8806230277537064,-0.059728118067081136,-0.3205327040826283
0,2.3328187465667725,76.16773986816406,0.31684847137247263,-1.8857082491036925,-0.059728118067081136,-0.2896938579156997
2.2073254585266113,-0.7032217979431152,76.16967010498047,0.31600628922819674,-1.8904233136141886,-0.04133373924602604,-0.27611388334383585
-0.0792597085237503,0.4466386139392853,76.21688079833984,0.3154651759178465,-1.8950430299465861,-0.0235998579960022,-0.27825207654386774
-0.3427092730998993,0.6292068958282471,76.34468841552734,0.3150425415497448,-1.8996058530619166,-0.027116266176199277,-0.26928669729580496
0.45700979232788086,-0.2657691240310669,76.39260864257812,0.31459854131619897,-1.9040687259493607,-0.02616376184929943,-0.26625804919749513
-0.32136955857276917,1.2178001403808594,76.402587890625,0.31417189807938806,-1.908440246837628,-0.025033426568006834,-0.2583244573945802
-0.412066251039505,0.7865831851959229,76.43035888671875,0.31370374126092043,-1.9126064611743727,-0.031145391648109116,-0.24162126301477369
0.6855810880661011,0.6066728234291077,76.40145874023438,0.31320364548602325,-1.9165367283351311,-0.02886610133955415,-0.23001079627623178
-0.3011498749256134,0.39259660243988037,76.30156707763672,0.31274924040905433,-1.9203008478962718,-0.025662507896716754,-0.22168355106065687
-0.7593225836753845,-0.5492410063743591,76.2398681640625,0.3122478880233729,-1.9240064518308893,-0.034499778385058404,-0.2229889210934442
2.150559902191162,-0.2299491912126541,76.23758697509766,0.31176950541962994,-1.9277770442795013,-0.02290613406409359,-0.22948217274000265
-0.7750164866447449,0.06861042976379395,76.34734344482422,0.3114832603668636,-1.9316129512391575,-0.011443272267873447,-0.23082666241874317
-0.14731396734714508,0.11626097559928894,76.36284637451172,0.31122848843642736,-1.9354472239874307,-0.01912935938447253,-0.2292860673740508
0.7841794490814209,1.040654182434082,76.20901489257812,0.3109538925495844,-1.939188317113246,-0.013822147036686896,-0.21964510772377271
0.6257578730583191,1.5480248928070068,76.12056732177734,0.31082143574634374,-1.9426692995284172,-0.0020726693521890636,-0.19807278209676366
0.6014301180839539,-0.33699923753738403,76.14288330078125,0.31087211264541437,-1.945886413559525,0.00815389724066321,-0.18798090163618347
0.5488561987876892,-0.4802551865577698,76.1845703125,0.31108789192698594,-1.949076182366246,0.0177396165479269,-0.19479135517030977
-0.7071627974510193,0.13820719718933105,76.21839904785156,0.31137255868898867,-1.9523464582850127,0.016420394892399152,-0.19764175508171342
-0.4230308532714844,0.34844470024108887,76.2374496459961,0.31137255868898867,-1.9523464582850127,0.016420394892399152,-0.19764175508171342
1.5435675382614136,-0.6662262678146362,76.20027160644531,0.3117240469847641,-1.9556625557007894,0.02575820060064856,-0.200289934811493
-0.5516997575759888,-0.6398432850837708,76.26998138427734,0.31222223003510025,-1.9590914205554877,0.034023765439693765,-0.21117384775231304
-0.17090484499931335,-2.0105197429656982,76.32354736328125,0.3127391119172496,-1.9627950376727519,0.028002060418232916,-0.23326020631939196
-0.9488316178321838,-1.0557751655578613,76.15589141845703,0.31312805344763467,-1.9668956449245003,0.01867092322797044,-0.2588126638904216
0.9963735938072205,-0.1569167822599411,76.01168060302734,0.31344253702754354,-1.9712934040412724,0.019067106361095744,-0.26891843012223665
0.3925110995769501,1.4086103439331055,75.87751770019531,0.3138567724594913,-1.9756884547126379,0.0306411454726305,-0.25848765044162697
0.21709150075912476,1.9275879859924316,75.88165283203125,0.3144097917312807,-1.9797649017804202,0.03572116714209779,-0.23068599769224749
0.17999884486198425,-0.3125177323818207,75.94474792480469,0.3150327202354282,-1.9834975107521235,0.03903025335560703,-0.21722707891215906
0.9244293570518494,-0.2949277460575104,75.92623138427734,0.31575992086093235,-1.9871601457811068,0.04823382170488898,-0.22228912456582015
-0.3865920305252075,0.11051705479621887,76.0179672241211,0.3166011677036893,-1.9908777708218748,0.05271579942594433,-0.2238258803263309
-0.7728505730628967,0.9608116745948792,76.11772155761719,0.31739924751331694,-1.994533804332217,0.043053777729376796,-0.21489814091473844
0,0.08840031176805496,76.17668151855469,0.3180631402967883,-1.998042578070632,0.03661335628718599,-0.20615470769504732
0.07934977859258652,0.5687999129295349,76.24313354492188,0.3186788733028659,-2.0014328509610566,0.03727460444212421,-0.20067803915590074
0.5810123085975647,0.21134383976459503,76.23933410644531,0.3193459751885117,-2.004723308297496,0.042777621835375465,-0.194176841216783
0.4305517375469208,0.3899039626121521,76.17568969726562,0.3201291830556391,-2.007917835664833,0.051207322219912844,-0.18916644286364342
-0.8301745057106018,-0.3486035466194153,76.15548706054688,0.32095488684484846,-2.0110677416281164,0.0478771324852155,-0.1888222727303706
0.45530176162719727,-0.08151044696569443,76.15898132324219,0.32172680622348515,-2.014244648534288,0.04475319295118713,-0.19240655601024653
1.9755640029907227,-0.37638944387435913,76.22166442871094,0.32264150289521454,-2.0174832230713227,0.06501040765633646,-0.19622238843391365
-1.2474987506866455,0.11359494924545288,76.27989196777344,0.3237755697764524,-2.0207718458295703,0.07107761809220377,-0.19841234255582121
0.17526383697986603,0.7859466671943665,76.15921020507812,0.32488573598675946,-2.0240162500376924,0.06214232714464727,-0.19091616241882273
0.7296926379203796,1.7300792932510376,76.0793228149414,0.3259842856388161,-2.0270234620529752,0.06968363110214931,-0.16994927941511104
1.2858026027679443,-0.9440608620643616,76.11810302734375,0.3272856444377886,-2.0298013654299503,0.086479424774552,-0.16339912582188873
0,-0.28611716628074646,76.0653305053711,0.3288162600314456,-2.0326101132233947,0.09719444646428488,-0.1736506093914313
-1.0651867389678955,-0.29515817761421204,76.12716674804688,0.3303621961711998,-2.035544656389911,0.08831789030621909,-0.17849457059055593
-0.7376430630683899,1.240917444229126,76.27250671386719,0.33170896449560644,-2.0384538881729055,0.07329430862258338,-0.170613243368765
1.3547273874282837,-0.5421218276023865,76.24584197998047,0.3329733893840634,-2.0412489147556747,0.07843667799224915,-0.16478994656354215
0.9612966179847717,0.0634443610906601,76.2744140625,0.3344415023509768,-2.044028655355797,0.09773687803735795,-0.16877892545113987
-0.5078619718551636,0.36885032057762146,76.29936218261719,0.33610193883535844,-2.046811616982645,0.10151550008843802,-0.16517646977057085
-0.19895601272583008,-0.4594517648220062,76.29190826416016,0.33774477925456986,-2.049570849912449,0.09562535021692974,-0.16593148180594072
-0.30245280265808105,0.5027816891670227,76.18343353271484,0.33774477925456986,-2.049570849912449,0.09562535021692974,-0.16593148180594072
0.3915884792804718,0,76.19171905517578,0.33934472506906194,-2.0523014592141338,0.09636814752211632,-0.16174163439621553
0.5483137965202332,-0.6861307621002197,76.28225708007812,0.34101613185247226,-2.0550448010903275,0.1042006664871222,-0.16745939074705068
0.432959645986557,0.4028700590133667,76.35755157470703,0.3428209536163206,-2.0578554618182703,0.11237794517467878,-0.1698198966061078
0.767232358455658,-0.8069993853569031,76.40931701660156,0.34477726603620706,-2.060713857964924,0.12237954521169724,-0.17318764099230394
-1.3754302263259888,-0.8128981590270996,76.48112487792969,0.34677468916002213,-2.0637128115331556,0.11731122964611114,-0.18668678719550397
-0.35704782605171204,-0.2190144956111908,76.52650451660156,0.3486095653449311,-2.0668959185874307,0.10287391254296363,-0.1952860593174897
-0.11215715855360031,0.5636837482452393,76.56851959228516,0.350291546874494,-2.070126750877956,0.09896387100458603,-0.1924138155455393
0.14658397436141968,0,76.54896545410156,0.3519433354756682,-2.0732945030989756,0.09925076113631787,-0.18771645097682896
-0.6861230134963989,0.4872925579547882,76.4327163696289,0.35356004683911135,-2.076389270854287,0.09475460247685971,-0.18365567966053906
0.10428522527217865,0.6468713283538818,76.41979217529297,0.35509888481176566,-2.0793714374676355,0.08990595424165787,-0.17420431394130015
1.346045732498169,-0.6529532670974731,76.41099548339844,0.3566980348100829,-2.0822752650568477,0.10199204555641077,-0.17425499676416342
1.0492180585861206,-0.7138615250587463,76.33184814453125,0.3585642399992928,-2.0852744326968167,0.12195257714877986,-0.1856451200321319
0.827925980091095,1.20499587059021,76.28357696533203,0.3607271401766806,-2.0883344114789124,0.13759544413775665,-0.18155233381936972
-1.6956835985183716,0,76.3137435913086,0.36296013663325244,-2.0912766034404444,0.1303641306508627,-0.1715107015644513
0,1.412686824798584,76.24285125732422,0.36501511633864747,-2.094037011881463,0.11623343399654293,-0.15973831135779645
1.8923784494400024,-0.5437516570091248,76.22804260253906,0.36708375540868987,-2.0966389743507743,0.13200325440854294,-0.15249718495955095
-0.07754958420991898,-0.7609879374504089,76.22040557861328,0.3694098394311399,-2.099271201016382,0.1471268282854603,-0.16337001491338038
-1.128006935119629,-0.07257439941167831,76.43339538574219,0.3717782340331664,-2.102051920871665,0.13708052395771408,-0.17031636772056444
-0.2879018783569336,0.2204350233078003,76.55341339111328,0.37396458243152575,-2.1048802589014595,0.1252812838454094,-0.16908419585476342
1.030758023262024,-0.4218166768550873,76.46420288085938,0.3761041910612343,-2.107712313669424,0.1314717517196185,-0.1707623763009908
0.9551659822463989,0.11048413813114166,76.44383239746094,0.3784332983124994,-2.11057997358963,0.14802111843218868,-0.17335681412369036
-0.46206873655319214,0.2651292681694031,76.48774719238281,0.3809345598173201,-2.113443169560698,0.15213026214629874,-0.17022670240451915
-0.5123356580734253,0.45023566484451294,76.47151184082031,0.38340239721457603,-2.116230603147092,0.14401022552441026,-0.16426532796273652
0.7644239664077759,0,76.3909683227539,0.3858200737725061,-2.1189370922475237,0.1461109614271965,-0.16051336408903225
0.16130660474300385,0.43561744689941406,76.39874267578125,0.3883195433081782,-2.1215820637707505,0.153825382853453,-0.1568832186982038
-0.16007143259048462,-0.2866511344909668,76.41815185546875,0.390883385464913,-2.124186439199581,0.153835675954724,-0.15564183276146673
0.6676161885261536,-0.9726086854934692,76.4142837524414,0.3934825595610984,-2.1268679183442156,0.15806521558752124,-0.16613566459467036
0.8707300424575806,-0.4027954638004303,76.43455505371094,0.3962238094202643,-2.1297323602644944,0.17088476751238568,-0.1775973658387862
-0.7388990521430969,0.5967559218406677,76.56951904296875,0.39908104380868703,-2.132678846885555,0.1719833590983397,-0.17598102868845086
-0.9356353282928467,0.36910319328308105,76.7052001953125,0.39908104380868703,-2.132678846885555,0.1719833590983397,-0.17598102868845086
0.4763891398906708,0.5516394972801208,76.748779296875,0.40191554103057586,-2.1355479235657397,0.16815630752832156,-0.16830817293375752
0.5325421094894409,0.8713222742080688,76.64396667480469,0.40478821082614375,-2.1382542429916156,0.1765640679398225,-0.15645015817135594
-0.9285305738449097,-1.333491563796997,76.60916137695312,0.4077034460928939,-2.1408938407173594,0.17326416407019357,-0.16030156891793035
-1.0280753374099731,-1.842626929283142,76.59171295166016,0.4104553067502266,-2.1437860973169,0.1569591148097362,-0.1867692230269315
0.4275805354118347,-1.4607888460159302,76.5556869506836,0.41302959096913905,-2.1471283215739665,0.15195499145975172,-0.21429768782109043
1.8426870107650757,-0.07222273200750351,76.51438903808594,0.4157198316286194,-2.1508064088416807,0.17087388767789263,-0.22707278430461905
-0.25729134678840637,1.0381920337677002,76.44676971435547,0.41867782667769377,-2.1545238740452466,0.18408551821103153,-0.21902304012328408
0.3041359484195709,0.8647153377532959,76.3848648071289,0.42174917174521315,-2.158042111702057,0.18447588989129124,-0.20316547869394244
0.38144832849502563,2.4893198013305664,76.36406707763672,0.4248713799292982,-2.161195283906742,0.1901890921989129,-0.17521518586824358
0.28825366497039795,-1.7094547748565674,76.26582336425781,0.42808770521549294,-2.1640613797110406,0.1957699421444581,-0.16871631064762693
-1.044469952583313,-0.09526555240154266,76.28437042236328,0.4312980225645941,-2.1669986460223383,0.18946813974768378,-0.18375564670811118
0.9890334010124207,0,76.50519561767578,0.4344519751331964,-2.1700678557975013,0.189006168484593,-0.18454952631145735
-0.33627763390541077,0.11061732470989227,76.6090087890625,0.4376474082028776,-2.173135999477365,0.1944457998771514,-0.18362771527220825
0.11292675137519836,-0.7163914442062378,76.51420593261719,0.44087266105621,-2.1762385290457558,0.19258454252273297,-0.1886758329346778
1.0892329216003418,0,76.40470123291016,0.4441658867422122,-2.1794328756671812,0.20260253979752912,-0.19464576163639644
-0.24966366589069366,0.4745439887046814,76.4543685913086,0.44760089915937307,-2.1826440172507944,0.2095989502617762,-0.19069122839719077
-0.43344971537590027,0.143435999751091,76.50146484375,0.4510467765678147,-2.1857792891137713,0.20390633875122124,-0.18554139516005932
0.569703221321106,-0.26906099915504456,76.421630859375,0.4544546775960257,-2.1888803696580643,0.20504178463409795,-0.18658827015509227
-0.1649617701768875,1.2521545886993408,76.33918762207031,0.45790014771847903,-2.1919219037724864,0.20841463006029975,-0.17839582357555647
0.2192832976579666,-0.9738041758537292,76.35669708251953,0.461377497214448,-2.1948758376089645,0.20886730945597543,-0.17607623680184303
0.6740264296531677,-0.48047730326652527,76.31866455078125,0.4649206544364442,-2.197911433325045,0.2163115571835682,-0.18819524912784516
0.40519797801971436,0,76.25788116455078,0.46860079319559206,-2.2010813872899027,0.22530509391417555,-0.1921992266550662
-0.6500289440155029,0.6320595741271973,76.41158294677734,0.4723388759437453,-2.204240814708173,0.22326483586421064,-0.18693206353733954
-0.8367716670036316,0.41112497448921204,76.6429214477539,0.4723388759437453,-2.204240814708173,0.22326483586421064,-0.18693206353733954
-11.039371490478516,-12.747490882873535,76.67964935302734,0.4723388759437453,-2.204240814708173,0.22326483586421064,-0.18693206353733954
-4.319080352783203,-7.169672012329102,76.03490447998047,0.4723388759437453,-2.204240814708173,0.22326483586421064,-0.18693206353733954
5.845720291137695,2.267775297164917,75.2948989868164,0.4723388759437453,-2.204240814708173,0.22326483586421064,-0.18693206353733954
0.33292654156684875,3.854861259460449,74.58155822753906,0.4723388759437453,-2.204240814708173,0.22326483586421064,-0.18693206353733954
7.221206188201904,0.7572849988937378,74.33467864990234,0.4723388759437453,-2.204240814708173,0.22326483586421064,-0.18693206353733954
-1.4222592115402222,1.5937224626541138,74.3289794921875,0.4723388759437453,-2.204240814708173,0.22326483586421064,-0.18693206353733954
1.2989850044250488,-1.337023377418518,74.50064849853516,0.4723388759437453,-2.204240814708173,0.22326483586421064,-0.18693206353733954
-0.3206663131713867,-4.985673427581787,74.47198486328125,0.4723388759437453,-2.204240814708173,0.22326483586421064,-0.18693206353733954
-0.2665363848209381,0.3673812448978424,74.38017272949219,0.4723388759437453,-2.204240814708173,0.22326483586421064,-0.18693206353733954
-0.6959362626075745,-0.0376262404024601,74.475830078125,0.4723388759437453,-2.204240814708173,0.22326483586421064,-0.18693206353733954
0.6340447068214417,0.8674556612968445,74.49812316894531,0.4723388759437453,-2.204240814708173,0.22326483586421064,-0.18693206353733954
0.2162984162569046,0.3774835169315338,74.43464660644531,0.4723388759437453,-2.204240814708173,0.22326483586421064,-0.18693206353733954
0.3349279761314392,0.11348769068717957,74.48540496826172,0.4723388759437453,-2.204240814708173,0.22326483586421064,-0.18693206353733954
-0.12587034702301025,0.021542804315686226,74.49362182617188,0.4723388759437453,-2.204240814708173,0.22326483586421064,-0.18693206353733954
-0.028151223435997963,-0.7823517918586731,74.46784210205078,0.4723388759437453,-2.204240814708173,0.22326483586421064,-0.18693206353733954
0.3661232590675354,-0.07794792205095291,74.47664642333984,0.4723388759437453,-2.204240814708173,0.22326483586421064,-0.18693206353733954
-0.2564375102519989,0.02415359579026699,74.49766540527344,0.4723388759437453,-2.204240814708173,0.22326483586421064,-0.18693206353733954
0.2749811112880707,0.2512647211551666,74.4796371459961,0.4723388759437453,-2.204240814708173,0.22326483586421064,-0.18693206353733954
0.12828491628170013,-0.06427150219678879,74.48491668701172,0.4723388759437453,-2.204240814708173,0.22326483586421064,-0.18693206353733954
0.10451364517211914,-0.10971410572528839,74.48995208740234,0.4723388759437453,-2.204240814708173,0.22326483586421064,-0.18693206353733954
0.1166982501745224,-0.03623931482434273,74.48233032226562,0.4723388759437453,-2.204240814708173,0.22326483586421064,-0.18693206353733954
0.14595772325992584,0.10140565782785416,74.48855590820312,0.4723388759437453,-2.204240814708173,0.22326483586421064,-0.18693206353733954
0.020327849313616753,-0.05861162021756172,74.48702239990234,0.4723388759437453,-2.204240814708173,0.22326483586421064,-0.18693206353733954
0.16235078871250153,-0.07244788855314255,74.48558044433594,0.4723388759437453,-2.204240814708173,0.22326483586421064,-0.18693206353733954
0.1429510861635208,0.027689950540661812,74.48921966552734,0.4723388759437453,-2.204240814708173,0.22326483586421064,-0.18693206353733954
0.10294926911592484,0.009923441335558891,74.48825073242188,0.4723388759437453,-2.204240814708173,0.22326483586421064,-0.18693206353733954
0.1273115575313568,-0.031935129314661026,74.48641204833984,0.4723388759437453,-2.204240814708173,0.22326483586421064,-0.18693206353733954
