faccX,faccY,yaw,posX,posY,velX,velY
0,0,-123.98786163330078,0.0,0.0,0.0,0.0
0,0,-123.99131774902344,0.0,0.0,0.0,0.0
0,0,-123.99571990966797,0.0,0.0,0.0,0.0
0,0,-123.99684143066406,0.0,0.0,0.0,0.0
0,0,-123.99715423583984,0.0,0.0,0.0,0.0
0,0,-124.00090789794922,0.0,0.0,0.0,0.0
0,0,-124.00252532958984,0.0,0.0,0.0,0.0
0,0,-124.00396728515625,0.0,0.0,0.0,0.0
0,0,-124.00621032714844,0.0,0.0,0.0,0.0
0,0,-124.01099395751953,0.0,0.0,0.0,0.0
0,0,-124.01664733886719,0.0,0.0,0.0,0.0
0,0,-124.0176010131836,0.0,0.0,0.0,0.0
0,0,-124.02098846435547,0.0,0.0,0.0,0.0
0,0,-124.02326965332031,0.0,0.0,0.0,0.0
0,0,-124.02459716796875,0.0,0.0,0.0,0.0
0,0,-124.0256118774414,0.0,0.0,0.0,0.0
0,0,-124.02845001220703,0.0,0.0,0.0,0.0
0,0,-124.03135681152344,0.0,0.0,0.0,0.0
0,0,-124.0335464477539,0.0,0.0,0.0,0.0
0,0,-124.03643798828125,0.0,0.0,0.0,0.0
0,0,-124.03878021240234,0.0,0.0,0.0,0.0
0,0,-124.04264068603516,0.0,0.0,0.0,0.0
0,0,-124.04474639892578,0.0,0.0,0.0,0.0
0,0,-124.04144287109375,0.0,0.0,0.0,0.0
0,0,-124.04263305664062,0.0,0.0,0.0,0.0
0,0,-124.04419708251953,0.0,0.0,0.0,0.0
0,0,-124.04716491699219,0.0,0.0,0.0,0.0
0,0,-124.04830932617188,0.0,0.0,0.0,0.0
0,0,-124.05084991455078,0.0,0.0,0.0,0.0
0,0,-124.0493392944336,0.0,0.0,0.0,0.0
0,0,-124.05155181884766,0.0,0.0,0.0,0.0
0,0,-124.05274963378906,0.0,0.0,0.0,0.0
0,-0.35935673117637634,-123.89044952392578,0.0,-2.4955328553915025e-05,0.0,-0.002994639426469803
-0.23499557375907898,0.07784420251846313,-123.44184875488281,-1.6319137066602704e-05,-9.441546681854459e-05,-0.0019582964479923247,-0.005340577165285746
-0.679339587688446,0,-123.23246002197266,-0.0001124529085225529,-0.00017801923884285822,-0.009577756126721699,-0.004691875477631887
-0.4388294219970703,0.18461833894252777,-123.36616516113281,-0.00034973280297385316,-0.00024339644548793636,-0.018895831207434335,-0.0031533893197774887
0.8128042817115784,0.1273520588874817,-123.53592681884766,-0.0006386928467286957,-0.0002742883231904772,-0.01577937404314677,-0.0005536360045274098
-0.6836382150650024,-0.16506493091583252,-123.90518188476562,-0.0008927125483751296,-0.0002861345393790139,-0.014702990154425303,-0.0008679099380970001
0.29521888494491577,0,-124.09175109863281,-0.0011647359488738906,-0.0003120625474386745,-0.017939817905426026,-0.0022434510290622713
-1.6204673051834106,-1.0760829448699951,-125.03353881835938,-0.0015557640542586642,-0.00042418138020568425,-0.028983554740746816,-0.011210808902978896
0.6883484721183777,-0.7689310312271118,-125.14212799072266,-0.002103553774456183,-0.0007391541658176317,-0.03675121168295542,-0.026585925370454788
-0.2628664970397949,0,-125.03709411621094,-0.0026865266097916493,-0.0012356509102715387,-0.033205528557300565,-0.03299368396401405
0.06695819646120071,-0.11408833414316177,-124.9198989868164,-0.0032535568288423944,-0.0017934684439872704,-0.03483809772878885,-0.03394442008187373
-0.5682804584503174,-0.5053316354751587,-124.83184814453125,-0.0038690058369603413,-0.002402224054353105,-0.03901578324536482,-0.0391062531620264
0.19016127288341522,0.10747615993022919,-124.73473358154297,-0.004545527167825234,-0.003081623792855276,-0.04216677645842234,-0.042421715458234144
-0.1104607880115509,-0.6771568059921265,-124.56388092041016,-0.005242772019571728,-0.0038282135398023656,-0.0415026057511568,-0.04716905417541662
-0.562849760055542,-1.368208885192871,-124.46733093261719,-0.005981239792373445,-0.0047564037268360455,-0.04711352698504924,-0.06421376826862493
-0.27104392647743225,-0.2988317012786865,-124.43850708007812,-0.0068243745259112774,-0.005942399905373653,-0.05406264103949069,-0.07810577315588792
-0.36935505270957947,-0.38386040925979614,-124.52924346923828,-0.0077698906945685535,-0.007291571965648069,-0.05939929919938246,-0.08379487407704193
-0.34481099247932434,-0.6541730165481567,-124.73854064941406,-0.00880947387880749,-0.008760238854835432,-0.06535068290928998,-0.09244515262544153
-0.6210392117500305,-0.9710944890975952,-124.97628784179688,-0.009965724858144918,-0.010413857197595968,-0.07339943461120127,-0.1059890485058228
-0.5250094532966614,-0.6659263372421265,-125.0888900756836,-0.01126863548118207,-0.012294023341188828,-0.08294984015325704,-0.11963088872532049
-0.4321097135543823,-0.6234588027000427,-125.09562683105469,-0.012717599425878788,-0.014377412121329043,-0.09092583321034907,-0.13037576489150524
0,-0.28380709886550903,-125.16340637207031,-0.014263037598381439,-0.01661334611268507,-0.09452674748996892,-0.13793631407121817
0,-0.1525408923625946,-125.24386596679688,-0.01583848338988092,-0.01894258662437399,-0.09452674748996892,-0.14157254733145236
-0.25370824337005615,-0.22988583147525787,-125.39717864990234,-0.01743154780939221,-0.021328686491275825,-0.09664098285138606,-0.1447594366967678
0.07338950783014297,-0.09998856484889984,-125.5615005493164,-0.019054752991327806,-0.023764251713744466,-0.09814363898088534,-0.1475083899994691
-0.05917318910360336,0,-125.71666717529297,-0.020689493063319884,-0.026229668530739013,-0.09802516965816417,-0.1483416280398766
-0.23639623820781708,0,-125.82431030273438,-0.02234377154563036,-0.02870202899807029,-0.10048824821909268,-0.1483416280398766
-0.13405801355838776,0,-125.82840728759766,-0.024044301672321224,-0.031174389465401568,-0.10357536698381105,-0.1483416280398766
0,-0.09520157426595688,-125.80510711669922,-0.02577986737299296,-0.03365336115316798,-0.10469251709679761,-0.14913497449209293
0,-0.23672771453857422,-125.77908325195312,-0.027524742657939586,-0.03616199470642539,-0.10469251709679761,-0.15190105189879735
-0.15077334642410278,-0.30876514315605164,-125.76750946044922,-0.029280088314165665,-0.0387315603531897,-0.1059489616503318,-0.15644682571291924
0.22736728191375732,0.07304637879133224,-125.8310775756836,-0.031040585318373302,-0.04135537680704146,-0.10531067885458467,-0.1584111487492919
0.09195301681756973,0.15309357643127441,-125.94692993164062,-0.03277358827853782,-0.043979858455972534,-0.10264967636515694,-0.15652664912243686
-0.08967829495668411,-0.16919785737991333,-126.067626953125,-0.03448425825116121,-0.046589754294190135,-0.10263072034964957,-0.1566608514636755
-0.21811991930007935,-0.25889843702316284,-126.04576110839844,-0.03621614513297875,-0.04923049739458494,-0.10519570546845593,-0.16022832058370115
0,0,-125.83104705810547,-0.03798455410740441,-0.0519189484624399,-0.10701337146262326,-0.16238580755889417
0.40438517928123474,0.2506342828273773,-125.59917449951172,-0.03974002799433138,-0.054607973429891786,-0.10364349496861297,-0.1602971885353327
0,-0.11888393014669418,-125.31576538085938,-0.041439337273024845,-0.057270443908766726,-0.10027361847460269,-0.15919926892966035
0.1379644274711609,0,-125.20997619628906,-0.04310098338458273,-0.059932020886076805,-0.09912391491234301,-0.16018996834754948
0.27531251311302185,0.3671056032180786,-125.22523498535156,-0.04472434884558121,-0.06257636024720137,-0.09567994040747482,-0.1571307549873988
0.13590401411056519,-0.06118384376168251,-125.18439483642578,-0.04629045781575971,-0.0651739615970291,-0.09225313601394493,-0.15458140699192885
-0.0639788806438446,-0.24606096744537354,-125.18165588378906,-0.047823015281723606,-0.06777165482545063,-0.09165375990172225,-0.15714178041865431
0,0,-125.23485565185547,-0.0493550209245748,-0.07040777206627857,-0.09218691724042095,-0.1591922884806991
-0.3648451566696167,-0.24060924351215363,-125.27391815185547,-0.05091680601446165,-0.07307768584953413,-0.0952272935460011,-0.16119736550996705
-0.16607420146465302,0,-125.24030303955078,-0.0525407969734321,-0.07578101758327747,-0.09965162153045334,-0.163202442539235
0.06772872805595398,0,-125.12813568115234,-0.05420848687903748,-0.07850105829226472,-0.10047116714219251,-0.163202442539235
-0.21693621575832367,0,-125.2149887084961,-0.055893367962497796,-0.08122109900125198,-0.10171456287304559,-0.163202442539235
0.11253301799297333,0.09716338664293289,-125.49095916748047,-0.05759586089911559,-0.08393439225283347,-0.10258458952109017,-0.16239274765054387
0.0826471596956253,0.3961520791053772,-125.7640151977539,-0.05759586089911559,-0.08393439225283347,-0.10258458952109017,-0.16239274765054387
0.2316257357597351,0.15157215297222137,-125.97032928466797,-0.05928377955117158,-0.08660290164200382,-0.09996564872562884,-0.15782837904989722
-0.08157586306333542,-0.17440496385097504,-126.12754821777344,-0.06093945356655037,-0.08923496023803536,-0.09871523311982551,-0.15801865247388683
-0.29411637783050537,0,-126.31108856201172,-0.06261079719083175,-0.09188071590175645,-0.10184600179394085,-0.15947202717264494
0,0.05614284798502922,-126.4991226196289,-0.06432865530252455,-0.09453468421241268,-0.10429697160919506,-0.15900417010610304
0,0,-126.73320770263672,-0.0660669381626778,-0.09718085490529321,-0.10429697160919506,-0.15853631303956114
0.31416055560112,0.3464009165763855,-126.95319366455078,-0.06778340431758097,-0.0997990711700792,-0.10167896697918573,-0.15564963873475793
0.3751524090766907,0.2258528172969818,-127.05724334716797,-0.06943018481135366,-0.10235349197302841,-0.0959346922735373,-0.15088085761914655
0,0.1901874989271164,-127.14762115478516,-0.07100304409861562,-0.10483928124472085,-0.09280842219789821,-0.14741385498394574
-0.12154409289360046,0,-127.31927490234375,-0.07255829169725375,-0.10728297136258334,-0.09382128963867822,-0.1458289591595531
0.1616630107164383,0.17415393888950348,-127.47724151611328,-0.07411919382193848,-0.10970135999170857,-0.09348696532348791,-0.1443776763354739
0.41559845209121704,0.35509565472602844,-127.5106430053711,-0.0756372223090794,-0.11207090115329872,-0.08867645313342412,-0.1399672630553445
0.22738753259181976,0.17828352749347687,-127.46707153320312,-0.07707051139014459,-0.11436664864990033,-0.08331823659439881,-0.13552243653684862
0.15152738988399506,0.23283149302005768,-127.4523696899414,-0.07843283513043486,-0.11659680627131215,-0.08016061224043369,-0.13209647803256916
0,0.33504053950309753,-127.48394012451172,-0.07975832259903348,-0.11875897868070753,-0.0788978839914004,-0.1273642110948762
0,0.1343405693769455,-127.49040222167969,-0.08107328733222349,-0.12084911962194991,-0.0788978839914004,-0.12345270185420917
0.16204200685024261,0.21630308032035828,-127.50602722167969,-0.08237699914827112,-0.1228823143994022,-0.07754753393431504,-0.12053067144006498
0.14544624090194702,0.40758147835731506,-127.55721282958984,-0.08364810469663803,-0.12484783360682844,-0.07498513186971346,-0.11533163345108437
0.2181282341480255,0.323320597410202,-127.64071655273438,-0.08487260866703256,-0.12671927040908487,-0.07195534457763036,-0.1092407828196884
-0.0682876780629158,0,-127.734375,-0.08606145881582049,-0.12851749730348175,-0.07070667327692112,-0.10654644450793671
0.1194717139005661,0.07668367028236389,-127.82914733886719,-0.08723634892350267,-0.13028794612373332,-0.0702801396449407,-0.10590741392225035
0.3203398883342743,0.46070724725723267,-128.04286193847656,-0.08837714211187427,-0.13201575087538614,-0.06661504295965037,-0.10142915627608705
0.3336028754711151,0.6008788347244263,-128.4297332763672,-0.08944198013593752,-0.13363251555762776,-0.0611655199279388,-0.09258260559290656
0.21164552867412567,0.549071729183197,-129.01162719726562,-0.09042354099555974,-0.13509570130612705,-0.05662178322672846,-0.08299968422700969
0.16827049851417542,0.6700111627578735,-129.97955322265625,-0.09134085432522825,-0.13639437084241465,-0.05345581633349261,-0.07284066012750078
0.26693961024284363,0.19388063251972198,-131.32211303710938,-0.09220156167323389,-0.1375483893587565,-0.04982906542718412,-0.06564156183352081
0.512241780757904,0.18303647637367249,-132.81951904296875,-0.09297793627820079,-0.13861624059008645,-0.04333588716884455,-0.06250058592607585
0.08848661929368973,0.4278390407562256,-134.32711791992188,-0.09365848381434462,-0.1396154951112759,-0.038329817168414604,-0.057409956616660034
0,0.26753345131874084,-135.86293029785156,-0.09429116919636725,-0.14052403796515947,-0.03759242867430052,-0.051615185849368646
-0.4307045340538025,-0.22383169829845428,-137.32913208007812,-0.09494761971135933,-0.14138125621868922,-0.04118163312474887,-0.05125100457419959
-0.0921115055680275,-0.07379552721977234,-138.6715850830078,-0.09567028693285666,-0.14225610818558687,-0.04553843345493079,-0.05373123145351815
0.07167304307222366,-0.40044185519218445,-139.86122131347656,-0.09643068016144549,-0.14318456186136855,-0.045708753975729155,-0.05768320964028446
0.4740394055843353,-0.3702210485935211,-140.216552734375,-0.09715459602988427,-0.14419946694591396,-0.041161150236924494,-0.06410540050516533
-0.07376198470592499,-0.15171264111995697,-140.03199768066406,-0.09781281815738313,-0.1453041356827857,-0.03782550506293774,-0.06845484791944431
0,-0.15013787150382996,-139.9754180908203,-0.09844836560181444,-0.14646601165593087,-0.03844018826882045,-0.07097026885797587
0.3817969560623169,0.5080515146255493,-140.0959014892578,-0.09906252172879046,-0.1476239943561248,-0.03525854696830114,-0.06798765516529488
0.16251632571220398,0.7359077334403992,-140.4506072998047,-0.09961236464480558,-0.14867073588331958,-0.030722602953513468,-0.05762132809807864
0.058258406817913055,0.6466832160949707,-141.06678771972656,-0.10010907644871621,-0.1495350780912365,-0.028882813515762492,-0.04609973685195056
-0.1327354460954666,0.4786118268966675,-142.0084991455078,-0.1005956286905954,-0.15022526154967236,-0.029503455509742104,-0.036722278160353575
0,0.22799570858478546,-143.3655548095703,-0.10109657068840329,-0.15078822955126983,-0.030609584227204327,-0.030833882031341468
0.30050787329673767,-0.12530659139156342,-144.4034423828125,-0.10158586182321108,-0.15129499639643154,-0.028105351949731513,-0.029978139388064616
0,-0.0718240961432457,-145.22598266601562,-0.10203341575339434,-0.1518083216839781,-0.0256011196722587,-0.03162089511752136
-0.12714125216007233,0.22368142008781433,-146.2003631591797,-0.10246893033488753,-0.1523247909551073,-0.02666063010692597,-0.030355417417983286
-0.09229477494955063,0.418653666973114,-147.3997802734375,-0.1029285127829967,-0.1527861079754722,-0.028489263666172826,-0.025002625025808883
0,0.3511595129966736,-148.8158416748047,-0.10340974320347107,-0.15314935914396,-0.029258386790752416,-0.01858751519272732
0.10121037811040878,0,-150.32266235351562,-0.10389035448483705,-0.15343476498654735,-0.028414966973165676,-0.01566118591775504
0.34789007902145386,0.06945814192295074,-151.74481201171875,-0.10433274973597788,-0.15369096126976528,-0.024672463163733487,-0.015082368068397117
0,-0.08512294292449951,-153.1314239501953,-0.10471979842210806,-0.15394342190430813,-0.021773379171888037,-0.015212908076743357
-0.1958034783601761,-0.1929057389497757,-154.60520935058594,-0.10509628553874788,-0.15421627791960624,-0.023405074824889505,-0.017529813759028984
0.0633201077580452,0.06158622354269028,-156.17041015625,-0.1054955703532323,-0.15451756089304888,-0.024509102913240596,-0.01862414305408803
0.17252162098884583,0.3996872305870056,-157.76052856445312,-0.10588767750395667,-0.15479593039852468,-0.02254375517368317,-0.01478019760300723
0.5501002669334412,0.492702841758728,-159.54368591308594,-0.10621322468130123,-0.1549802954924397,-0.016521906107664113,-0.007343613666792782
0.2651764154434204,0.5830701589584351,-161.60888671875,-0.10643197334681946,-0.15502798259516976,-0.009727933754523601,0.0016211613391835774
-0.4026038944721222,0,-163.9032745361328,-0.10660364915099407,-0.1549604722562557,-0.010873162746429448,0.00648007933050387
-0.3586849868297577,-0.4535687565803528,-166.14430236816406,-0.10683773581352497,-0.15488396876439872,-0.017217236757278445,0.0027003396923342632
-0.20185346901416779,-0.4830862581729889,-167.8064422607422,-0.10716361604113545,-0.15490400858999548,-0.021888390555977823,-0.005105118763943584
0,0,-169.2496337890625,-0.10754244015241661,-0.15502264155954545,-0.023570502797762554,-0.009130837582051826
0.5788139700889587,0.5858728885650635,-170.70265197753906,-0.10789508645112314,-0.15513413656865152,-0.01874705304702123,-0.004248563510676298
0.051915090531110764,0.22196468710899353,-172.3587188720703,-0.10816373670603044,-0.1551488461288521,-0.013490977541853985,0.0024834162866075107
0,0.3519621193408966,-174.08425903320312,-0.10838498111710779,-0.15506759982918294,-0.013058351787428061,0.007266139673689928
-0.29093796014785767,-0.32552534341812134,-175.76666259765625,-0.10862282433857519,-0.15494466161407125,-0.015482834788660207,0.007486446139713055
-0.31197670102119446,-0.5067813396453857,-177.2967529296875,-0.10892274065874516,-0.15487768658695544,-0.02050712363173564,0.0005505571141838301
0.2536626160144806,0.05217624455690384,-178.6427001953125,-0.109268575641844,-0.1549000804333224,-0.020993074340124925,-0.0032378186782201857
0.4400942325592041,0.38775208592414856,-179.88519287109375,-0.10957028265525069,-0.15492349349945378,-0.015211767268677553,0.00042825074245525074
-0.16554243862628937,-0.14843645691871643,178.76365661621094,-0.10980474601292775,-0.15489973684617636,-0.01292383565256993,0.002422547650833852
0.24522361159324646,0.4750509262084961,177.22068786621094,-0.11001460985901454,-0.15483667949162846,-0.012259825877845288,0.005144334894915349
0,0.301418662071228,175.52943420410156,-0.1102019108728402,-0.15469701907752711,-0.0102162957812349,0.011614914797246384
0.10327591001987457,0,173.8138885498047,-0.11036501053099829,-0.15448250531270696,-0.009355663197735946,0.014126736981173284
-0.5402474999427795,-0.24487003684043884,172.42581176757812,-0.11055128350026075,-0.15426406456002356,-0.012997093113760154,0.012086153340836294
0.24179551005363464,0,171.42388916015625,-0.1107886275514546,-0.1540796335346791,-0.015484193029503029,0.010045569700499303
0,0.23352494835853577,170.45370483398438,-0.11102990608041483,-0.15389599036270143,-0.01346923044572274,0.011991610936820435
0.35156431794166565,0.44972091913223267,169.54359436035156,-0.11122997906576426,-0.15364868255073424,-0.01053952779620886,0.017685326499243505
0.2604590952396393,0.31266120076179504,168.4186248779297,-0.11136313623645237,-0.15330098390630978,-0.005439332686364652,0.024038510831693737
-0.18360759317874908,-0.3307301998138428,167.42074584960938,-0.11144845487135978,-0.15290159685071572,-0.0047989035025239,0.02388793583959334
-0.1626877337694168,-0.3352932631969452,166.50302124023438,-0.11155248488299546,-0.15254971621609825,-0.0076846978937586165,0.01833774031450344
0.6240283250808716,0.7878459692001343,165.68507385253906,-0.11164852564016148,-0.1522126599396063,-0.00384019296616316,0.022109012864530014
-0.21367061138153076,0.17024768888950348,164.74794006347656,-0.11168403179281286,-0.15177764211005237,-0.0004205453520019866,0.030093126681943663
-0.07707250118255615,0.11118821799755096,163.7062530517578,-0.11171123137594095,-0.15125654583848616,-0.0028434046233693777,0.03243842590600245
0.08654137700796127,0,162.63018798828125,-0.1117579638921759,-0.15070818400269184,-0.002764497324824335,0.033364994389315374
-0.3323912024497986,-0.3924929201602936,161.71160888671875,-0.11182111175213422,-0.15017935721565884,-0.0048132458701729795,0.03009422005464626
0,0.23051446676254272,160.8240509033203,-0.11192441523902945,-0.1496890353851229,-0.007583172557254634,0.028744399609665003
0.13911226391792297,0.19226162135601044,159.88046264648438,-0.11204114087443384,-0.14918060260773136,-0.006423903691271942,0.03226753367731961
0.16803748905658722,0.20225486159324646,158.93206787109375,-0.11212687609199848,-0.14861541340179343,-0.0038643224164843573,0.035555171035230086
0.12165717780590057,0,157.8743896484375,-0.11217116378040777,-0.1480087817413734,-0.0014502001926302924,0.03724062821517381
0,0,156.96499633789062,-0.11218688536849286,-0.14738810460445384,-0.0004363903775811209,0.03724062821517381
-0.11188358813524246,0.07398230582475662,156.2128143310547,-0.11220192823507305,-0.14676228980740755,-0.0013687536120414747,0.037857147430380114
-0.28794237971305847,-0.1473238319158554,155.4683380126953,-0.11225250648748543,-0.14613643051176864,-0.004700636677443982,0.037245968046287624
-0.09925258904695511,0,154.63140869140625,-0.11235773897160672,-0.14552589519932466,-0.007927261417110762,0.036018269446988826
0.2539144456386566,0.22029565274715424,153.83238220214844,-0.11247911958851747,-0.14491029239932296,-0.006638412612179916,0.03785406655321511
-0.08536840975284576,0,153.107666015625,-0.11257805521289507,-0.14426409298088416,-0.005233862313131492,0.039689863659441396
0,0.39118653535842896,152.40782165527344,-0.11267121461323566,-0.14357542952160468,-0.0059452657277385395,0.04294975145409497
0,0.5451312065124512,151.63192749023438,-0.11277030237536463,-0.1427945782652954,-0.0059452657277385395,0.050752399303018975
0,0.2693367004394531,150.86524963378906,-0.1128693901374936,-0.14189214467226233,-0.0059452657277385395,0.05753963186095151
-0.07129520177841187,-0.29071542620658875,150.0494842529297,-0.11297342895530163,-0.14093463544164697,-0.006539392409225305,0.05736147581289205
0,-0.2431720644235611,149.24838256835938,-0.11308736988446777,-0.1400156863649481,-0.007133519090712071,0.05291241339097413
0.09767352789640427,0.11048709601163864,148.60565185546875,-0.11319947898543127,-0.13914302704234935,-0.006319573024908702,0.05180670532087478
0.1023683249950409,0.242803692817688,148.07003784179688,-0.1132909134071734,-0.1382550478711105,-0.004652557584146659,0.05475079522778584
0.19557830691337585,0.23457162082195282,147.65802001953125,-0.11334776529524887,-0.13730938355386688,-0.0021696689849098525,0.05872892284144951
0,0.2354188710451126,147.2665557861328,-0.11337034461812838,-0.13629792994457418,-0.0005398497606317204,0.06264551027367506
0.16659604012966156,0.3138321042060852,146.906982421875,-0.11336777294468546,-0.1352156956778427,0.0008484505737821259,0.0672226017341017
0.07073181867599487,0.20141719281673431,146.6616973876953,-0.11333715100048314,-0.1340595377810922,0.0028261827304959294,0.07151634587595854
0.09826673567295074,0.1893712282180786,146.4535369873047,-0.1132783119442562,-0.13284046059836546,0.004234504016737143,0.07477291605124864
0.14411266148090363,0.305817574262619,146.2515106201172,-0.11319090497473044,-0.13155985721956126,0.006254332326352596,0.07889948940525446
0.37811967730522156,0.423945814371109,145.90911865234375,-0.11305039996798665,-0.13019418771637412,0.01060626848290364,0.08498085097720219
0.40409108996391296,0.6123172044754028,145.44195556640625,-0.11281930863443344,-0.1287058774904453,0.01712469154347976,0.09361637613425645
0.18717458844184875,0.3594088852405548,144.86376953125,-0.11249283699215283,-0.12707812357642184,0.02205190553019444,0.1017140935485561
0.3962482810020447,0.4653177261352539,144.3494415283203,-0.11208478975627154,-0.12532561600260037,0.02691376277556022,0.10858681531002116
0.2808792293071747,0.5472844839096069,144.00613403320312,-0.11158920429957406,-0.12344551614951356,0.03255649202813705,0.11702516706039501
0.6323691606521606,0.7864809632301331,143.73687744140625,-0.1109831760720246,-0.12140247409801116,0.040166895277798174,0.12813987911989283
0.5535440444946289,0.6659432649612427,143.6121063232422,-0.11023137273370388,-0.11916594665238855,0.05004950532068809,0.14024341435482096
0.3954884111881256,0.5376055836677551,143.5517578125,-0.10933130928004778,-0.11674497663198674,0.057958109118044374,0.15027298809339595
0.10504474490880966,0.17438936233520508,143.56634521484375,-0.10833058154779586,-0.11419098273695771,0.0621292187521855,0.1562062793100873
0.0822039321064949,0.15949909389019012,143.58868408203125,-0.10728209118824449,-0.11156435805010727,0.06368962439397971,0.1589886831119656
0.10311146825551987,0.15838253498077393,143.64854431152344,-0.10620772832331968,-0.1088924715517918,0.0652339193969965,0.1616376966858903
0.11028739809989929,0.14685367047786713,143.71517944335938,-0.10510567696765061,-0.10617731298164788,0.06701224328329167,0.16418133173137897
0.09198934584856033,0.13273438811302185,143.8158416748047,-0.10397475925015488,-0.10342154161538943,0.0686978828161955,0.16651123221963637
-0.11633699387311935,0,143.98741149902344,-0.10283148534544222,-0.10063713674588763,0.06849498574932418,0.1676173521205782
0.2913239300251007,0.3852172791957855,144.23202514648438,-0.10167775037905404,-0.09781676301060051,0.06995321021725735,0.17082749611387643
0.11538472026586533,0.15637806057929993,144.3018798828125,-0.10048361988582954,-0.09493202728788486,0.07334244896968208,0.17534079061200214
0.09490682929754257,0.16069568693637848,144.29966735839844,-0.09924664215650406,-0.09198766176744068,0.07509487854937714,0.17798307184129947
0.09960029274225235,0.14899130165576935,144.29733276367188,-0.09798155340831723,-0.0889997711958779,0.0767157712330421,0.18056379674623405
0.1060962900519371,0.1315564662218094,144.29815673828125,-0.09668867273618359,-0.08597089209956028,0.07842990942299367,0.18290169481188054
0.10177559405565262,0.14832104742527008,144.29750061035156,-0.09536707203162623,-0.08290309458091456,0.08016217512389026,0.1852340074256062
0.0969463437795639,0.14783143997192383,144.2976837158203,-0.0940172356449895,-0.079795294978863,0.08181819127251706,0.1877019448205828
0.10292767733335495,0.16145984828472137,144.29713439941406,-0.09263971898342581,-0.07664545067016879,0.08348380811512472,0.1902793722227215
0.07832969725131989,0.15392450988292694,144.29684448242188,-0.09123573486382758,-0.07345222610825067,0.08499428623666368,0.19290757520745191
0.09771061688661575,0.14850707352161407,144.2962188720703,-0.08980693840473472,-0.07021609766150115,0.0864612888544798,0.19542783840248976
0.10861358046531677,0.14112944900989532,144.29563903808594,-0.08835158885456618,-0.06693885337406164,0.08818065716574591,0.19784147609025232
0.11705894768238068,0.1420385092496872,144.2941436767578,-0.08686623953179348,-0.06362183099767829,0.09006126156697672,0.20020120907574884
0.09121311455965042,0.15284904837608337,144.29483032226562,-0.08535075516802151,-0.06026466587713624,0.0917968620856603,0.20265860538929692
0.10053008049726486,0.13124366104602814,144.29454040527344,-0.08380749196693711,-0.05686729379360476,0.09339472204446793,0.20502604463448118
0.10212352126836777,0.15431000292301178,144.2950439453125,-0.0822368400994067,-0.053430362934143334,0.09508350205918153,0.20740565850088985
0.1133781373500824,0.15619581937789917,144.29444885253906,-0.08063714967212739,-0.04995203905480205,0.09687934921433529,0.2099932070200641
0.10253380239009857,0.1579146385192871,144.29373168945312,-0.07900749996718429,-0.04643033904489145,0.09867861537883679,0.21261079416920733
0.09871543198823929,0.13594064116477966,144.29461669921875,-0.07734888073626073,-0.04286641919209327,0.10035569233198961,0.21505958816657456
0.09507732838392258,0.1531982272863388,144.29537963867188,-0.0756628280334795,-0.03926201363456348,0.10197063200175763,0.21746907873700055
0.0777709111571312,0.15547242760658264,144.2945098876953,-0.07395131415014874,-0.03561609352680146,0.10341103399793307,0.22004133419444158
0.08292917907238007,0.1634058803319931,144.2952117919922,-0.0722166371883617,-0.03192659362995392,0.10475020141651233,0.22269865342726305
0.09003759175539017,0.14878755807876587,144.29542541503906,-0.07045878891677901,-0.028193269306276567,0.10619159117341041,0.22530026541401937
0.09757928550243378,0.13923023641109467,144.29647827148438,-0.06867590011407926,-0.024418263646981114,0.10775506515055895,0.22770041370143487
0.09844033420085907,0.1501264125108719,144.29649353027344,-0.06686636988797943,-0.020603162540226507,0.10938856198141972,0.23011171910911793
0.11333713680505753,0.15773504972457886,144.29623413085938,-0.06502852041946926,-0.016746587953530415,0.11115337423980236,0.23267723129441334
0.08413515239953995,0.1693887859582901,144.29525756835938,-0.06316225082872223,-0.012845917165589993,0.11279897664984068,0.23540326325843725
0.08018200099468231,0.15882962942123413,144.29525756835938,-0.061270856971128065,-0.008899736499103573,0.1141682862614592,0.23813841671993327
0.09132495522499084,0.14093759655952454,144.29473876953125,-0.059356141994810714,-0.004909945718633799,0.11559751089662314,0.24063647693643958
0.1029716357588768,0.14496007561683655,144.2952117919922,-0.057416023994382004,-0.0008794837646808919,0.11721664915482204,0.24301895753790925
0.10128818452358246,0.14232833683490753,144.2957305908203,-0.05544822846539313,0.0031907827784823,0.11891881432384253,0.24541302764167378
0.08402802795171738,0.1470448076725006,144.2950897216797,-0.05345337904524052,0.0073010952631009885,0.12046311609447004,0.24782447051256884
0.10373994708061218,0.15393120050430298,144.2957305908203,-0.05143262100095544,0.011452404216656081,0.12202784921973946,0.2503326039140422
0.10163012892007828,0.1552136093378067,144.2947235107422,-0.049384561703126405,0.01564608267146249,0.1237392665197452,0.25290881066272647
0.08627480268478394,0.13450993597507477,144.29566955566406,-0.047309191640880315,0.01988134920648799,0.12530514094978573,0.2553231735403338
0.10338357090950012,0.14874951541423798,144.2957000732422,-0.047309191640880315,0.01988134920648799,0.12530514094978573,0.2553231735403338
0.10012985020875931,0.14686134457588196,144.29559326171875,-0.04520663974858401,0.024157263964103975,0.12700108612577124,0.2577865973735848
0.1046614795923233,0.1382235437631607,144.294677734375,-0.043075733359696076,0.028473504815353934,0.12870768054078027,0.2601623047764101
0.09082654118537903,0.15772709250450134,144.29470825195312,-0.04091702979368462,0.03283009535581269,0.13033674738059445,0.2626285600786406
0.0900106206536293,0.1503569632768631,144.29571533203125,-0.03873219253443589,0.037228632749885956,0.13184372372925285,0.26519592721015195
0.08878115564584732,0.12967848777770996,144.29660034179688,-0.03652238104337199,0.04166801177637839,0.13333365519841514,0.26752955596894007
0.09410560131072998,0.13661128282546997,144.29714965820312,-0.03428745298749865,0.046145330054374836,0.13485771150638662,0.26974863739063326
0.1014573872089386,0.14484989643096924,144.29641723632812,-0.03202624369930056,0.0506606865927782,0.13648740307738386,0.27209414721777025
0.09941042214632034,0.14967624843120575,144.2959747314453,-0.02973750449458338,0.05521604225091202,0.13816130148867767,0.27454853175828836
0.0869908407330513,0.14897362887859344,144.29591369628906,-0.02742187160429435,0.05981259068836334,0.13971464534600578,0.27703728073587003
0.08829161524772644,0.1442050188779831,144.2952423095703,-0.02508112178908448,0.06445023832894427,0.14117533247917893,0.2794804361338415
0.10338576138019562,0.14065706729888916,144.29522705078125,-0.02271488865216567,0.06912802768715946,0.14277264395107828,0.2818542868519821
0.10282712429761887,0.14747081696987152,144.2953643798828,-0.020321024247031184,0.07384560801554449,0.14449108466506005,0.2842553525542218
0.10057283937931061,0.15160459280014038,144.29539489746094,-0.01789871450513595,0.07860396635045999,0.1461860843623678,0.28674764763563854
0.09910092502832413,0.1464916318655014,144.295166015625,-0.015448413532123735,0.08340379493776685,0.14785003239909808,0.28923178284118556
0.09232190251350403,0.129386767745018,144.29466247558594,-0.012970953073559473,0.08824348287398179,0.14944522262861332,0.29153076950460655
0.09044089168310165,0.15142923593521118,144.2932891845703,-0.010467507502374487,0.09312183014375858,0.15096824591358504,0.29387090286860845
0.09668406844139099,0.1529543101787567,144.29364013671875,-0.007938375281583868,0.09804081627115996,0.15252762058128916,0.2964074324195582
0.0929771214723587,0.1362757384777069,144.2945098876953,-0.005383077355929483,0.10300102556486485,0.15410813049723707,0.29881768282502874
0.09009610861539841,0.15237388014793396,144.29647827148438,-0.0028018950955527706,0.10800136539101989,0.15563374074796837,0.30122309631357574
0.07928091287612915,0.16012892127037048,144.2959747314453,-0.0001962371232608305,0.11304345191301131,0.15704521592706444,0.30382728632539496
0.10450751334428787,0.14653459191322327,144.29574584960938,-0.0001962371232608305,0.11304345191301131,0.15704521592706444,0.30382728632539496
0.09074419736862183,0.13533934950828552,144.29608154296875,0.002434742288767529,0.11812681459769994,0.15867231351633868,0.30617623583724085
0.09442373365163803,0.1425095945596695,144.29644775390625,0.005092139731471802,0.12324904692721422,0.16021537960817417,0.3084916437044738
0.08201195299625397,0.1475999355316162,144.29684448242188,0.0077746485365141425,0.12841072081743402,0.1616856769969066,0.31090922312190117
0.0832899808883667,0.15069866180419922,144.2960205078125,0.010480889120760128,0.13361325638316957,0.16306319311261178,0.3133950447663663
0.08442860096693039,0.15679727494716644,144.2955780029297,0.013210256129710276,0.1388578610137723,0.16446084796140592,0.315957510905961
0.08898302167654037,0.1323031485080719,144.29640197753906,0.01596331273619506,0.14414389594716714,0.16590594481676818,0.31836668110142136
0.1053694412112236,0.14118961989879608,144.2972869873047,0.01874190851528618,0.1494689998522191,0.16752554867416622,0.32064578750481193
0.09483008831739426,0.14548520743846893,144.29714965820312,0.021547903738295106,0.15483300428475327,0.1691938780869047,0.32303474439928914
0.09611779451370239,0.1422615647315979,144.2980499267578,0.024381061976051232,0.1602368991061421,0.1707851104438305,0.32543263416737306
0.09509755671024323,0.14790071547031403,144.29782104492188,0.0272407593272834,0.16568092650061236,0.17237857170403004,0.32785065316905565
0.07981063425540924,0.1371888667345047,144.2978973388672,0.030125881924500962,0.17116490194108308,0.17383613996207714,0.3302263996874291
0.08917465060949326,0.145600825548172,144.29794311523438,0.03303488601309564,0.17668831344228209,0.17524435066928465,0.3325829804564514
0.09033471345901489,0.14449648559093475,144.29742431640625,0.03596809111897736,0.18225150876316315,0.1767402620365222,0.3350004580492773
0.0864272266626358,0.13799142837524414,144.2979736328125,0.03892603728765007,0.18785446694689875,0.17821327820420263,0.33735452399899546
0.10247722268104553,0.14211519062519073,144.2976837158203,0.0419093769555912,0.1934964941954237,0.1797874819487333,0.3396887458239991
0.08594638109207153,0.14375989139080048,144.29794311523438,0.04491891996055433,0.19917782572874146,0.18135767864684263,0.34207103817413237
0.09004759788513184,0.14094047248363495,144.29751586914062,0.04795376974209735,0.2048987805569127,0.18282429513831933,0.34444354120641935
0.09181872010231018,0.1302235722541809,144.2979278564453,0.04795376974209735,0.2048987805569127,0.18282429513831933,0.34444354120641935
0.08517814427614212,0.14392824470996857,144.29782104492188,0.04795376974209735,0.2048987805569127,0.18282429513831933,0.34444354120641935
0.08493436127901077,0.14416708052158356,144.29739379882812,0.04795376974209735,0.2048987805569127,0.18282429513831933,0.34444354120641935
0.0922207310795784,0.14748941361904144,144.29698181152344,0.04795376974209735,0.2048987805569127,0.18282429513831933,0.34444354120641935
0.07739309221506119,0.143431156873703,144.29525756835938,0.04795376974209735,0.2048987805569127,0.18282429513831933,0.34444354120641935
0.088657908141613,0.13369622826576233,144.2952423095703,0.04795376974209735,0.2048987805569127,0.18282429513831933,0.34444354120641935
0.08128877729177475,0.1241859644651413,144.2950439453125,0.04795376974209735,0.2048987805569127,0.18282429513831933,0.34444354120641935
0.08859866112470627,0.14307250082492828,144.29580688476562,0.04795376974209735,0.2048987805569127,0.18282429513831933,0.34444354120641935
0.0967511460185051,0.1379791498184204,144.296630859375,0.04795376974209735,0.2048987805569127,0.18282429513831933,0.34444354120641935
0.08776265382766724,0.12629806995391846,144.2973175048828,0.04795376974209735,0.2048987805569127,0.18282429513831933,0.34444354120641935
0.09752122312784195,0.14496996998786926,144.2970733642578,0.04795376974209735,0.2048987805569127,0.18282429513831933,0.34444354120641935
0.08715672791004181,0.12341270595788956,144.2971649169922,0.04795376974209735,0.2048987805569127,0.18282429513831933,0.34444354120641935
0.0907323956489563,0.14082229137420654,144.29664611816406,0.04795376974209735,0.2048987805569127,0.18282429513831933,0.34444354120641935
0.09482583403587341,0.13145597279071808,144.29783630371094,0.04795376974209735,0.2048987805569127,0.18282429513831933,0.34444354120641935
0.0914267897605896,0.1329708695411682,144.2979278564453,0.04795376974209735,0.2048987805569127,0.18282429513831933,0.34444354120641935
0.08667898923158646,0.1402292400598526,144.29685974121094,0.04795376974209735,0.2048987805569127,0.18282429513831933,0.34444354120641935
0.08061841130256653,0.12611481547355652,144.2960968017578,0.04795376974209735,0.2048987805569127,0.18282429513831933,0.34444354120641935
0.09298624098300934,0.13579252362251282,144.2954864501953,0.04795376974209735,0.2048987805569127,0.18282429513831933,0.34444354120641935
0.08687736093997955,0.13106513023376465,144.29544067382812,0.04795376974209735,0.2048987805569127,0.18282429513831933,0.34444354120641935
0.08131728321313858,0.1482476443052292,144.2952423095703,0.04795376974209735,0.2048987805569127,0.18282429513831933,0.34444354120641935
0.08938426524400711,0.14710378646850586,144.29498291015625,0.04795376974209735,0.2048987805569127,0.18282429513831933,0.34444354120641935
0.07627738267183304,0.13545681536197662,144.29489135742188,0.04795376974209735,0.2048987805569127,0.18282429513831933,0.34444354120641935
0.07385173439979553,0.13958847522735596,144.2948760986328,0.04795376974209735,0.2048987805569127,0.18282429513831933,0.34444354120641935
0.10092341154813766,0.1404563933610916,144.2941131591797,0.04795376974209735,0.2048987805569127,0.18282429513831933,0.34444354120641935
0.10832473635673523,0.13912351429462433,144.29344177246094,0.04795376974209735,0.2048987805569127,0.18282429513831933,0.34444354120641935
0.08872813731431961,0.14206577837467194,144.29432678222656,0.04795376974209735,0.2048987805569127,0.18282429513831933,0.34444354120641935
0.07158128172159195,0.1382674276828766,144.29373168945312,0.04795376974209735,0.2048987805569127,0.18282429513831933,0.34444354120641935
0.08740036189556122,0.14365553855895996,144.2944793701172,0.04795376974209735,0.2048987805569127,0.18282429513831933,0.34444354120641935
0.07573894411325455,0.1382361799478531,144.295166015625,0.04795376974209735,0.2048987805569127,0.18282429513831933,0.34444354120641935
0.08559267967939377,0.1301816701889038,144.29483032226562,0.04795376974209735,0.2048987805569127,0.18282429513831933,0.34444354120641935
0.09642799198627472,0.1375611424446106,144.29417419433594,0.04795376974209735,0.2048987805569127,0.18282429513831933,0.34444354120641935
0.08461418747901917,0.1335277408361435,144.2935791015625,0.04795376974209735,0.2048987805569127,0.18282429513831933,0.34444354120641935
0.09029020369052887,0.13443523645401,144.29421997070312,0.04795376974209735,0.2048987805569127,0.18282429513831933,0.34444354120641935
0.08741334080696106,0.13614396750926971,144.29434204101562,0.04795376974209735,0.2048987805569127,0.18282429513831933,0.34444354120641935
0.08988926559686661,0.12769360840320587,144.2946319580078,0.04795376974209735,0.2048987805569127,0.18282429513831933,0.34444354120641935
0.07911070436239243,0.1434600055217743,144.29505920410156,0.04795376974209735,0.2048987805569127,0.18282429513831933,0.34444354120641935
0.0707945004105568,0.12699313461780548,144.29568481445312,0.04795376974209735,0.2048987805569127,0.18282429513831933,0.34444354120641935
0.08863715082406998,0.13551366329193115,144.29556274414062,0.04795376974209735,0.2048987805569127,0.18282429513831933,0.34444354120641935
0.07179808616638184,0.13918331265449524,144.29550170898438,0.04795376974209735,0.2048987805569127,0.18282429513831933,0.34444354120641935
0.07592519372701645,0.1345093697309494,144.29612731933594,0.04795376974209735,0.2048987805569127,0.18282429513831933,0.34444354120641935
0.06874188780784607,0.1300026923418045,144.29470825195312,0.04795376974209735,0.2048987805569127,0.18282429513831933,0.34444354120641935
0.0922265350818634,0.13752716779708862,144.2947235107422,0.04795376974209735,0.2048987805569127,0.18282429513831933,0.34444354120641935
0.08307155966758728,0.12246046960353851,144.29391479492188,0.04795376974209735,0.2048987805569127,0.18282429513831933,0.34444354120641935
0.07124997675418854,0.12922850251197815,144.29441833496094,0.04795376974209735,0.2048987805569127,0.18282429513831933,0.34444354120641935
0.08428889513015747,0.12257256358861923,144.29403686523438,0.04795376974209735,0.2048987805569127,0.18282429513831933,0.34444354120641935
0.07365339994430542,0.14028307795524597,144.29360961914062,0.04795376974209735,0.2048987805569127,0.18282429513831933,0.34444354120641935
0.08746228367090225,0.13535496592521667,144.29339599609375,0.04795376974209735,0.2048987805569127,0.18282429513831933,0.34444354120641935
0.09219304472208023,0.122689388692379,144.2923583984375,0.04795376974209735,0.2048987805569127,0.18282429513831933,0.34444354120641935
0.09071412682533264,0.13482566177845,144.29144287109375,0.04795376974209735,0.2048987805569127,0.18282429513831933,0.34444354120641935
0.06486695259809494,0.135104238986969,144.29141235351562,0.04795376974209735,0.2048987805569127,0.18282429513831933,0.34444354120641935
0.08487414568662643,0.12165557593107224,144.29193115234375,0.04795376974209735,0.2048987805569127,0.18282429513831933,0.34444354120641935
0.0874583050608635,0.14194633066654205,144.29234313964844,0.04795376974209735,0.2048987805569127,0.18282429513831933,0.34444354120641935
0.07466229796409607,0.14056731760501862,144.2924041748047,0.04795376974209735,0.2048987805569127,0.18282429513831933,0.34444354120641935
0.09315679222345352,0.13954244554042816,144.29248046875,0.04795376974209735,0.2048987805569127,0.18282429513831933,0.34444354120641935
0.09579344838857651,0.13191215693950653,144.29190063476562,0.04795376974209735,0.2048987805569127,0.18282429513831933,0.34444354120641935
0.08699877560138702,0.12414064258337021,144.29150390625,0.04795376974209735,0.2048987805569127,0.18282429513831933,0.34444354120641935
0.0802188590168953,0.12668509781360626,144.2909393310547,0.04795376974209735,0.2048987805569127,0.18282429513831933,0.34444354120641935
0.07901228219270706,0.13417784869670868,144.29115295410156,0.04795376974209735,0.2048987805569127,0.18282429513831933,0.34444354120641935
0.09413793683052063,0.13442683219909668,144.2913360595703,0.04795376974209735,0.2048987805569127,0.18282429513831933,0.34444354120641935
0.08151794224977493,0.1419817954301834,144.29147338867188,0.04795376974209735,0.2048987805569127,0.18282429513831933,0.34444354120641935
0.08277219533920288,0.13373367488384247,144.29196166992188,0.04795376974209735,0.2048987805569127,0.18282429513831933,0.34444354120641935
0.08716735988855362,0.12354434281587601,144.29058837890625,0.04795376974209735,0.2048987805569127,0.18282429513831933,0.34444354120641935
0.07965876162052155,0.13144223392009735,144.29132080078125,0.04795376974209735,0.2048987805569127,0.18282429513831933,0.34444354120641935
0.0809815526008606,0.13946285843849182,144.291259765625,0.04795376974209735,0.2048987805569127,0.18282429513831933,0.34444354120641935
0.08166193962097168,0.12775838375091553,144.29054260253906,0.04795376974209735,0.2048987805569127,0.18282429513831933,0.34444354120641935
0.08103730529546738,0.11927571892738342,144.29066467285156,0.04795376974209735,0.2048987805569127,0.18282429513831933,0.34444354120641935
0.07962870597839355,0.12586411833763123,144.291259765625,0.04795376974209735,0.2048987805569127,0.18282429513831933,0.34444354120641935
0.10184798389673233,0.12217196077108383,144.29119873046875,0.04795376974209735,0.2048987805569127,0.18282429513831933,0.34444354120641935
0.08830327540636063,0.1331467181444168,144.2908477783203,0.04795376974209735,0.2048987805569127,0.18282429513831933,0.34444354120641935
0.09148452430963516,0.1308307647705078,144.29147338867188,0.04795376974209735,0.2048987805569127,0.18282429513831933,0.34444354120641935
0.09223707765340805,0.1306755244731903,144.29144287109375,0.04795376974209735,0.2048987805569127,0.18282429513831933,0.34444354120641935
0.08418667316436768,0.14098607003688812,144.29153442382812,0.04795376974209735,0.2048987805569127,0.18282429513831933,0.34444354120641935
0.07513618469238281,0.11539919674396515,144.29025268554688,0.04795376974209735,0.2048987805569127,0.18282429513831933,0.34444354120641935
0.08180752396583557,0.1249363124370575,144.2892608642578,0.04795376974209735,0.2048987805569127,0.18282429513831933,0.34444354120641935
0.0732191726565361,0.12608155608177185,144.28964233398438,0.04795376974209735,0.2048987805569127,0.18282429513831933,0.34444354120641935
0.08346015959978104,0.13015595078468323,144.28895568847656,0.04795376974209735,0.2048987805569127,0.18282429513831933,0.34444354120641935
0.07902104407548904,0.13798996806144714,144.28921508789062,0.04795376974209735,0.2048987805569127,0.18282429513831933,0.34444354120641935
0.08098609745502472,0.12897270917892456,144.28854370117188,0.04795376974209735,0.2048987805569127,0.18282429513831933,0.34444354120641935
0.06780964881181717,0.12087861448526382,144.288818359375,0.04795376974209735,0.2048987805569127,0.18282429513831933,0.34444354120641935
0.07588300853967667,0.1210576742887497,144.2881622314453,0.04795376974209735,0.2048987805569127,0.18282429513831933,0.34444354120641935
0.08173616975545883,0.11700171232223511,144.2889404296875,0.04795376974209735,0.2048987805569127,0.18282429513831933,0.34444354120641935
0.07662587612867355,0.13338056206703186,144.28872680664062,0.04795376974209735,0.2048987805569127,0.18282429513831933,0.34444354120641935
0.08759009093046188,0.12266179919242859,144.28746032714844,0.04795376974209735,0.2048987805569127,0.18282429513831933,0.34444354120641935
0.09584828466176987,0.12621283531188965,144.2869873046875,0.04795376974209735,0.2048987805569127,0.18282429513831933,0.34444354120641935
0.07121658325195312,0.12485573440790176,144.28543090820312,0.04795376974209735,0.2048987805569127,0.18282429513831933,0.34444354120641935
0.08088084310293198,0.1270378977060318,144.28414916992188,0.04795376974209735,0.2048987805569127,0.18282429513831933,0.34444354120641935
0.07329677790403366,0.11825546622276306,144.2843017578125,0.04795376974209735,0.2048987805569127,0.18282429513831933,0.34444354120641935
0.07362505793571472,0.12414699047803879,144.28402709960938,0.04795376974209735,0.2048987805569127,0.18282429513831933,0.34444354120641935
0.07124809920787811,0.12492692470550537,144.2840576171875,0.04795376974209735,0.2048987805569127,0.18282429513831933,0.34444354120641935
0.0828966423869133,0.1363251805305481,144.2840118408203,0.04795376974209735,0.2048987805569127,0.18282429513831933,0.34444354120641935
0.06944529712200165,0.12559382617473602,144.2834930419922,0.04795376974209735,0.2048987805569127,0.18282429513831933,0.34444354120641935
0.08107241243124008,0.12210417538881302,144.28350830078125,0.04795376974209735,0.2048987805569127,0.18282429513831933,0.34444354120641935
0.06731624156236649,0.12338618189096451,144.28289794921875,0.04795376974209735,0.2048987805569127,0.18282429513831933,0.34444354120641935
0.0826459676027298,0.1244286596775055,144.28207397460938,0.04795376974209735,0.2048987805569127,0.18282429513831933,0.34444354120641935
0.08409509062767029,0.11757728457450867,144.2809600830078,0.04795376974209735,0.2048987805569127,0.18282429513831933,0.34444354120641935
0.08113598078489304,0.12497852742671967,144.28196716308594,0.04795376974209735,0.2048987805569127,0.18282429513831933,0.34444354120641935
0.0810530036687851,0.13858823478221893,144.28231811523438,0.04795376974209735,0.2048987805569127,0.18282429513831933,0.34444354120641935
0.07164597511291504,0.11744868010282516,144.28196716308594,0.04795376974209735,0.2048987805569127,0.18282429513831933,0.34444354120641935
0.07578285783529282,0.12033571302890778,144.28163146972656,0.04795376974209735,0.2048987805569127,0.18282429513831933,0.34444354120641935
0.08087529242038727,0.11774411052465439,144.28163146972656,0.04795376974209735,0.2048987805569127,0.18282429513831933,0.34444354120641935
0.08339684456586838,0.12175801396369934,144.2815399169922,0.04795376974209735,0.2048987805569127,0.18282429513831933,0.34444354120641935
0.08902716636657715,0.12593552470207214,144.28057861328125,0.04795376974209735,0.2048987805569127,0.18282429513831933,0.34444354120641935
0.07489284127950668,0.11593103408813477,144.279296875,0.04795376974209735,0.2048987805569127,0.18282429513831933,0.34444354120641935
0.07230246812105179,0.12967465817928314,144.2788848876953,0.04795376974209735,0.2048987805569127,0.18282429513831933,0.34444354120641935
0.07888387143611908,0.13608863949775696,144.2800750732422,0.04795376974209735,0.2048987805569127,0.18282429513831933,0.34444354120641935
0.0715985968708992,0.1274508237838745,144.2793426513672,0.04795376974209735,0.2048987805569127,0.18282429513831933,0.34444354120641935
0.07311350107192993,0.12861259281635284,144.27894592285156,0.04795376974209735,0.2048987805569127,0.18282429513831933,0.34444354120641935
0.07289835810661316,0.12650716304779053,144.27757263183594,0.04795376974209735,0.2048987805569127,0.18282429513831933,0.34444354120641935
0.07700491696596146,0.1251581311225891,144.2777099609375,0.04795376974209735,0.2048987805569127,0.18282429513831933,0.34444354120641935
0.07511528581380844,0.10419401526451111,144.27813720703125,0.04795376974209735,0.2048987805569127,0.18282429513831933,0.34444354120641935
0.07208266109228134,0.11772993206977844,144.27774047851562,0.04795376974209735,0.2048987805569127,0.18282429513831933,0.34444354120641935
0.07060733437538147,0.1389710009098053,144.27627563476562,0.04795376974209735,0.2048987805569127,0.18282429513831933,0.34444354120641935
0.08686020225286484,0.12766841053962708,144.2766571044922,0.04795376974209735,0.2048987805569127,0.18282429513831933,0.34444354120641935
0.07908587157726288,0.11940929293632507,144.2769317626953,0.04795376974209735,0.2048987805569127,0.18282429513831933,0.34444354120641935
0.06818009912967682,0.11776472628116608,144.2764129638672,0.04795376974209735,0.2048987805569127,0.18282429513831933,0.34444354120641935
0.0801197737455368,0.11790800094604492,144.27618408203125,0.04795376974209735,0.2048987805569127,0.18282429513831933,0.34444354120641935
0.07215424627065659,0.11688805371522903,144.27638244628906,0.04795376974209735,0.2048987805569127,0.18282429513831933,0.34444354120641935
0.06734045594930649,0.11215969175100327,144.27610778808594,0.04795376974209735,0.2048987805569127,0.18282429513831933,0.34444354120641935
0.07447788119316101,0.12027904391288757,144.275146484375,0.04795376974209735,0.2048987805569127,0.18282429513831933,0.34444354120641935
0.08099023997783661,0.11840368062257767,144.2743682861328,0.04795376974209735,0.2048987805569127,0.18282429513831933,0.34444354120641935
0.08009432256221771,0.12023548036813736,144.2740020751953,0.04795376974209735,0.2048987805569127,0.18282429513831933,0.34444354120641935
0.06627815216779709,0.12165514379739761,144.273193359375,0.04795376974209735,0.2048987805569127,0.18282429513831933,0.34444354120641935
0.056394074112176895,0.11407824605703354,144.27195739746094,0.04795376974209735,0.2048987805569127,0.18282429513831933,0.34444354120641935
0.07530234009027481,0.11666882038116455,144.271484375,0.04795376974209735,0.2048987805569127,0.18282429513831933,0.34444354120641935
0.06233638897538185,0.11952890455722809,144.27134704589844,0.04795376974209735,0.2048987805569127,0.18282429513831933,0.34444354120641935
0.07582835108041763,0.11659912019968033,144.27044677734375,0.04795376974209735,0.2048987805569127,0.18282429513831933,0.34444354120641935
0.07307575643062592,0.10635314136743546,144.26998901367188,0.04795376974209735,0.2048987805569127,0.18282429513831933,0.34444354120641935
0.08234153687953949,0.10889828205108643,144.27120971679688,0.04795376974209735,0.2048987805569127,0.18282429513831933,0.34444354120641935
0.06970620155334473,0.11077411472797394,144.27197265625,0.04795376974209735,0.2048987805569127,0.18282429513831933,0.34444354120641935
0.08303822576999664,0.10670384764671326,144.2720184326172,0.04795376974209735,0.2048987805569127,0.18282429513831933,0.34444354120641935
0.07749190181493759,0.1219317764043808,144.27191162109375,0.04795376974209735,0.2048987805569127,0.18282429513831933,0.34444354120641935
0.06884495168924332,0.12573088705539703,144.27093505859375,0.04795376974209735,0.2048987805569127,0.18282429513831933,0.34444354120641935
0.08929172158241272,0.12367761135101318,144.269775390625,0.04795376974209735,0.2048987805569127,0.18282429513831933,0.34444354120641935
0.07235168665647507,0.12691815197467804,144.26976013183594,0.04795376974209735,0.2048987805569127,0.18282429513831933,0.34444354120641935
0.07992066442966461,0.11405438929796219,144.26956176757812,0.04795376974209735,0.2048987805569127,0.18282429513831933,0.34444354120641935
0.0780147835612297,0.10656197369098663,144.26925659179688,0.04795376974209735,0.2048987805569127,0.18282429513831933,0.34444354120641935
0.07592210173606873,0.11478159576654434,144.26889038085938,0.04795376974209735,0.2048987805569127,0.18282429513831933,0.34444354120641935
0.05856943130493164,0.10670366138219833,144.26876831054688,0.04795376974209735,0.2048987805569127,0.18282429513831933,0.34444354120641935
0.059825193136930466,0.1211121454834938,144.2681427001953,0.04795376974209735,0.2048987805569127,0.18282429513831933,0.34444354120641935
0.07478230446577072,0.11513075232505798,144.2688446044922,0.04795376974209735,0.2048987805569127,0.18282429513831933,0.34444354120641935
0.08307135105133057,0.09964748471975327,144.26870727539062,0.04795376974209735,0.2048987805569127,0.18282429513831933,0.34444354120641935
0.06646313518285751,0.1128898337483406,144.2686309814453,0.04795376974209735,0.2048987805569127,0.18282429513831933,0.34444354120641935
0.06984297186136246,0.1078077033162117,144.26885986328125,0.04795376974209735,0.2048987805569127,0.18282429513831933,0.34444354120641935
0.07006548345088959,0.11203859001398087,144.2686309814453,0.04795376974209735,0.2048987805569127,0.18282429513831933,0.34444354120641935
0.06936030089855194,0.10981462895870209,144.26731872558594,0.04795376974209735,0.2048987805569127,0.18282429513831933,0.34444354120641935
0.05222732946276665,0.11142782866954803,144.267578125,0.04795376974209735,0.2048987805569127,0.18282429513831933,0.34444354120641935
0.06050330772995949,0.12205386161804199,144.2674102783203,0.04795376974209735,0.2048987805569127,0.18282429513831933,0.34444354120641935
0.0689828172326088,0.12435925751924515,144.26657104492188,0.04795376974209735,0.2048987805569127,0.18282429513831933,0.34444354120641935
0.07655494660139084,0.120543472468853,144.26649475097656,0.04795376974209735,0.2048987805569127,0.18282429513831933,0.34444354120641935
0.07747432589530945,0.11668051034212112,144.33502197265625,0.04795376974209735,0.2048987805569127,0.18282429513831933,0.34444354120641935
0.06793050467967987,0.12064383924007416,144.3358154296875,0.04795376974209735,0.2048987805569127,0.18282429513831933,0.34444354120641935
0.08298254758119583,0.1142086386680603,144.33432006835938,0.04795376974209735,0.2048987805569127,0.18282429513831933,0.34444354120641935
0.07938476651906967,0.11592864990234375,144.33407592773438,0.04795376974209735,0.2048987805569127,0.18282429513831933,0.34444354120641935
0.07190197706222534,0.1224566176533699,144.33316040039062,0.04795376974209735,0.2048987805569127,0.18282429513831933,0.34444354120641935
0.06624605506658554,0.11288918554782867,144.33294677734375,0.04795376974209735,0.2048987805569127,0.18282429513831933,0.34444354120641935
0.06129353120923042,0.12761223316192627,144.33343505859375,0.04795376974209735,0.2048987805569127,0.18282429513831933,0.34444354120641935
0.06106170639395714,0.09662172198295593,144.33323669433594,0.04795376974209735,0.2048987805569127,0.18282429513831933,0.34444354120641935
0.06983242183923721,0.1180688887834549,144.33274841308594,0.04795376974209735,0.2048987805569127,0.18282429513831933,0.34444354120641935
0.07430509477853775,0.1156538873910904,144.3323516845703,0.04795376974209735,0.2048987805569127,0.18282429513831933,0.34444354120641935
0.06678716838359833,0.11764156073331833,144.33201599121094,0.04795376974209735,0.2048987805569127,0.18282429513831933,0.34444354120641935
0.06304474920034409,0.11104268580675125,144.33123779296875,0.04795376974209735,0.2048987805569127,0.18282429513831933,0.34444354120641935
0.07210664451122284,0.10768497735261917,144.33120727539062,0.04795376974209735,0.2048987805569127,0.18282429513831933,0.34444354120641935
0.07884933799505234,0.11100030690431595,144.33045959472656,0.04795376974209735,0.2048987805569127,0.18282429513831933,0.34444354120641935
0.08310972899198532,0.11298166960477829,144.3299560546875,0.04795376974209735,0.2048987805569127,0.18282429513831933,0.34444354120641935
0.07693800330162048,0.11147546768188477,144.33116149902344,0.04795376974209735,0.2048987805569127,0.18282429513831933,0.34444354120641935
0.07542799413204193,0.11311130970716476,144.33053588867188,0.04795376974209735,0.2048987805569127,0.18282429513831933,0.34444354120641935
0.07367069274187088,0.10982377827167511,144.33056640625,0.04795376974209735,0.2048987805569127,0.18282429513831933,0.34444354120641935
0.07216997444629669,0.11603759229183197,144.3324737548828,0.04795376974209735,0.2048987805569127,0.18282429513831933,0.34444354120641935
0.07035459578037262,0.12642623484134674,144.3330078125,0.04795376974209735,0.2048987805569127,0.18282429513831933,0.34444354120641935
0.07648462802171707,0.10980882495641708,144.33343505859375,0.04795376974209735,0.2048987805569127,0.18282429513831933,0.34444354120641935
0.07297809422016144,0.11968367546796799,144.33349609375,0.04795376974209735,0.2048987805569127,0.18282429513831933,0.34444354120641935
0.0717238336801529,0.11633720993995667,144.33509826660156,0.04795376974209735,0.2048987805569127,0.18282429513831933,0.34444354120641935
0.06823994964361191,0.11269170790910721,144.33628845214844,0.04795376974209735,0.2048987805569127,0.18282429513831933,0.34444354120641935
0.06192919611930847,0.1088886633515358,144.3361358642578,0.04795376974209735,0.2048987805569127,0.18282429513831933,0.34444354120641935
0.0532669723033905,0.10951507091522217,144.33648681640625,0.04795376974209735,0.2048987805569127,0.18282429513831933,0.34444354120641935
0.07090447098016739,0.11715168505907059,144.3367156982422,0.04795376974209735,0.2048987805569127,0.18282429513831933,0.34444354120641935
0.07478637248277664,0.11274712532758713,144.33604431152344,0.04795376974209735,0.2048987805569127,0.18282429513831933,0.34444354120641935
0.05511823296546936,0.10240014642477036,144.3373260498047,0.04795376974209735,0.2048987805569127,0.18282429513831933,0.34444354120641935
0.06732354313135147,0.09393630176782608,144.3362579345703,0.04795376974209735,0.2048987805569127,0.18282429513831933,0.34444354120641935
0.07912095636129379,0.10958050936460495,144.33705139160156,0.04795376974209735,0.2048987805569127,0.18282429513831933,0.34444354120641935
0.0655200183391571,0.10498505085706711,144.336181640625,0.04795376974209735,0.2048987805569127,0.18282429513831933,0.34444354120641935
0.061043426394462585,0.084006167948246,144.33616638183594,0.04795376974209735,0.2048987805569127,0.18282429513831933,0.34444354120641935
0.051722459495067596,0.1022234633564949,144.3367919921875,0.04795376974209735,0.2048987805569127,0.18282429513831933,0.34444354120641935
0.06647399812936783,0.10955284535884857,144.33596801757812,0.04795376974209735,0.2048987805569127,0.18282429513831933,0.34444354120641935
0.07346200197935104,0.09178152680397034,144.33560180664062,0.04795376974209735,0.2048987805569127,0.18282429513831933,0.34444354120641935
0.05882744491100311,0.10947183519601822,144.33770751953125,0.04795376974209735,0.2048987805569127,0.18282429513831933,0.34444354120641935
0.07201123982667923,0.10912638157606125,144.3369598388672,0.04795376974209735,0.2048987805569127,0.18282429513831933,0.34444354120641935
0.059932902455329895,0.1114012822508812,144.33721923828125,0.04795376974209735,0.2048987805569127,0.18282429513831933,0.34444354120641935
0.08347053825855255,0.08749353885650635,144.33810424804688,0.04795376974209735,0.2048987805569127,0.18282429513831933,0.34444354120641935
0.07315810024738312,0.10270583629608154,144.33755493164062,0.04795376974209735,0.2048987805569127,0.18282429513831933,0.34444354120641935
0.0718068927526474,0.1017017662525177,144.3365936279297,0.04795376974209735,0.2048987805569127,0.18282429513831933,0.34444354120641935
0.0745927169919014,0.10823985189199448,144.3363494873047,0.04795376974209735,0.2048987805569127,0.18282429513831933,0.34444354120641935
0.0706314817070961,0.10411972552537918,144.3368377685547,0.04795376974209735,0.2048987805569127,0.18282429513831933,0.34444354120641935
0.06521741300821304,0.08895378559827805,144.33619689941406,0.04795376974209735,0.2048987805569127,0.18282429513831933,0.34444354120641935
0.06573773175477982,0.09000468254089355,144.3360137939453,0.04795376974209735,0.2048987805569127,0.18282429513831933,0.34444354120641935
0.06541721522808075,0.1124720424413681,144.33551025390625,0.04795376974209735,0.2048987805569127,0.18282429513831933,0.34444354120641935
0.0697324126958847,0.10384005308151245,144.33631896972656,0.04795376974209735,0.2048987805569127,0.18282429513831933,0.34444354120641935
0.07060138881206512,0.11314646899700165,144.33688354492188,0.04795376974209735,0.2048987805569127,0.18282429513831933,0.34444354120641935
0.06944618374109268,0.09671483188867569,144.3364715576172,0.04795376974209735,0.2048987805569127,0.18282429513831933,0.34444354120641935
0.05788550153374672,0.0975162461400032,144.33786010742188,0.04795376974209735,0.2048987805569127,0.18282429513831933,0.34444354120641935
0.06272488832473755,0.09964355826377869,144.3378143310547,0.04795376974209735,0.2048987805569127,0.18282429513831933,0.34444354120641935
0.07114320993423462,0.11282926052808762,144.33839416503906,0.04795376974209735,0.2048987805569127,0.18282429513831933,0.34444354120641935
0.06775839626789093,0.09617223590612411,144.3390350341797,0.04795376974209735,0.2048987805569127,0.18282429513831933,0.34444354120641935
0.0699625089764595,0.09905178844928741,144.3382110595703,0.04795376974209735,0.2048987805569127,0.18282429513831933,0.34444354120641935
0.06477764993906021,0.08947990089654922,144.33889770507812,0.04795376974209735,0.2048987805569127,0.18282429513831933,0.34444354120641935
0.07825224846601486,0.09415020048618317,144.338623046875,0.04795376974209735,0.2048987805569127,0.18282429513831933,0.34444354120641935
0.06611229479312897,0.11232008785009384,144.3399200439453,0.04795376974209735,0.2048987805569127,0.18282429513831933,0.34444354120641935
0.06702545285224915,0.10195206105709076,144.34002685546875,0.04795376974209735,0.2048987805569127,0.18282429513831933,0.34444354120641935
0.06569527834653854,0.10025355219841003,144.33993530273438,0.04795376974209735,0.2048987805569127,0.18282429513831933,0.34444354120641935
0.06018252670764923,0.10895200818777084,144.33973693847656,0.04795376974209735,0.2048987805569127,0.18282429513831933,0.34444354120641935
0.058324895799160004,0.09783110022544861,144.33981323242188,0.04795376974209735,0.2048987805569127,0.18282429513831933,0.34444354120641935
0.06266193836927414,0.10468892008066177,144.33937072753906,0.04795376974209735,0.2048987805569127,0.18282429513831933,0.34444354120641935
0.06071711331605911,0.09931649267673492,144.33877563476562,0.04795376974209735,0.2048987805569127,0.18282429513831933,0.34444354120641935
0.06154580041766167,0.10342438519001007,144.3390350341797,0.04795376974209735,0.2048987805569127,0.18282429513831933,0.34444354120641935
0.061595503240823746,0.08244200050830841,144.3395233154297,0.04795376974209735,0.2048987805569127,0.18282429513831933,0.34444354120641935
0.06870698928833008,0.09695052355527878,144.33949279785156,0.04795376974209735,0.2048987805569127,0.18282429513831933,0.34444354120641935
0.05913247540593147,0.09634438902139664,144.3394317626953,0.04795376974209735,0.2048987805569127,0.18282429513831933,0.34444354120641935
0.06844533234834671,0.09767643362283707,144.33871459960938,0.04795376974209735,0.2048987805569127,0.18282429513831933,0.34444354120641935
0.06990015506744385,0.11434474587440491,144.33799743652344,0.04795376974209735,0.2048987805569127,0.18282429513831933,0.34444354120641935
0.06608511507511139,0.0909695252776146,144.33773803710938,0.04795376974209735,0.2048987805569127,0.18282429513831933,0.34444354120641935
0.05362458527088165,0.08437507599592209,144.33770751953125,0.04795376974209735,0.2048987805569127,0.18282429513831933,0.34444354120641935
0.05029355734586716,0.0872218981385231,144.3377685546875,0.04795376974209735,0.2048987805569127,0.18282429513831933,0.34444354120641935
0.073942631483078,0.1068723052740097,144.3369140625,0.04795376974209735,0.2048987805569127,0.18282429513831933,0.34444354120641935
0.0619577132165432,0.09735722839832306,144.33700561523438,0.04795376974209735,0.2048987805569127,0.18282429513831933,0.34444354120641935
0.06538493931293488,0.10874868929386139,144.3373260498047,0.04795376974209735,0.2048987805569127,0.18282429513831933,0.34444354120641935
0.07916144281625748,0.09557706117630005,144.33726501464844,0.04795376974209735,0.2048987805569127,0.18282429513831933,0.34444354120641935
0.06804166734218597,0.0911402627825737,144.33656311035156,0.04795376974209735,0.2048987805569127,0.18282429513831933,0.34444354120641935
0.07212866097688675,0.1006084457039833,144.33514404296875,0.04795376974209735,0.2048987805569127,0.18282429513831933,0.34444354120641935
0.06658200919628143,0.09039555490016937,144.3349151611328,0.04795376974209735,0.2048987805569127,0.18282429513831933,0.34444354120641935
0.0679110586643219,0.08980987221002579,144.33460998535156,0.04795376974209735,0.2048987805569127,0.18282429513831933,0.34444354120641935
0.0672730952501297,0.0871603712439537,144.33511352539062,0.04795376974209735,0.2048987805569127,0.18282429513831933,0.34444354120641935
0.06568309664726257,0.10298532992601395,144.3357391357422,0.04795376974209735,0.2048987805569127,0.18282429513831933,0.34444354120641935
0.06373878568410873,0.11207412928342819,144.33473205566406,0.04795376974209735,0.2048987805569127,0.18282429513831933,0.34444354120641935
0.053534816950559616,0.09463101625442505,144.33432006835938,0.04795376974209735,0.2048987805569127,0.18282429513831933,0.34444354120641935
0.06111409142613411,0.09773971140384674,144.33450317382812,0.04795376974209735,0.2048987805569127,0.18282429513831933,0.34444354120641935
0.05714283138513565,0.1059429943561554,144.33447265625,0.04795376974209735,0.2048987805569127,0.18282429513831933,0.34444354120641935
0.07490218430757523,0.09633680433034897,144.33468627929688,0.04795376974209735,0.2048987805569127,0.18282429513831933,0.34444354120641935
0.05957529693841934,0.09641959518194199,144.33531188964844,0.04795376974209735,0.2048987805569127,0.18282429513831933,0.34444354120641935
0.07142911106348038,0.10550723224878311,144.3345489501953,0.04795376974209735,0.2048987805569127,0.18282429513831933,0.34444354120641935
0.0523570217192173,0.10089468955993652,144.33322143554688,0.04795376974209735,0.2048987805569127,0.18282429513831933,0.34444354120641935
0.049350522458553314,0.10404857993125916,144.3332061767578,0.04795376974209735,0.2048987805569127,0.18282429513831933,0.34444354120641935
0.06318769603967667,0.10611323267221451,144.33334350585938,0.04795376974209735,0.2048987805569127,0.18282429513831933,0.34444354120641935
0.056186825037002563,0.09878885746002197,144.3328857421875,0.04795376974209735,0.2048987805569127,0.18282429513831933,0.34444354120641935
0.06915899366140366,0.08994602411985397,144.3331756591797,0.04795376974209735,0.2048987805569127,0.18282429513831933,0.34444354120641935
0.06447312235832214,0.09391001611948013,144.3335418701172,0.04795376974209735,0.2048987805569127,0.18282429513831933,0.34444354120641935
0.06088675186038017,0.10564740002155304,144.3324432373047,0.04795376974209735,0.2048987805569127,0.18282429513831933,0.34444354120641935
0.050694216042757034,0.09589820355176926,144.3319549560547,0.04795376974209735,0.2048987805569127,0.18282429513831933,0.34444354120641935
0.06553905457258224,0.0937594622373581,144.33148193359375,0.04795376974209735,0.2048987805569127,0.18282429513831933,0.34444354120641935
0.060966502875089645,0.08525669574737549,144.33154296875,0.04795376974209735,0.2048987805569127,0.18282429513831933,0.34444354120641935
0.0795758068561554,0.09337400645017624,144.33070373535156,0.04795376974209735,0.2048987805569127,0.18282429513831933,0.34444354120641935
0.06589771062135696,0.09870990365743637,144.33111572265625,0.04795376974209735,0.2048987805569127,0.18282429513831933,0.34444354120641935
0.05880635604262352,0.08637700229883194,144.33045959472656,0.04795376974209735,0.2048987805569127,0.18282429513831933,0.34444354120641935
0.0685829296708107,0.09733638912439346,144.33132934570312,0.04795376974209735,0.2048987805569127,0.18282429513831933,0.34444354120641935
0.06422962993383408,0.08704374730587006,144.33145141601562,0.04795376974209735,0.2048987805569127,0.18282429513831933,0.34444354120641935
0.06683580577373505,0.08078048378229141,144.3309783935547,0.04795376974209735,0.2048987805569127,0.18282429513831933,0.34444354120641935
0.06014382839202881,0.0873091071844101,144.33131408691406,0.04795376974209735,0.2048987805569127,0.18282429513831933,0.34444354120641935
0.06347788870334625,0.10180309414863586,144.3306427001953,0.04795376974209735,0.2048987805569127,0.18282429513831933,0.34444354120641935
0.056306127458810806,0.10250885039567947,144.3303680419922,0.04795376974209735,0.2048987805569127,0.18282429513831933,0.34444354120641935
0.07152793556451797,0.08718518167734146,144.33026123046875,0.04795376974209735,0.2048987805569127,0.18282429513831933,0.34444354120641935
0.06394041329622269,0.09017468243837357,144.33120727539062,0.04795376974209735,0.2048987805569127,0.18282429513831933,0.34444354120641935
0.07008310407400131,0.07157305628061295,144.3314971923828,0.04795376974209735,0.2048987805569127,0.18282429513831933,0.34444354120641935
0.060084328055381775,0.08094383031129837,144.33082580566406,0.04795376974209735,0.2048987805569127,0.18282429513831933,0.34444354120641935
0.05994744598865509,0.09653399139642715,144.3316192626953,0.04795376974209735,0.2048987805569127,0.18282429513831933,0.34444354120641935
0.06197294220328331,0.08171074837446213,144.33302307128906,0.04795376974209735,0.2048987805569127,0.18282429513831933,0.34444354120641935
0.05911071226000786,0.0929553434252739,144.3330535888672,0.04795376974209735,0.2048987805569127,0.18282429513831933,0.34444354120641935
0.06109604239463806,0.1028866246342659,144.33261108398438,0.04795376974209735,0.2048987805569127,0.18282429513831933,0.34444354120641935
0.05643574520945549,0.08475888520479202,144.33303833007812,0.04795376974209735,0.2048987805569127,0.18282429513831933,0.34444354120641935
0.055422648787498474,0.0960826650261879,144.3325958251953,0.04795376974209735,0.2048987805569127,0.18282429513831933,0.34444354120641935
0.05547574162483215,0.09625323861837387,144.33383178710938,0.04795376974209735,0.2048987805569127,0.18282429513831933,0.34444354120641935
0.06698757410049438,0.09509963542222977,144.33291625976562,0.04795376974209735,0.2048987805569127,0.18282429513831933,0.34444354120641935
0.05641889572143555,0.10424689948558807,144.33255004882812,0.04795376974209735,0.2048987805569127,0.18282429513831933,0.34444354120641935
0.057634953409433365,0.08720967918634415,144.3336639404297,0.04795376974209735,0.2048987805569127,0.18282429513831933,0.34444354120641935
0.052592430263757706,0.07906020432710648,144.33323669433594,0.04795376974209735,0.2048987805569127,0.18282429513831933,0.34444354120641935
0.061424292623996735,0.08766141533851624,144.333251953125,0.04795376974209735,0.2048987805569127,0.18282429513831933,0.34444354120641935
0.0477508120238781,0.09710932523012161,144.3338165283203,0.04795376974209735,0.2048987805569127,0.18282429513831933,0.34444354120641935
0.05394457280635834,0.08655330538749695,144.33363342285156,0.04795376974209735,0.2048987805569127,0.18282429513831933,0.34444354120641935
0.049671389162540436,0.07742184400558472,144.3331756591797,0.04795376974209735,0.2048987805569127,0.18282429513831933,0.34444354120641935
0.056509699672460556,0.08070545643568039,144.33303833007812,0.04795376974209735,0.2048987805569127,0.18282429513831933,0.34444354120641935
0.049785926938056946,0.08041603118181229,144.33265686035156,0.04795376974209735,0.2048987805569127,0.18282429513831933,0.34444354120641935
0.05509406328201294,0.07944931089878082,144.3324737548828,0.04795376974209735,0.2048987805569127,0.18282429513831933,0.34444354120641935
0.05500500276684761,0.10410011559724808,144.33265686035156,0.04795376974209735,0.2048987805569127,0.18282429513831933,0.34444354120641935
0.04049878939986229,0.0915197804570198,144.3334503173828,0.04795376974209735,0.2048987805569127,0.18282429513831933,0.34444354120641935
0.04211168363690376,0.09509589523077011,144.3338623046875,0.04795376974209735,0.2048987805569127,0.18282429513831933,0.34444354120641935
0.03893072530627251,0.091764897108078,144.33372497558594,0.04795376974209735,0.2048987805569127,0.18282429513831933,0.34444354120641935
0.06164062023162842,0.07763887941837311,144.3334503173828,0.04795376974209735,0.2048987805569127,0.18282429513831933,0.34444354120641935
0.05657598748803139,0.08650095015764236,144.33265686035156,0.04795376974209735,0.2048987805569127,0.18282429513831933,0.34444354120641935
0.05495832860469818,0.08414052426815033,144.33303833007812,0.04795376974209735,0.2048987805569127,0.18282429513831933,0.34444354120641935
0.05717533454298973,0.08625830709934235,144.33262634277344,0.04795376974209735,0.2048987805569127,0.18282429513831933,0.34444354120641935
0.05418752506375313,0.0939357727766037,144.3321075439453,0.04795376974209735,0.2048987805569127,0.18282429513831933,0.34444354120641935
0.0549357607960701,0.08520612865686417,144.3312225341797,0.04795376974209735,0.2048987805569127,0.18282429513831933,0.34444354120641935
0.05557640641927719,0.08747989684343338,144.3312225341797,0.04795376974209735,0.2048987805569127,0.18282429513831933,0.34444354120641935
0.05200536176562309,0.08501952886581421,144.33132934570312,0.04795376974209735,0.2048987805569127,0.18282429513831933,0.34444354120641935
0.05318789184093475,0.08280394971370697,144.33180236816406,0.04795376974209735,0.2048987805569127,0.18282429513831933,0.34444354120641935
0.06809453666210175,0.06698942929506302,144.3323974609375,0.04795376974209735,0.2048987805569127,0.18282429513831933,0.34444354120641935
0.051452722400426865,0.08194528520107269,144.33120727539062,0.04795376974209735,0.2048987805569127,0.18282429513831933,0.34444354120641935
0.05195623263716698,0.08153360337018967,144.33148193359375,0.04795376974209735,0.2048987805569127,0.18282429513831933,0.34444354120641935
0.043219950050115585,0.08239199966192245,144.33251953125,0.04795376974209735,0.2048987805569127,0.18282429513831933,0.34444354120641935
0.05233681946992874,0.08999314904212952,144.3325958251953,0.04795376974209735,0.2048987805569127,0.18282429513831933,0.34444354120641935
0.05715738236904144,0.08200407773256302,144.33258056640625,0.04795376974209735,0.2048987805569127,0.18282429513831933,0.34444354120641935
0.050749391317367554,0.08548615872859955,144.33309936523438,0.04795376974209735,0.2048987805569127,0.18282429513831933,0.34444354120641935
0.06059201434254646,0.08339633792638779,144.3333282470703,0.04795376974209735,0.2048987805569127,0.18282429513831933,0.34444354120641935
0.05252843350172043,0.08932614326477051,144.33291625976562,0.04795376974209735,0.2048987805569127,0.18282429513831933,0.34444354120641935
0.055717676877975464,0.08700334280729294,144.33384704589844,0.04795376974209735,0.2048987805569127,0.18282429513831933,0.34444354120641935
0.06587456166744232,0.07690946012735367,144.3335723876953,0.04795376974209735,0.2048987805569127,0.18282429513831933,0.34444354120641935
0.058914557099342346,0.07455325126647949,144.33335876464844,0.04795376974209735,0.2048987805569127,0.18282429513831933,0.34444354120641935
0.05656677111983299,0.06666693091392517,144.33377075195312,0.04795376974209735,0.2048987805569127,0.18282429513831933,0.34444354120641935
0.05768273025751114,0.0834982767701149,144.3345947265625,0.04795376974209735,0.2048987805569127,0.18282429513831933,0.34444354120641935
0.06295705586671829,0.08107535541057587,144.33575439453125,0.04795376974209735,0.2048987805569127,0.18282429513831933,0.34444354120641935
0.04314341023564339,0.07750454545021057,144.3365478515625,0.04795376974209735,0.2048987805569127,0.18282429513831933,0.34444354120641935
0.046720534563064575,0.07198052108287811,144.33685302734375,0.04795376974209735,0.2048987805569127,0.18282429513831933,0.34444354120641935
0.053781259804964066,0.0733771100640297,144.33631896972656,0.04795376974209735,0.2048987805569127,0.18282429513831933,0.34444354120641935
0.05549881234765053,0.07815465331077576,144.33798217773438,0.04795376974209735,0.2048987805569127,0.18282429513831933,0.34444354120641935
0.04879908636212349,0.06350009888410568,144.33934020996094,0.04795376974209735,0.2048987805569127,0.18282429513831933,0.34444354120641935
0.034628111869096756,0.08539674431085587,144.33888244628906,0.04795376974209735,0.2048987805569127,0.18282429513831933,0.34444354120641935
0.046707648783922195,0.06919462233781815,144.3394317626953,0.04795376974209735,0.2048987805569127,0.18282429513831933,0.34444354120641935
0.05848626419901848,0.08548223227262497,144.33905029296875,0.04795376974209735,0.2048987805569127,0.18282429513831933,0.34444354120641935
0.04015907272696495,0.08592958003282547,144.3391876220703,0.04795376974209735,0.2048987805569127,0.18282429513831933,0.34444354120641935
0.06299075484275818,0.08267121016979218,144.3390350341797,0.04795376974209735,0.2048987805569127,0.18282429513831933,0.34444354120641935
0.062127526849508286,0.0789722129702568,144.33956909179688,0.04795376974209735,0.2048987805569127,0.18282429513831933,0.34444354120641935
0.04803610220551491,0.08338117599487305,144.3401641845703,0.04795376974209735,0.2048987805569127,0.18282429513831933,0.34444354120641935
0.04919179901480675,0.08133034408092499,144.33984375,0.04795376974209735,0.2048987805569127,0.18282429513831933,0.34444354120641935
0.0466591939330101,0.06732112169265747,144.34083557128906,0.04795376974209735,0.2048987805569127,0.18282429513831933,0.34444354120641935
0.05526769161224365,0.08299960941076279,144.34146118164062,0.04795376974209735,0.2048987805569127,0.18282429513831933,0.34444354120641935
0.045780789107084274,0.08572950959205627,144.3409423828125,0.04795376974209735,0.2048987805569127,0.18282429513831933,0.34444354120641935
0.05133067071437836,0.08799027651548386,144.34181213378906,0.04795376974209735,0.2048987805569127,0.18282429513831933,0.34444354120641935
0.03929469361901283,0.08224300295114517,144.34262084960938,0.04795376974209735,0.2048987805569127,0.18282429513831933,0.34444354120641935
0.05628266930580139,0.06530186533927917,144.3441162109375,0.04795376974209735,0.2048987805569127,0.18282429513831933,0.34444354120641935
0.0487135574221611,0.0723218321800232,144.3455810546875,0.04795376974209735,0.2048987805569127,0.18282429513831933,0.34444354120641935
0.04733944311738014,0.09085331857204437,144.34521484375,0.04795376974209735,0.2048987805569127,0.18282429513831933,0.34444354120641935
0.06616343557834625,0.09195277839899063,144.3451690673828,0.04795376974209735,0.2048987805569127,0.18282429513831933,0.34444354120641935
0.055745530873537064,0.08205351233482361,144.34573364257812,0.04795376974209735,0.2048987805569127,0.18282429513831933,0.34444354120641935
0.04769577458500862,0.06554336845874786,144.34536743164062,0.04795376974209735,0.2048987805569127,0.18282429513831933,0.34444354120641935
0.0452616848051548,0.08413861691951752,144.34568786621094,0.04795376974209735,0.2048987805569127,0.18282429513831933,0.34444354120641935
0.060807399451732635,0.07792558521032333,144.3458251953125,0.04795376974209735,0.2048987805569127,0.18282429513831933,0.34444354120641935
0.051807377487421036,0.08902255445718765,144.3463897705078,0.04795376974209735,0.2048987805569127,0.18282429513831933,0.34444354120641935
0.03376816585659981,0.09558402001857758,144.34677124023438,0.04795376974209735,0.2048987805569127,0.18282429513831933,0.34444354120641935
0.041163891553878784,0.08381521701812744,144.34661865234375,0.04795376974209735,0.2048987805569127,0.18282429513831933,0.34444354120641935
0.055560313165187836,0.0724378228187561,144.3450164794922,0.04795376974209735,0.2048987805569127,0.18282429513831933,0.34444354120641935
0.05351412668824196,0.07638999819755554,144.345458984375,0.04795376974209735,0.2048987805569127,0.18282429513831933,0.34444354120641935
0.045694854110479355,0.07878290116786957,144.3460235595703,0.04795376974209735,0.2048987805569127,0.18282429513831933,0.34444354120641935
0.058874841779470444,0.0746719092130661,144.34547424316406,0.04795376974209735,0.2048987805569127,0.18282429513831933,0.34444354120641935
0.05151505395770073,0.07538148015737534,144.3450164794922,0.04795376974209735,0.2048987805569127,0.18282429513831933,0.34444354120641935
0.05216376855969429,0.07212033867835999,144.34425354003906,0.04795376974209735,0.2048987805569127,0.18282429513831933,0.34444354120641935
0.06395801156759262,0.06907851994037628,144.3446807861328,0.04795376974209735,0.2048987805569127,0.18282429513831933,0.34444354120641935
0.06513969600200653,0.08898845314979553,144.34378051757812,0.04795376974209735,0.2048987805569127,0.18282429513831933,0.34444354120641935
0.03379129618406296,0.07934552431106567,144.34423828125,0.04795376974209735,0.2048987805569127,0.18282429513831933,0.34444354120641935
0.03300409018993378,0.07473986595869064,144.3452911376953,0.04795376974209735,0.2048987805569127,0.18282429513831933,0.34444354120641935
0.05077825114130974,0.08051526546478271,144.34481811523438,0.04795376974209735,0.2048987805569127,0.18282429513831933,0.34444354120641935
0.04509139806032181,0.08664936572313309,144.34365844726562,0.04795376974209735,0.2048987805569127,0.18282429513831933,0.34444354120641935
0.040445100516080856,0.07758460193872452,144.3443603515625,0.04795376974209735,0.2048987805569127,0.18282429513831933,0.34444354120641935
0.04280751198530197,0.06675874441862106,144.34423828125,0.04795376974209735,0.2048987805569127,0.18282429513831933,0.34444354120641935
0.05005823075771332,0.08027366548776627,144.34349060058594,0.04795376974209735,0.2048987805569127,0.18282429513831933,0.34444354120641935
0.05572941154241562,0.08373982459306717,144.3442840576172,0.04795376974209735,0.2048987805569127,0.18282429513831933,0.34444354120641935
0.032885558903217316,0.07237666100263596,144.3452911376953,0.04795376974209735,0.2048987805569127,0.18282429513831933,0.34444354120641935
0.05306665599346161,0.08010461181402206,144.34506225585938,0.04795376974209735,0.2048987805569127,0.18282429513831933,0.34444354120641935
0.046556662768125534,0.06978767365217209,144.34495544433594,0.04795376974209735,0.2048987805569127,0.18282429513831933,0.34444354120641935
0.05767762288451195,0.08130978047847748,144.34510803222656,0.04795376974209735,0.2048987805569127,0.18282429513831933,0.34444354120641935
0.048091594129800797,0.08040014654397964,144.34439086914062,0.04795376974209735,0.2048987805569127,0.18282429513831933,0.34444354120641935
0.06141287460923195,0.07130960375070572,144.3437957763672,0.04795376974209735,0.2048987805569127,0.18282429513831933,0.34444354120641935
0.06557688117027283,0.07181244343519211,144.3428497314453,0.04795376974209735,0.2048987805569127,0.18282429513831933,0.34444354120641935
0.052237752825021744,0.07888918370008469,144.3434295654297,0.04795376974209735,0.2048987805569127,0.18282429513831933,0.34444354120641935
0.051425084471702576,0.07190240174531937,144.3431396484375,0.04795376974209735,0.2048987805569127,0.18282429513831933,0.34444354120641935
0.047412700951099396,0.07527921348810196,144.3433074951172,0.04795376974209735,0.2048987805569127,0.18282429513831933,0.34444354120641935
0.043992649763822556,0.06703134626150131,144.34304809570312,0.04795376974209735,0.2048987805569127,0.18282429513831933,0.34444354120641935
0.05138535052537918,0.06944431364536285,144.34222412109375,0.04795376974209735,0.2048987805569127,0.18282429513831933,0.34444354120641935
0.05626735836267471,0.061367228627204895,144.34243774414062,0.04795376974209735,0.2048987805569127,0.18282429513831933,0.34444354120641935
0.058637890964746475,0.07399386167526245,144.3432159423828,0.04795376974209735,0.2048987805569127,0.18282429513831933,0.34444354120641935
0.03224363550543785,0.060284197330474854,144.3435821533203,0.04795376974209735,0.2048987805569127,0.18282429513831933,0.34444354120641935
0.053562719374895096,0.08118268847465515,144.34249877929688,0.04795376974209735,0.2048987805569127,0.18282429513831933,0.34444354120641935
0.050526462495326996,0.0661633163690567,144.3424530029297,0.04795376974209735,0.2048987805569127,0.18282429513831933,0.34444354120641935
0.04462069272994995,0.0773552656173706,144.34207153320312,0.04795376974209735,0.2048987805569127,0.18282429513831933,0.34444354120641935
0.06641334295272827,0.08482713252305984,144.342041015625,0.04795376974209735,0.2048987805569127,0.18282429513831933,0.34444354120641935
0.04756134748458862,0.06531500816345215,144.34255981445312,0.04795376974209735,0.2048987805569127,0.18282429513831933,0.34444354120641935
0.04746364802122116,0.07122606039047241,144.34149169921875,0.04795376974209735,0.2048987805569127,0.18282429513831933,0.34444354120641935
0.041920993477106094,0.07846364378929138,144.3415069580078,0.04795376974209735,0.2048987805569127,0.18282429513831933,0.34444354120641935
0.04603390768170357,0.0722358375787735,144.34185791015625,0.04795376974209735,0.2048987805569127,0.18282429513831933,0.34444354120641935
0.051213257014751434,0.06919846683740616,144.34060668945312,0.04795376974209735,0.2048987805569127,0.18282429513831933,0.34444354120641935
0.04946313053369522,0.08359610289335251,144.3402862548828,0.04795376974209735,0.2048987805569127,0.18282429513831933,0.34444354120641935
0.049178432673215866,0.07142212241888046,144.3401641845703,0.04795376974209735,0.2048987805569127,0.18282429513831933,0.34444354120641935
0.055263690650463104,0.06564868986606598,144.33995056152344,0.04795376974209735,0.2048987805569127,0.18282429513831933,0.34444354120641935
0.05678379535675049,0.07058066874742508,144.34030151367188,0.04795376974209735,0.2048987805569127,0.18282429513831933,0.34444354120641935
0.04420299455523491,0.07410608232021332,144.33956909179688,0.04795376974209735,0.2048987805569127,0.18282429513831933,0.34444354120641935
0.0487574078142643,0.07458106428384781,144.33892822265625,0.04795376974209735,0.2048987805569127,0.18282429513831933,0.34444354120641935
0.049991339445114136,0.07380398362874985,144.33929443359375,0.04795376974209735,0.2048987805569127,0.18282429513831933,0.34444354120641935
0.05590597912669182,0.0700928270816803,144.33949279785156,0.04795376974209735,0.2048987805569127,0.18282429513831933,0.34444354120641935
0.053501762449741364,0.05863333120942116,144.34060668945312,0.04795376974209735,0.2048987805569127,0.18282429513831933,0.34444354120641935
0.03585497662425041,0.07102769613265991,144.3408660888672,0.04795376974209735,0.2048987805569127,0.18282429513831933,0.34444354120641935
0.045007966458797455,0.07712186872959137,144.34071350097656,0.04795376974209735,0.2048987805569127,0.18282429513831933,0.34444354120641935
0.04093912988901138,0.06450461596250534,144.3412628173828,0.04795376974209735,0.2048987805569127,0.18282429513831933,0.34444354120641935
0.04128962755203247,0.06712658703327179,144.32688903808594,0.04795376974209735,0.2048987805569127,0.18282429513831933,0.34444354120641935
0.045566946268081665,0.07162463665008545,144.32626342773438,0.04795376974209735,0.2048987805569127,0.18282429513831933,0.34444354120641935
0.051186028867959976,0.05731634795665741,144.3264617919922,0.04795376974209735,0.2048987805569127,0.18282429513831933,0.34444354120641935
0.05492151156067848,0.06002730131149292,144.32534790039062,0.04795376974209735,0.2048987805569127,0.18282429513831933,0.34444354120641935
0.03413480147719383,0.06707360595464706,144.3249969482422,0.04795376974209735,0.2048987805569127,0.18282429513831933,0.34444354120641935
0.04088378697633743,0.07240467518568039,144.32469177246094,0.04795376974209735,0.2048987805569127,0.18282429513831933,0.34444354120641935
0.029359638690948486,0.06323252618312836,144.32638549804688,0.04795376974209735,0.2048987805569127,0.18282429513831933,0.34444354120641935
0.04309716820716858,0.06014033779501915,144.326904296875,0.04795376974209735,0.2048987805569127,0.18282429513831933,0.34444354120641935
0.053971871733665466,0.06334707885980606,144.32713317871094,0.04795376974209735,0.2048987805569127,0.18282429513831933,0.34444354120641935
0.03087085485458374,0.06361608952283859,144.32656860351562,0.04795376974209735,0.2048987805569127,0.18282429513831933,0.34444354120641935
0.03176320716738701,0.056737739592790604,144.32537841796875,0.04795376974209735,0.2048987805569127,0.18282429513831933,0.34444354120641935
0.052762407809495926,0.05703466013073921,144.32518005371094,0.04795376974209735,0.2048987805569127,0.18282429513831933,0.34444354120641935
0.049288440495729446,0.05129742622375488,144.3253631591797,0.04795376974209735,0.2048987805569127,0.18282429513831933,0.34444354120641935
0.04492383450269699,0.06100086867809296,144.32603454589844,0.04795376974209735,0.2048987805569127,0.18282429513831933,0.34444354120641935
0.03542974963784218,0.061381995677948,144.3255157470703,0.04795376974209735,0.2048987805569127,0.18282429513831933,0.34444354120641935
0.03744466230273247,0.06440234184265137,144.32627868652344,0.04795376974209735,0.2048987805569127,0.18282429513831933,0.34444354120641935
0.04721666872501373,0.06161008030176163,144.32586669921875,0.04795376974209735,0.2048987805569127,0.18282429513831933,0.34444354120641935
0.04176771640777588,0.05741671472787857,144.32574462890625,0.04795376974209735,0.2048987805569127,0.18282429513831933,0.34444354120641935
0.046481840312480927,0.06311584264039993,144.32472229003906,0.04795376974209735,0.2048987805569127,0.18282429513831933,0.34444354120641935
0.04664468765258789,0.05211928114295006,144.32261657714844,0.04795376974209735,0.2048987805569127,0.18282429513831933,0.34444354120641935
0.04046431928873062,0.05138420686125755,144.3228302001953,0.04795376974209735,0.2048987805569127,0.18282429513831933,0.34444354120641935
0.03595232963562012,0.07548552006483078,144.32261657714844,0.04795376974209735,0.2048987805569127,0.18282429513831933,0.34444354120641935
0.04799565300345421,0.06588979065418243,144.32260131835938,0.04795376974209735,0.2048987805569127,0.18282429513831933,0.34444354120641935
0.03882046043872833,0.06236403435468674,144.32289123535156,0.04795376974209735,0.2048987805569127,0.18282429513831933,0.34444354120641935
0.054519277065992355,0.062191277742385864,144.3225860595703,0.04795376974209735,0.2048987805569127,0.18282429513831933,0.34444354120641935
0.043047886341810226,0.06395616382360458,144.32191467285156,0.04795376974209735,0.2048987805569127,0.18282429513831933,0.34444354120641935
0.0340404137969017,0.06764761358499527,144.3214874267578,0.04795376974209735,0.2048987805569127,0.18282429513831933,0.34444354120641935
0.04276462644338608,0.05169625207781792,144.3217010498047,0.04795376974209735,0.2048987805569127,0.18282429513831933,0.34444354120641935
0.03054497018456459,0.06731359660625458,144.32025146484375,0.04795376974209735,0.2048987805569127,0.18282429513831933,0.34444354120641935
0.02984427846968174,0.06343940645456314,144.3198699951172,0.04795376974209735,0.2048987805569127,0.18282429513831933,0.34444354120641935
0.038734808564186096,0.05893019586801529,144.32040405273438,0.04795376974209735,0.2048987805569127,0.18282429513831933,0.34444354120641935
0.044512808322906494,0.059661928564310074,144.32144165039062,0.04795376974209735,0.2048987805569127,0.18282429513831933,0.34444354120641935
0.035840049386024475,0.055432140827178955,144.3233184814453,0.04795376974209735,0.2048987805569127,0.18282429513831933,0.34444354120641935
0.04147166386246681,0.04888714477419853,144.32286071777344,0.04795376974209735,0.2048987805569127,0.18282429513831933,0.34444354120641935
0.0449545793235302,0.053763724863529205,144.32373046875,0.04795376974209735,0.2048987805569127,0.18282429513831933,0.34444354120641935
0.04316408932209015,0.05370030179619789,144.32412719726562,0.04795376974209735,0.2048987805569127,0.18282429513831933,0.34444354120641935
0.029900390654802322,0.0637604370713234,144.32516479492188,0.04795376974209735,0.2048987805569127,0.18282429513831933,0.34444354120641935
0.031041793525218964,0.06182826682925224,144.32473754882812,0.04795376974209735,0.2048987805569127,0.18282429513831933,0.34444354120641935
0.04658444970846176,0.06608793884515762,144.3237762451172,0.04795376974209735,0.2048987805569127,0.18282429513831933,0.34444354120641935
0.042575642466545105,0.07822833210229874,144.3233642578125,0.04795376974209735,0.2048987805569127,0.18282429513831933,0.34444354120641935
0.04290745407342911,0.05855339393019676,144.3241729736328,0.04795376974209735,0.2048987805569127,0.18282429513831933,0.34444354120641935
0.04543706774711609,0.06041761115193367,144.32386779785156,0.04795376974209735,0.2048987805569127,0.18282429513831933,0.34444354120641935
0.03768647834658623,0.06550101935863495,144.3243865966797,0.04795376974209735,0.2048987805569127,0.18282429513831933,0.34444354120641935
0.02685079723596573,0.0666515976190567,144.32513427734375,0.04795376974209735,0.2048987805569127,0.18282429513831933,0.34444354120641935
0.04247499257326126,0.07166751474142075,144.32521057128906,0.04795376974209735,0.2048987805569127,0.18282429513831933,0.34444354120641935
0.0399252250790596,0.057721443474292755,144.3256072998047,0.04795376974209735,0.2048987805569127,0.18282429513831933,0.34444354120641935
0.04191337153315544,0.06504497677087784,144.3255615234375,0.04795376974209735,0.2048987805569127,0.18282429513831933,0.34444354120641935
0.04291105270385742,0.07488898187875748,144.3257293701172,0.04795376974209735,0.2048987805569127,0.18282429513831933,0.34444354120641935
0.03518311679363251,0.08427892625331879,144.32525634765625,0.04795376974209735,0.2048987805569127,0.18282429513831933,0.34444354120641935
0.03838183730840683,0.06860284507274628,144.3251190185547,0.04795376974209735,0.2048987805569127,0.18282429513831933,0.34444354120641935
0.040501825511455536,0.07082876563072205,144.324951171875,0.04795376974209735,0.2048987805569127,0.18282429513831933,0.34444354120641935
0.0212713610380888,0.05306974798440933,144.32443237304688,0.04795376974209735,0.2048987805569127,0.18282429513831933,0.34444354120641935
0.04509257152676582,0.06793684512376785,144.32362365722656,0.04795376974209735,0.2048987805569127,0.18282429513831933,0.34444354120641935
0.04086625576019287,0.06389369070529938,144.3229522705078,0.04795376974209735,0.2048987805569127,0.18282429513831933,0.34444354120641935
0.02412358485162258,0.05162835121154785,144.3223114013672,0.04795376974209735,0.2048987805569127,0.18282429513831933,0.34444354120641935
0.044028785079717636,0.05871179699897766,144.3225555419922,0.04795376974209735,0.2048987805569127,0.18282429513831933,0.34444354120641935
0.03243521228432655,0.05378535017371178,144.32275390625,0.04795376974209735,0.2048987805569127,0.18282429513831933,0.34444354120641935
0.045791931450366974,0.05601786449551582,144.3222198486328,0.04795376974209735,0.2048987805569127,0.18282429513831933,0.34444354120641935
0.04702749475836754,0.06529197841882706,144.32200622558594,0.04795376974209735,0.2048987805569127,0.18282429513831933,0.34444354120641935
0.032239317893981934,0.07116786390542984,144.32203674316406,0.04795376974209735,0.2048987805569127,0.18282429513831933,0.34444354120641935
0.04080706089735031,0.0658188909292221,144.3213653564453,0.04795376974209735,0.2048987805569127,0.18282429513831933,0.34444354120641935
0.04718821123242378,0.07029397785663605,144.3202667236328,0.04795376974209735,0.2048987805569127,0.18282429513831933,0.34444354120641935
0.03620481491088867,0.05900738388299942,144.3194122314453,0.04795376974209735,0.2048987805569127,0.18282429513831933,0.34444354120641935
0.024744490161538124,0.061447370797395706,144.31936645507812,0.04795376974209735,0.2048987805569127,0.18282429513831933,0.34444354120641935
0.044473979622125626,0.05796045809984207,144.31968688964844,0.04795376974209735,0.2048987805569127,0.18282429513831933,0.34444354120641935
0.04005144536495209,0.05032237619161606,144.32040405273438,0.04795376974209735,0.2048987805569127,0.18282429513831933,0.34444354120641935
0.03966528922319412,0.05722387135028839,144.32034301757812,0.04795376974209735,0.2048987805569127,0.18282429513831933,0.34444354120641935
0.03925871104001999,0.06849844753742218,144.3210906982422,0.04795376974209735,0.2048987805569127,0.18282429513831933,0.34444354120641935
0.032922033220529556,0.0598854199051857,144.3214569091797,0.04795376974209735,0.2048987805569127,0.18282429513831933,0.34444354120641935
0.042074985802173615,0.053871896117925644,144.3216552734375,0.04795376974209735,0.2048987805569127,0.18282429513831933,0.34444354120641935
0.052062589675188065,0.058524567633867264,144.32228088378906,0.04795376974209735,0.2048987805569127,0.18282429513831933,0.34444354120641935
0.043924566358327866,0.05539580434560776,144.32220458984375,0.04795376974209735,0.2048987805569127,0.18282429513831933,0.34444354120641935
0.03455024212598801,0.058664556592702866,144.322998046875,0.04795376974209735,0.2048987805569127,0.18282429513831933,0.34444354120641935
0.04133205860853195,0.06602996587753296,144.3236541748047,0.04795376974209735,0.2048987805569127,0.18282429513831933,0.34444354120641935
0.04164842888712883,0.06295398622751236,144.32359313964844,0.04795376974209735,0.2048987805569127,0.18282429513831933,0.34444354120641935
0.03131642937660217,0.06763222068548203,144.32347106933594,0.04795376974209735,0.2048987805569127,0.18282429513831933,0.34444354120641935
0.0346108041703701,0.06346789002418518,144.32293701171875,0.04795376974209735,0.2048987805569127,0.18282429513831933,0.34444354120641935
0.03854716196656227,0.06482867151498795,144.32228088378906,0.04795376974209735,0.2048987805569127,0.18282429513831933,0.34444354120641935
0.031094318255782127,0.052237775176763535,144.32069396972656,0.04795376974209735,0.2048987805569127,0.18282429513831933,0.34444354120641935
0.03382601588964462,0.04662374034523964,144.319091796875,0.04795376974209735,0.2048987805569127,0.18282429513831933,0.34444354120641935
0.04534182697534561,0.05544081702828407,144.31944274902344,0.04795376974209735,0.2048987805569127,0.18282429513831933,0.34444354120641935
0.0332520455121994,0.05270902067422867,144.318603515625,0.04795376974209735,0.2048987805569127,0.18282429513831933,0.34444354120641935
0.04205039516091347,0.047613754868507385,144.31961059570312,0.04795376974209735,0.2048987805569127,0.18282429513831933,0.34444354120641935
0.034252431243658066,0.051468849182128906,144.31967163085938,0.04795376974209735,0.2048987805569127,0.18282429513831933,0.34444354120641935
0.04264000058174133,0.06282202154397964,144.3199920654297,0.04795376974209735,0.2048987805569127,0.18282429513831933,0.34444354120641935
0.030831268057227135,0.053289517760276794,144.32000732421875,0.04795376974209735,0.2048987805569127,0.18282429513831933,0.34444354120641935
0.04412838816642761,0.06012088432908058,144.3193359375,0.04795376974209735,0.2048987805569127,0.18282429513831933,0.34444354120641935
0.04891083389520645,0.044607777148485184,144.3185272216797,0.04795376974209735,0.2048987805569127,0.18282429513831933,0.34444354120641935
0.03527238965034485,0.05310959741473198,144.31964111328125,0.04795376974209735,0.2048987805569127,0.18282429513831933,0.34444354120641935
0.01605495624244213,0.06025177240371704,144.31948852539062,0.04795376974209735,0.2048987805569127,0.18282429513831933,0.34444354120641935
0.04151344671845436,0.05744849890470505,144.31809997558594,0.04795376974209735,0.2048987805569127,0.18282429513831933,0.34444354120641935
0.039217714220285416,0.04295191168785095,144.31869506835938,0.04795376974209735,0.2048987805569127,0.18282429513831933,0.34444354120641935
0.04201633483171463,0.055909574031829834,144.31887817382812,0.04795376974209735,0.2048987805569127,0.18282429513831933,0.34444354120641935
0.036530956625938416,0.05999399349093437,144.31948852539062,0.04795376974209735,0.2048987805569127,0.18282429513831933,0.34444354120641935
0.03764909878373146,0.05591969937086105,144.3203582763672,0.04795376974209735,0.2048987805569127,0.18282429513831933,0.34444354120641935
0.03754604235291481,0.06820236891508102,144.32028198242188,0.04795376974209735,0.2048987805569127,0.18282429513831933,0.34444354120641935
0.038431067019701004,0.07136783003807068,144.31991577148438,0.04795376974209735,0.2048987805569127,0.18282429513831933,0.34444354120641935
0.047015104442834854,0.06295763701200485,144.3199920654297,0.04795376974209735,0.2048987805569127,0.18282429513831933,0.34444354120641935
0.039271868765354156,0.05503575876355171,144.320068359375,0.04795376974209735,0.2048987805569127,0.18282429513831933,0.34444354120641935
0.044337693601846695,0.05953454226255417,144.32037353515625,0.04795376974209735,0.2048987805569127,0.18282429513831933,0.34444354120641935
0.042230475693941116,0.04730736091732979,144.3187713623047,0.04795376974209735,0.2048987805569127,0.18282429513831933,0.34444354120641935
0.04608665406703949,0.06470250338315964,144.31886291503906,0.04795376974209735,0.2048987805569127,0.18282429513831933,0.34444354120641935
0.04467877000570297,0.05155634507536888,144.3196258544922,0.04795376974209735,0.2048987805569127,0.18282429513831933,0.34444354120641935
0.04636431485414505,0.05917906388640404,144.31918334960938,0.04795376974209735,0.2048987805569127,0.18282429513831933,0.34444354120641935
0.029376937076449394,0.05829208716750145,144.31785583496094,0.04795376974209735,0.2048987805569127,0.18282429513831933,0.34444354120641935
0.030101677402853966,0.06145835295319557,144.31707763671875,0.04795376974209735,0.2048987805569127,0.18282429513831933,0.34444354120641935
0.03160608559846878,0.060386523604393005,144.31646728515625,0.04795376974209735,0.2048987805569127,0.18282429513831933,0.34444354120641935
0.03868398442864418,0.05208224058151245,144.31610107421875,0.04795376974209735,0.2048987805569127,0.18282429513831933,0.34444354120641935
0.039522506296634674,0.042547810822725296,144.31546020507812,0.04795376974209735,0.2048987805569127,0.18282429513831933,0.34444354120641935
0.02865833230316639,0.053755201399326324,144.31484985351562,0.04795376974209735,0.2048987805569127,0.18282429513831933,0.34444354120641935
0.018583130091428757,0.06320656090974808,144.314697265625,0.04795376974209735,0.2048987805569127,0.18282429513831933,0.34444354120641935
0.029490558430552483,0.05600520595908165,144.3150634765625,0.04795376974209735,0.2048987805569127,0.18282429513831933,0.34444354120641935
0.040873054414987564,0.06253856420516968,144.3141326904297,0.04795376974209735,0.2048987805569127,0.18282429513831933,0.34444354120641935
0.017731238156557083,0.058575768023729324,144.3146514892578,0.04795376974209735,0.2048987805569127,0.18282429513831933,0.34444354120641935
0.029729671776294708,0.0665736123919487,144.31439208984375,0.04795376974209735,0.2048987805569127,0.18282429513831933,0.34444354120641935
0.03376489132642746,0.04928255453705788,144.31451416015625,0.04795376974209735,0.2048987805569127,0.18282429513831933,0.34444354120641935
0.029337171465158463,0.059614092111587524,144.31396484375,0.04795376974209735,0.2048987805569127,0.18282429513831933,0.34444354120641935
0.04331269487738609,0.05184479430317879,144.31393432617188,0.04795376974209735,0.2048987805569127,0.18282429513831933,0.34444354120641935
0.030892930924892426,0.057857584208250046,144.3141326904297,0.04795376974209735,0.2048987805569127,0.18282429513831933,0.34444354120641935
0.04628745838999748,0.057366542518138885,144.31396484375,0.04795376974209735,0.2048987805569127,0.18282429513831933,0.34444354120641935
0.03345410153269768,0.054364707320928574,144.32643127441406,0.04795376974209735,0.2048987805569127,0.18282429513831933,0.34444354120641935
0.023103630170226097,0.0617452934384346,144.32644653320312,0.04795376974209735,0.2048987805569127,0.18282429513831933,0.34444354120641935
0.02384691685438156,0.05348740890622139,144.32630920410156,0.04795376974209735,0.2048987805569127,0.18282429513831933,0.34444354120641935
0.033337824046611786,0.052507948130369186,144.3258514404297,0.04795376974209735,0.2048987805569127,0.18282429513831933,0.34444354120641935
0.029593419283628464,0.04990720376372337,144.32557678222656,0.04795376974209735,0.2048987805569127,0.18282429513831933,0.34444354120641935
0.031919099390506744,0.05363563448190689,144.32508850097656,0.04795376974209735,0.2048987805569127,0.18282429513831933,0.34444354120641935
0.0394827201962471,0.052669137716293335,144.32510375976562,0.04795376974209735,0.2048987805569127,0.18282429513831933,0.34444354120641935
0.022573957219719887,0.04578030854463577,144.32586669921875,0.04795376974209735,0.2048987805569127,0.18282429513831933,0.34444354120641935
0.022091094404459,0.0499284565448761,144.3253173828125,0.04795376974209735,0.2048987805569127,0.18282429513831933,0.34444354120641935
0.04094613343477249,0.053713612258434296,144.3256072998047,0.04795376974209735,0.2048987805569127,0.18282429513831933,0.34444354120641935
0.03135146200656891,0.04837431013584137,144.3243408203125,0.04795376974209735,0.2048987805569127,0.18282429513831933,0.34444354120641935
0.02965502068400383,0.0665782019495964,144.32373046875,0.04795376974209735,0.2048987805569127,0.18282429513831933,0.34444354120641935
0.024512236937880516,0.050273362547159195,144.3235321044922,0.04795376974209735,0.2048987805569127,0.18282429513831933,0.34444354120641935
0.041513752192258835,0.05129782482981682,144.322509765625,0.04795376974209735,0.2048987805569127,0.18282429513831933,0.34444354120641935
0.026946334168314934,0.043795034289360046,144.3223114013672,0.04795376974209735,0.2048987805569127,0.18282429513831933,0.34444354120641935
0.04208139702677727,0.036082424223423004,144.32225036621094,0.04795376974209735,0.2048987805569127,0.18282429513831933,0.34444354120641935
0.02983250468969345,0.05647817626595497,144.322998046875,0.04795376974209735,0.2048987805569127,0.18282429513831933,0.34444354120641935
0.03221787512302399,0.06258980929851532,144.32321166992188,0.04795376974209735,0.2048987805569127,0.18282429513831933,0.34444354120641935
0.02962443418800831,0.05747232586145401,144.3235321044922,0.04795376974209735,0.2048987805569127,0.18282429513831933,0.34444354120641935
0.035886578261852264,0.06083277240395546,144.32333374023438,0.04795376974209735,0.2048987805569127,0.18282429513831933,0.34444354120641935
0.029922224581241608,0.06585036963224411,144.32440185546875,0.04795376974209735,0.2048987805569127,0.18282429513831933,0.34444354120641935
0.035745132714509964,0.050816990435123444,144.32383728027344,0.04795376974209735,0.2048987805569127,0.18282429513831933,0.34444354120641935
0.04265924170613289,0.05309922248125076,144.32269287109375,0.04795376974209735,0.2048987805569127,0.18282429513831933,0.34444354120641935
0.036202527582645416,0.05439724773168564,144.32351684570312,0.04795376974209735,0.2048987805569127,0.18282429513831933,0.34444354120641935
0.03812705725431442,0.05053853616118431,144.3225860595703,0.04795376974209735,0.2048987805569127,0.18282429513831933,0.34444354120641935
0.04462957754731178,0.040415409952402115,144.3217010498047,0.04795376974209735,0.2048987805569127,0.18282429513831933,0.34444354120641935
0.018542271107435226,0.04730744659900665,144.3209228515625,0.04795376974209735,0.2048987805569127,0.18282429513831933,0.34444354120641935
0.03379664570093155,0.05116632953286171,144.3199005126953,0.04795376974209735,0.2048987805569127,0.18282429513831933,0.34444354120641935
0.03403359651565552,0.0492459237575531,144.31895446777344,0.04795376974209735,0.2048987805569127,0.18282429513831933,0.34444354120641935
0.05169561505317688,0.042878661304712296,144.31826782226562,0.04795376974209735,0.2048987805569127,0.18282429513831933,0.34444354120641935
0.038738809525966644,0.04985235258936882,144.32041931152344,0.04795376974209735,0.2048987805569127,0.18282429513831933,0.34444354120641935
0.030984671786427498,0.05180674046278,144.32156372070312,0.04795376974209735,0.2048987805569127,0.18282429513831933,0.34444354120641935
0.032650891691446304,0.048714425414800644,144.32015991210938,0.04795376974209735,0.2048987805569127,0.18282429513831933,0.34444354120641935
0.027616942301392555,0.038488391786813736,144.3187255859375,0.04795376974209735,0.2048987805569127,0.18282429513831933,0.34444354120641935
0.03894874081015587,0.0582389235496521,144.318603515625,0.04795376974209735,0.2048987805569127,0.18282429513831933,0.34444354120641935
0.046895816922187805,0.03533380478620529,144.318603515625,0.04795376974209735,0.2048987805569127,0.18282429513831933,0.34444354120641935
0.043982431292533875,0.039512503892183304,144.3189697265625,0.04795376974209735,0.2048987805569127,0.18282429513831933,0.34444354120641935
0.02219010703265667,0.04588291421532631,144.31878662109375,0.04795376974209735,0.2048987805569127,0.18282429513831933,0.34444354120641935
0.035288359969854355,0.05074504762887955,144.31875610351562,0.04795376974209735,0.2048987805569127,0.18282429513831933,0.34444354120641935
0.025296228006482124,0.03238949179649353,144.3192138671875,0.04795376974209735,0.2048987805569127,0.18282429513831933,0.34444354120641935
0.03499637171626091,0.05110614374279976,144.3203887939453,0.04795376974209735,0.2048987805569127,0.18282429513831933,0.34444354120641935
0.01401473581790924,0.04486807435750961,144.32057189941406,0.04795376974209735,0.2048987805569127,0.18282429513831933,0.34444354120641935
0.0186289194971323,0.055784672498703,144.3208465576172,0.04795376974209735,0.2048987805569127,0.18282429513831933,0.34444354120641935
0.05047907307744026,0.05814609304070473,144.32168579101562,0.04795376974209735,0.2048987805569127,0.18282429513831933,0.34444354120641935
0.04794224724173546,0.0487184040248394,144.32081604003906,0.04795376974209735,0.2048987805569127,0.18282429513831933,0.34444354120641935
0.0463612899184227,0.04564555734395981,144.3199462890625,0.04795376974209735,0.2048987805569127,0.18282429513831933,0.34444354120641935
0.04003626108169556,0.055525097995996475,144.3197479248047,0.04795376974209735,0.2048987805569127,0.18282429513831933,0.34444354120641935
0.03610426187515259,0.05718427896499634,144.320068359375,0.04795376974209735,0.2048987805569127,0.18282429513831933,0.34444354120641935
0.04124308004975319,0.06192290410399437,144.32069396972656,0.04795376974209735,0.2048987805569127,0.18282429513831933,0.34444354120641935
0.023713555186986923,0.0573488287627697,144.320068359375,0.04795376974209735,0.2048987805569127,0.18282429513831933,0.34444354120641935
0.0394451878964901,0.04651198536157608,144.32081604003906,0.04795376974209735,0.2048987805569127,0.18282429513831933,0.34444354120641935
0.018850764259696007,0.0412190817296505,144.322021484375,0.04795376974209735,0.2048987805569127,0.18282429513831933,0.34444354120641935
0.048503562808036804,0.05351920798420906,144.32275390625,0.04795376974209735,0.2048987805569127,0.18282429513831933,0.34444354120641935
0.035452164709568024,0.04516315832734108,144.32244873046875,0.04795376974209735,0.2048987805569127,0.18282429513831933,0.34444354120641935
0.02944112941622734,0.06206967309117317,144.32241821289062,0.04795376974209735,0.2048987805569127,0.18282429513831933,0.34444354120641935
0.031246468424797058,0.03576954826712608,144.3231964111328,0.04795376974209735,0.2048987805569127,0.18282429513831933,0.34444354120641935
0.02787812054157257,0.052559588104486465,144.3232879638672,0.04795376974209735,0.2048987805569127,0.18282429513831933,0.34444354120641935
0.03234877064824104,0.05276614427566528,144.324462890625,0.04795376974209735,0.2048987805569127,0.18282429513831933,0.34444354120641935
0.03919898346066475,0.046526405960321426,144.3240203857422,0.04795376974209735,0.2048987805569127,0.18282429513831933,0.34444354120641935
0.02979813888669014,0.052696529775857925,144.3245086669922,0.04795376974209735,0.2048987805569127,0.18282429513831933,0.34444354120641935
0.03362743929028511,0.050093017518520355,144.3251190185547,0.04795376974209735,0.2048987805569127,0.18282429513831933,0.34444354120641935
0.023428162559866905,0.04155457392334938,144.3243408203125,0.04795376974209735,0.2048987805569127,0.18282429513831933,0.34444354120641935
0.03856128826737404,0.04733671993017197,144.32443237304688,0.04795376974209735,0.2048987805569127,0.18282429513831933,0.34444354120641935
0.030047915875911713,0.05372483283281326,144.32493591308594,0.04795376974209735,0.2048987805569127,0.18282429513831933,0.34444354120641935
0.031342215836048126,0.05593298748135567,144.3257598876953,0.04795376974209735,0.2048987805569127,0.18282429513831933,0.34444354120641935
0.037145208567380905,0.04587912932038307,144.32614135742188,0.04795376974209735,0.2048987805569127,0.18282429513831933,0.34444354120641935
0.036694642156362534,0.055493663996458054,144.3263397216797,0.04795376974209735,0.2048987805569127,0.18282429513831933,0.34444354120641935
0.03911255672574043,0.05982401221990585,144.3261260986328,0.04795376974209735,0.2048987805569127,0.18282429513831933,0.34444354120641935
0.028989002108573914,0.06265445798635483,144.32652282714844,0.04795376974209735,0.2048987805569127,0.18282429513831933,0.34444354120641935
0.029530981555581093,0.053266771137714386,144.32611083984375,0.04795376974209735,0.2048987805569127,0.18282429513831933,0.34444354120641935
0.03945298492908478,0.051249321550130844,144.32679748535156,0.04795376974209735,0.2048987805569127,0.18282429513831933,0.34444354120641935
0.03234851360321045,0.041903167963027954,144.32772827148438,0.04795376974209735,0.2048987805569127,0.18282429513831933,0.34444354120641935
0.033520620316267014,0.05486999452114105,144.32862854003906,0.04795376974209735,0.2048987805569127,0.18282429513831933,0.34444354120641935
0.040227293968200684,0.04474743455648422,144.32846069335938,0.04795376974209735,0.2048987805569127,0.18282429513831933,0.34444354120641935
0.032722149044275284,0.03836569935083389,144.32798767089844,0.04795376974209735,0.2048987805569127,0.18282429513831933,0.34444354120641935
0.03284672275185585,0.05684022977948189,144.32789611816406,0.04795376974209735,0.2048987805569127,0.18282429513831933,0.34444354120641935
0.04789801687002182,0.0626373216509819,144.3280487060547,0.04795376974209735,0.2048987805569127,0.18282429513831933,0.34444354120641935
0.036665402352809906,0.050380948930978775,144.32647705078125,0.04795376974209735,0.2048987805569127,0.18282429513831933,0.34444354120641935
0.035951051861047745,0.05397447943687439,144.32696533203125,0.04795376974209735,0.2048987805569127,0.18282429513831933,0.34444354120641935
0.018077854067087173,0.05601475015282631,144.32720947265625,0.04795376974209735,0.2048987805569127,0.18282429513831933,0.34444354120641935
0.027280259877443314,0.05637563765048981,144.32676696777344,0.04795376974209735,0.2048987805569127,0.18282429513831933,0.34444354120641935
0.026708103716373444,0.06010224297642708,144.32785034179688,0.04795376974209735,0.2048987805569127,0.18282429513831933,0.34444354120641935
0.016251273453235626,0.053894344717264175,144.32872009277344,0.04795376974209735,0.2048987805569127,0.18282429513831933,0.34444354120641935
0.026080673560500145,0.04697626084089279,144.3274383544922,0.04795376974209735,0.2048987805569127,0.18282429513831933,0.34444354120641935
0.027076059952378273,0.04512779042124748,144.32752990722656,0.04795376974209735,0.2048987805569127,0.18282429513831933,0.34444354120641935
0.031751181930303574,0.06262686103582382,144.3270721435547,0.04795376974209735,0.2048987805569127,0.18282429513831933,0.34444354120641935
0.03216848149895668,0.041194602847099304,144.32659912109375,0.04795376974209735,0.2048987805569127,0.18282429513831933,0.34444354120641935
0.021694418042898178,0.04318961873650551,144.3253173828125,0.04795376974209735,0.2048987805569127,0.18282429513831933,0.34444354120641935
0.02286270447075367,0.04424786567687988,144.32456970214844,0.04795376974209735,0.2048987805569127,0.18282429513831933,0.34444354120641935
0.03373999148607254,0.049936145544052124,144.3240966796875,0.04795376974209735,0.2048987805569127,0.18282429513831933,0.34444354120641935
0.02093922160565853,0.04442904144525528,144.32334899902344,0.04795376974209735,0.2048987805569127,0.18282429513831933,0.34444354120641935
0.03122679889202118,0.050264641642570496,144.32293701171875,0.04795376974209735,0.2048987805569127,0.18282429513831933,0.34444354120641935
0.014250232838094234,0.03689388930797577,144.32339477539062,0.04795376974209735,0.2048987805569127,0.18282429513831933,0.34444354120641935
0.02704039216041565,0.05257522687315941,144.3242645263672,0.04795376974209735,0.2048987805569127,0.18282429513831933,0.34444354120641935
0.029156332835555077,0.04842766374349594,144.32464599609375,0.04795376974209735,0.2048987805569127,0.18282429513831933,0.34444354120641935
0.018110143020749092,0.056163325905799866,144.325439453125,0.04795376974209735,0.2048987805569127,0.18282429513831933,0.34444354120641935
0.025001903995871544,0.05154124274849892,144.32586669921875,0.04795376974209735,0.2048987805569127,0.18282429513831933,0.34444354120641935
0.04213417321443558,0.04750325530767441,144.32557678222656,0.04795376974209735,0.2048987805569127,0.18282429513831933,0.34444354120641935
0.03417781740427017,0.054900236427783966,144.32501220703125,0.04795376974209735,0.2048987805569127,0.18282429513831933,0.34444354120641935
0.03624837473034859,0.04075095057487488,144.32589721679688,0.04795376974209735,0.2048987805569127,0.18282429513831933,0.34444354120641935
0.03576865792274475,0.04768927022814751,144.3262481689453,0.04795376974209735,0.2048987805569127,0.18282429513831933,0.34444354120641935
0.024009203538298607,0.05360919237136841,144.32667541503906,0.04795376974209735,0.2048987805569127,0.18282429513831933,0.34444354120641935
0.03270012140274048,0.056721851229667664,144.3273162841797,0.04795376974209735,0.2048987805569127,0.18282429513831933,0.34444354120641935
0.026095252484083176,0.06328380107879639,144.32769775390625,0.04795376974209735,0.2048987805569127,0.18282429513831933,0.34444354120641935
0.046463970094919205,0.03898825868964195,144.32801818847656,0.04795376974209735,0.2048987805569127,0.18282429513831933,0.34444354120641935
0.03084007278084755,0.0476551279425621,144.32772827148438,0.04795376974209735,0.2048987805569127,0.18282429513831933,0.34444354120641935
0.024755874648690224,0.0376085564494133,144.3279266357422,0.04795376974209735,0.2048987805569127,0.18282429513831933,0.34444354120641935
0.04003876820206642,0.04317334666848183,144.32786560058594,0.04795376974209735,0.2048987805569127,0.18282429513831933,0.34444354120641935
0.02210834063589573,0.054477762430906296,144.32752990722656,0.04795376974209735,0.2048987805569127,0.18282429513831933,0.34444354120641935
