faccX,faccY,yaw,posX,posY,velX,velY
0,0,-43.543540954589844,0.0,0.0,0.0,0.0
0,0,-43.54340362548828,0.0,0.0,0.0,0.0
0,0,-43.54289245605469,0.0,0.0,0.0,0.0
0.2596661150455475,0,-43.53084182739258,1.803236910038524e-05,0.0,0.002163884292046229,0.0
0.4825614392757416,-0.9431954026222229,-43.5235595703125,0.00010564068746235637,-6.549968073765436e-05,0.008349113911390305,-0.007859961688518524
1.0980204343795776,-0.4059470295906067,-43.48016357421875,0.0003545552161004808,-0.0002901894888944096,0.02152062952518463,-0.019102815290292105
1.5810073614120483,-1.859312653541565,-43.49147415161133,0.0008992759717835321,-0.0007658794439501233,0.04384586115678152,-0.03797997931639353
0.7354704141616821,-1.2555615901947021,-43.62246322631836,0.0017909068365891774,-0.001615189810593923,0.06314984261989594,-0.06393726468086243
0.8217408061027527,0.0856257900595665,-43.58077621459961,0.002951543881661362,-0.002762056430284348,0.07612660278876623,-0.07368672968198856
0.9173295497894287,0.18686755001544952,-43.52338790893555,0.0043410893695222,-0.003971245443034503,0.0906188557545344,-0.07141595184803008
0.5422598123550415,-1.0544085502624512,-43.57011413574219,0.005952764004468918,-0.005221757209963269,0.10278210043907166,-0.07864546018342176
0.18265195190906525,-1.4223124980926514,-43.65060043334961,0.0077161401065273414,-0.006704509396933847,0.10882303180793922,-0.09928480225304762
1.4194257259368896,-0.6411977410316467,-43.74765396118164,0.009641112697621187,-0.008502555423312717,0.12217367912332218,-0.11648072091241676
0.5407216548919678,0.4539165794849396,-43.8420295715332,0.011813462028900783,-0.010456906408071518,0.13850824063022932,-0.11804139725863932
0.6701457500457764,-1.7040741443634033,-43.92146301269531,0.01420602072030306,-0.012511079526609844,0.14859880233804384,-0.12845937696595985
0.26777973771095276,-0.42860183119773865,-43.92482376098633,0.016747801140364674,-0.014800171641012033,0.1564148480693499,-0.1462316767623027
1.5549947023391724,-0.6553466320037842,-44.075965881347656,0.019481296833190654,-0.017312640452550515,0.1716046350697676,-0.15526458062231538
-1.003116488456726,-1.7578741312026978,-44.22749710083008,0.022379698960317506,-0.02006796823814511,0.17620362018545466,-0.17537475364903607
1.6921448707580566,-0.38576453924179077,-44.318565368652344,0.02536427515662379,-0.02313974459552102,0.18194552337129907,-0.19323840923607347
0.7112508416175842,0.2526808977127075,-44.45045471191406,0.028563603026171527,-0.02636962666900621,0.20197382097442942,-0.19434743958214917
0.5563591718673706,-0.6470375061035156,-44.415462493896484,0.032017861848904025,-0.029636136537624726,0.21253723775347072,-0.19763374465207256
-0.10258620977401733,-0.25326380133628845,-44.44688034057617,0.03559166115605169,-0.0329925532059537,0.21631867910424865,-0.20513625554740425
0.1116127297282219,0,-44.3671875,0.03919759931611932,-0.03642907856239212,0.21639390010386703,-0.20724678722520665
1.0264986753463745,-0.6579561829566956,-44.3580207824707,0.042883199832091726,-0.039928883084406445,0.225878161812822,-0.21272975541651246
0.4580349326133728,-0.18669910728931427,-44.310791015625,0.0467509284739693,-0.04353303562539318,0.23824927521248657,-0.21976854950189587
-0.2849971354007721,-0.4127369523048401,-44.355506896972656,0.05073376624120606,-0.04723747228789659,0.2396912568559249,-0.22476384999851381
0.39328381419181824,-0.41352561116218567,-44.49099349975586,0.05473614043038752,-0.0510409157992237,0.2405936458458503,-0.23164937136073904
1.0404105186462402,0,-44.64018249511719,0.058845596634265446,-0.054930455711566725,0.2525410986195008,-0.23509541812042392
1.1349763870239258,-0.49576810002326965,-44.8336067199707,0.06320568347970644,-0.05888314102051985,0.2706693228334188,-0.23922681895395118
0.14436931908130646,-0.09745625406503677,-44.88684844970703,0.06780568231207629,-0.06291145080545295,0.28133053705096245,-0.2441703552380204
0.1085193082690239,-0.7382943034172058,-44.88549041748047,0.07251208630649165,-0.0670389949592451,0.28343794227888186,-0.25113494321703905
-0.5574164986610413,-0.06756598502397537,-44.831451416015625,0.07720487859514025,-0.0712805398662264,0.2796971323589484,-0.2578504456207156
0.5341030955314636,0.08633999526500702,-44.776206970214844,0.07720487859514025,-0.0712805398662264,0.2796971323589484,-0.2578504456207156
-0.196518674492836,-0.9298942685127258,-44.65999984741211,0.08188994083036151,-0.07563662745110275,0.2825103358676036,-0.26488006456444657
-0.5093013048171997,0.5556575059890747,-44.67389678955078,0.08654943115181393,-0.08007728385790767,0.27662850270668665,-0.26799870425214367
0.16299986839294434,1.3296842575073242,-44.827816009521484,0.09113585748606258,-0.08441300241742282,0.2737426574031512,-0.2522875228896737
-1.2526273727416992,1.9576990604400635,-44.950469970703125,0.09562256653275755,-0.08838950395739326,0.2646624282002449,-0.2248926619067788
0.4609057307243347,0.1043560728430748,-44.99267578125,0.0999786263331771,-0.09199451671602824,0.2580647478501002,-0.20770886912941933
-0.8949108123779297,-0.7192079424858093,-44.99267578125,0.1042495662222306,-0.09549902924802152,0.2544480388363202,-0.21283263470977545
0.27159520983695984,-1.4110736846923828,-44.962486267089844,0.10844708106377059,-0.09919417605062737,0.2492537421484788,-0.23058498160292706
0.5258530378341675,-1.37016761302948,-44.953800201416016,0.11265668845011129,-0.10323040083412906,0.2558991442124049,-0.25376199241727593
0.8859301805496216,-0.2464771568775177,-44.92829132080078,0.11701971468826135,-0.1075720343723272,0.2676640043656031,-0.26723403216650093
0.22451016306877136,0.6880764365196228,-44.789039611816406,0.12155789534043934,-0.11199526829179374,0.2769176738957564,-0.2635540381694834
0.2360536754131317,0.5199217200279236,-44.678321838378906,0.1262051735052632,-0.1163039468337471,0.28075570588310556,-0.2534873868649205
-1.2376289367675781,-1.0103411674499512,-44.8455810546875,0.13081488143238756,-0.12056279352090009,0.2724092453718185,-0.2575742155934374
-0.20179811120033264,-0.2500285804271698,-45.03165054321289,0.13525507531025344,-0.12494322279105996,0.2604140199720859,-0.26807729682574677
0.529249370098114,0.18706734478473663,-45.117218017578125,0.13961804864721167,-0.12941555004618646,0.26314278046290074,-0.26860197378943373
1.1180336475372314,0.41486939787864685,-45.07056427001953,0.14411815630892913,-0.13385044844665872,0.2768701389431953,-0.26358583426723886
1.0322482585906982,-0.2559241056442261,-45.096717834472656,0.14888198375701905,-0.13823250781692975,0.2947891548275947,-0.2622612901652854
-0.5100589394569397,-0.38257795572280884,-45.183101654052734,0.15383139948464103,-0.14264786974061278,0.2991407324870427,-0.26758214067667735
-0.17737960815429688,-0.059289027005434036,-45.27390670776367,0.15383139948464103,-0.14264786974061278,0.2991407324870427,-0.26758214067667735
-0.6375446915626526,-2.0914225578308105,-45.35783386230469,0.15876048639416696,-0.14725692705639326,0.29234969665606814,-0.2855047372169794
0,1.1620826721191406,-45.39960479736328,0.16358870740152068,-0.15207987683540622,0.2870368242263794,-0.29324923626457666
-0.09423307329416275,1.4985281229019165,-45.3879508972168,0.16836611050853711,-0.15678259946793938,0.2862515486155947,-0.2710774796394012
-2.6884114742279053,1.704679250717163,-45.39459991455078,0.17294373044744132,-0.16107811250542808,0.2630628440529108,-0.2443840848592422
-1.874741792678833,1.5628933906555176,-45.403968811035156,0.17701122553812132,-0.16492426581965347,0.225036566828688,-0.2171543128478032
0.5447484850883484,0.413970947265625,-45.48653793334961,0.18066947433890568,-0.1684062221214279,0.21395328926543397,-0.20068044336512703
-0.766789972782135,-0.4952046871185303,-45.65736389160156,0.18421994294557306,-0.17175653740944757,0.21210294353465242,-0.20135739119723456
2.162834405899048,-1.4204516410827637,-45.787513732910156,0.1878519395345615,-0.1752455256188599,0.22373664714396002,-0.21732119393224533
1.4241523742675781,-0.19147683680057526,-45.8505859375,0.19182997995780574,-0.17897948499536143,0.25362820364534855,-0.23075393124793983
1.0450127124786377,-1.305067539215088,-45.948631286621094,0.1962285864829189,-0.18292931054227263,0.27420457936823367,-0.2432251343814037
-0.3427022397518158,0.5677081942558289,-45.97306442260742,0.20084743436632885,-0.1870342682920293,0.2800571666409572,-0.2493697955893975
-0.742499589920044,-0.4610873758792877,-45.99590301513672,0.20543969257217315,-0.1911830273283542,0.27101381806035835,-0.248481288769593
0.8928383588790894,0.5028098225593567,-45.95335006713867,0.2099670297321346,-0.1953214847490502,0.2722666411350171,-0.24813360171392576
0.5167491436004639,-0.7151275277137756,-45.92811965942383,0.2146026951053904,-0.1994717890626958,0.28401320365568,-0.2499029159235459
-1.0204187631607056,-1.1764302253723145,-45.860069274902344,0.21930127144273784,-0.20376819583871922,0.27981595682601135,-0.2656658971992633
0.23434357345104218,0.5917689800262451,-45.841983795166016,0.22391028216833042,-0.20823656226741152,0.27326533024509747,-0.2705380742438139
0.9115655422210693,0.788119912147522,-45.95608901977539,0.22854428136100371,-0.212649704553963,0.2828145728756984,-0.2590390001423658
0.2785051465034485,0.695617139339447,-46.0301513671875,0.22854428136100371,-0.212649704553963,0.2828145728756984,-0.2590390001423658
-0.8028013706207275,-1.1658681631088257,-46.04693603515625,0.23322144811559054,-0.21699967754409755,0.2784454376747211,-0.2629577586737773
-0.7658448219299316,0.0963473692536354,-46.03902053833008,0.23775327164679766,-0.22145657913267822,0.2653733860701322,-0.2718704319559039
-0.5306882858276367,0.445365309715271,-46.107547760009766,0.24208612439326113,-0.22595013406257045,0.2545689435054858,-0.267356159631163
-0.5553801655769348,1.119158387184143,-46.22470474243164,0.24625351869811613,-0.23029742257747182,0.24551837307711438,-0.2543184621570012
-0.28408750891685486,0.09119352698326111,-46.171470642089844,0.25028719521645043,-0.2344520113971602,0.23852280912299947,-0.24423219620560618
-1.3017572164535522,-0.9092473983764648,-46.1265869140625,0.2541524472625719,-0.2385793572972115,0.2253074364115794,-0.25104931180054957
1.6005301475524902,-0.48187100887298584,-46.28470230102539,0.2579283193229801,-0.2428601179388352,0.2277972108374039,-0.262641965194295
0.6228370070457458,-0.2708967328071594,-46.39375305175781,0.2618793400004506,-0.24728975956302346,0.24632527045905586,-0.2689150297082962
-0.5515512228012085,-0.6806270480155945,-46.44989013671875,0.26598971157645185,-0.2518377547651633,0.24691931866109368,-0.27684439454848586
0.8478418588638306,-0.05491646006703377,-46.5024299621582,0.2701256092927522,-0.2565029074179216,0.24938840729494885,-0.28297392378250774
0.9480730891227722,1.027618646621704,-46.46997833251953,0.2744067990635004,-0.2611515907180082,0.2643543651948372,-0.2748680722278855
0.3150312006473541,0.2891026437282562,-46.56939697265625,0.2789004207257595,-0.2656412862766431,0.2748802342762549,-0.2638953948083025
-0.8555164933204651,-1.2083017826080322,-46.73630142211914,0.283444224262817,-0.27010337613031477,0.2703761901706456,-0.27155538763230064
0.5709889531135559,0,-46.85289764404297,0.2879307352420356,-0.27471320910353425,0.26800512733558807,-0.2816245691540342
-0.3294306695461273,-1.7109791040420532,-46.82825469970703,0.2924142622450987,-0.2795257699161044,0.2700181130319833,-0.29588272835438467
0.07989862561225891,0.5034024119377136,-46.84027862548828,0.296897235514803,-0.28454100821451805,0.2679386793325344,-0.30594586745525415
0.18623533844947815,0.5993425250053406,-46.960445404052734,0.30138136169562735,-0.28956352649592904,0.2701564623663822,-0.296756326314062
-1.1299532651901245,0.07913034409284592,-47.022552490234375,0.30138136169562735,-0.28956352649592904,0.2701564623663822,-0.296756326314062
0.19943039119243622,0,-46.983558654785156,0.3058193497577061,-0.29450397010504586,0.2624021050830681,-0.296096906779955
0.9654985070228577,0.2449803203344345,-47.01210021972656,0.3102736160159111,-0.299421906029133,0.27210984590152887,-0.29405540411050135
-0.8613925576210022,0.9490545392036438,-47.07067108154297,0.31481600969408946,-0.3042399103435068,0.27297739547987765,-0.2841051136143507
0.37497344613075256,1.3676577806472778,-47.137001037597656,0.3193318538471228,-0.308814112770423,0.26892390288412554,-0.264799177615593
-0.4886607229709625,-0.8759977221488953,-47.194183349609375,0.323806023945411,-0.3131932893377316,0.2679765089104571,-0.2607020104614398
-0.19380895793437958,-0.4429718554019928,-47.31673812866211,0.328224905366078,-0.3176299179549744,0.26228926156957927,-0.2716934236076972
0.15371941030025482,-0.7474130392074585,-47.38872528076172,0.3325936090625409,-0.3222408072994506,0.2619551820059616,-0.28161329772944266
0.7282877564430237,0.3633677363395691,-47.299560546875,0.33702077926033075,-0.32696103207430716,0.26930524172882225,-0.2848136752533417
-0.4650396704673767,-0.4980635344982147,-47.180198669433594,0.34152748107289277,-0.331717280536735,0.2714989757786193,-0.2859361402379971
0.17131945490837097,-0.2294536530971527,-47.16899108886719,0.3460320667653448,-0.3365334049009513,0.2690513073156276,-0.29199878346795854
0,-0.7982857823371887,-47.24674987792969,0.3505281524049739,-0.34147142208621134,0.27047896943986405,-0.30056327876324473
1.3861126899719238,2.1886019706726074,-47.249088287353516,0.35513239305466415,-0.3463842603302977,0.2820299085229634,-0.2889773105271162
-1.2798529863357544,-0.7421301603317261,-47.26279830932617,0.3598402706761327,-0.3511000994078093,0.2829154060532648,-0.27692337877427553
0.12258147448301315,-0.18740399181842804,-47.33782958984375,0.3644751613664751,-0.3557800400368354,0.2732714767878253,-0.28466949670886016
0.1418902575969696,-0.2831808030605316,-47.48496627807617,0.3690480520721111,-0.3605572111482941,0.27547540788849184,-0.2885910366661848
0,-1.3416653871536255,-47.46778869628906,0.37364916236036355,-0.36547989830038424,0.27665782670179995,-0.30213142158463613
-1.0198304653167725,0.1109897792339325,-47.4017448425293,0.37364916236036355,-0.36547989830038424,0.27665782670179995,-0.30213142158463613
-0.13758425414562225,0.27041685581207275,-47.306732177734375,0.37364916236036355,-0.36547989830038424,0.27665782670179995,-0.30213142158463613
0.08544765412807465,1.0519580841064453,-47.31312561035156,0.37364916236036355,-0.36547989830038424,0.27665782670179995,-0.30213142158463613
-1.8314321041107178,2.0757012367248535,-47.68967819213867,0.37364916236036355,-0.36547989830038424,0.27665782670179995,-0.30213142158463613
-1.3442649841308594,1.2144193649291992,-48.1419677734375,0.37364916236036355,-0.36547989830038424,0.27665782670179995,-0.30213142158463613
-0.8870763182640076,0.2197486162185669,-48.65531539916992,0.37364916236036355,-0.36547989830038424,0.27665782670179995,-0.30213142158463613
-1.0751339197158813,0.9503765106201172,-49.36003494262695,0.37364916236036355,-0.36547989830038424,0.27665782670179995,-0.30213142158463613
-0.5770339965820312,0.5884159803390503,-50.321964263916016,0.37364916236036355,-0.36547989830038424,0.27665782670179995,-0.30213142158463613
-1.2657207250595093,1.0977716445922852,-51.48745346069336,0.37364916236036355,-0.36547989830038424,0.27665782670179995,-0.30213142158463613
-1.1998662948608398,0.32426172494888306,-52.72639846801758,0.37364916236036355,-0.36547989830038424,0.27665782670179995,-0.30213142158463613
-0.7932040095329285,-0.010329416953027248,-54.039615631103516,0.37364916236036355,-0.36547989830038424,0.27665782670179995,-0.30213142158463613
-0.7888070940971375,1.0391570329666138,-55.44428634643555,0.37364916236036355,-0.36547989830038424,0.27665782670179995,-0.30213142158463613
-1.3809630870819092,0.04934515804052353,-56.89086151123047,0.37364916236036355,-0.36547989830038424,0.27665782670179995,-0.30213142158463613
-0.7880743741989136,1.7122375965118408,-58.37128829956055,0.37364916236036355,-0.36547989830038424,0.27665782670179995,-0.30213142158463613
-1.6321742534637451,-0.4781210422515869,-59.90815734863281,0.37364916236036355,-0.36547989830038424,0.27665782670179995,-0.30213142158463613
0.6014107465744019,0.711847722530365,-61.41353225708008,0.37364916236036355,-0.36547989830038424,0.27665782670179995,-0.30213142158463613
-1.2904609441757202,-0.766929030418396,-62.958499908447266,0.37364916236036355,-0.36547989830038424,0.27665782670179995,-0.30213142158463613
-0.3359127342700958,0.822248101234436,-64.53247833251953,0.37364916236036355,-0.36547989830038424,0.27665782670179995,-0.30213142158463613
-0.13143989443778992,0.024691224098205566,-66.00383758544922,0.37364916236036355,-0.36547989830038424,0.27665782670179995,-0.30213142158463613
-0.7931962013244629,1.1087545156478882,-67.51177215576172,0.37364916236036355,-0.36547989830038424,0.27665782670179995,-0.30213142158463613
-0.8795841336250305,0.23628322780132294,-69.04759216308594,0.37364916236036355,-0.36547989830038424,0.27665782670179995,-0.30213142158463613
-0.41092732548713684,0.7711592316627502,-70.60224914550781,0.37364916236036355,-0.36547989830038424,0.27665782670179995,-0.30213142158463613
-0.8948007225990295,0.3914821445941925,-72.21073150634766,0.37364916236036355,-0.36547989830038424,0.27665782670179995,-0.30213142158463613
-0.13544921576976776,0.9486276507377625,-73.85505676269531,0.37364916236036355,-0.36547989830038424,0.27665782670179995,-0.30213142158463613
-0.5869995951652527,0.11858130991458893,-75.53511810302734,0.37364916236036355,-0.36547989830038424,0.27665782670179995,-0.30213142158463613
-1.1898399591445923,0.17772850394248962,-77.18653106689453,0.37364916236036355,-0.36547989830038424,0.27665782670179995,-0.30213142158463613
0.2529381513595581,0.7392635941505432,-78.91056823730469,0.37364916236036355,-0.36547989830038424,0.27665782670179995,-0.30213142158463613
-1.6993674039840698,-0.3848733901977539,-80.65458679199219,0.37364916236036355,-0.36547989830038424,0.27665782670179995,-0.30213142158463613
0.30526983737945557,1.130593180656433,-82.3870620727539,0.37364916236036355,-0.36547989830038424,0.27665782670179995,-0.30213142158463613
-1.63175368309021,0.6628695130348206,-84.12059020996094,0.37364916236036355,-0.36547989830038424,0.27665782670179995,-0.30213142158463613
-0.09130580723285675,0.3155263066291809,-85.93736267089844,0.37364916236036355,-0.36547989830038424,0.27665782670179995,-0.30213142158463613
-0.3920188844203949,-0.18471041321754456,-87.74285888671875,0.37364916236036355,-0.36547989830038424,0.27665782670179995,-0.30213142158463613
-0.22285251319408417,1.1901243925094604,-89.63641357421875,0.37364916236036355,-0.36547989830038424,0.27665782670179995,-0.30213142158463613
-0.5867020487785339,0.8106180429458618,-91.5579833984375,0.37364916236036355,-0.36547989830038424,0.27665782670179995,-0.30213142158463613
-0.4754871428012848,-0.11069348454475403,-93.52387237548828,0.37364916236036355,-0.36547989830038424,0.27665782670179995,-0.30213142158463613
-0.4258151948451996,-0.13010889291763306,-95.52055358886719,0.37364916236036355,-0.36547989830038424,0.27665782670179995,-0.30213142158463613
-0.256730318069458,0.8722932934761047,-97.50776672363281,0.37364916236036355,-0.36547989830038424,0.27665782670179995,-0.30213142158463613
-0.9987592697143555,-0.26956483721733093,-99.52172088623047,0.37364916236036355,-0.36547989830038424,0.27665782670179995,-0.30213142158463613
0.287484347820282,0.07770761847496033,-101.47269439697266,0.37364916236036355,-0.36547989830038424,0.27665782670179995,-0.30213142158463613
0.00020705681527033448,1.4225107431411743,-103.44451141357422,0.37364916236036355,-0.36547989830038424,0.27665782670179995,-0.30213142158463613
-0.00227554002776742,0.19489604234695435,-105.44696807861328,0.37364916236036355,-0.36547989830038424,0.27665782670179995,-0.30213142158463613
-0.33724677562713623,0.7862545251846313,-107.49408721923828,0.37364916236036355,-0.36547989830038424,0.27665782670179995,-0.30213142158463613
0.726173996925354,0.6445726156234741,-109.56544494628906,0.37364916236036355,-0.36547989830038424,0.27665782670179995,-0.30213142158463613
-0.05788238346576691,-0.14317277073860168,-111.48844146728516,0.37364916236036355,-0.36547989830038424,0.27665782670179995,-0.30213142158463613
1.8527768850326538,0.2810819745063782,-113.27710723876953,0.37364916236036355,-0.36547989830038424,0.27665782670179995,-0.30213142158463613
-0.5487464070320129,-0.2805391848087311,-115.11333465576172,0.37364916236036355,-0.36547989830038424,0.27665782670179995,-0.30213142158463613
0.05821574106812477,0.6357619762420654,-116.8114013671875,0.37364916236036355,-0.36547989830038424,0.27665782670179995,-0.30213142158463613
-0.5632020235061646,0.900327742099762,-118.60304260253906,0.37364916236036355,-0.36547989830038424,0.27665782670179995,-0.30213142158463613
-0.7621025443077087,0.048098206520080566,-120.48098754882812,0.37364916236036355,-0.36547989830038424,0.27665782670179995,-0.30213142158463613
0.10636641830205917,0.010952875018119812,-122.33580780029297,0.37364916236036355,-0.36547989830038424,0.27665782670179995,-0.30213142158463613
0.11418858170509338,0.5302364826202393,-124.29901885986328,0.37364916236036355,-0.36547989830038424,0.27665782670179995,-0.30213142158463613
-1.033509373664856,-0.058724913746118546,-126.2934799194336,0.37364916236036355,-0.36547989830038424,0.27665782670179995,-0.30213142158463613
0.1909993290901184,0.46552062034606934,-128.3099365234375,0.37364916236036355,-0.36547989830038424,0.27665782670179995,-0.30213142158463613
-0.6517753601074219,0.6216252446174622,-130.33456420898438,0.37364916236036355,-0.36547989830038424,0.27665782670179995,-0.30213142158463613
-0.06835673004388809,0.8379616737365723,-132.35763549804688,0.37364916236036355,-0.36547989830038424,0.27665782670179995,-0.30213142158463613
0.5510965585708618,0.040467336773872375,-134.37875366210938,0.37364916236036355,-0.36547989830038424,0.27665782670179995,-0.30213142158463613
-0.3232385814189911,0.502699077129364,-136.1376190185547,0.37364916236036355,-0.36547989830038424,0.27665782670179995,-0.30213142158463613
0.7064247727394104,-0.8329188823699951,-137.6331024169922,0.37364916236036355,-0.36547989830038424,0.27665782670179995,-0.30213142158463613
0.654177188873291,-1.0298943519592285,-138.8925323486328,0.37364916236036355,-0.36547989830038424,0.27665782670179995,-0.30213142158463613
0.40181440114974976,-0.8124375939369202,-139.8416290283203,0.37364916236036355,-0.36547989830038424,0.27665782670179995,-0.30213142158463613
0.9909920692443848,-0.4726174771785736,-140.34657287597656,0.37364916236036355,-0.36547989830038424,0.27665782670179995,-0.30213142158463613
0.7924889326095581,-1.0111340284347534,-140.45375061035156,0.37364916236036355,-0.36547989830038424,0.27665782670179995,-0.30213142158463613
0.2546262741088867,-0.41956043243408203,-140.2957000732422,0.37364916236036355,-0.36547989830038424,0.27665782670179995,-0.30213142158463613
-0.27012795209884644,0.6794537901878357,-140.1154327392578,0.37364916236036355,-0.36547989830038424,0.27665782670179995,-0.30213142158463613
-0.5881549715995789,0.6790499091148376,-140.09320068359375,0.37364916236036355,-0.36547989830038424,0.27665782670179995,-0.30213142158463613
0.16356970369815826,0.06061875447630882,-140.1659393310547,0.37364916236036355,-0.36547989830038424,0.27665782670179995,-0.30213142158463613
0.2587973177433014,0.05339701473712921,-140.16615295410156,0.37364916236036355,-0.36547989830038424,0.27665782670179995,-0.30213142158463613
-0.2909840941429138,0.4327683448791504,-140.1068572998047,0.37364916236036355,-0.36547989830038424,0.27665782670179995,-0.30213142158463613
-0.20787210762500763,-0.019845344126224518,-140.12867736816406,0.37364916236036355,-0.36547989830038424,0.27665782670179995,-0.30213142158463613
-0.2599720358848572,-0.08459310978651047,-140.1364288330078,0.37364916236036355,-0.36547989830038424,0.27665782670179995,-0.30213142158463613
-0.30198991298675537,0.22082875669002533,-140.1173095703125,0.37364916236036355,-0.36547989830038424,0.27665782670179995,-0.30213142158463613
0.08739831298589706,0.10306715220212936,-140.1312713623047,0.37364916236036355,-0.36547989830038424,0.27665782670179995,-0.30213142158463613
-0.10845281928777695,0.299816757440567,-140.13050842285156,0.37364916236036355,-0.36547989830038424,0.27665782670179995,-0.30213142158463613
-0.07806193828582764,0.11571940779685974,-140.12672424316406,0.37364916236036355,-0.36547989830038424,0.27665782670179995,-0.30213142158463613
-0.18760518729686737,0.07648836821317673,-140.1298828125,0.37364916236036355,-0.36547989830038424,0.27665782670179995,-0.30213142158463613
-0.2077723741531372,0.11063855141401291,-140.1293487548828,0.37364916236036355,-0.36547989830038424,0.27665782670179995,-0.30213142158463613
-0.09610426425933838,0.14999747276306152,-140.1295623779297,0.37364916236036355,-0.36547989830038424,0.27665782670179995,-0.30213142158463613
-0.05971541255712509,0.2068733125925064,-140.12969970703125,0.37364916236036355,-0.36547989830038424,0.27665782670179995,-0.30213142158463613
-0.13550539314746857,0.15959806740283966,-140.1293182373047,0.37364916236036355,-0.36547989830038424,0.27665782670179995,-0.30213142158463613
-0.17411202192306519,0.10557690262794495,-140.12869262695312,0.37364916236036355,-0.36547989830038424,0.27665782670179995,-0.30213142158463613
-0.15928101539611816,0.10373961180448532,-140.13047790527344,0.37364916236036355,-0.36547989830038424,0.27665782670179995,-0.30213142158463613
-0.11293052136898041,0.14510463178157806,-140.13050842285156,0.37364916236036355,-0.36547989830038424,0.27665782670179995,-0.30213142158463613
-0.09112180024385452,0.15995769202709198,-140.130126953125,0.37364916236036355,-0.36547989830038424,0.27665782670179995,-0.30213142158463613
-0.13405054807662964,0.1537623256444931,-140.1300811767578,0.37364916236036355,-0.36547989830038424,0.27665782670179995,-0.30213142158463613
-0.14206640422344208,0.11710065603256226,-140.1300506591797,0.3782409513503727,-0.3704966120641784,0.27435685209929933,-0.29987423007066066
-0.21687711775302887,0.09141969680786133,-140.1338653564453,0.38278863891855713,-0.37548003531863106,0.27136565608282875,-0.2981365604636571
-0.8401978015899658,-0.3045714795589447,-140.13406372070312,0.38723799187276103,-0.3804637802001608,0.26255669842163715,-0.29991282531991614
-1.476292610168457,-0.6083055734634399,-140.0670623779297,0.3914530694567495,-0.3855257215286193,0.2432526116569836,-0.3075201340951027
-1.4463295936584473,-1.6940845251083374,-140.07481384277344,0.3953043197757668,-0.39081094529816074,0.21889742662509273,-0.3267067182498675
-1.339590311050415,-0.449172705411911,-140.26844787597656,0.3987591435594691,-0.3964048945766669,0.19568142741918554,-0.3445671951708696
-0.7688126564025879,-0.9770370721817017,-140.24209594726562,0.4018740838103824,-0.40224672350851426,0.1781114026904105,-0.35645227665081636
-0.4215788245201111,-0.7622495889663696,-140.15147399902344,0.40475994111349184,-0.4083083785819409,0.16819147368272136,-0.37094633216038364
-1.477197289466858,0,-140.114501953125,0.40743127288917697,-0.4145437514505144,0.15236833939949662,-0.37729841206843673
-1.033632755279541,-0.572925865650177,-140.11146545410156,0.40979638201495006,-0.42087184483676965,0.13144475569327663,-0.3820727942821882
-0.6375104784965515,-1.7346138954162598,-140.10633850097656,0.41187107632971465,-0.4273999705582135,0.11751856207847586,-0.40130229229107517
-0.8987875580787659,-0.22146804630756378,-140.017578125,0.4137230316673715,-0.4342241811201289,0.10471607844034822,-0.4176029751387737
-1.0335657596588135,0.6397544741630554,-140.04965209960938,0.4153341084387566,-0.44115518303717405,0.0886131341258684,-0.4141172549066446
-0.2933540344238281,-0.5356401801109314,-140.12779235839844,0.4167188467995987,-0.44804990712630893,0.07755546917517972,-0.41324963578954355
-1.4202187061309814,-0.5608576536178589,-140.22764587402344,0.41789243984553537,-0.4550135467390325,0.06327569633722298,-0.4223871177372835
-0.7942438721656799,-0.42765626311302185,-140.2198944091797,0.41879325266099626,-0.46212197883442685,0.04482184151808413,-0.43062473371004084
-0.48605072498321533,-1.3434572219848633,-140.23779296875,0.41879325266099626,-0.46212197883442685,0.04482184151808413,-0.43062473371004084
-0.3634846806526184,-0.0581822507083416,-140.31556701660156,0.41948128783868405,-0.46939639380408676,0.037742379804452185,-0.44230506264915087
-0.6207154393196106,0.4069022834300995,-140.46401977539062,0.42004198027153794,-0.4767439281793003,0.029540712138016942,-0.43939906237646953
1.3565436601638794,0,-140.58847045898438,0.4205854246558413,-0.4840389887825588,0.03567261397838585,-0.43600821001455203
-0.2877311110496521,1.42246413230896,-140.6488037109375,0.42125419131583625,-0.491207010051391,0.04457938522100441,-0.4241543422453107
0.4583280086517334,0.5083834528923035,-140.64901733398438,0.4220090280762976,-0.49814216245095166,0.04600102603435509,-0.4080639457019668
-1.0180681943893433,-0.6284648776054382,-140.71078491210938,0.4227368409973051,-0.5049515672004784,0.041336524486541674,-0.4090646242412429
-1.7639241218566895,-0.27669164538383484,-140.89256286621094,0.42323258916123035,-0.5118321690297067,0.0181532551844914,-0.4166075952661535
-2.2594285011291504,-1.9086498022079468,-140.93606567382812,0.42325574392659787,-0.5189273887735587,-0.015374683340390598,-0.434818773996085
1.3583625555038452,1.422087550163269,-140.9403533935547,0.4229369251802563,-0.526208157385441,-0.022883566220601476,-0.4388734594297906
-0.20034530758857727,-0.28182560205459595,-140.8387451171875,0.42263595027435147,-0.5334435301850966,-0.013233422487974243,-0.429371276528885
0.18637877702713013,-0.1276465356349945,-140.74615478515625,0.42241442333492957,-0.5406281536923621,-0.013349810242652969,-0.43278354434296495
-0.9886808395385742,0.10122032463550568,-140.94369506835938,0.42213621107654425,-0.5478430479182864,-0.02003566076358167,-0.4330037627679607
-0.40976062417030334,0.08249256759881973,-141.09182739257812,0.4217051694066159,-0.5550470194580139,-0.03168933962782232,-0.43147282199934134
-0.7755719423294067,-0.4691224694252014,-141.16407775878906,0.42109469898458973,-0.5622650824567409,-0.0415671110153199,-0.43469473784789453
-0.08800807595252991,-1.1647616624832153,-141.11947631835938,0.42109469898458973,-0.5622650824567409,-0.0415671110153199,-0.43469473784789453
0.19493669271469116,-0.5705915093421936,-141.0424041748047,0.42040933939938735,-0.5696305053911381,-0.040676039208968555,-0.4491560142797729
-0.7870360016822815,0.2766929864883423,-141.011474609375,0.419690287405004,-0.5771368485821103,-0.045610200117031804,-0.4516051686368883
0.5608117580413818,2.917391061782837,-140.99659729003906,0.418914407386134,-0.5844417900004841,-0.047495402147372634,-0.42498780156796184
0.8863110542297363,0.18388421833515167,-141.12135314941406,0.4182233119900855,-0.5913095536877198,-0.03543604537844665,-0.39914384090031196
-0.7844284772872925,0.10514682531356812,-141.14071655273438,0.4176397864127324,-0.5979418794358049,-0.03458702390392628,-0.39673524886990597
-0.4501466155052185,0.08697880804538727,-141.1316680908203,0.4169776016328897,-0.6045407915257646,-0.044875149677197204,-0.395134201925248
-1.028712272644043,-1.5605370998382568,-141.1826171875,0.41612698393770386,-0.6112286919947821,-0.05719897374510772,-0.40741385435685523
-0.05118868499994278,-0.448436439037323,-141.1309356689453,0.41509867458656013,-0.6181584349520405,-0.06619814839214093,-0.42415530051415173
-0.6259860992431641,0.5578809380531311,-141.02761840820312,0.41394834608667425,-0.625220089648178,-0.07184127159416683,-0.4232432630223533
-0.5849427580833435,0,-140.93682861328125,0.412666899278346,-0.6322354023000747,-0.08193234540522105,-0.4185942552052439
0.08829303085803986,-0.1928934007883072,-140.9539031982422,0.41126687062386835,-0.6392253685952168,-0.08607109313209858,-0.42020170021181313
-0.8155384063720703,0.863606870174408,-141.11598205566406,0.4097818492539227,-0.6461821529411508,-0.09213147126138217,-0.41461242130026227
-0.2859870195388794,-1.3861839771270752,-141.3518829345703,0.40816982991165585,-0.6531286500396936,-0.10131084981064009,-0.41896723052486784
-0.6687924265861511,-0.6251065135002136,-141.5853729248047,0.40641501161994203,-0.660251110165846,-0.10926734519501535,-0.4357279846134286
-0.623134195804596,0.9588598608970642,-141.63308715820312,0.4045041720734702,-0.667490065926945,-0.12003340038160491,-0.43294670671845487
-0.17594397068023682,0.35104912519454956,-141.71701049804688,0.4045041720734702,-0.667490065926945,-0.12003340038160491,-0.43294670671845487
-0.11855720728635788,-1.205310583114624,-141.85610961914062,0.40248316392975136,-0.6747651680846082,-0.12248757686465987,-0.44006555220112215
-0.11583355814218521,1.379699945449829,-141.96588134765625,0.40042542717885227,-0.6820874835822425,-0.12444083324323106,-0.4386123075149954
0.9813108444213867,1.1091686487197876,-142.00291442871094,0.39841151588079005,-0.6892248506106751,-0.11722852252423771,-0.4178717358969153
1.2381243705749512,1.3257708549499512,-142.0514678955078,0.39661183461753863,-0.6960202865212022,-0.0987332290659349,-0.3975805733663341
0.37477055191993713,-1.4681346416473389,-142.1553192138672,0.395078287391613,-0.7026565157847173,-0.08529243804514416,-0.39876693825547904
-0.5546498894691467,0.30690446496009827,-142.311279296875,0.39364425513686413,-0.7093832724068008,-0.08679143252472091,-0.4084438563945394
-1.6619259119033813,-0.7505415678024292,-142.49342346191406,0.3920438023863568,-0.7162214781455183,-0.10526289753615864,-0.41214083225155884
-0.43884703516960144,0.5830023884773254,-142.55093383789062,0.3901435337505407,-0.7231021266816086,-0.12276933876176682,-0.41353699207926803
-0.6493160724639893,0.48430880904197693,-142.61761474609375,0.3880218112220367,-0.7299202910497686,-0.1318373646587134,-0.4046427320999405
-0.21163365244865417,0.09749431163072586,-142.58888244628906,0.385764733635717,-0.7366239335902764,-0.13901194569965208,-0.3997943727610013
0.6494189500808716,0.902258038520813,-142.447509765625,0.38347826963083614,-0.7432177458897549,-0.13536373488605027,-0.39146310317640515
-0.1928359717130661,-0.4811467230319977,-142.39129638671875,0.38125391453401086,-0.7497128871013415,-0.13155887673298522,-0.38795384221399837
-0.9496844410896301,-0.3403434455394745,-142.5664520263672,0.3789819248931276,-0.7562358323999478,-0.14107988017300768,-0.39479959361876066
0.2786801755428314,-0.8182002902030945,-142.72128295898438,0.37658399603847004,-0.7628962800530205,-0.14667158238589767,-0.40445412474994874
-0.634039044380188,0.4333024322986603,-142.65296936035156,0.37411479196614694,-0.7696639111500962,-0.14963290629287565,-0.4076616068991524
0.17134398221969604,-0.8362982273101807,-142.4719696044922,0.37411479196614694,-0.7696639111500962,-0.14963290629287565,-0.4076616068991524
-0.1498420685529709,0.06071029603481293,-142.47561645507812,0.3716224033830481,-0.7765121315380874,-0.14945372367898627,-0.4141248396597804
-0.6152567863464355,1.6839494705200195,-142.56109619140625,0.3690783761234747,-0.7832930552708508,-0.15582954746981464,-0.3995860082718235
0.4083669185638428,0.9842881560325623,-142.6649627685547,0.36646684964704845,-0.7897675277957595,-0.15755362970133624,-0.37735069471721866
0.9405928254127502,0.9284578561782837,-142.76966857910156,0.3639346335786912,-0.7959238764568652,-0.1463122985015313,-0.3614111446154616
0.9251561760902405,0.18340998888015747,-142.7164306640625,0.3616256611732145,-0.8018701824889939,-0.13076439015567304,-0.3521455792399746
-0.28046679496765137,-0.27917957305908203,-142.6495361328125,0.3594910247665312,-0.8077459261418948,-0.12539197864631813,-0.3529436591081323
-1.449659824371338,-0.12934096157550812,-142.6719512939453,0.3572810107738607,-0.8136566899419355,-0.13980970047414304,-0.3563479968967539
-0.5609925389289856,-0.7527690529823303,-142.68865966796875,0.3548112204629514,-0.8196570808634479,-0.15656513683497908,-0.3636989136847359
-0.7078794836997986,0.48729556798934937,-142.56471252441406,0.3521136854030192,-0.8257371650835402,-0.1671390703568856,-0.3659111927263441
0.8959009647369385,0.10285233706235886,-142.65985107421875,0.3493410912776987,-0.8317947024689063,-0.16557222468157612,-0.36099329351757986
-0.24673259258270264,-1.4224228858947754,-142.81541442871094,0.3466266353366276,-0.8379028942045349,-0.16016248824695747,-0.37198971475785
-0.6028314232826233,1.3703631162643433,-142.99618530273438,0.34389826303140986,-0.8441063380456123,-0.16724218837916852,-0.3724235461714369
-1.1422064304351807,-0.7618070244789124,-143.05050659179688,0.3409897100408044,-0.8502711363087623,-0.18178417049348355,-0.3673522454065583
-0.07347556948661804,0.5077293515205383,-143.07508850097656,0.33787555150480736,-0.8564113180150492,-0.19191485382616522,-0.3694695593478781
-0.31082427501678467,-0.7182915210723877,-143.1412353515625,0.334650283118503,-0.862583766377066,-0.19511735253036025,-0.3712242440941435
-0.07322799414396286,0.5673395991325378,-143.19912719726562,0.334650283118503,-0.862583766377066,-0.19511735253036025,-0.3712242440941435
0.06472817808389664,0.39906665682792664,-143.2344512939453,0.334650283118503,-0.862583766377066,-0.19511735253036025,-0.3712242440941435
0.28622764348983765,-0.05717872083187103,-143.24887084960938,0.334650283118503,-0.862583766377066,-0.19511735253036025,-0.3712242440941435
1.043567180633545,-0.024651551619172096,-143.333251953125,0.334650283118503,-0.862583766377066,-0.19511735253036025,-0.3712242440941435
1.1538790464401245,2.402066946029663,-143.53298950195312,0.334650283118503,-0.862583766377066,-0.19511735253036025,-0.3712242440941435
1.553236722946167,0.43296611309051514,-143.88575744628906,0.334650283118503,-0.862583766377066,-0.19511735253036025,-0.3712242440941435
1.0274723768234253,1.8847756385803223,-144.43768310546875,0.334650283118503,-0.862583766377066,-0.19511735253036025,-0.3712242440941435
0.9054070711135864,1.7554916143417358,-145.27749633789062,0.334650283118503,-0.862583766377066,-0.19511735253036025,-0.3712242440941435
1.449979543685913,0.743423342704773,-146.3709259033203,0.334650283118503,-0.862583766377066,-0.19511735253036025,-0.3712242440941435
1.6553657054901123,0.7887051105499268,-147.6026611328125,0.334650283118503,-0.862583766377066,-0.19511735253036025,-0.3712242440941435
0.3840664029121399,0.9151377081871033,-148.97288513183594,0.334650283118503,-0.862583766377066,-0.19511735253036025,-0.3712242440941435
1.1210154294967651,0.4253558814525604,-150.4007110595703,0.334650283118503,-0.862583766377066,-0.19511735253036025,-0.3712242440941435
0.6598827242851257,1.3191125392913818,-151.8793182373047,0.334650283118503,-0.862583766377066,-0.19511735253036025,-0.3712242440941435
0.4129057228565216,0.5483222007751465,-153.36387634277344,0.334650283118503,-0.862583766377066,-0.19511735253036025,-0.3712242440941435
0.5008525252342224,1.2073163986206055,-154.85963439941406,0.334650283118503,-0.862583766377066,-0.19511735253036025,-0.3712242440941435
-0.2543896436691284,1.3604623079299927,-156.2859649658203,0.334650283118503,-0.862583766377066,-0.19511735253036025,-0.3712242440941435
-0.6657697558403015,0.7758817076683044,-157.61842346191406,0.334650283118503,-0.862583766377066,-0.19511735253036025,-0.3712242440941435
-0.2260969877243042,1.2303403615951538,-158.91744995117188,0.334650283118503,-0.862583766377066,-0.19511735253036025,-0.3712242440941435
-0.03769170120358467,1.2842116355895996,-160.17515563964844,0.334650283118503,-0.862583766377066,-0.19511735253036025,-0.3712242440941435
-0.16600798070430756,0.9972853064537048,-161.4185791015625,0.334650283118503,-0.862583766377066,-0.19511735253036025,-0.3712242440941435
-0.1485517919063568,0.8463326096534729,-162.6094207763672,0.334650283118503,-0.862583766377066,-0.19511735253036025,-0.3712242440941435
1.4544909000396729,-1.5284876823425293,-163.51028442382812,0.334650283118503,-0.862583766377066,-0.19511735253036025,-0.3712242440941435
-1.0653071403503418,0.9385128021240234,-164.4169921875,0.334650283118503,-0.862583766377066,-0.19511735253036025,-0.3712242440941435
-0.03768905997276306,1.3894999027252197,-165.39407348632812,0.334650283118503,-0.862583766377066,-0.19511735253036025,-0.3712242440941435
0.3402813971042633,0.8446649312973022,-166.5820770263672,0.334650283118503,-0.862583766377066,-0.19511735253036025,-0.3712242440941435
0.5850123763084412,2.075843572616577,-167.7058868408203,0.334650283118503,-0.862583766377066,-0.19511735253036025,-0.3712242440941435
0.08587272465229034,-0.554840087890625,-168.99273681640625,0.334650283118503,-0.862583766377066,-0.19511735253036025,-0.3712242440941435
1.1277905702590942,1.8201735019683838,-170.18223571777344,0.334650283118503,-0.862583766377066,-0.19511735253036025,-0.3712242440941435
0.10855691134929657,-0.6191362738609314,-171.3020782470703,0.334650283118503,-0.862583766377066,-0.19511735253036025,-0.3712242440941435
-0.6331323385238647,0.20068185031414032,-172.4919891357422,0.334650283118503,-0.862583766377066,-0.19511735253036025,-0.3712242440941435
0.09715785086154938,1.103775143623352,-173.67970275878906,0.334650283118503,-0.862583766377066,-0.19511735253036025,-0.3712242440941435
0.618242621421814,0.1452701985836029,-174.851318359375,0.334650283118503,-0.862583766377066,-0.19511735253036025,-0.3712242440941435
0.03929227963089943,0.17703332006931305,-176.04335021972656,0.334650283118503,-0.862583766377066,-0.19511735253036025,-0.3712242440941435
-0.13107097148895264,-0.19792434573173523,-177.3244171142578,0.334650283118503,-0.862583766377066,-0.19511735253036025,-0.3712242440941435
0.1088973805308342,0.7461539506912231,-178.6519317626953,0.334650283118503,-0.862583766377066,-0.19511735253036025,-0.3712242440941435
-0.39910486340522766,1.1059776544570923,-179.9062957763672,0.334650283118503,-0.862583766377066,-0.19511735253036025,-0.3712242440941435
-0.15851205587387085,-0.30609676241874695,178.93301391601562,0.334650283118503,-0.862583766377066,-0.19511735253036025,-0.3712242440941435
0.14164811372756958,-0.2416629046201706,177.67791748046875,0.334650283118503,-0.862583766377066,-0.19511735253036025,-0.3712242440941435
0.21489226818084717,1.2653902769088745,176.45712280273438,0.334650283118503,-0.862583766377066,-0.19511735253036025,-0.3712242440941435
-0.563360333442688,0.23314960300922394,175.25257873535156,0.334650283118503,-0.862583766377066,-0.19511735253036025,-0.3712242440941435
0.3375106155872345,0.18074309825897217,173.92715454101562,0.334650283118503,-0.862583766377066,-0.19511735253036025,-0.3712242440941435
0.3011532127857208,0.8871418237686157,172.5807342529297,0.334650283118503,-0.862583766377066,-0.19511735253036025,-0.3712242440941435
0.15054535865783691,-0.10536502301692963,171.21026611328125,0.334650283118503,-0.862583766377066,-0.19511735253036025,-0.3712242440941435
-0.6621969938278198,0.6024653315544128,169.74356079101562,0.334650283118503,-0.862583766377066,-0.19511735253036025,-0.3712242440941435
-0.6765198707580566,0.546105682849884,168.26373291015625,0.334650283118503,-0.862583766377066,-0.19511735253036025,-0.3712242440941435
-0.23702366650104523,0.1925600916147232,166.72152709960938,0.334650283118503,-0.862583766377066,-0.19511735253036025,-0.3712242440941435
0.8500826954841614,0.2463953197002411,165.08578491210938,0.334650283118503,-0.862583766377066,-0.19511735253036025,-0.3712242440941435
1.3999130725860596,0.06515007466077805,163.38052368164062,0.334650283118503,-0.862583766377066,-0.19511735253036025,-0.3712242440941435
0.5500824451446533,0.27809861302375793,161.69178771972656,0.334650283118503,-0.862583766377066,-0.19511735253036025,-0.3712242440941435
0.42584627866744995,0.13922083377838135,159.91018676757812,0.334650283118503,-0.862583766377066,-0.19511735253036025,-0.3712242440941435
0.4761020839214325,0.9447358250617981,158.02096557617188,0.334650283118503,-0.862583766377066,-0.19511735253036025,-0.3712242440941435
0.5349462628364563,-0.5609402060508728,156.1259765625,0.334650283118503,-0.862583766377066,-0.19511735253036025,-0.3712242440941435
0.4711611866950989,0.13250204920768738,154.1988983154297,0.334650283118503,-0.862583766377066,-0.19511735253036025,-0.3712242440941435
0.3055545687675476,0.3834278881549835,152.23316955566406,0.334650283118503,-0.862583766377066,-0.19511735253036025,-0.3712242440941435
0.1661917120218277,0.05327124148607254,150.24693298339844,0.334650283118503,-0.862583766377066,-0.19511735253036025,-0.3712242440941435
0.7392582893371582,0.35113850235939026,148.22430419921875,0.334650283118503,-0.862583766377066,-0.19511735253036025,-0.3712242440941435
0.12207861244678497,0.2687099575996399,146.20384216308594,0.334650283118503,-0.862583766377066,-0.19511735253036025,-0.3712242440941435
-0.35245281457901,0.2997654378414154,144.1383819580078,0.334650283118503,-0.862583766377066,-0.19511735253036025,-0.3712242440941435
1.10690438747406,-0.29998865723609924,142.12722778320312,0.334650283118503,-0.862583766377066,-0.19511735253036025,-0.3712242440941435
-0.19315220415592194,-0.8026269674301147,140.16856384277344,0.334650283118503,-0.862583766377066,-0.19511735253036025,-0.3712242440941435
0.5681138038635254,0.5562196373939514,138.37158203125,0.334650283118503,-0.862583766377066,-0.19511735253036025,-0.3712242440941435
-0.24198350310325623,0.2893321216106415,136.91880798339844,0.334650283118503,-0.862583766377066,-0.19511735253036025,-0.3712242440941435
-1.2375202178955078,-0.39733436703681946,135.88711547851562,0.334650283118503,-0.862583766377066,-0.19511735253036025,-0.3712242440941435
-1.0251424312591553,-0.8846787214279175,135.1355743408203,0.334650283118503,-0.862583766377066,-0.19511735253036025,-0.3712242440941435
-0.7177872657775879,0.08289456367492676,134.7220001220703,0.334650283118503,-0.862583766377066,-0.19511735253036025,-0.3712242440941435
-0.28952762484550476,-0.6848393082618713,134.58212280273438,0.334650283118503,-0.862583766377066,-0.19511735253036025,-0.3712242440941435
0.495128870010376,-0.5273588299751282,134.565185546875,0.334650283118503,-0.862583766377066,-0.19511735253036025,-0.3712242440941435
1.5787358283996582,-0.8658768534660339,134.49021911621094,0.334650283118503,-0.862583766377066,-0.19511735253036025,-0.3712242440941435
0.7278231382369995,-0.9855141043663025,134.48147583007812,0.334650283118503,-0.862583766377066,-0.19511735253036025,-0.3712242440941435
-0.24622346460819244,0.4794756770133972,134.53341674804688,0.334650283118503,-0.862583766377066,-0.19511735253036025,-0.3712242440941435
-0.28133296966552734,0.5995758175849915,134.58706665039062,0.334650283118503,-0.862583766377066,-0.19511735253036025,-0.3712242440941435
-0.2806529104709625,0.6240739822387695,134.5846710205078,0.334650283118503,-0.862583766377066,-0.19511735253036025,-0.3712242440941435
-0.350545734167099,0.6148460507392883,134.57467651367188,0.334650283118503,-0.862583766377066,-0.19511735253036025,-0.3712242440941435
-0.15533259510993958,0.3244113028049469,134.5994110107422,0.334650283118503,-0.862583766377066,-0.19511735253036025,-0.3712242440941435
0.22210462391376495,0.09487208724021912,134.58523559570312,0.334650283118503,-0.862583766377066,-0.19511735253036025,-0.3712242440941435
0.2442927062511444,-0.044920168817043304,134.56797790527344,0.334650283118503,-0.862583766377066,-0.19511735253036025,-0.3712242440941435
0.19226500391960144,0.08062895387411118,134.58016967773438,0.334650283118503,-0.862583766377066,-0.19511735253036025,-0.3712242440941435
-0.01747441105544567,0.2326260209083557,134.57952880859375,0.334650283118503,-0.862583766377066,-0.19511735253036025,-0.3712242440941435
-0.1285286694765091,0.3810397982597351,134.57859802246094,0.334650283118503,-0.862583766377066,-0.19511735253036025,-0.3712242440941435
-0.07945067435503006,0.3411712944507599,134.5814666748047,0.334650283118503,-0.862583766377066,-0.19511735253036025,-0.3712242440941435
0.04218677431344986,0.14565616846084595,134.58155822753906,0.334650283118503,-0.862583766377066,-0.19511735253036025,-0.3712242440941435
0.14933031797409058,0.12868791818618774,134.57879638671875,0.334650283118503,-0.862583766377066,-0.19511735253036025,-0.3712242440941435
0.0748574361205101,0.14178001880645752,134.5775604248047,0.334650283118503,-0.862583766377066,-0.19511735253036025,-0.3712242440941435
-0.014163034968078136,0.27284398674964905,134.57687377929688,0.334650283118503,-0.862583766377066,-0.19511735253036025,-0.3712242440941435
-0.06046348065137863,0.281453937292099,134.57496643066406,0.334650283118503,-0.862583766377066,-0.19511735253036025,-0.3712242440941435
0.023868728429079056,0.2170141488313675,134.57656860351562,0.334650283118503,-0.862583766377066,-0.19511735253036025,-0.3712242440941435
0.07195340096950531,0.16195617616176605,134.57693481445312,0.334650283118503,-0.862583766377066,-0.19511735253036025,-0.3712242440941435
0.0718565359711647,0.19054260849952698,134.57553100585938,0.334650283118503,-0.862583766377066,-0.19511735253036025,-0.3712242440941435
0,0.22444269061088562,134.5760955810547,0.3314033172802172,-0.868742018688419,-0.19451854806393387,-0.3677660332682234
0,0.2731601297855377,134.57591247558594,0.32816134147915166,-0.8748368968248064,-0.19451854806393387,-0.36361934309825317
-0.2757430970668793,0.45756497979164124,134.57225036621094,0.3249002168519009,-0.880846474410501,-0.19681640720615787,-0.35752996718511
-0.06075195223093033,0.4908658564090729,134.57791137695312,0.32159657568670813,-0.8867394439444056,-0.19962053261697293,-0.3496263768834374
-1.6363784074783325,1.8313449621200562,134.57325744628906,0.31815171053477875,-0.8924052855856206,-0.21376328561455013,-0.3302746200623613
-2.6914098262786865,2.230044364929199,134.5520477294922,0.3142884482583031,-0.8976278216611704,-0.24982818756252528,-0.29642970900361754
-1.1171807050704956,1.6101354360580444,134.61915588378906,0.30986015967869507,-0.9023016376583843,-0.2815664419904351,-0.2644282106620572
-0.7102669477462769,0.607724130153656,134.67904663085938,0.30504047955852,-0.9065547564773205,-0.2967951724305749,-0.245946047610293
-0.48934483528137207,1.3212791681289673,134.67332458496094,0.30001058697752236,-0.9105198987084446,-0.30679193728913867,-0.22987102012460447
-0.5869423747062683,0.6230647563934326,134.67355346679688,0.2948226458553431,-0.9142160584935406,-0.315760997372369,-0.2136681540869178
-1.516806721687317,0.8210113644599915,134.63668823242188,0.2894138688785541,-0.9176769113310411,-0.33329223984231554,-0.20163418641313927
-0.6720126867294312,1.964095115661621,134.63819885253906,0.28370699686670875,-0.9208440709323628,-0.3515324015791218,-0.17842496574545916
-0.9274325370788574,0.5098320245742798,134.53375244140625,0.27773705092207,-0.923646019865604,-0.3648611117775242,-0.1578089062434933
0.08080459386110306,0.6469647884368896,134.2640838623047,0.2715972387852767,-0.9261958351909809,-0.3719163446376722,-0.14816893280173357
0.2579563558101654,0.756318986415863,134.122802734375,0.2654221581072649,-0.9285678671422006,-0.36909333672374495,-0.1364749013446273
-0.5613951683044434,1.020658016204834,134.05616760253906,0.2592495303554459,-0.9307190476505403,-0.3716219934945306,-0.1216667596561215
-1.32349693775177,1.4763000011444092,133.99844360351562,0.2592495303554459,-0.9307190476505403,-0.3716219934945306,-0.1216667596561215
0.38640061020851135,0.5192919373512268,133.8914337158203,0.2529907543300132,-0.9326082442046356,-0.3794311295573911,-0.10503682683532453
0,0.1963275820016861,133.7723388671875,0.24669373554643229,-0.9343091621852693,-0.3762111244723202,-0.09907333084071693
-0.9087015986442566,-0.5274283289909363,133.76515197753906,0.24036044586087665,-0.9359833774733777,-0.38378363779435565,-0.10183250373229401
0.5858284831047058,0.24364563822746277,133.7746124267578,0.2339416301535027,-0.937700293000219,-0.3864742470905186,-0.10419735948865629
-1.1615077257156372,1.068164587020874,133.7699737548828,0.22746041497681274,-0.9393458177260543,-0.39127157411227637,-0.09326560761158681
-0.9190130829811096,1.1397815942764282,133.72540283203125,0.22079474146322642,-0.9407469149236574,-0.4086092475180826,-0.07486605610077596
-1.0470436811447144,0.4929810166358948,133.71487426757812,0.2138480556181941,-0.9418812962329125,-0.4249930538857978,-0.061259701009839934
0.7547683715820312,0.555365264415741,133.7807159423828,0.2067445411569334,-0.9428294894246702,-0.4274286814654868,-0.0525234820010763
0,0.11425001174211502,133.8115234375,0.19967314426942404,-0.9436583797305105,-0.42113894503563654,-0.04694335469976084
-0.8387477993965149,-0.11712611466646194,133.78562927246094,0.19259591547720534,-0.9444409687048763,-0.4281285100306075,-0.046967322224130394
-0.08966270089149475,1.6588070392608643,133.7168731689453,0.18539596735861966,-0.9451166962332928,-0.43586526419967425,-0.03411998118584371
-0.6759264469146729,0.887785017490387,133.7157440185547,0.178078380375583,-0.9455085159157824,-0.44224517376472566,-0.012898380712916616
-0.39069971442222595,0.897544801235199,133.6483917236328,0.1706335562183003,-0.9455995076902529,-0.4511337251091998,0.001979367776463266
-0.2672997713088989,-0.773215651512146,133.6091766357422,0.1630689663910823,-0.9455578842585811,-0.4566170541569592,0.0030154440241553743
-0.1878928393125534,0.26605865359306335,133.6640625,0.15542707155717314,-0.9455428460941452,-0.460410325912138,-0.001210864291836981
0.3644072711467743,0.07894398272037506,133.69583129882812,0.15542707155717314,-0.9455428460941452,-0.460410325912138,-0.001210864291836981
0,1.3765150308609009,133.7073211669922,0.1477788721858005,-0.945461953623066,-0.45737359865258154,0.01091796082134032
0.09066619724035263,0,133.74380493164062,0.14016227513862137,-0.9451843962877894,-0.45661804700891195,0.022388919411847827
-0.2913806140422821,0,133.8130645751953,0.1325380358539727,-0.9448112476309253,-0.458290667148928,0.022388919411847827
0.20404992997646332,-0.11330541968345642,133.77415466308594,0.12489379343731932,-0.9444459674059836,-0.4590184228494765,0.021444707581152356
0,0.8846762776374817,133.62892150878906,0.1172576565238542,-0.9440349881922732,-0.4573180067663393,0.027872798064102568
-0.14896471798419952,0.7744433283805847,133.48780822753906,0.10962534497233298,-0.9434552249185646,-0.45855937941620767,0.041698794780919785
-0.5168410539627075,1.1005983352661133,133.2698516845703,0.10193645213678876,-0.9426300337789071,-0.46410776084909855,0.0573241419779756
-0.5186334848403931,-0.4031425714492798,133.12974548339844,0.09412941483522023,-0.9416261969845646,-0.47273671533912437,0.06313627334311588
-0.2832702398300171,0.5518397092819214,133.0619354248047,0.08619478182091049,-0.940563599572052,-0.47941924637804445,0.06437541615838789
1.546988844871521,0.21306921541690826,133.08181762695312,0.0782922192844043,-0.939437557294086,-0.46888825800269857,0.07074965719754481
-1.052067756652832,0.3160305619239807,133.11935424804688,0.07051178450437451,-0.9382216533007004,-0.46476391560087615,0.07515882200871889
-0.056021250784397125,-0.15801279246807098,133.11642456054688,0.06268876861884343,-0.9369580328110095,-0.4739979906628531,0.0764756367541848
-0.19569526612758636,0.4996940493583679,132.9654998779297,0.05477132179412143,-0.9356597110000446,-0.47609562830378627,0.07932298056160395
0.8113573789596558,0.6947880387306213,132.7995147705078,0.05477132179412143,-0.9356597110000446,-0.47609562830378627,0.07932298056160395
0.7758088707923889,-0.6092702746391296,132.7413330078125,0.046946614534179996,-0.9343317225904004,-0.4628692428891859,0.08003562859569971
-0.14873957633972168,0.17978069186210632,132.7198944091797,0.039275673631475,-0.9330276211126094,-0.4576436654354137,0.07645654873922451
0.9583601951599121,-0.1707267463207245,132.68284606933594,0.031704502861636175,-0.9317527165540709,-0.4508968269452454,0.07653199828540269
-0.9586811661720276,-0.40827178955078125,132.72593688964844,0.024189533456228464,-0.9305173914809719,-0.4508995017036797,0.07170701048647347
0.29937201738357544,0.3168557584285736,132.7921600341797,0.01662875640361238,-0.9293286229750253,-0.4563937446102501,0.07094521022712175
-0.2863604426383972,0.5181087255477905,132.69647216796875,0.009023097575021073,-0.9280882191598526,-0.45628531482070694,0.07790324759359145
-0.09070654213428497,0.4218919277191162,132.58673095703125,0.00139215712073341,-0.9267245538768158,-0.4594275396938126,0.08573658637081567
-0.3036663830280304,0.542384922504425,132.56790161132812,-0.00629235554952196,-0.9252286471004811,-0.4627139807368319,0.09377222678934519
0.6497724652290344,1.1170679330825806,132.5487823486328,-0.013980220083871866,-0.9235505368723541,-0.45982976338515685,0.10760100058590356
-0.7909827828407288,-0.1671757698059082,132.5938720703125,-0.02165385574568085,-0.9216912221290282,-0.461006516031921,0.11551676861320917
0.1874917447566986,0.2484281063079834,132.6350555419922,-0.029379206779413147,-0.9197603001287732,-0.46603560801595456,0.11619387141739312
-0.21698662638664246,-0.09725787490606308,132.6767578125,-0.03714851516868113,-0.9178132376724137,-0.4662813986962041,0.11745362334574246
0.0871308371424675,-0.4453164339065552,132.68243408203125,-0.04492888957675982,-0.9158933560547634,-0.4673635302732389,0.11293217077230397
0.3869726061820984,0.3270430266857147,132.68470764160156,-0.04492888957675982,-0.9158933560547634,-0.4673635302732389,0.11293217077230397
-0.2563217580318451,0.3154955804347992,132.66661071777344,-0.05270920877241448,-0.9139665324719527,-0.4662747732053201,0.11828665916497491
0.27970579266548157,-0.1949758529663086,132.78111267089844,-0.06047883110120915,-0.9119867187270178,-0.4660799062500398,0.11929099022721233
1.3974316120147705,-0.6009157299995422,132.76492309570312,-0.06813036166338479,-0.9100538058053813,-0.45210376121103774,0.11265856036916358
1.162146806716919,-0.4466288387775421,132.52511596679688,-0.07548767584893461,-0.9082489092831715,-0.4307739410549403,0.10392902229602122
-0.27046748995780945,0.6311784386634827,132.38442993164062,-0.08260531935840867,-0.9065039429671347,-0.42334328008194777,0.10546693562840405
-0.6709107160568237,0.7307851910591125,132.30441284179688,-0.0897264141796366,-0.9046515798990417,-0.43118809846540307,0.11681663254275901
-1.0768970251083374,0.9324855208396912,132.19161987304688,-0.09703425802497423,-0.9025891311127805,-0.44575316297511275,0.13067722180858238
-0.8771767616271973,0.4145432114601135,132.05825805664062,-0.10459917697641608,-0.9003176337540055,-0.46203711119790886,0.14190246124441408
0.6310515403747559,0.30656227469444275,132.0591278076172,-0.11231688752563486,-0.8979025159633934,-0.46408815470834586,0.14791167362903537
0.4607326090335846,-0.6059587001800537,132.11680603027344,-0.11997587176039838,-0.895458112821346,-0.45498995346327636,0.14541670341665527
0.22543056309223175,0.7044253945350647,132.12527465820312,-0.12751138743116647,-0.8930276631328493,-0.44927192702889457,0.14623725920294703
0.13833962380886078,0.38499486446380615,132.07894897460938,-0.13497399106311325,-0.8905147212948141,-0.44624050880471877,0.15531576136127095
0,1.0304561853408813,131.85768127441406,-0.14240172595820516,-0.8878278300603343,-0.4450876786063116,0.16711118677631
0.5171995162963867,0.38262373208999634,131.6936492919922,-0.14240172595820516,-0.8878278300603343,-0.4450876786063116,0.16711118677631
-0.3331277668476105,0.28604334592819214,131.61444091796875,-0.14240172595820516,-0.8878278300603343,-0.4450876786063116,0.16711118677631
-0.4074295163154602,-0.6419057250022888,131.55320739746094,-0.14240172595820516,-0.8878278300603343,-0.4450876786063116,0.16711118677631
0.09926943480968475,-0.3559853434562683,131.54605102539062,-0.14240172595820516,-0.8878278300603343,-0.4450876786063116,0.16711118677631
2.2862095832824707,-1.5408555269241333,131.5234832763672,-0.14240172595820516,-0.8878278300603343,-0.4450876786063116,0.16711118677631
1.1417720317840576,-1.6314557790756226,131.31007385253906,-0.14240172595820516,-0.8878278300603343,-0.4450876786063116,0.16711118677631
1.1997393369674683,0.15155017375946045,130.81297302246094,-0.14240172595820516,-0.8878278300603343,-0.4450876786063116,0.16711118677631
1.2284412384033203,-1.0320552587509155,130.02655029296875,-0.14240172595820516,-0.8878278300603343,-0.4450876786063116,0.16711118677631
1.4639469385147095,-0.9758265018463135,129.01519775390625,-0.14240172595820516,-0.8878278300603343,-0.4450876786063116,0.16711118677631
0.9656549692153931,-0.6766940951347351,127.86812591552734,-0.14240172595820516,-0.8878278300603343,-0.4450876786063116,0.16711118677631
1.3288112878799438,-0.9367734789848328,126.59098815917969,-0.14240172595820516,-0.8878278300603343,-0.4450876786063116,0.16711118677631
0.8489619493484497,-0.8040151000022888,125.19020080566406,-0.14240172595820516,-0.8878278300603343,-0.4450876786063116,0.16711118677631
1.6059454679489136,0.17875628173351288,123.77298736572266,-0.14240172595820516,-0.8878278300603343,-0.4450876786063116,0.16711118677631
0.9283526539802551,-1.0772573947906494,122.3330078125,-0.14240172595820516,-0.8878278300603343,-0.4450876786063116,0.16711118677631
1.2400777339935303,0.019255001097917557,120.86614227294922,-0.14240172595820516,-0.8878278300603343,-0.4450876786063116,0.16711118677631
0.49269938468933105,-0.26969975233078003,119.4009017944336,-0.14240172595820516,-0.8878278300603343,-0.4450876786063116,0.16711118677631
0.3636941909790039,0.764716625213623,117.96766662597656,-0.14240172595820516,-0.8878278300603343,-0.4450876786063116,0.16711118677631
0.09655841439962387,-0.9520927667617798,116.58372497558594,-0.14240172595820516,-0.8878278300603343,-0.4450876786063116,0.16711118677631
1.5566532611846924,0.3094448745250702,115.18014526367188,-0.14240172595820516,-0.8878278300603343,-0.4450876786063116,0.16711118677631
0.6838873028755188,-0.34660041332244873,113.78348541259766,-0.14240172595820516,-0.8878278300603343,-0.4450876786063116,0.16711118677631
0.8741230368614197,0.9824685454368591,112.39713287353516,-0.14240172595820516,-0.8878278300603343,-0.4450876786063116,0.16711118677631
0.5040722489356995,-0.19091129302978516,111.01580810546875,-0.14240172595820516,-0.8878278300603343,-0.4450876786063116,0.16711118677631
1.1630977392196655,-0.21622346341609955,109.64559173583984,-0.14240172595820516,-0.8878278300603343,-0.4450876786063116,0.16711118677631
1.1171221733093262,-0.0375111885368824,108.21853637695312,-0.14240172595820516,-0.8878278300603343,-0.4450876786063116,0.16711118677631
0.8258545994758606,0.9459781050682068,106.82601928710938,-0.14240172595820516,-0.8878278300603343,-0.4450876786063116,0.16711118677631
0.6216059923171997,-1.0196880102157593,105.35785675048828,-0.14240172595820516,-0.8878278300603343,-0.4450876786063116,0.16711118677631
0.7256041169166565,0.008277418091893196,103.82442474365234,-0.14240172595820516,-0.8878278300603343,-0.4450876786063116,0.16711118677631
0.9499595761299133,0.5399537682533264,102.30783081054688,-0.14240172595820516,-0.8878278300603343,-0.4450876786063116,0.16711118677631
0.5606682896614075,-0.1868445873260498,100.84422302246094,-0.14240172595820516,-0.8878278300603343,-0.4450876786063116,0.16711118677631
-0.1107771173119545,-0.7892827987670898,99.35256958007812,-0.14240172595820516,-0.8878278300603343,-0.4450876786063116,0.16711118677631
0.6246164441108704,-0.10363476723432541,97.775390625,-0.14240172595820516,-0.8878278300603343,-0.4450876786063116,0.16711118677631
0.5668134689331055,0.11603919416666031,96.2440185546875,-0.14240172595820516,-0.8878278300603343,-0.4450876786063116,0.16711118677631
0.005832521710544825,0.09177515655755997,94.76925659179688,-0.14240172595820516,-0.8878278300603343,-0.4450876786063116,0.16711118677631
0.06667032092809677,0.6114484071731567,93.22087860107422,-0.14240172595820516,-0.8878278300603343,-0.4450876786063116,0.16711118677631
0.30313366651535034,0.606882631778717,91.63505554199219,-0.14240172595820516,-0.8878278300603343,-0.4450876786063116,0.16711118677631
-0.24877293407917023,0.14143304526805878,90.07699584960938,-0.14240172595820516,-0.8878278300603343,-0.4450876786063116,0.16711118677631
0.44811391830444336,-0.2660616636276245,88.51834106445312,-0.14240172595820516,-0.8878278300603343,-0.4450876786063116,0.16711118677631
0.40666696429252625,-0.16135671734809875,86.95458221435547,-0.14240172595820516,-0.8878278300603343,-0.4450876786063116,0.16711118677631
0.41315600275993347,0.047336146235466,85.48143005371094,-0.14240172595820516,-0.8878278300603343,-0.4450876786063116,0.16711118677631
0.43857914209365845,-0.4350874125957489,84.06415557861328,-0.14240172595820516,-0.8878278300603343,-0.4450876786063116,0.16711118677631
0.3268086612224579,-0.1699742078781128,82.61970520019531,-0.14240172595820516,-0.8878278300603343,-0.4450876786063116,0.16711118677631
-0.005411297548562288,-0.20561420917510986,81.1483383178711,-0.14240172595820516,-0.8878278300603343,-0.4450876786063116,0.16711118677631
0.4543818533420563,-0.06539436429738998,79.68953704833984,-0.14240172595820516,-0.8878278300603343,-0.4450876786063116,0.16711118677631
-0.202149897813797,-0.19636717438697815,78.25621795654297,-0.14240172595820516,-0.8878278300603343,-0.4450876786063116,0.16711118677631
0.05002618953585625,-0.029873711988329887,76.81265258789062,-0.14240172595820516,-0.8878278300603343,-0.4450876786063116,0.16711118677631
0.784128725528717,0.15540499985218048,75.41761016845703,-0.14240172595820516,-0.8878278300603343,-0.4450876786063116,0.16711118677631
-0.4123096466064453,-0.14472897350788116,74.0997314453125,-0.14240172595820516,-0.8878278300603343,-0.4450876786063116,0.16711118677631
0.20468272268772125,0.14265264570713043,72.75859069824219,-0.14240172595820516,-0.8878278300603343,-0.4450876786063116,0.16711118677631
-0.05984942987561226,-0.4715656638145447,71.49546813964844,-0.14240172595820516,-0.8878278300603343,-0.4450876786063116,0.16711118677631
0.000356726668542251,-0.019910264760255814,70.24600219726562,-0.14240172595820516,-0.8878278300603343,-0.4450876786063116,0.16711118677631
0.37085258960723877,-0.13278083503246307,69.00042724609375,-0.14240172595820516,-0.8878278300603343,-0.4450876786063116,0.16711118677631
0.024061497300863266,-0.4271995723247528,67.7965316772461,-0.14240172595820516,-0.8878278300603343,-0.4450876786063116,0.16711118677631
0.3564383089542389,0.3835590183734894,66.5141830444336,-0.14240172595820516,-0.8878278300603343,-0.4450876786063116,0.16711118677631
0.6948837637901306,-0.034224387258291245,65.20389556884766,-0.14240172595820516,-0.8878278300603343,-0.4450876786063116,0.16711118677631
-0.6399009227752686,-0.11610597372055054,63.94340515136719,-0.14240172595820516,-0.8878278300603343,-0.4450876786063116,0.16711118677631
0.041618138551712036,0.1632246971130371,62.653865814208984,-0.14240172595820516,-0.8878278300603343,-0.4450876786063116,0.16711118677631
0.5040335655212402,-0.21088775992393494,61.40061569213867,-0.14240172595820516,-0.8878278300603343,-0.4450876786063116,0.16711118677631
0.023082343861460686,0.007170466706156731,60.258113861083984,-0.14240172595820516,-0.8878278300603343,-0.4450876786063116,0.16711118677631
-0.3537392020225525,-0.4168039560317993,59.228546142578125,-0.14240172595820516,-0.8878278300603343,-0.4450876786063116,0.16711118677631
-0.38055989146232605,0.40438419580459595,58.2255744934082,-0.14240172595820516,-0.8878278300603343,-0.4450876786063116,0.16711118677631
0.07449422031641006,-0.23217321932315826,57.27678680419922,-0.14240172595820516,-0.8878278300603343,-0.4450876786063116,0.16711118677631
0.4277121424674988,0.6775974631309509,56.40457534790039,-0.14240172595820516,-0.8878278300603343,-0.4450876786063116,0.16711118677631
-1.2215352058410645,0.5006632208824158,55.85969924926758,-0.14240172595820516,-0.8878278300603343,-0.4450876786063116,0.16711118677631
-1.9714977741241455,-0.11502374708652496,55.688690185546875,-0.14240172595820516,-0.8878278300603343,-0.4450876786063116,0.16711118677631
-0.8080907464027405,-1.3370978832244873,55.69174575805664,-0.14240172595820516,-0.8878278300603343,-0.4450876786063116,0.16711118677631
-0.064149409532547,-1.5368698835372925,55.72511291503906,-0.14240172595820516,-0.8878278300603343,-0.4450876786063116,0.16711118677631
0.5651863813400269,-0.25400620698928833,55.834190368652344,-0.14240172595820516,-0.8878278300603343,-0.4450876786063116,0.16711118677631
-0.1544770896434784,0.6726270318031311,55.9425163269043,-0.14240172595820516,-0.8878278300603343,-0.4450876786063116,0.16711118677631
0.2798331677913666,0.26604190468788147,55.9740104675293,-0.14240172595820516,-0.8878278300603343,-0.4450876786063116,0.16711118677631
0.7507475018501282,-0.27130454778671265,55.967437744140625,-0.14240172595820516,-0.8878278300603343,-0.4450876786063116,0.16711118677631
0.04377637431025505,0.1712203174829483,55.94978332519531,-0.14240172595820516,-0.8878278300603343,-0.4450876786063116,0.16711118677631
-0.15932407975196838,0.13202960789203644,55.93367004394531,-0.14240172595820516,-0.8878278300603343,-0.4450876786063116,0.16711118677631
0.35908472537994385,-0.26999640464782715,55.940757751464844,-0.14240172595820516,-0.8878278300603343,-0.4450876786063116,0.16711118677631
-0.010624248534440994,0.20133870840072632,55.95844268798828,-0.14240172595820516,-0.8878278300603343,-0.4450876786063116,0.16711118677631
0.3013888895511627,0.05737864598631859,55.951900482177734,-0.14240172595820516,-0.8878278300603343,-0.4450876786063116,0.16711118677631
0.17671999335289001,0.1794215738773346,55.95368957519531,-0.14240172595820516,-0.8878278300603343,-0.4450876786063116,0.16711118677631
0.18923118710517883,0.010120576247572899,55.95688247680664,-0.14240172595820516,-0.8878278300603343,-0.4450876786063116,0.16711118677631
0.05620603635907173,0.02036108821630478,55.95402145385742,-0.14240172595820516,-0.8878278300603343,-0.4450876786063116,0.16711118677631
0.24906229972839355,0.003855828894302249,55.95441436767578,-0.14240172595820516,-0.8878278300603343,-0.4450876786063116,0.16711118677631
0.1606157124042511,0.12141240388154984,55.95729446411133,-0.14240172595820516,-0.8878278300603343,-0.4450876786063116,0.16711118677631
0.1836106777191162,0.07320503890514374,55.95451736450195,-0.14240172595820516,-0.8878278300603343,-0.4450876786063116,0.16711118677631
0.14931844174861908,0.01737982966005802,55.953372955322266,-0.14240172595820516,-0.8878278300603343,-0.4450876786063116,0.16711118677631
0.14987683296203613,0.02355155348777771,55.95490646362305,-0.14240172595820516,-0.8878278300603343,-0.4450876786063116,0.16711118677631
0.1604289710521698,0.07371856272220612,55.9532470703125,-0.14240172595820516,-0.8878278300603343,-0.4450876786063116,0.16711118677631
0.18868468701839447,0.05772725120186806,55.95375061035156,-0.14240172595820516,-0.8878278300603343,-0.4450876786063116,0.16711118677631
0.1497587412595749,0.03378334641456604,55.95357131958008,-0.14240172595820516,-0.8878278300603343,-0.4450876786063116,0.16711118677631
0.15213172137737274,0.02133246697485447,55.95301818847656,-0.14240172595820516,-0.8878278300603343,-0.4450876786063116,0.16711118677631
0.1817183494567871,0.058354608714580536,55.9528923034668,-0.14240172595820516,-0.8878278300603343,-0.4450876786063116,0.16711118677631
0.16637881100177765,0.063536636531353,55.953582763671875,-0.14240172595820516,-0.8878278300603343,-0.4450876786063116,0.16711118677631
0.1592620611190796,0.04484809190034866,55.95222854614258,-0.14240172595820516,-0.8878278300603343,-0.4450876786063116,0.16711118677631
0.15779824554920197,0,55.95264434814453,-0.14979783585812506,-0.885039529163236,-0.4424455093840759,0.1674849208754796
0.162104532122612,0.0703875795006752,55.95173645019531,-0.15714971221052135,-0.8822432257889572,-0.4397796529034774,0.16807148403798522
0.31432777643203735,0.16895431280136108,55.950679779052734,-0.16444628751526302,-0.8794254134235809,-0.435809383665522,0.17006599980716886
0.777981162071228,0.6115188002586365,55.941795349121094,-0.17163392245562567,-0.8765367805717211,-0.4267068091779948,0.17656994241600216
2.0107522010803223,2.3452537059783936,55.829078674316406,-0.1785520405694845,-0.8733886167740769,-0.4034673644850652,0.20120971330131074
1.1114248037338257,3.0602810382843018,55.78959655761719,-0.18505967879667906,-0.8696597371951479,-0.37744922277828064,0.24625583617016653
0.610262393951416,1.3931066989898682,55.86799240112305,-0.19123093756536672,-0.8652462102216677,-0.36310182946423697,0.28336740064745125
0.8527823686599731,0.25363269448280334,55.843345642089844,-0.1971810343923671,-0.8604090633085524,-0.3509097897758087,0.2970902289263902
0.6646965742111206,0.7028583884239197,55.888919830322266,-0.20292415040648673,-0.855391136501244,-0.3382641319185496,0.30506098795061287
0.5816439986228943,1.2952625751495361,55.90839385986328,-0.20847533450979353,-0.8501680283018189,-0.3278779604782661,0.3217119959803917
0.7390587329864502,0.730914831161499,55.9476432800293,-0.21384825171695843,-0.8446654549378185,-0.3168721043815216,0.3385968076996503
0.6882038712501526,0.5410853624343872,55.96810531616211,-0.2190303379980229,-0.8389338414627135,-0.30497824934621653,0.34919680931294933
0.98219895362854,0.35826829075813293,55.96048355102539,-0.2239973086242877,-0.833051439526026,-0.2910582258055608,0.35669142308955365
0.2860376238822937,1.5058064460754395,55.99085235595703,-0.22876020706983102,-0.8269771328400312,-0.28048958765963716,0.3722253792298334
0.8573454022407532,1.3286685943603516,56.02360534667969,-0.22876020706983102,-0.8269771328400312,-0.28048958765963716,0.3722253792298334
0,0.2732859253883362,56.03776550292969,-0.23337549565566937,-0.8206621296778848,-0.2733450426409642,0.3855750002277391
1.0252609252929688,0.05213584378361702,55.95623016357422,-0.23786004769098454,-0.8142132809401188,-0.26480120159685616,0.38828684830417204
0.4802740812301636,-1.1749677658081055,55.683109283447266,-0.24216885000881247,-0.807819807907412,-0.25225507654249674,0.37892991562063466
0.5059133768081665,0.4612829089164734,55.287532806396484,-0.2463046160443792,-0.80155387076213,-0.24403684772551065,0.3729825418132044
0,1.6981658935546875,55.11533737182617,-0.2503367639664149,-0.7951875333428494,-0.23982090291877592,0.3909779485004641
0.9126098155975342,0.741627037525177,55.0821647644043,-0.25427040333342243,-0.7885018041365167,-0.2322158211221298,0.41130955625946297
1.0477874279022217,-0.19411225616931915,55.01578140258789,-0.258004528321326,-0.7816086230057093,-0.2158791774262985,0.41587217943742844
0.07537645101547241,2.3497674465179443,55.046287536621094,-0.2615245171201728,-0.774527721737978,-0.2065194784353177,0.43383597269033364
0,-0.652384340763092,55.13872528076172,-0.2649612739516631,-0.7671792483663505,-0.2058913413435221,0.4479808319049574
0.9795077443122864,0.9029275178909302,55.2238883972168,-0.26832477493625567,-0.7596955023361895,-0.19772877680758638,0.45006869171435604
-0.19086827337741852,0.37376493215560913,55.340354919433594,-0.2715654879197894,-0.7521056982763638,-0.19115678121646248,0.4607077954647439
0.18222323060035706,0.6667450666427612,55.30792999267578,-0.27475203462359,-0.7443549773798126,-0.19122882323960466,0.469378712121397
1.1301641464233398,0,55.312496185302734,-0.2778480436652901,-0.7364856971037169,-0.18029226176440719,0.47493492101008666
0.21893379092216492,-0.1779581904411316,55.26737976074219,-0.2778480436652901,-0.7364856971037169,-0.18029226176440719,0.47493492101008666
0.4127761125564575,0.4202890396118164,55.188934326171875,-0.28080904595139977,-0.7285532865556897,-0.175028012568752,0.4769543447531757
0.2303653508424759,-0.057805873453617096,55.078102111816406,-0.28368151689258736,-0.7205788750343758,-0.16966850037376088,0.479975037804494
0.1083676889538765,0.6717865467071533,55.04999923706055,-0.2864858021043864,-0.7125366535242138,-0.1668457250421246,0.48509154341494015
0.31131958961486816,0.6493535041809082,55.04444885253906,-0.2892374192385212,-0.7043600486304309,-0.16334833105405175,0.4961010438390073
0.5198341608047485,0.5232943296432495,55.03989028930664,-0.2919021724123096,-0.6960102640224318,-0.15642204980055494,0.5058731091208754
-1.048073649406433,-0.29209864139556885,55.115631103515625,-0.29454588987347174,-0.6875629902809556,-0.1608240455389023,0.5077997398562727
1.3106133937835693,-0.3850770592689514,55.26567840576172,-0.2972080587057606,-0.679146687373675,-0.1586362143357595,0.5021566090174017
-0.14545267820358276,0,55.41424560546875,-0.29977108167277466,-0.6708041520191675,-0.14892654170592629,0.49894763352349375
-0.9464523196220398,1.7855243682861328,55.34787368774414,-0.3023290174371669,-0.6623643633793117,-0.1580257500211398,0.5138270032592115
1.393993616104126,-0.963814377784729,55.20687484741211,-0.3049317006808191,-0.6537435167978733,-0.15429623921712243,0.5206745865133898
1.0378473997116089,0.38422417640686035,55.12491989135742,-0.3073344268194506,-0.6451058563421903,-0.13403089741865798,0.5158446681685742
0.6752542853355408,0.4361081123352051,54.9924201965332,-0.30944930971496665,-0.6364514776859959,-0.11975505004326506,0.5226807705747581
0.8875350952148438,-0.058141399174928665,54.99977111816406,-0.30944930971496665,-0.6364514776859959,-0.11975505004326506,0.5226807705747581
0.08672124147415161,0,54.98805236816406,-0.31137757052563986,-0.6277441691069148,-0.11163624723752344,0.5221962589149671
-0.7382357120513916,0.9455710053443909,54.945770263671875,-0.313283418706722,-0.6189752334718497,-0.11706553449233377,0.530076017292837
-0.9780858755111694,-0.2578738033771515,54.92902374267578,-0.3153536999473972,-0.6100928764334991,-0.13136821438868845,0.5358068273092307
0.2987794876098633,0,54.93891143798828,-0.31759034424192406,-0.6011806705480242,-0.13702910095453266,0.5336578789477544
0.3410051465034485,-1.7631454467773438,55.00373077392578,-0.3198297331026862,-0.5924088132215878,-0.13169756233692173,0.5189650002246099
0.615680992603302,0.6312649250030518,54.89785385131836,-0.32195825593753025,-0.5838379993651898,-0.12372517784436547,0.5095326625431574
0,1.0244613885879517,54.70348358154297,-0.32397758661045,-0.5752308073288044,-0.11859450290600462,0.5233303818230824
0.887427031993866,0.06296809762716293,54.47746658325195,-0.32589253478166164,-0.5664331183618769,-0.11119927763938907,0.5323922942082084
0.9313905239105225,0.3740352392196655,54.36635971069336,-0.3276195493009359,-0.5575295660044591,-0.09604246467351917,0.536033988681932
-0.1627146303653717,0.05879703164100647,54.33603286743164,-0.3291668767751095,-0.548565608396506,-0.08963683222730957,0.5396409242724376
0.3693954050540924,0.5150244235992432,54.368812561035156,-0.3306464711473224,-0.539531744279796,-0.0879144924382369,0.544422769732773
0,-0.11912718415260315,54.40387725830078,-0.33208606022927534,-0.530430538587066,-0.08483619739611946,0.5477219133948283
0.751140832901001,-0.4268319606781006,54.45658874511719,-0.33208606022927534,-0.530430538587066,-0.08483619739611946,0.5477219133948283
-0.6462064385414124,-0.10947594791650772,54.584625244140625,-0.3334927097418246,-0.5213390836352491,-0.08396174410978956,0.5432526808232067
0.07645513862371445,-1.039038062095642,54.608551025390625,-0.3349316382061487,-0.5123646302055576,-0.0887096716091037,0.5336817307397721
-0.9121992588043213,-0.6423300504684448,54.4847526550293,-0.3364681705190907,-0.5035866963677117,-0.09567420594394209,0.519670329801738
-1.2127219438552856,-1.1040143966674805,54.35898208618164,-0.33821030459056334,-0.49504679812428937,-0.11338188263277214,0.5051174594089386
-0.13196878135204315,-1.3556283712387085,54.35575866699219,-0.34019338393480447,-0.4867989823263561,-0.12458763867616655,0.4846204363430537
-0.5289210081100464,-0.24856524169445038,54.37945556640625,-0.34231573970367546,-0.47883337738820336,-0.13009505358835063,0.4712521562352774
0.4589426517486572,0.9274346828460693,54.41392517089844,-0.3444888502048953,-0.470932031073091,-0.13067820655802886,0.47690940157820755
1.7644907236099243,1.6005783081054688,54.44123458862305,-0.34651241521868476,-0.46280798458908257,-0.11214959509670736,0.4979761765028037
-0.6587430834770203,0.1177763119339943,54.466331481933594,-0.34830478710639845,-0.45438905146542197,-0.10293503142893315,0.5122957983364659
0.7382992506027222,-0.3588710129261017,54.57328796386719,-0.3500148462297192,-0.4458675308473831,-0.1022720633695523,0.5102866758281983
0.27385392785072327,0.06609240174293518,54.6590576171875,-0.35164909220404134,-0.437383084764912,-0.09383745354910693,0.5078468540683386
-0.944108784198761,0.7538604140281677,54.64442443847656,-0.3532595952393284,-0.4288620293626778,-0.09942291068534058,0.5146797941997645
1.2764904499053955,0.11196398735046387,54.44386672973633,-0.3532595952393284,-0.4288620293626778,-0.09942291068534058,0.5146797941997645
0.5956445932388306,0.26902225613594055,54.26607131958008,-0.3532595952393284,-0.4288620293626778,-0.09942291068534058,0.5146797941997645
0.2249860018491745,-0.23201647400856018,54.19029235839844,-0.3532595952393284,-0.4288620293626778,-0.09942291068534058,0.5146797941997645
-0.13139349222183228,-1.7921395301818848,54.18307876586914,-0.3532595952393284,-0.4288620293626778,-0.09942291068534058,0.5146797941997645
-2.112799644470215,-2.0943164825439453,53.90911865234375,-0.3532595952393284,-0.4288620293626778,-0.09942291068534058,0.5146797941997645
-0.12470472604036331,-1.5522165298461914,53.44560241699219,-0.3532595952393284,-0.4288620293626778,-0.09942291068534058,0.5146797941997645
-0.7837097644805908,-1.1528996229171753,52.61674499511719,-0.3532595952393284,-0.4288620293626778,-0.09942291068534058,0.5146797941997645
-0.7565356492996216,-1.767777681350708,51.436378479003906,-0.3532595952393284,-0.4288620293626778,-0.09942291068534058,0.5146797941997645
-1.8174055814743042,-1.6050447225570679,50.047386169433594,-0.3532595952393284,-0.4288620293626778,-0.09942291068534058,0.5146797941997645
-0.7283138632774353,-1.7960419654846191,48.47238540649414,-0.3532595952393284,-0.4288620293626778,-0.09942291068534058,0.5146797941997645
-0.7847977876663208,-0.39904847741127014,46.88398361206055,-0.3532595952393284,-0.4288620293626778,-0.09942291068534058,0.5146797941997645
-0.7689828872680664,-0.7426528334617615,45.262420654296875,-0.3532595952393284,-0.4288620293626778,-0.09942291068534058,0.5146797941997645
-0.5900481343269348,-0.1680259108543396,43.646080017089844,-0.3532595952393284,-0.4288620293626778,-0.09942291068534058,0.5146797941997645
-0.7175166606903076,-0.7753461599349976,42.035675048828125,-0.3532595952393284,-0.4288620293626778,-0.09942291068534058,0.5146797941997645
1.5751419067382812,-0.6229890584945679,40.53337097167969,-0.3532595952393284,-0.4288620293626778,-0.09942291068534058,0.5146797941997645
-0.10623522102832794,0.559529185295105,39.15671157836914,-0.3532595952393284,-0.4288620293626778,-0.09942291068534058,0.5146797941997645
0.20526276528835297,-1.8333336114883423,37.85392761230469,-0.3532595952393284,-0.4288620293626778,-0.09942291068534058,0.5146797941997645
0.5018061399459839,0.37626272439956665,36.644039154052734,-0.3532595952393284,-0.4288620293626778,-0.09942291068534058,0.5146797941997645
0.06329919397830963,-0.5047348737716675,35.42671585083008,-0.3532595952393284,-0.4288620293626778,-0.09942291068534058,0.5146797941997645
0.46537354588508606,-0.3678194284439087,34.272850036621094,-0.3532595952393284,-0.4288620293626778,-0.09942291068534058,0.5146797941997645
-0.6817848086357117,0.40437766909599304,33.17727279663086,-0.3532595952393284,-0.4288620293626778,-0.09942291068534058,0.5146797941997645
-1.0378808975219727,-0.9281525611877441,32.00286865234375,-0.3532595952393284,-0.4288620293626778,-0.09942291068534058,0.5146797941997645
1.2678945064544678,-0.2972099483013153,30.82632827758789,-0.3532595952393284,-0.4288620293626778,-0.09942291068534058,0.5146797941997645
-0.38691404461860657,0.029624605551362038,29.590312957763672,-0.3532595952393284,-0.4288620293626778,-0.09942291068534058,0.5146797941997645
0.026225456967949867,-1.5229308605194092,28.37778091430664,-0.3532595952393284,-0.4288620293626778,-0.09942291068534058,0.5146797941997645
0.20630452036857605,0.7105832695960999,27.172170639038086,-0.3532595952393284,-0.4288620293626778,-0.09942291068534058,0.5146797941997645
0.4645112454891205,-0.9449368715286255,25.976533889770508,-0.3532595952393284,-0.4288620293626778,-0.09942291068534058,0.5146797941997645
0.557063639163971,-0.5310644507408142,24.751842498779297,-0.3532595952393284,-0.4288620293626778,-0.09942291068534058,0.5146797941997645
0.055008262395858765,-0.694805920124054,23.500207901000977,-0.3532595952393284,-0.4288620293626778,-0.09942291068534058,0.5146797941997645
1.030608057975769,-1.7925434112548828,22.198650360107422,-0.3532595952393284,-0.4288620293626778,-0.09942291068534058,0.5146797941997645
-1.6080410480499268,0.5432760119438171,20.819774627685547,-0.3532595952393284,-0.4288620293626778,-0.09942291068534058,0.5146797941997645
-0.2635025084018707,-1.2786743640899658,19.433670043945312,-0.3532595952393284,-0.4288620293626778,-0.09942291068534058,0.5146797941997645
-0.24916042387485504,-0.24974583089351654,18.076194763183594,-0.3532595952393284,-0.4288620293626778,-0.09942291068534058,0.5146797941997645
-0.044941116124391556,-0.1491519659757614,16.708351135253906,-0.3532595952393284,-0.4288620293626778,-0.09942291068534058,0.5146797941997645
-1.2862071990966797,0.6444123387336731,15.423670768737793,-0.3532595952393284,-0.4288620293626778,-0.09942291068534058,0.5146797941997645
-1.06437087059021,1.1724075078964233,14.254100799560547,-0.3532595952393284,-0.4288620293626778,-0.09942291068534058,0.5146797941997645
-1.1809561252593994,1.1859264373779297,13.210826873779297,-0.3532595952393284,-0.4288620293626778,-0.09942291068534058,0.5146797941997645
-0.44006580114364624,0.8086246252059937,12.278594017028809,-0.3532595952393284,-0.4288620293626778,-0.09942291068534058,0.5146797941997645
0.14998890459537506,-0.6585100293159485,11.397099494934082,-0.3532595952393284,-0.4288620293626778,-0.09942291068534058,0.5146797941997645
0.04409060627222061,-0.17486926913261414,10.4968843460083,-0.3532595952393284,-0.4288620293626778,-0.09942291068534058,0.5146797941997645
0.5264334678649902,-1.5418970584869385,9.521470069885254,-0.3532595952393284,-0.4288620293626778,-0.09942291068534058,0.5146797941997645
-0.2637163996696472,-0.30999231338500977,8.525017738342285,-0.3532595952393284,-0.4288620293626778,-0.09942291068534058,0.5146797941997645
0.5658154487609863,-0.9377909898757935,7.452503204345703,-0.3532595952393284,-0.4288620293626778,-0.09942291068534058,0.5146797941997645
0.254757285118103,-1.2517735958099365,6.326963424682617,-0.3532595952393284,-0.4288620293626778,-0.09942291068534058,0.5146797941997645
0.3157479763031006,-0.629955530166626,5.11918306350708,-0.3532595952393284,-0.4288620293626778,-0.09942291068534058,0.5146797941997645
-0.84311443567276,-0.8950538039207458,3.8518476486206055,-0.3532595952393284,-0.4288620293626778,-0.09942291068534058,0.5146797941997645
0.8669402599334717,-0.9574016332626343,2.447664260864258,-0.3532595952393284,-0.4288620293626778,-0.09942291068534058,0.5146797941997645
0.05631532892584801,-0.6426913142204285,0.9775461554527283,-0.3532595952393284,-0.4288620293626778,-0.09942291068534058,0.5146797941997645
0.35850805044174194,-0.40258440375328064,-0.6475425362586975,-0.3532595952393284,-0.4288620293626778,-0.09942291068534058,0.5146797941997645
-0.3064904808998108,0.15596356987953186,-2.4433109760284424,-0.3532595952393284,-0.4288620293626778,-0.09942291068534058,0.5146797941997645
-0.16179323196411133,0.385175496339798,-4.234644889831543,-0.3532595952393284,-0.4288620293626778,-0.09942291068534058,0.5146797941997645
0.15537501871585846,-0.9647725224494934,-6.058117389678955,-0.3532595952393284,-0.4288620293626778,-0.09942291068534058,0.5146797941997645
0.4552135169506073,0.06589784473180771,-7.903602123260498,-0.3532595952393284,-0.4288620293626778,-0.09942291068534058,0.5146797941997645
-0.11464618891477585,-0.10360480099916458,-9.80699634552002,-0.3532595952393284,-0.4288620293626778,-0.09942291068534058,0.5146797941997645
-0.22785189747810364,-0.8340697884559631,-11.720368385314941,-0.3532595952393284,-0.4288620293626778,-0.09942291068534058,0.5146797941997645
0.0793866440653801,-0.5457972288131714,-13.627179145812988,-0.3532595952393284,-0.4288620293626778,-0.09942291068534058,0.5146797941997645
-0.17037159204483032,-0.3996787965297699,-15.625336647033691,-0.3532595952393284,-0.4288620293626778,-0.09942291068534058,0.5146797941997645
0.13870511949062347,-0.18745416402816772,-17.663328170776367,-0.3532595952393284,-0.4288620293626778,-0.09942291068534058,0.5146797941997645
0.48492124676704407,0.00012635816528927535,-19.745677947998047,-0.3532595952393284,-0.4288620293626778,-0.09942291068534058,0.5146797941997645
0.09824030101299286,-0.15837112069129944,-21.85346031188965,-0.3532595952393284,-0.4288620293626778,-0.09942291068534058,0.5146797941997645
0.8443126082420349,-0.9212630987167358,-23.904558181762695,-0.3532595952393284,-0.4288620293626778,-0.09942291068534058,0.5146797941997645
                                                                                                                                                                                                                                                                                                                                                                                                                                                                                                                                                                                                                                                                                                                                                                                                                                                                                                                                                                                                                        