faccX,faccY,yaw,posX,posY,velX,velY
0,0,-87.66619873046875,0.0,0.0,0.0,0.0
0,0,-87.66620635986328,0.0,0.0,0.0,0.0
0,0,-87.66635131835938,0.0,0.0,0.0,0.0
0,-0.1315148025751114,-87.66768646240234,0.0,-9.132972401049401e-06,0.0,-0.0010959566881259281
0.21988612413406372,-1.670737385749817,-87.62052917480469,1.52698697315322e-05,-0.0001525553191701571,0.0018323843677838644,-0.016114724924166997
0.23290511965751648,-2.876643180847168,-87.62811279296875,7.72534455690119e-05,-0.0007369243850310642,0.0056056447327136995,-0.05400956297914187
0.14578624069690704,-1.8408763408660889,-87.6426010131836,0.00019697886891663076,-0.0019646892903579603,0.008761406069000562,-0.09332222566008568
-0.16493257880210876,-0.9358344674110413,-87.60138702392578,0.0003416726965871122,-0.0037128868574897445,0.008601853251457214,-0.11646148239572843
-0.24387207627296448,-0.8663604259490967,-87.63223266601562,0.00045664770528674125,-0.005779063987235228,0.005195147792498271,-0.13147977317372958
0.1519414782524109,-2.2089803218841553,-87.63333129882812,0.0005368494325213962,-0.008183958869841364,0.0044290594756603244,-0.15710761273900667
-0.3912932872772217,-1.64029860496521,-87.64884185791016,0.0005940454370445676,-0.011069730118744903,0.0024344610671202345,-0.18918493712941803
0.35372093319892883,-0.7315780520439148,-87.72784423828125,0.0006320105969078012,-0.014387526060971947,0.002121358116467794,-0.2089505759378274
-0.472345232963562,-0.8033008575439453,-87.7389907836914,0.0006591287669208316,-0.01797662447310156,0.001132822285095851,-0.22174123351772623
0.6885098218917847,-0.5746524333953857,-87.75337219238281,0.0006930205681257779,-0.021768002899156674,0.0029341938594977064,-0.23322417760888733
-0.7987972497940063,-1.7090392112731934,-87.70477294921875,0.0007342649499575298,-0.025813662223517893,0.0020151319603125255,-0.2522549413144588
0.2940334975719452,-0.28851303458213806,-87.69832611083984,0.000732797444280651,-0.030156630151387715,-0.0021912326415379837,-0.2689012100299199
-0.2735863924026489,-0.47284796833992004,-87.68665313720703,0.0006976968381139969,-0.0346911892770893,-0.002020840098460515,-0.2752458850542704
0.9183509945869446,-1.4095113277435303,-87.55889892578125,0.0007087914894024533,-0.039409340090221824,0.0033521982530752823,-0.2909322125216325
-0.5664366483688354,-0.643407940864563,-87.39614868164062,0.0007890999565521879,-0.04440077413701348,0.006284817804892859,-0.3080398730933666
0.742257833480835,-0.30012670159339905,-87.30584716796875,0.0009060567244887354,-0.049600295260962504,0.0077499943474928544,-0.3159026617805163
0.45404767990112305,-1.9915945529937744,-87.2414779663086,0.0011183000687095856,-0.05502448693331744,0.017719206959009172,-0.3350003389020761
-1.0165798664093018,0.1619860976934433,-87.15373229980469,0.0013745554495188926,-0.0607348820577479,0.013031438738107682,-0.35024707602957883
0.17819243669509888,-0.909488320350647,-87.07363891601562,0.001533524745868312,-0.06662424320148097,0.006044876823822658,-0.3564762612183889
0.8756964206695557,-1.4159234762191772,-87.00215911865234,0.0017074594191379018,-0.0727270011521048,0.014827283968528112,-0.3758546928564708
-0.7427011132240295,-0.07512524724006653,-86.91639709472656,0.001963816603852643,-0.07909479108328621,0.01593557819724083,-0.3882800988852978
-0.7469604015350342,-0.363059937953949,-86.8552017211914,0.0021259608575039442,-0.08559655559145743,0.0035217322409152995,-0.39193164209524795
-0.6797736883163452,0.056771114468574524,-86.93917083740234,0.0020855776386128535,-0.09215001968356472,-0.008367718507846195,-0.39448404895762607
0.314877986907959,-0.3349267542362213,-86.97835540771484,0.0019207756842176123,-0.09874407019673125,-0.011408516019582747,-0.3968020126223565
0.9944649934768677,-0.833387553691864,-86.89977264404297,0.001821560346417957,-0.10543857001182108,-0.0004973245163758591,-0.40653796518842383
0.5088639259338379,-0.7706385254859924,-86.79558563232422,0.001821560346417957,-0.10543857001182108,-0.0004973245163758591,-0.40653796518842383
0.15269306302070618,-0.6037205457687378,-86.62310028076172,0.001821560346417957,-0.10543857001182108,-0.0004973245163758591,-0.40653796518842383
-0.2868421673774719,0.649090588092804,-86.47547912597656,0.001821560346417957,-0.10543857001182108,-0.0004973245163758591,-0.40653796518842383
-0.29223859310150146,4.768649101257324,-86.53211975097656,0.001821560346417957,-0.10543857001182108,-0.0004973245163758591,-0.40653796518842383
0.3493674695491791,1.9338899850845337,-86.52079010009766,0.001821560346417957,-0.10543857001182108,-0.0004973245163758591,-0.40653796518842383
-0.19941778481006622,0.00498388335108757,-86.23403930664062,0.001821560346417957,-0.10543857001182108,-0.0004973245163758591,-0.40653796518842383
0.7150545120239258,0.4114261567592621,-85.58969116210938,0.001821560346417957,-0.10543857001182108,-0.0004973245163758591,-0.40653796518842383
1.0351585149765015,0.19693396985530853,-84.57585144042969,0.001821560346417957,-0.10543857001182108,-0.0004973245163758591,-0.40653796518842383
0.7989727854728699,1.1050649881362915,-83.35369873046875,0.001821560346417957,-0.10543857001182108,-0.0004973245163758591,-0.40653796518842383
0.4238658547401428,0.9423307180404663,-82.11215209960938,0.001821560346417957,-0.10543857001182108,-0.0004973245163758591,-0.40653796518842383
0.31155842542648315,0.490960955619812,-80.77765655517578,0.001821560346417957,-0.10543857001182108,-0.0004973245163758591,-0.40653796518842383
0.49136385321617126,0.8648172616958618,-79.32349395751953,0.001821560346417957,-0.10543857001182108,-0.0004973245163758591,-0.40653796518842383
0.31070542335510254,1.1388274431228638,-77.77180480957031,0.001821560346417957,-0.10543857001182108,-0.0004973245163758591,-0.40653796518842383
0.5124168395996094,0.7721095681190491,-76.15267944335938,0.001821560346417957,-0.10543857001182108,-0.0004973245163758591,-0.40653796518842383
1.6482288837432861,0.517927885055542,-74.51902770996094,0.001821560346417957,-0.10543857001182108,-0.0004973245163758591,-0.40653796518842383
0.29340898990631104,0.5312778353691101,-72.8610610961914,0.001821560346417957,-0.10543857001182108,-0.0004973245163758591,-0.40653796518842383
0.942194402217865,0.8028038144111633,-71.1245346069336,0.001821560346417957,-0.10543857001182108,-0.0004973245163758591,-0.40653796518842383
-0.7731372117996216,1.3605055809020996,-69.45638275146484,0.001821560346417957,-0.10543857001182108,-0.0004973245163758591,-0.40653796518842383
0.7078789472579956,0.6913588047027588,-67.82157135009766,0.001821560346417957,-0.10543857001182108,-0.0004973245163758591,-0.40653796518842383
1.8415404558181763,-0.14453624188899994,-66.14086151123047,0.001821560346417957,-0.10543857001182108,-0.0004973245163758591,-0.40653796518842383
-0.7641920447349548,0.5511212944984436,-64.3838119506836,0.001821560346417957,-0.10543857001182108,-0.0004973245163758591,-0.40653796518842383
-0.09372463822364807,0.5652902126312256,-62.54411315917969,0.001821560346417957,-0.10543857001182108,-0.0004973245163758591,-0.40653796518842383
0.5820972323417664,0.4084452986717224,-60.75285339355469,0.001821560346417957,-0.10543857001182108,-0.0004973245163758591,-0.40653796518842383
0.4670861065387726,0.11837433278560638,-58.920204162597656,0.001821560346417957,-0.10543857001182108,-0.0004973245163758591,-0.40653796518842383
0.7745283842086792,0.925528883934021,-57.05397033691406,0.001821560346417957,-0.10543857001182108,-0.0004973245163758591,-0.40653796518842383
0.3007185161113739,0.8982231616973877,-55.21289825439453,0.001821560346417957,-0.10543857001182108,-0.0004973245163758591,-0.40653796518842383
0.40676701068878174,0.3682675361633301,-53.30965805053711,0.001821560346417957,-0.10543857001182108,-0.0004973245163758591,-0.40653796518842383
0.5984102487564087,0.9061072468757629,-51.384315490722656,0.001821560346417957,-0.10543857001182108,-0.0004973245163758591,-0.40653796518842383
0.1949811577796936,0.4807344675064087,-49.46217346191406,0.001821560346417957,-0.10543857001182108,-0.0004973245163758591,-0.40653796518842383
0.4573505222797394,0.4419421851634979,-47.4410514831543,0.001821560346417957,-0.10543857001182108,-0.0004973245163758591,-0.40653796518842383
-0.5699830055236816,0.7576764225959778,-45.43041229248047,0.001821560346417957,-0.10543857001182108,-0.0004973245163758591,-0.40653796518842383
0.809692919254303,0.281953364610672,-43.43490982055664,0.001821560346417957,-0.10543857001182108,-0.0004973245163758591,-0.40653796518842383
-0.3099811375141144,0.6009441614151001,-41.393733978271484,0.001821560346417957,-0.10543857001182108,-0.0004973245163758591,-0.40653796518842383
-0.7952519059181213,0.05761954188346863,-39.38121032714844,0.001821560346417957,-0.10543857001182108,-0.0004973245163758591,-0.40653796518842383
0.8885653614997864,0.5038556456565857,-37.40700149536133,0.001821560346417957,-0.10543857001182108,-0.0004973245163758591,-0.40653796518842383
-0.15030162036418915,0.593508243560791,-35.50615310668945,0.001821560346417957,-0.10543857001182108,-0.0004973245163758591,-0.40653796518842383
-0.3094543218612671,0.02304394356906414,-33.5855712890625,0.001821560346417957,-0.10543857001182108,-0.0004973245163758591,-0.40653796518842383
-0.15551042556762695,0.3189730942249298,-31.506628036499023,0.001821560346417957,-0.10543857001182108,-0.0004973245163758591,-0.40653796518842383
0.017272191122174263,0.9034915566444397,-29.418649673461914,0.001821560346417957,-0.10543857001182108,-0.0004973245163758591,-0.40653796518842383
-0.3896740972995758,0.14556267857551575,-27.25773048400879,0.001821560346417957,-0.10543857001182108,-0.0004973245163758591,-0.40653796518842383
0.6245709657669067,0.2179926335811615,-25.093048095703125,0.001821560346417957,-0.10543857001182108,-0.0004973245163758591,-0.40653796518842383
-0.12619733810424805,1.5984097719192505,-22.910526275634766,0.001821560346417957,-0.10543857001182108,-0.0004973245163758591,-0.40653796518842383
-0.764878511428833,-0.40508130192756653,-20.65787124633789,0.001821560346417957,-0.10543857001182108,-0.0004973245163758591,-0.40653796518842383
-0.025772836059331894,1.1556950807571411,-18.427995681762695,0.001821560346417957,-0.10543857001182108,-0.0004973245163758591,-0.40653796518842383
-0.11160151660442352,0.602374255657196,-16.15203094482422,0.001821560346417957,-0.10543857001182108,-0.0004973245163758591,-0.40653796518842383
0.28075599670410156,0.548833429813385,-13.815513610839844,0.001821560346417957,-0.10543857001182108,-0.0004973245163758591,-0.40653796518842383
-0.6142888069152832,0.060823798179626465,-11.432046890258789,0.001821560346417957,-0.10543857001182108,-0.0004973245163758591,-0.40653796518842383
-0.34483423829078674,0.3438030779361725,-9.027375221252441,0.001821560346417957,-0.10543857001182108,-0.0004973245163758591,-0.40653796518842383
-0.8442912101745605,-0.38208651542663574,-6.6122894287109375,0.001821560346417957,-0.10543857001182108,-0.0004973245163758591,-0.40653796518842383
0.21141652762889862,0.6639629602432251,-4.183942794799805,0.001821560346417957,-0.10543857001182108,-0.0004973245163758591,-0.40653796518842383
0.06928391754627228,0.6625481843948364,-1.7334628105163574,0.001821560346417957,-0.10543857001182108,-0.0004973245163758591,-0.40653796518842383
0.029969381168484688,0.43799808621406555,0.690699577331543,0.001821560346417957,-0.10543857001182108,-0.0004973245163758591,-0.40653796518842383
-1.1167185306549072,0.11260069906711578,3.1363070011138916,0.001821560346417957,-0.10543857001182108,-0.0004973245163758591,-0.40653796518842383
-0.2956491708755493,0.5189236402511597,5.506773471832275,0.001821560346417957,-0.10543857001182108,-0.0004973245163758591,-0.40653796518842383
-0.017168471589684486,0.4816210865974426,7.740520477294922,0.001821560346417957,-0.10543857001182108,-0.0004973245163758591,-0.40653796518842383
-0.5638490319252014,-0.4547249972820282,9.63631534576416,0.001821560346417957,-0.10543857001182108,-0.0004973245163758591,-0.40653796518842383
-0.5325586795806885,-0.8075381517410278,11.160439491271973,0.001821560346417957,-0.10543857001182108,-0.0004973245163758591,-0.40653796518842383
0.041522588580846786,-1.4698680639266968,12.262406349182129,0.001821560346417957,-0.10543857001182108,-0.0004973245163758591,-0.40653796518842383
-0.2704809308052063,-1.698236346244812,13.03474235534668,0.001821560346417957,-0.10543857001182108,-0.0004973245163758591,-0.40653796518842383
-0.49956318736076355,-1.1750614643096924,13.435744285583496,0.001821560346417957,-0.10543857001182108,-0.0004973245163758591,-0.40653796518842383
-0.7639576196670532,-0.7058483362197876,13.58297061920166,0.001821560346417957,-0.10543857001182108,-0.0004973245163758591,-0.40653796518842383
-1.1550493240356445,-0.5792732238769531,13.677450180053711,0.001821560346417957,-0.10543857001182108,-0.0004973245163758591,-0.40653796518842383
-0.8172679543495178,-0.017320025712251663,13.759270668029785,0.001821560346417957,-0.10543857001182108,-0.0004973245163758591,-0.40653796518842383
-0.30334192514419556,-0.3341158926486969,13.712398529052734,0.001821560346417957,-0.10543857001182108,-0.0004973245163758591,-0.40653796518842383
0.26997876167297363,0.2262156456708908,13.669757843017578,0.001821560346417957,-0.10543857001182108,-0.0004973245163758591,-0.40653796518842383
0.6017287373542786,0.1639053076505661,13.688815116882324,0.001821560346417957,-0.10543857001182108,-0.0004973245163758591,-0.40653796518842383
0.4890112578868866,0.1161048635840416,13.692635536193848,0.001821560346417957,-0.10543857001182108,-0.0004973245163758591,-0.40653796518842383
0.14511670172214508,0.05162075534462929,13.684741973876953,0.001821560346417957,-0.10543857001182108,-0.0004973245163758591,-0.40653796518842383
-0.06060156971216202,-0.08278980106115341,13.698051452636719,0.001821560346417957,-0.10543857001182108,-0.0004973245163758591,-0.40653796518842383
0.06751237064599991,0.14961132407188416,13.69259262084961,0.001821560346417957,-0.10543857001182108,-0.0004973245163758591,-0.40653796518842383
0.2989770174026489,-0.007765084505081177,13.686837196350098,0.001821560346417957,-0.10543857001182108,-0.0004973245163758591,-0.40653796518842383
0.27265095710754395,0.10484685003757477,13.691739082336426,0.001821560346417957,-0.10543857001182108,-0.0004973245163758591,-0.40653796518842383
0.08529853820800781,0.05049608275294304,13.689895629882812,0.001821560346417957,-0.10543857001182108,-0.0004973245163758591,-0.40653796518842383
0.07309882342815399,0.007426721043884754,13.68996810913086,0.001821560346417957,-0.10543857001182108,-0.0004973245163758591,-0.40653796518842383
0.19599318504333496,0.0736778974533081,13.689292907714844,0.001821560346417957,-0.10543857001182108,-0.0004973245163758591,-0.40653796518842383
0.2591685652732849,0.07138247042894363,13.687026023864746,0.001821560346417957,-0.10543857001182108,-0.0004973245163758591,-0.40653796518842383
0.13841919600963593,0.02447984367609024,13.687914848327637,0.001821560346417957,-0.10543857001182108,-0.0004973245163758591,-0.40653796518842383
0.08481255173683167,0.0533016063272953,13.689037322998047,0.001821560346417957,-0.10543857001182108,-0.0004973245163758591,-0.40653796518842383
0.1702553629875183,0.03736834228038788,13.687616348266602,0.001821560346417957,-0.10543857001182108,-0.0004973245163758591,-0.40653796518842383
0.20648279786109924,0.06987055391073227,13.687697410583496,0.001821560346417957,-0.10543857001182108,-0.0004973245163758591,-0.40653796518842383
0.16592420637607574,0.06364503502845764,13.68759822845459,0.001821560346417957,-0.10543857001182108,-0.0004973245163758591,-0.40653796518842383
0.12909375131130219,0.02350766398012638,13.687240600585938,0.001821560346417957,-0.10543857001182108,-0.0004973245163758591,-0.40653796518842383
0.1665065735578537,0.054143741726875305,13.687586784362793,0.0018337994048164953,-0.11220881030623182,0.0019660115242004397,-0.4058908701408655
0.1973208785057068,0.05764282867312431,13.686786651611328,0.001891832058835361,-0.11896589518563513,0.0049979069580634436,-0.40495931538753216
0.7974499464035034,0.30305424332618713,13.686208724975586,0.00204421181542178,-0.12569016870098293,0.01328766383230686,-0.4019535064542046
1.8833411931991577,0.7295380234718323,13.784838676452637,0.002451838930654857,-0.13231768601224758,0.03562758999566237,-0.39334857089755443
2.3930294513702393,0.5548580884933472,13.948419570922852,0.0033426022808998824,-0.1387843013527648,0.07126401203374068,-0.38264526996451126
1.270985722541809,-0.08457628637552261,13.8222074508667,0.004784781312983897,-0.14512906406035958,0.10179747181634108,-0.37872625494686274
2.6584606170654297,-0.21780994534492493,13.71127986907959,0.006754284061284529,-0.15146216735334345,0.13454285797973473,-0.3812461402111998
1.8052259683609009,0.7711517810821533,13.754290580749512,0.00930664326271249,-0.15777784317382615,0.17174024619162082,-0.3766349582467229
1.4947619438171387,0.5757068395614624,13.841424942016602,0.01239814652647409,-0.16396156062928238,0.19924014545977115,-0.3654111364080261
1.0421873331069946,-0.07700187712907791,13.975630760192871,0.01589499265059001,-0.170017113947025,0.22038138943413893,-0.36125526172108957
1.8406575918197632,1.5994744300842285,14.141343116760254,0.019768213372056684,-0.17593230771508794,0.24440509714186193,-0.3485679904464633
1.4122388362884521,0.31650543212890625,14.14924430847168,0.024067527243039677,-0.18160872006543086,0.2715125673760971,-0.33260149159468716
1.7653127908706665,0.07318568974733353,14.210484504699707,0.02881340000674957,-0.187125016375212,0.29799216426908975,-0.32935406557905184
0.543488621711731,-0.059131037443876266,14.32678508758545,0.0339402695093304,-0.19261327478400847,0.3172321760406097,-0.32923694347652305
-0.42199087142944336,-0.45472055673599243,14.35971450805664,0.03923590978711017,-0.19813624131376856,0.3182446572929621,-0.33351904009468863
2.0836987495422363,0.5464245080947876,14.351866722106934,0.044655383789084034,-0.2036885236520579,0.332092222943902,-0.332754840500032
0.9222440123558044,1.0245636701583862,14.453414916992188,0.044655383789084034,-0.2036885236520579,0.332092222943902,-0.332754840500032
0.6578216552734375,-0.3949068486690521,14.355809211730957,0.05029998095395665,-0.20919071149223278,0.34525943684081234,-0.3275077003209542
0.9256783127784729,-0.276165246963501,14.214272499084473,0.056164270176862686,-0.21469577539311205,0.3584552699079116,-0.3330999677845588
-0.6991648077964783,0,14.06551742553711,0.06215425477984052,-0.22026661966500494,0.36034288244942825,-0.335401344842588
-2.5474348068237305,-0.08063209056854248,14.13890552520752,0.06793451118076015,-0.225862241529782,0.3332878856609265,-0.3360732789306592
0.6841654777526855,0.07886229455471039,14.198127746582031,0.07335991557170121,-0.23146358574779394,0.3177606412520011,-0.33608802723077447
0.5245665907859802,0.22524936497211456,14.305563926696777,0.07873986598621642,-0.23704393400306192,0.3278334084898233,-0.33355376340138426
2.556265354156494,0.8447936177253723,14.32685661315918,0.0844177027905567,-0.24252885485261988,0.3535070080310106,-0.32463673854557185
1.032239317893982,-0.2692526578903198,14.335886001586914,0.09055868797107705,-0.24789949903950198,0.3834112136314312,-0.31984056388027976
0.5910559892654419,0,14.416077613830566,0.0970616037057092,-0.25324887320541567,0.39693867452442644,-0.32208433602936576
-0.19670678675174713,0.8385546207427979,14.549306869506836,0.10370463364240198,-0.25855871251279794,0.40022491787870723,-0.3150963808565091
1.1623636484146118,0,14.679157257080078,0.11044210844466258,-0.2637520859006326,0.4082720583925644,-0.30810842568365243
0.3734661340713501,-0.6996846795082092,14.726415634155273,0.11735329759721129,-0.2689358155425482,0.42107063991328075,-0.31393913134622087
1.1415537595748901,0.1956716924905777,14.637133598327637,0.12447635131060251,-0.27420313530019474,0.4336958056936661,-0.3181392395713678
0.7737696170806885,0.8741658926010132,14.481490135192871,0.12447635131060251,-0.27420313530019474,0.4336958056936661,-0.3181392395713678
1.2956359386444092,1.0118961334228516,14.366028785705566,0.12447635131060251,-0.27420313530019474,0.4336958056936661,-0.3181392395713678
-0.23145194351673126,-0.13322657346725464,14.46716594696045,0.12447635131060251,-0.27420313530019474,0.4336958056936661,-0.3181392395713678
0.26873475313186646,-0.4921679198741913,14.649287223815918,0.12447635131060251,-0.27420313530019474,0.4336958056936661,-0.3181392395713678
-1.9130134582519531,0.18264807760715485,14.709754943847656,0.12447635131060251,-0.27420313530019474,0.4336958056936661,-0.3181392395713678
-1.955893874168396,-1.3424577713012695,14.411809921264648,0.12447635131060251,-0.27420313530019474,0.4336958056936661,-0.3181392395713678
-2.1995179653167725,-1.106368064880371,13.863424301147461,0.12447635131060251,-0.27420313530019474,0.4336958056936661,-0.3181392395713678
-1.2448073625564575,-0.6714822053909302,13.036380767822266,0.12447635131060251,-0.27420313530019474,0.4336958056936661,-0.3181392395713678
-0.8828905820846558,-0.9596013426780701,12.012653350830078,0.12447635131060251,-0.27420313530019474,0.4336958056936661,-0.3181392395713678
-1.0812134742736816,-0.00565519230440259,10.752732276916504,0.12447635131060251,-0.27420313530019474,0.4336958056936661,-0.3181392395713678
-1.99041748046875,-1.0564481019973755,9.35350227355957,0.12447635131060251,-0.27420313530019474,0.4336958056936661,-0.3181392395713678
-1.2545909881591797,-0.5869461297988892,7.829137802124023,0.12447635131060251,-0.27420313530019474,0.4336958056936661,-0.3181392395713678
-0.6413634419441223,-0.8180540800094604,6.239248752593994,0.12447635131060251,-0.27420313530019474,0.4336958056936661,-0.3181392395713678
-0.608967661857605,0.656285285949707,4.566797733306885,0.12447635131060251,-0.27420313530019474,0.4336958056936661,-0.3181392395713678
-0.6196889281272888,-0.6390116810798645,2.799854278564453,0.12447635131060251,-0.27420313530019474,0.4336958056936661,-0.3181392395713678
-1.172073483467102,-0.6613098382949829,1.031963586807251,0.12447635131060251,-0.27420313530019474,0.4336958056936661,-0.3181392395713678
-0.6941670775413513,-1.2543866634368896,-0.7821089625358582,0.12447635131060251,-0.27420313530019474,0.4336958056936661,-0.3181392395713678
-1.9553126096725464,0.4546680748462677,-2.5888774394989014,0.12447635131060251,-0.27420313530019474,0.4336958056936661,-0.3181392395713678
0.05458086356520653,-1.4132150411605835,-4.380904197692871,0.12447635131060251,-0.27420313530019474,0.4336958056936661,-0.3181392395713678
-0.45250919461250305,-0.03602303937077522,-6.237762928009033,0.12447635131060251,-0.27420313530019474,0.4336958056936661,-0.3181392395713678
-0.31671014428138733,-0.5887829065322876,-8.1133451461792,0.12447635131060251,-0.27420313530019474,0.4336958056936661,-0.3181392395713678
-0.8463290929794312,-0.3111684024333954,-10.063735961914062,0.12447635131060251,-0.27420313530019474,0.4336958056936661,-0.3181392395713678
-0.3983784317970276,-0.05881468951702118,-12.122027397155762,0.12447635131060251,-0.27420313530019474,0.4336958056936661,-0.3181392395713678
-1.0727461576461792,0.9793747663497925,-14.299615859985352,0.12447635131060251,-0.27420313530019474,0.4336958056936661,-0.3181392395713678
-0.6417607665061951,-0.8333320021629333,-16.52018165588379,0.12447635131060251,-0.27420313530019474,0.4336958056936661,-0.3181392395713678
-0.21748575568199158,-0.5381039977073669,-18.82929801940918,0.12447635131060251,-0.27420313530019474,0.4336958056936661,-0.3181392395713678
-1.3635509014129639,-0.08805660903453827,-21.157835006713867,0.12447635131060251,-0.27420313530019474,0.4336958056936661,-0.3181392395713678
-0.7880930304527283,-0.048764314502477646,-23.527976989746094,0.12447635131060251,-0.27420313530019474,0.4336958056936661,-0.3181392395713678
-0.7064015865325928,-0.4237772524356842,-25.92816925048828,0.12447635131060251,-0.27420313530019474,0.4336958056936661,-0.3181392395713678
-0.23265588283538818,-0.10157538950443268,-28.40566062927246,0.12447635131060251,-0.27420313530019474,0.4336958056936661,-0.3181392395713678
-0.1566089242696762,0.7055070400238037,-30.92278289794922,0.12447635131060251,-0.27420313530019474,0.4336958056936661,-0.3181392395713678
-0.20390687882900238,-0.534721314907074,-33.477378845214844,0.12447635131060251,-0.27420313530019474,0.4336958056936661,-0.3181392395713678
-0.8031912446022034,-0.7079411745071411,-35.99439239501953,0.12447635131060251,-0.27420313530019474,0.4336958056936661,-0.3181392395713678
-1.005743384361267,-0.47204717993736267,-38.51101303100586,0.12447635131060251,-0.27420313530019474,0.4336958056936661,-0.3181392395713678
-0.29008591175079346,1.7030200958251953,-41.12752914428711,0.12447635131060251,-0.27420313530019474,0.4336958056936661,-0.3181392395713678
-0.7009958028793335,-0.4345690608024597,-43.735015869140625,0.12447635131060251,-0.27420313530019474,0.4336958056936661,-0.3181392395713678
-0.35545065999031067,1.3589704036712646,-46.44221115112305,0.12447635131060251,-0.27420313530019474,0.4336958056936661,-0.3181392395713678
-0.12334392219781876,-0.24023322761058807,-49.11155700683594,0.12447635131060251,-0.27420313530019474,0.4336958056936661,-0.3181392395713678
-0.3768421411514282,0.6369816064834595,-51.94078063964844,0.12447635131060251,-0.27420313530019474,0.4336958056936661,-0.3181392395713678
-0.5412408113479614,-0.1571536511182785,-54.80199432373047,0.12447635131060251,-0.27420313530019474,0.4336958056936661,-0.3181392395713678
-0.27022865414619446,0.5238012671470642,-57.68877410888672,0.12447635131060251,-0.27420313530019474,0.4336958056936661,-0.3181392395713678
-0.27526670694351196,0.19489288330078125,-60.527503967285156,0.12447635131060251,-0.27420313530019474,0.4336958056936661,-0.3181392395713678
0.7477972507476807,0.6914935111999512,-63.44900894165039,0.12447635131060251,-0.27420313530019474,0.4336958056936661,-0.3181392395713678
-0.7454666495323181,0.7799001932144165,-66.28675079345703,0.12447635131060251,-0.27420313530019474,0.4336958056936661,-0.3181392395713678
-0.5021108984947205,0.1836712658405304,-69.16505432128906,0.12447635131060251,-0.27420313530019474,0.4336958056936661,-0.3181392395713678
-0.83925861120224,-0.16794534027576447,-72.0672378540039,0.12447635131060251,-0.27420313530019474,0.4336958056936661,-0.3181392395713678
-0.35335779190063477,1.0150772333145142,-74.98646545410156,0.12447635131060251,-0.27420313530019474,0.4336958056936661,-0.3181392395713678
0.4290095865726471,0.6660091876983643,-77.90352630615234,0.12447635131060251,-0.27420313530019474,0.4336958056936661,-0.3181392395713678
0.4953383505344391,0.9039905071258545,-80.94486236572266,0.12447635131060251,-0.27420313530019474,0.4336958056936661,-0.3181392395713678
-0.5603363513946533,0.5234576463699341,-83.92894744873047,0.12447635131060251,-0.27420313530019474,0.4336958056936661,-0.3181392395713678
-0.5585863590240479,0.5222370028495789,-86.87210845947266,0.12447635131060251,-0.27420313530019474,0.4336958056936661,-0.3181392395713678
-0.04523617401719093,0.4137847125530243,-89.9041519165039,0.12447635131060251,-0.27420313530019474,0.4336958056936661,-0.3181392395713678
0.6398977041244507,0.1108623519539833,-93.01362609863281,0.12447635131060251,-0.27420313530019474,0.4336958056936661,-0.3181392395713678
0.402182936668396,0.9337049126625061,-95.9984359741211,0.12447635131060251,-0.27420313530019474,0.4336958056936661,-0.3181392395713678
1.2107656002044678,0.8770447969436646,-98.77779388427734,0.12447635131060251,-0.27420313530019474,0.4336958056936661,-0.3181392395713678
0.3589918613433838,-0.7336692214012146,-101.2366943359375,0.12447635131060251,-0.27420313530019474,0.4336958056936661,-0.3181392395713678
1.2255985736846924,0.19957228004932404,-103.35939025878906,0.12447635131060251,-0.27420313530019474,0.4336958056936661,-0.3181392395713678
1.2187167406082153,-0.5396414399147034,-105.13336181640625,0.12447635131060251,-0.27420313530019474,0.4336958056936661,-0.3181392395713678
1.7435545921325684,-0.7846164703369141,-106.44123840332031,0.12447635131060251,-0.27420313530019474,0.4336958056936661,-0.3181392395713678
0.8646829128265381,-1.6595286130905151,-107.380859375,0.12447635131060251,-0.27420313530019474,0.4336958056936661,-0.3181392395713678
1.5030683279037476,-0.5063892006874084,-107.97015380859375,0.12447635131060251,-0.27420313530019474,0.4336958056936661,-0.3181392395713678
0.6901189684867859,-0.8268334269523621,-108.17039489746094,0.12447635131060251,-0.27420313530019474,0.4336958056936661,-0.3181392395713678
0.4872446060180664,-0.01350744441151619,-108.0754623413086,0.12447635131060251,-0.27420313530019474,0.4336958056936661,-0.3181392395713678
-0.35731637477874756,0.6418980956077576,-108.04722595214844,0.12447635131060251,-0.27420313530019474,0.4336958056936661,-0.3181392395713678
0.25431960821151733,0.06208965554833412,-108.08674621582031,0.12447635131060251,-0.27420313530019474,0.4336958056936661,-0.3181392395713678
-0.2610640227794647,0.16486701369285583,-108.05628204345703,0.12447635131060251,-0.27420313530019474,0.4336958056936661,-0.3181392395713678
0.05733535438776016,-0.13498733937740326,-108.0598373413086,0.12447635131060251,-0.27420313530019474,0.4336958056936661,-0.3181392395713678
-0.20609158277511597,-0.07529866695404053,-108.06495666503906,0.12447635131060251,-0.27420313530019474,0.4336958056936661,-0.3181392395713678
-0.07680480927228928,0.005800554528832436,-108.05728149414062,0.12447635131060251,-0.27420313530019474,0.4336958056936661,-0.3181392395713678
0.002755289664492011,0.09068183600902557,-108.05810546875,0.12447635131060251,-0.27420313530019474,0.4336958056936661,-0.3181392395713678
-0.09715642035007477,0.15415062010288239,-108.06195068359375,0.12447635131060251,-0.27420313530019474,0.4336958056936661,-0.3181392395713678
-0.028653183951973915,0.011106224730610847,-108.05529022216797,0.12447635131060251,-0.27420313530019474,0.4336958056936661,-0.3181392395713678
-0.08167818933725357,-0.02307901717722416,-108.06078338623047,0.12447635131060251,-0.27420313530019474,0.4336958056936661,-0.3181392395713678
-0.09799949824810028,0.004381130915135145,-108.05823516845703,0.12447635131060251,-0.27420313530019474,0.4336958056936661,-0.3181392395713678
-0.0437922365963459,0.07236368954181671,-108.05738067626953,0.12447635131060251,-0.27420313530019474,0.4336958056936661,-0.3181392395713678
-0.051657985895872116,0.06380048394203186,-108.0592041015625,0.12447635131060251,-0.27420313530019474,0.4336958056936661,-0.3181392395713678
-0.0841451957821846,0.0345485545694828,-108.05680084228516,0.12447635131060251,-0.27420313530019474,0.4336958056936661,-0.3181392395713678
-0.051218967884778976,0.009876932948827744,-108.0588607788086,0.12447635131060251,-0.27420313530019474,0.4336958056936661,-0.3181392395713678
-0.08527843654155731,0.037319160997867584,-108.0591049194336,0.12447635131060251,-0.27420313530019474,0.4336958056936661,-0.3181392395713678
-0.0513206347823143,0.06838192045688629,-108.05844116210938,0.12447635131060251,-0.27420313530019474,0.4336958056936661,-0.3181392395713678
-0.07212986797094345,0.05602452531456947,-108.0594711303711,0.12447635131060251,-0.27420313530019474,0.4336958056936661,-0.3181392395713678
-0.0717560425400734,0,-108.05977630615234,0.13169462266171147,-0.2795015653676818,0.43249675643940766,-0.31767236852707975
-0.06710061430931091,0,-108.05944061279297,0.1388932591123093,-0.2847961048431331,0.4313396176323295,-0.31767236852707975
-0.08189398795366287,0,-108.06390380859375,0.14607190589213542,-0.29009064431858445,0.4300979959468047,-0.31767236852707975
-0.19956843554973602,-0.5114492177963257,-108.07233428955078,0.15322065982295,-0.2954207011008272,0.42775247575094305,-0.3219344453420491
-1.0373713970184326,-2.7443671226501465,-108.01778411865234,0.16026396915264848,-0.3010123735468368,0.417444643812875,-0.34906624817910303
-1.2576308250427246,-2.9411532878875732,-107.96411895751953,0.16706200472855326,-0.30722497215610917,0.3983196252956987,-0.39644558493358406
-0.5577003359794617,-0.7146230340003967,-107.94022369384766,0.17357460048618836,-0.31408627192735555,0.3831918656205138,-0.4269103876159838
-0.0668729692697525,-1.1878635883331299,-108.026611328125,0.17991775843366573,-0.3213335621808396,0.3779870880767704,-0.44276444280209654
-0.9638920426368713,-1.0923932790756226,-108.0657958984375,0.1861459623313406,-0.32887132073222236,0.3693973796442152,-0.46176658336383614
-0.5509241223335266,-1.7990525960922241,-108.08397674560547,0.192197389758399,-0.3367682253073952,0.3567739116027952,-0.48586196565690154
-0.4002890884876251,-1.843769907951355,-108.15555572509766,0.1980775651454719,-0.34511889852001326,0.34884713484595226,-0.5162188198572647
-0.7629750967025757,-0.8792638182640076,-108.15760040283203,0.1980775651454719,-0.34511889852001326,0.34884713484595226,-0.5162188198572647
-0.09368978440761566,-1.5586994886398315,-107.95415496826172,0.20383219344282733,-0.35389184852505823,0.34170826083670064,-0.53653518074813
0.36951538920402527,-0.6208354234695435,-107.70431518554688,0.20954648567932765,-0.36298545812864574,0.3440068075433374,-0.5546979716823748
-0.6472840309143066,1.18887460231781,-107.58892059326172,0.21526064298270894,-0.3721909771581542,0.3416920688624184,-0.5499643118586393
0,1.577226996421814,-107.70990753173828,0.220910560517158,-0.3811649586336635,0.33629803527146584,-0.5269134652024757
0.41193458437919617,-0.7710803747177124,-107.78645324707031,0.22654413434004209,-0.3898908673160864,0.3397308234746258,-0.5201955766882749
-1.2571948766708374,-1.7943544387817383,-107.854248046875,0.23214761609987672,-0.39873894878960625,0.3326869877055288,-0.5415742001341036
-0.21199876070022583,-1.6893576383590698,-107.89122772216797,0.23759037189237364,-0.4080071099083094,0.32044370739410327,-0.570605134110277
-0.7740448713302612,0.6532005667686462,-108.00151062011719,0.2428626250967177,-0.4175891508290078,0.31222667712718255,-0.5792397763735305
-0.05789903178811073,-0.9007459282875061,-108.19126892089844,0.2480086291666764,-0.4272603377520055,0.30529381126786276,-0.5813026543861877
0,-1.613086462020874,-108.28155517578125,0.2530928385883777,-0.43712328701888004,0.3048113193362952,-0.6022512576387575
-1.0549204349517822,-0.03025028482079506,-108.26515197753906,0.2530928385883777,-0.43712328701888004,0.3048113193362952,-0.6022512576387575
-0.7750741839408875,-0.8768039345741272,-108.11063385009766,0.2530928385883777,-0.43712328701888004,0.3048113193362952,-0.6022512576387575
0.5499193668365479,-0.6461582779884338,-107.94606018066406,0.2530928385883777,-0.43712328701888004,0.3048113193362952,-0.6022512576387575
1.0788272619247437,0.771686851978302,-107.96537780761719,0.2530928385883777,-0.43712328701888004,0.3048113193362952,-0.6022512576387575
-0.9899915456771851,1.6884738206863403,-108.2861099243164,0.2530928385883777,-0.43712328701888004,0.3048113193362952,-0.6022512576387575
0.4670943319797516,2.011833667755127,-108.76935577392578,0.2530928385883777,-0.43712328701888004,0.3048113193362952,-0.6022512576387575
-0.039908844977617264,1.162432312965393,-109.49098205566406,0.2530928385883777,-0.43712328701888004,0.3048113193362952,-0.6022512576387575
1.085622787475586,1.5236897468566895,-110.40937042236328,0.2530928385883777,-0.43712328701888004,0.3048113193362952,-0.6022512576387575
0.13680925965309143,1.7948426008224487,-111.54474639892578,0.2530928385883777,-0.43712328701888004,0.3048113193362952,-0.6022512576387575
-0.021800898015499115,2.1728227138519287,-112.84728240966797,0.2530928385883777,-0.43712328701888004,0.3048113193362952,-0.6022512576387575
-0.07697693258523941,0.9665700197219849,-114.3447036743164,0.2530928385883777,-0.43712328701888004,0.3048113193362952,-0.6022512576387575
1.0244743824005127,1.4428441524505615,-115.99083709716797,0.2530928385883777,-0.43712328701888004,0.3048113193362952,-0.6022512576387575
0.08016277104616165,0.7328940629959106,-117.76036071777344,0.2530928385883777,-0.43712328701888004,0.3048113193362952,-0.6022512576387575
-0.003078300738707185,1.1267871856689453,-119.6068344116211,0.2530928385883777,-0.43712328701888004,0.3048113193362952,-0.6022512576387575
-0.7004926800727844,0.8419672846794128,-121.56817626953125,0.2530928385883777,-0.43712328701888004,0.3048113193362952,-0.6022512576387575
0.34936901926994324,1.0972291231155396,-123.55108642578125,0.2530928385883777,-0.43712328701888004,0.3048113193362952,-0.6022512576387575
-0.9806013107299805,1.7106765508651733,-125.60358428955078,0.2530928385883777,-0.43712328701888004,0.3048113193362952,-0.6022512576387575
-0.504023551940918,1.1935495138168335,-127.60742950439453,0.2530928385883777,-0.43712328701888004,0.3048113193362952,-0.6022512576387575
0.47560784220695496,0.5430101752281189,-129.7305145263672,0.2530928385883777,-0.43712328701888004,0.3048113193362952,-0.6022512576387575
0.9687488675117493,1.6600512266159058,-131.9268341064453,0.2530928385883777,-0.43712328701888004,0.3048113193362952,-0.6022512576387575
-0.4448709189891815,0.3813863694667816,-134.1309356689453,0.2530928385883777,-0.43712328701888004,0.3048113193362952,-0.6022512576387575
-0.2954599857330322,0.6335744857788086,-136.37989807128906,0.2530928385883777,-0.43712328701888004,0.3048113193362952,-0.6022512576387575
0.6401386857032776,0.519269585609436,-138.62448120117188,0.2530928385883777,-0.43712328701888004,0.3048113193362952,-0.6022512576387575
-0.5273974537849426,0.7530612945556641,-140.89260864257812,0.2530928385883777,-0.43712328701888004,0.3048113193362952,-0.6022512576387575
-0.5971057415008545,0.4830351769924164,-143.19305419921875,0.2530928385883777,-0.43712328701888004,0.3048113193362952,-0.6022512576387575
0.9212154746055603,0.6749237179756165,-145.55809020996094,0.2530928385883777,-0.43712328701888004,0.3048113193362952,-0.6022512576387575
-0.05786722153425217,0.44775569438934326,-147.960205078125,0.2530928385883777,-0.43712328701888004,0.3048113193362952,-0.6022512576387575
0.6265860795974731,1.223759651184082,-150.361572265625,0.2530928385883777,-0.43712328701888004,0.3048113193362952,-0.6022512576387575
0.9605838060379028,0.266892671585083,-152.7615203857422,0.2530928385883777,-0.43712328701888004,0.3048113193362952,-0.6022512576387575
-0.3169015347957611,1.4364395141601562,-155.0782470703125,0.2530928385883777,-0.43712328701888004,0.3048113193362952,-0.6022512576387575
0.05754594877362251,-0.6706043481826782,-157.40744018554688,0.2530928385883777,-0.43712328701888004,0.3048113193362952,-0.6022512576387575
0.19013772904872894,1.0984684228897095,-159.7177276611328,0.2530928385883777,-0.43712328701888004,0.3048113193362952,-0.6022512576387575
0.3982085585594177,0.2871340811252594,-161.9849853515625,0.2530928385883777,-0.43712328701888004,0.3048113193362952,-0.6022512576387575
0.3050505816936493,0.4779801666736603,-164.1498565673828,0.2530928385883777,-0.43712328701888004,0.3048113193362952,-0.6022512576387575
0.2510637640953064,-0.5602611303329468,-166.31494140625,0.2530928385883777,-0.43712328701888004,0.3048113193362952,-0.6022512576387575
0.15134355425834656,1.0814428329467773,-168.38424682617188,0.2530928385883777,-0.43712328701888004,0.3048113193362952,-0.6022512576387575
0.31135988235473633,0.3029109239578247,-170.46127319335938,0.2530928385883777,-0.43712328701888004,0.3048113193362952,-0.6022512576387575
-1.548086166381836,1.2259107828140259,-172.556396484375,0.2530928385883777,-0.43712328701888004,0.3048113193362952,-0.6022512576387575
0.7169625759124756,0.3046053349971771,-174.7047576904297,0.2530928385883777,-0.43712328701888004,0.3048113193362952,-0.6022512576387575
0.5449844598770142,-0.2664778530597687,-176.98324584960938,0.2530928385883777,-0.43712328701888004,0.3048113193362952,-0.6022512576387575
0.18784382939338684,0.8592379093170166,-179.31869506835938,0.2530928385883777,-0.43712328701888004,0.3048113193362952,-0.6022512576387575
0.6482760906219482,0.569828987121582,178.3612518310547,0.2530928385883777,-0.43712328701888004,0.3048113193362952,-0.6022512576387575
0.70893394947052,-0.6639550924301147,176.28871154785156,0.2530928385883777,-0.43712328701888004,0.3048113193362952,-0.6022512576387575
-0.18802279233932495,-1.2079391479492188,174.38775634765625,0.2530928385883777,-0.43712328701888004,0.3048113193362952,-0.6022512576387575
-0.5244117975234985,-1.2338930368423462,172.80470275878906,0.2530928385883777,-0.43712328701888004,0.3048113193362952,-0.6022512576387575
-0.1930086314678192,-1.7789878845214844,171.7325897216797,0.2530928385883777,-0.43712328701888004,0.3048113193362952,-0.6022512576387575
-1.0343751907348633,-1.0627481937408447,171.20579528808594,0.2530928385883777,-0.43712328701888004,0.3048113193362952,-0.6022512576387575
-1.303686261177063,-1.1632806062698364,171.01072692871094,0.2530928385883777,-0.43712328701888004,0.3048113193362952,-0.6022512576387575
0.3218449056148529,0.09638267010450363,171.04783630371094,0.2530928385883777,-0.43712328701888004,0.3048113193362952,-0.6022512576387575
0.8005541563034058,0.39649152755737305,171.04913330078125,0.2530928385883777,-0.43712328701888004,0.3048113193362952,-0.6022512576387575
0.4524802565574646,-0.3811729848384857,170.983642578125,0.2530928385883777,-0.43712328701888004,0.3048113193362952,-0.6022512576387575
-0.06045037880539894,0.45858776569366455,171.0559539794922,0.2530928385883777,-0.43712328701888004,0.3048113193362952,-0.6022512576387575
-0.038116514682769775,0.03616141155362129,171.09561157226562,0.2530928385883777,-0.43712328701888004,0.3048113193362952,-0.6022512576387575
0.23965659737586975,0.1766940951347351,171.04965209960938,0.2530928385883777,-0.43712328701888004,0.3048113193362952,-0.6022512576387575
-0.07942641526460648,0.26783502101898193,171.06314086914062,0.2530928385883777,-0.43712328701888004,0.3048113193362952,-0.6022512576387575
-0.08687734603881836,0.05807289853692055,171.07638549804688,0.2530928385883777,-0.43712328701888004,0.3048113193362952,-0.6022512576387575
-0.18635867536067963,0.321480393409729,171.05885314941406,0.2530928385883777,-0.43712328701888004,0.3048113193362952,-0.6022512576387575
-0.10661783814430237,0.1955137848854065,171.07095336914062,0.2530928385883777,-0.43712328701888004,0.3048113193362952,-0.6022512576387575
-0.0031798812560737133,0.1301853209733963,171.06919860839844,0.2530928385883777,-0.43712328701888004,0.3048113193362952,-0.6022512576387575
0.052241742610931396,0.212301567196846,171.06576538085938,0.2530928385883777,-0.43712328701888004,0.3048113193362952,-0.6022512576387575
0.0033488867338746786,0.16671907901763916,171.07131958007812,0.2530928385883777,-0.43712328701888004,0.3048113193362952,-0.6022512576387575
-0.08083044737577438,0.15970559418201447,171.066162109375,0.2530928385883777,-0.43712328701888004,0.3048113193362952,-0.6022512576387575
-0.08225030452013016,0.2395564615726471,171.06869506835938,0.2530928385883777,-0.43712328701888004,0.3048113193362952,-0.6022512576387575
-0.07193471491336823,0.148443341255188,171.06922912597656,0.2530928385883777,-0.43712328701888004,0.3048113193362952,-0.6022512576387575
0.007763980887830257,0.19568586349487305,171.06658935546875,0.2530928385883777,-0.43712328701888004,0.3048113193362952,-0.6022512576387575
0.01628883183002472,0.1800040304660797,171.0685577392578,0.2530928385883777,-0.43712328701888004,0.3048113193362952,-0.6022512576387575
-0.028339557349681854,0.16696323454380035,171.06700134277344,0.2530928385883777,-0.43712328701888004,0.3048113193362952,-0.6022512576387575
-0.06984468549489975,0.1929463893175125,171.06590270996094,0.2530928385883777,-0.43712328701888004,0.3048113193362952,-0.6022512576387575
-0.05630090460181236,0.18485043942928314,171.06704711914062,0.2530928385883777,-0.43712328701888004,0.3048113193362952,-0.6022512576387575
0,0.18681354820728302,171.0666961669922,0.25816911745894083,-0.4471349979803846,0.3043421451312801,-0.5991540577417861
-0.07465328276157379,0.17249956727027893,171.06680297851562,0.26323630228871486,-0.45709594664306175,0.30372003444160034,-0.596159781779473
-0.972829282283783,0.39304640889167786,171.0888671875,0.2682255610179467,-0.4669926689799306,0.2949910130662224,-0.59144689864479
-2.5581777095794678,0.7706419229507446,171.1535186767578,0.27289686908350436,-0.4767693056009658,0.2655659548006953,-0.5817494958794366
-2.6383166313171387,-0.14381279051303864,171.2203369140625,0.27696210066762034,-0.48642160073142604,0.22226183529322358,-0.576525919775789
-1.5808334350585938,0.2610712945461273,171.32806396484375,0.28037346805678687,-0.49602222310935357,0.18710225140675912,-0.5755487655755133
-1.4129453897476196,0.5035662651062012,171.5084228515625,0.28328393760628795,-0.5055616027050807,0.162154094533374,-0.5691767859117438
-1.9023544788360596,0.910758912563324,171.68809509277344,0.2857562766909703,-0.5149496654440493,0.13452659562851002,-0.5573907427644977
-1.523046612739563,0.8534312844276428,171.84555053710938,0.2877605115423083,-0.5241169979486665,0.1059815865320465,-0.542689157789573
-1.7031049728393555,0.4768259525299072,171.998046875,0.2893028330132883,-0.5330694382703707,0.07909698998555552,-0.5316036808149268
-0.8642385601997375,0.13480493426322937,172.14047241210938,0.2893028330132883,-0.5330694382703707,0.07909698998555552,-0.5316036808149268
-0.647991955280304,0.0640358030796051,172.13186645507812,0.29051610017169477,-0.5419156912327484,0.06649506902322184,-0.5299466746704032
-0.5575717687606812,0.7823976278305054,172.0498504638672,0.2915406316190234,-0.5506893557112197,0.056448704656213634,-0.5228930627461523
0.6066457033157349,-0.7540914416313171,171.9610137939453,0.2924848512754155,-0.5594022743829473,0.05685765411083908,-0.5226571778611591
0.379917174577713,0.4315168857574463,171.806396484375,0.29350099015489434,-0.5681356283581246,0.06507901142661782,-0.525345299160108
-1.2104973793029785,-0.5193972587585449,171.71966552734375,0.2945279611644543,-0.576897486147807,0.05815750972057394,-0.5260776356017838
-2.3322792053222656,1.2850208282470703,171.70433044433594,0.2952512268414204,-0.5856122784377333,0.02863437151536357,-0.5196974391893794
-0.8415094614028931,0,171.73202514648438,0.2955080643759317,-0.5941846648667058,0.0021861326259872485,-0.5089889322873205
-1.4454435110092163,0.88888019323349,171.77340698242188,0.2953856837410584,-0.6026060859469644,-0.01687180881078033,-0.501581597343708
0.31335702538490295,0.4350118637084961,171.8346405029297,0.2950258698104881,-0.6108738422876274,-0.02630586285764961,-0.4905491635358581
-0.8335311412811279,0.7189161777496338,171.92657470703125,0.29455131556036784,-0.6189695277881238,-0.030640647156784818,-0.480933096523707
-1.5567563772201538,0.07809914648532867,172.01760864257812,0.29387464591896995,-0.626929731110447,-0.05055970981096217,-0.47429130215508236
0,-0.17600028216838837,172.03607177734375,0.29292387600703584,-0.6348413848363431,-0.06353267962113011,-0.4751071449524412
-1.5766485929489136,0.027043649926781654,171.91302490234375,0.29292387600703584,-0.6348413848363431,-0.06353267962113011,-0.4751071449524412
-0.12921619415283203,-0.11076203733682632,171.84515380859375,0.29292387600703584,-0.6348413848363431,-0.06353267962113011,-0.4751071449524412
-0.25155407190322876,0.7325198650360107,171.8838653564453,0.29292387600703584,-0.6348413848363431,-0.06353267962113011,-0.4751071449524412
0.9071969985961914,0.243942990899086,171.91357421875,0.29292387600703584,-0.6348413848363431,-0.06353267962113011,-0.4751071449524412
3.1544077396392822,0.2141161412000656,171.76022338867188,0.29292387600703584,-0.6348413848363431,-0.06353267962113011,-0.4751071449524412
-0.22543120384216309,-0.6982151865959167,171.42453002929688,0.29292387600703584,-0.6348413848363431,-0.06353267962113011,-0.4751071449524412
1.0071699619293213,-0.3495703339576721,170.9495849609375,0.29292387600703584,-0.6348413848363431,-0.06353267962113011,-0.4751071449524412
0.7840895652770996,1.4529973268508911,170.2832489013672,0.29292387600703584,-0.6348413848363431,-0.06353267962113011,-0.4751071449524412
2.095682382583618,0.41770413517951965,169.34031677246094,0.29292387600703584,-0.6348413848363431,-0.06353267962113011,-0.4751071449524412
1.1163021326065063,0.48505088686943054,168.2210693359375,0.29292387600703584,-0.6348413848363431,-0.06353267962113011,-0.4751071449524412
0.9776949286460876,-0.18365667760372162,166.99449157714844,0.29292387600703584,-0.6348413848363431,-0.06353267962113011,-0.4751071449524412
0.34161901473999023,0.4276008903980255,165.63465881347656,0.29292387600703584,-0.6348413848363431,-0.06353267962113011,-0.4751071449524412
1.5071042776107788,-0.7946401834487915,164.14700317382812,0.29292387600703584,-0.6348413848363431,-0.06353267962113011,-0.4751071449524412
1.3226064443588257,1.0617148876190186,162.5714111328125,0.29292387600703584,-0.6348413848363431,-0.06353267962113011,-0.4751071449524412
1.9707255363464355,0.0873585194349289,160.8750457763672,0.29292387600703584,-0.6348413848363431,-0.06353267962113011,-0.4751071449524412
0.8430198431015015,0.05250263214111328,159.03369140625,0.29292387600703584,-0.6348413848363431,-0.06353267962113011,-0.4751071449524412
0.0826711654663086,0.616368293762207,157.0994873046875,0.29292387600703584,-0.6348413848363431,-0.06353267962113011,-0.4751071449524412
1.229494571685791,0.2656305432319641,155.029052734375,0.29292387600703584,-0.6348413848363431,-0.06353267962113011,-0.4751071449524412
1.3785303831100464,-0.11407901346683502,152.84951782226562,0.29292387600703584,-0.6348413848363431,-0.06353267962113011,-0.4751071449524412
1.249107837677002,0.12348618358373642,150.68048095703125,0.29292387600703584,-0.6348413848363431,-0.06353267962113011,-0.4751071449524412
1.4101914167404175,-0.7336556911468506,148.47169494628906,0.29292387600703584,-0.6348413848363431,-0.06353267962113011,-0.4751071449524412
0.3757615387439728,0.7378156781196594,146.296630859375,0.29292387600703584,-0.6348413848363431,-0.06353267962113011,-0.4751071449524412
0.2929162085056305,-0.0361308753490448,144.05072021484375,0.29292387600703584,-0.6348413848363431,-0.06353267962113011,-0.4751071449524412
0.17564597725868225,0.24563249945640564,141.78396606445312,0.29292387600703584,-0.6348413848363431,-0.06353267962113011,-0.4751071449524412
1.1068300008773804,-0.48195669054985046,139.48056030273438,0.29292387600703584,-0.6348413848363431,-0.06353267962113011,-0.4751071449524412
0.47131434082984924,-0.07098227739334106,137.23170471191406,0.29292387600703584,-0.6348413848363431,-0.06353267962113011,-0.4751071449524412
1.2963922023773193,0.11808948218822479,134.98397827148438,0.29292387600703584,-0.6348413848363431,-0.06353267962113011,-0.4751071449524412
0.13858938217163086,0.38346773386001587,132.78158569335938,0.29292387600703584,-0.6348413848363431,-0.06353267962113011,-0.4751071449524412
0.9290374517440796,-0.9745522737503052,130.54595947265625,0.29292387600703584,-0.6348413848363431,-0.06353267962113011,-0.4751071449524412
-0.1377425342798233,1.0060019493103027,128.26283264160156,0.29292387600703584,-0.6348413848363431,-0.06353267962113011,-0.4751071449524412
0.9802672266960144,0.8286588788032532,125.90660095214844,0.29292387600703584,-0.6348413848363431,-0.06353267962113011,-0.4751071449524412
0.7987247705459595,-1.1338651180267334,123.44426727294922,0.29292387600703584,-0.6348413848363431,-0.06353267962113011,-0.4751071449524412
1.4056129455566406,0.5478537678718567,120.99051666259766,0.29292387600703584,-0.6348413848363431,-0.06353267962113011,-0.4751071449524412
0.21999023854732513,0.23756302893161774,118.52206420898438,0.29292387600703584,-0.6348413848363431,-0.06353267962113011,-0.4751071449524412
0.5882211327552795,-0.9875412583351135,116.00611877441406,0.29292387600703584,-0.6348413848363431,-0.06353267962113011,-0.4751071449524412
-0.004743227735161781,0.7021605968475342,113.47467041015625,0.29292387600703584,-0.6348413848363431,-0.06353267962113011,-0.4751071449524412
1.1732369661331177,-0.12464573234319687,110.86664581298828,0.29292387600703584,-0.6348413848363431,-0.06353267962113011,-0.4751071449524412
0.6084309816360474,-0.9597052931785583,108.28807067871094,0.29292387600703584,-0.6348413848363431,-0.06353267962113011,-0.4751071449524412
0.4282400906085968,-0.679458498954773,105.70452880859375,0.29292387600703584,-0.6348413848363431,-0.06353267962113011,-0.4751071449524412
-0.18385149538516998,-0.09385119378566742,103.08137512207031,0.29292387600703584,-0.6348413848363431,-0.06353267962113011,-0.4751071449524412
1.2053980827331543,-0.31188681721687317,100.42427062988281,0.29292387600703584,-0.6348413848363431,-0.06353267962113011,-0.4751071449524412
0.09273101389408112,0.5020446181297302,97.75751495361328,0.29292387600703584,-0.6348413848363431,-0.06353267962113011,-0.4751071449524412
0.10874822735786438,0.654385507106781,95.06688690185547,0.29292387600703584,-0.6348413848363431,-0.06353267962113011,-0.4751071449524412
-1.1673001050949097,-1.7004079818725586,92.33102416992188,0.29292387600703584,-0.6348413848363431,-0.06353267962113011,-0.4751071449524412
1.8673194646835327,0.9836380481719971,89.88655090332031,0.29292387600703584,-0.6348413848363431,-0.06353267962113011,-0.4751071449524412
-0.814068078994751,-0.4388914406299591,87.82377624511719,0.29292387600703584,-0.6348413848363431,-0.06353267962113011,-0.4751071449524412
-1.5756683349609375,0.9181186556816101,86.0564193725586,0.29292387600703584,-0.6348413848363431,-0.06353267962113011,-0.4751071449524412
-1.1130038499832153,0.5313196182250977,84.61962127685547,0.29292387600703584,-0.6348413848363431,-0.06353267962113011,-0.4751071449524412
-0.7582338452339172,0.4725448191165924,83.55138397216797,0.29292387600703584,-0.6348413848363431,-0.06353267962113011,-0.4751071449524412
-1.2525250911712646,0.9192357659339905,82.84150695800781,0.29292387600703584,-0.6348413848363431,-0.06353267962113011,-0.4751071449524412
-1.190396785736084,1.0734647512435913,82.5007553100586,0.29292387600703584,-0.6348413848363431,-0.06353267962113011,-0.4751071449524412
-0.6631156802177429,0.5358591675758362,82.49508666992188,0.29292387600703584,-0.6348413848363431,-0.06353267962113011,-0.4751071449524412
0.5422244668006897,-0.4002312421798706,82.5634536743164,0.29292387600703584,-0.6348413848363431,-0.06353267962113011,-0.4751071449524412
-0.42981529235839844,-0.6235785484313965,82.53241729736328,0.29292387600703584,-0.6348413848363431,-0.06353267962113011,-0.4751071449524412
0.5447273254394531,-0.017832046374678612,82.52838134765625,0.29292387600703584,-0.6348413848363431,-0.06353267962113011,-0.4751071449524412
0.0044220187701284885,0.37946128845214844,82.56015014648438,0.29292387600703584,-0.6348413848363431,-0.06353267962113011,-0.4751071449524412
0.1506454050540924,0.5304450392723083,82.55432891845703,0.29292387600703584,-0.6348413848363431,-0.06353267962113011,-0.4751071449524412
0.2460610270500183,0.258806049823761,82.5491714477539,0.29292387600703584,-0.6348413848363431,-0.06353267962113011,-0.4751071449524412
0.11515671759843826,-0.0403435155749321,82.56278228759766,0.29292387600703584,-0.6348413848363431,-0.06353267962113011,-0.4751071449524412
0.000602711399551481,-0.06092369556427002,82.5536117553711,0.29292387600703584,-0.6348413848363431,-0.06353267962113011,-0.4751071449524412
0.2506045699119568,0.20519022643566132,82.55139923095703,0.29292387600703584,-0.6348413848363431,-0.06353267962113011,-0.4751071449524412
0.08987051993608475,0.3206360340118408,82.5589599609375,0.29292387600703584,-0.6348413848363431,-0.06353267962113011,-0.4751071449524412
0.12710465490818024,0.1665710210800171,82.55394744873047,0.29292387600703584,-0.6348413848363431,-0.06353267962113011,-0.4751071449524412
0.15864837169647217,0.02293669804930687,82.55608367919922,0.29292387600703584,-0.6348413848363431,-0.06353267962113011,-0.4751071449524412
0.08094190806150436,0.12165848165750504,82.55680084228516,0.29292387600703584,-0.6348413848363431,-0.06353267962113011,-0.4751071449524412
0.15637710690498352,0.21150703728199005,82.55306243896484,0.29292387600703584,-0.6348413848363431,-0.06353267962113011,-0.4751071449524412
0.16739144921302795,0.18678630888462067,82.55608367919922,0.29292387600703584,-0.6348413848363431,-0.06353267962113011,-0.4751071449524412
0.0985148623585701,0.0858544260263443,82.55690002441406,0.29292387600703584,-0.6348413848363431,-0.06353267962113011,-0.4751071449524412
0.13853465020656586,0.10711313039064407,82.55431365966797,0.29292387600703584,-0.6348413848363431,-0.06353267962113011,-0.4751071449524412
0.12943758070468903,0.17376162111759186,82.55584716796875,0.29292387600703584,-0.6348413848363431,-0.06353267962113011,-0.4751071449524412
0.1273403763771057,0.17995953559875488,82.5555419921875,0.29292387600703584,-0.6348413848363431,-0.06353267962113011,-0.4751071449524412
0.15215562283992767,0.11450719833374023,82.55517578125,0.29292387600703584,-0.6348413848363431,-0.06353267962113011,-0.4751071449524412
0.13134674727916718,0.10838218033313751,82.55719757080078,0.29188468567794196,-0.6427443588231431,-0.06117015987013766,-0.4732497334635506
0.13494622707366943,0.16304321587085724,82.55569458007812,0.29088367558110306,-0.6506130053950214,-0.058951051750530684,-0.47098785516185065
0,0.4818759262561798,82.560791015625,0.28991052931769656,-0.6584180169295156,-0.057826499858250106,-0.46561352897745867
0.6843341588973999,2.147052526473999,82.61419677734375,0.288994277525538,-0.6659956779365892,-0.052123715200771775,-0.4437057918713738
0.44345226883888245,3.1057090759277344,82.7017593383789,0.28820386744078463,-0.6730259993565009,-0.04272549496963609,-0.39993277851802606
0.48581257462501526,1.8853970766067505,82.75420379638672,0.2875563081387535,-0.6793449410712087,-0.034981621274103605,-0.35834022724690534
0.7072861194610596,0.9187071919441223,82.83706665039062,0.28705613519349665,-0.6851225487288967,-0.02503913215671965,-0.3349726916756481
-0.47653767466545105,1.858534812927246,82.99697875976562,0.28665484052177326,-0.6905125628953748,-0.02311622845008958,-0.31182900830172
0.13610295951366425,1.3620952367782593,83.01884460449219,0.2862459287479418,-0.6954860581691739,-0.0259531844096878,-0.2849904245541741
1.3048176765441895,1.6786761283874512,83.0509033203125,0.2859134396075066,-0.7000247339002735,-0.013945512442539021,-0.2596506631777932
0.35540080070495605,1.0908979177474976,83.08936309814453,0.28579630734993994,-0.7041599134222551,-0.00011035846546280856,-0.23657087946000194
0.15037652850151062,1.1241145133972168,83.05020141601562,0.28582959146782155,-0.7079489411055367,0.004104452611257747,-0.21811244253379597
0.5530838966369629,0.9166245460510254,82.99517059326172,0.28594685042975493,-0.7114424304908605,0.009966622820745025,-0.20110628370506062
-0.6710816621780396,2.435786008834839,82.98987579345703,0.286104766520827,-0.7145613955974112,0.00898330810790272,-0.17316952908101174
0.44353440403938293,1.5716383457183838,83.1315689086914,0.2862386864296991,-0.7171692610574729,0.007087080956747248,-0.13977432612640156
0.5591272115707397,0.3270447850227356,83.27496337890625,0.28642643372450666,-0.7193669801643893,0.015442594420164936,-0.1239519667035589
-0.8297511339187622,0.8786137104034424,83.2921142578125,0.2866650169702352,-0.7213491199917107,0.013187395067264749,-0.11390481257500742
0.3777211904525757,1.1356149911880493,83.34727478027344,0.2868534159197267,-0.7231076565414614,0.009420478871713194,-0.09711957339507833
0.5437465906143188,0.21369220316410065,83.40986633300781,0.28707441471905154,-0.7246326142095493,0.017099377047270648,-0.08587534677547708
0.08830323815345764,1.200682520866394,83.46673583984375,0.28740329668572606,-0.725965649522194,0.022366458953668785,-0.07408889074188962
1.1265710592269897,0.2983528971672058,83.42308044433594,0.28786043727227195,-0.7270963646860843,0.03249041143183918,-0.06159692892494296
0.5525754690170288,1.475690245628357,83.43645477294922,0.288518551527264,-0.7279997827276947,0.046483299167206,-0.046813236068313266
-0.6451237797737122,-0.2054886817932129,83.5110855102539,0.289286846214026,-0.7286917948869003,0.04571206324423364,-0.03622822303635373
0.23349197208881378,0.7364752292633057,83.6261978149414,0.2900201283925629,-0.7292587245383763,0.042281798180192814,-0.03180333514076962
0,0.39148908853530884,83.83643341064453,0.2907410397491834,-0.729710449268653,0.04422756461426626,-0.022403632492447832
-0.6888973712921143,0.5323769450187683,83.97199249267578,0.29143032573085925,-0.7300196857800859,0.03848675318683197,-0.01470474887949719
-0.1296117752790451,1.2289540767669678,84.06468963623047,0.29201493070435014,-0.7301424502737869,0.03166584363207231,-2.699036461605714e-05
0.983761191368103,0.80051189661026,84.06326293945312,0.2926020106965575,-0.7300019649761571,0.03878375543281446,0.016885226080194174
0.5393697023391724,0.2302802950143814,83.98613739013672,0.29335417959916743,-0.7296489617504022,0.05147651288037509,0.025475161010399518
0.383946031332016,0.26889514923095703,83.88444519042969,0.29427624062867863,-0.7291897107721562,0.059170810660968326,0.02963495637911067
0.08009056746959686,0.7272735238075256,83.74075317382812,0.2952946455701671,-0.7286266164524322,0.06303778231764844,0.03793636198776469
0.9553302526473999,0.30663231015205383,83.61868286132812,0.2964171794990805,-0.727922544736389,0.07166628915195675,0.04655224393742785
0.24552668631076813,0.11473669111728668,83.65067291259766,0.2976950104945963,-0.7271174122678993,0.08167343030994148,0.05006365228133902
-0.5028936862945557,0.5939334034919739,83.81398010253906,0.2990383616247631,-0.7262338048621958,0.07952870531007658,0.05596923640308286
-0.4012121558189392,0.14534322917461395,83.81963348388672,0.30030105491867315,-0.7252496456004315,0.0719944899591308,0.06212987500863776
0.6588584184646606,1.0998932123184204,83.75711822509766,0.3015188551862313,-0.7241276729307394,0.07414154214784514,0.07250684535441304
0.12789727747440338,0.7143038511276245,83.7007064819336,0.30280918336758,-0.7227932396009821,0.08069783961400401,0.08762515421646341
0,-0.6637150645256042,83.587158203125,0.30416302911652693,-0.7213293072538604,0.08176365025962404,0.08804672743814691
0.5827441215515137,-0.4509674608707428,83.57275390625,0.3055662249626284,-0.7199392703052659,0.08661985127255331,0.07875770639317735
0.693325936794281,-0.23288683593273163,83.63745880126953,0.30709850512677833,-0.7186741317471022,0.09725376842543493,0.07305892058648172
-0.4114478826522827,0.6662244200706482,83.63469696044922,0.30873897613207324,-0.7174263901828735,0.09960275220995159,0.07667006712096436
0.14772237837314606,1.077478289604187,83.58493041992188,0.3103807077311086,-0.7160274652649078,0.09740503967429212,0.09120092303492132
0.07365591824054718,2.1258933544158936,83.67463684082031,0.31201949855183386,-0.7142849935168244,0.09924985881273957,0.11789568673508866
-0.41260212659835815,-0.49017056822776794,83.80760955810547,0.31365012493424355,-0.712206473544421,0.09642530707642448,0.13152670995332302
0,-0.27362343668937683,83.81092071533203,0.3152285604600591,-0.710067402962207,0.09298695602143817,0.12516175991234682
-0.324465274810791,0.4780469536781311,83.86189270019531,0.31675581074966563,-0.707967177552766,0.09028307873134823,0.12686528922058643
0.8804731965065002,-1.0286052227020264,83.84291076660156,0.3182991403897503,-0.7058909892788828,0.09491647807881248,0.1222773036453873
1.3022069931030273,0.678115963935852,83.76448822021484,0.3200326567042312,-0.7038773737499852,0.11310547965889188,0.11935655982233585
-0.9493725299835205,-0.5533213019371033,83.8481216430664,0.32194225042515157,-0.7018794314569741,0.11604576685155443,0.1203965153389921
-0.5958462357521057,0.2514696717262268,83.99991607666016,0.3237690396806125,-0.6998937847867555,0.10316894380375755,0.11788108508723479
0.18025583028793335,0.8511638641357422,84.16910552978516,0.3254596616325179,-0.6978525282619777,0.09970569042488944,0.12706969788608452
-0.36663633584976196,0.256513386964798,84.20187377929688,0.32710848004893534,-0.6956577779325499,0.09815251954520754,0.13630034164525567
-0.11641136556863785,0.3826494812965393,84.16734313964844,0.3287108103954236,-0.6933417192614997,0.09412712203338754,0.14162669888076682
1.2701407670974731,0.78746497631073,84.07747650146484,0.33035971585997514,-0.6909000163317086,0.1037415337127945,0.15137765269416073
0.7513633966445923,-0.9715176224708557,83.98382568359375,0.33222912365544827,-0.6883898368872338,0.12058740174397838,0.14984388064282636
0.6724984645843506,0.8040286898612976,83.8657455444336,0.33433779298043326,-0.6859040700523956,0.13245291725421957,0.14844813953774671
0,-0.7088721990585327,83.74736022949219,0.33659204288359973,-0.6834233263037941,0.13805707112575583,0.14924111029443643
0,0.9326284527778625,83.89747619628906,0.338892994069029,-0.6809204358368229,0.13805707112575583,0.1511057457420975
-1.2125900983810425,0.6783393025398254,83.98193359375,0.34110973760873736,-0.6782901339803353,0.12795215363924714,0.16453047703641158
1.3613988161087036,-0.8683736324310303,83.92566680908203,0.3432526074414559,-0.6755611561915265,0.12919222628697766,0.16294685762065153
0.219162255525589,0.7209451198577881,83.84268951416016,0.3455155723984357,-0.6728556133223332,0.14236356855059676,0.16171828668254118
-0.2747202515602112,-0.5982551574707031,83.84025573730469,0.34788444034677657,-0.670151788408014,0.14190058525030824,0.16274070303576688
0.911201000213623,0.2903235852718353,83.87784576416016,0.3502936501529382,-0.6674608274943762,0.14720459148908668,0.16017460660077631
-0.12771451473236084,0,83.90814971923828,0.3528014687948036,-0.6647710893576082,0.15373364553476387,0.16259396981137494
-0.6063411831855774,0.5803014636039734,83.84359741210938,0.35531272013024984,-0.6620208911480017,0.14761651471878107,0.16742981534140805
0,0.8392190337181091,83.79400634765625,0.3577308883489527,-0.6591318164133309,0.14256367152556793,0.17925915281909208
-0.17635023593902588,-0.7016810178756714,83.86372375488281,0.36009470299688306,-0.6561346126152459,0.14109408622607605,0.1804053029511124
0.2736389636993408,0.1156684085726738,83.96868133544922,0.362453027262301,-0.6531685528861512,0.1419048256240787,0.1755218645402541
0,-0.2304762452840805,84.03073120117188,0.3648371103951814,-0.6502511612435852,0.1441851503215732,0.17456513256765904
0.8452861905097961,0.791200578212738,84.00820922851562,0.3672988966637708,-0.6473028031776709,0.15122920190915484,0.17923783534206453
0.21932485699653625,-0.3799060881137848,83.90225219726562,0.3698933146850002,-0.6442869438046018,0.16010096063837428,0.18266528942622248
-0.5964980721473694,-0.06519505381584167,83.93861389160156,0.37253547144458765,-0.6412734321156877,0.15695785051211733,0.1789561132434756
-0.321669340133667,0,84.10484313964844,0.3750876739939368,-0.6382953576625892,0.14930645540977536,0.17841282112834358
0.24203021824359894,0.09560210257768631,84.2710952758789,0.37757058442285735,-0.6353151716088822,0.14864279606069145,0.17920950531649096
-0.5917423367500305,0.12662267684936523,84.375732421875,0.38002367879341703,-0.6323129142439249,0.14572852840647119,0.18106137847838305
0,0.24314172565937042,84.39209747314453,0.3824113943823617,-0.6292695465191109,0.1407973422668876,0.1841427484992892
0.2943143844604492,0.770316481590271,84.310546875,0.38477845525239734,-0.6261301216686194,0.14324996213739133,0.19258823355970286
1.7007110118865967,-0.4025432765483856,84.23143768310547,0.38730449805165573,-0.622894777970052,0.1598751737736167,0.19565301026838525
0.5337035655975342,0.37060028314590454,84.15220642089844,0.39012425196020795,-0.6196361127290096,0.17849529525265112,0.1953868186566979
-0.3209880590438843,-0.5103671550750732,84.07363891601562,0.3931139454579295,-0.6163893717841709,0.18026792447393153,0.19422209472395482
-0.23560738563537598,0.6124740839004517,84.14656066894531,0.3931139454579295,-0.6163893717841709,0.18026792447393153,0.19422209472395482
-0.5539485812187195,0.9748774766921997,84.22016143798828,0.39606358059035235,-0.6130421041248416,0.17368829141681408,0.20745002439556026
1.182497501373291,-1.800582766532898,84.14151763916016,0.39900203467786555,-0.6096419443633768,0.17892619908476884,0.2005691469802211
-0.45573997497558594,-1.2415930032730103,84.01741790771484,0.4020346072686115,-0.6065103874532763,0.18498251180474973,0.17521768223183853
0.14133301377296448,-1.7975438833236694,83.96480560302734,0.40509581531527383,-0.6038011439220927,0.18236245379472787,0.14989154151019954
0.7308316826820374,0.22753691673278809,84.01100158691406,0.40819575653799534,-0.6014119798251583,0.18963049293185288,0.1368081501219422
-0.20366565883159637,0.3103357255458832,84.05933380126953,0.4113928735051825,-0.5990944917229677,0.19402354313060655,0.14129042214093113
-0.6239196062088013,1.2924939393997192,83.92660522460938,0.4145691280250648,-0.596628343738331,0.1871269992552699,0.1546473360154778
0.39465242624282837,1.1422338485717773,83.79706573486328,0.41767199001404387,-0.5938818098194638,0.18521643942222013,0.17493673424857362
0,0,83.87760162353516,0.42078633708957,-0.5908868757869479,0.18850520964091036,0.18445534965333843
0,1.2375891208648682,83.99321746826172,0.42392809058358516,-0.5877266762704433,0.18850520964091036,0.19476859232721233
-0.2571278214454651,-0.4103650748729706,84.08609008789062,0.4270519879788888,-0.5844230869506848,0.18636247779553147,0.20166212604381148
0.23385019600391388,-0.3384913504123688,84.11848449707031,0.43015641277371425,-0.5811140554350439,0.18616849758351856,0.1954216558331003
1.3445730209350586,-1.3319824934005737,84.00098419189453,0.43336883379017144,-0.5779730329658681,0.19932202439134333,0.18150104046799245
-1.461570382118225,0.868183434009552,83.86087799072266,0.43668274271327834,-0.5749802238927482,0.19834704638148362,0.17763604830640062
1.6662988662719727,0.72672039270401,83.93514251708984,0.4400027440754804,-0.571908865877453,0.20005311708276485,0.19092691352901364
0.11115001887083054,-1.1208220720291138,84.18928527832031,0.44346039664388365,-0.5687541188241448,0.21486519112562155,0.18764273286797112
-0.6321402192115784,0.7928389310836792,84.39884948730469,0.44700530328762034,-0.565649516550022,0.21052360612278198,0.18490954002675916
-0.3052271902561188,0.14095087349414825,84.49763488769531,0.4504489350973426,-0.5625028443687026,0.2027122110438845,0.19269112173157438
0.40546900033950806,0.2956017553806305,84.47875213623047,0.4538344331848853,-0.5592610095183934,0.20354755946124609,0.19632906030553088
0.09413298964500427,1.047350287437439,84.36783599853516,0.45726158709187725,-0.5558955979547722,0.2077109093777837,0.2075203273290148
0.4923270642757416,-0.2189803421497345,84.2192611694336,0.4607641619741404,-0.552379400141977,0.2125980764937899,0.21442341020641234
0.14389511942863464,0.36911821365356445,84.04138946533203,0.46435164534512746,-0.5487952503974601,0.21789992802465968,0.21567455913561093
-0.15964940190315247,-0.9447091221809387,83.94287872314453,0.46798221676481105,-0.5452406460027366,0.21776864233737203,0.21087796823121613
-0.23196975886821747,0.496317058801651,84.04166412353516,0.46798221676481105,-0.5452406460027366,0.21776864233737203,0.21087796823121613
-0.2629554867744446,0.9468099474906921,84.15693664550781,0.4715773243283754,-0.5416257960456682,0.21364426529034986,0.22290402661698566
-0.3267069458961487,-1.2717031240463257,84.11151885986328,0.475097113303168,-0.5379332909615347,0.20873041168476159,0.22019658347902205
1.887178659439087,0.7173779010772705,84.0426254272461,0.47868431958913227,-0.5343018427107017,0.22173434263095274,0.2155772066209466
-0.48883959650993347,-3.189049482345581,84.10192108154297,0.4824769988456849,-0.5308805331268296,0.23338716815536234,0.19497994344371067
0.155189648270607,-2.4611196517944336,84.21884155273438,0.4863436148463132,-0.5280232402593052,0.23060675192003463,0.14789520065921055
0,-1.4682962894439697,84.19043731689453,0.4901978377705548,-0.5258311963553488,0.23189999898895636,0.1151500678155572
-0.9291422963142395,-0.28544703125953674,84.07178497314453,0.4939983139831267,-0.5240338162890272,0.22415714651967103,0.10053554014302798
0.7909920811653137,1.073877215385437,83.9476318359375,0.49772467266018033,-0.5223034718571903,0.22300589472676333,0.10710579167741048
0.7718759775161743,2.3286521434783936,83.93331909179688,0.5015499700763681,-0.5202820885682012,0.23602979521577572,0.13546020300127573
-0.39066964387893677,1.174019694328308,84.01777648925781,0.5055102726586892,-0.5177811774183323,0.2392065146627527,0.16464913498299824
0,0.28966543078422546,84.08547973632812,0.509469918066688,-0.5149353803682606,0.23595093429709488,0.1768465110256027
0.4769069254398346,-0.14215514063835144,84.21812438964844,0.5134355521747951,-0.5119776947476848,0.23992515867576017,0.17807576344348497
-0.6164265275001526,-0.6362338662147522,84.29130554199219,0.5174246159581369,-0.5090638201491027,0.2387624953252575,0.17158918838637577
0.4284600019454956,-0.43091917037963867,84.2336196899414,0.5213909376492832,-0.5062781081924266,0.23719610761230203,0.16269624641475586
-0.879690945148468,0,84.13508605957031,0.5253128706273213,-0.5035964290279015,0.23343584975227727,0.15910525332825887
1.043644905090332,1.2855455875396729,84.09709167480469,0.5292148538148552,-0.5008554008066292,0.2348021327517928,0.1698181332244228
0.4720243215560913,0.7592006325721741,84.2931137084961,0.5332334775014578,-0.4978831023209366,0.24743270964051298,0.1868576850586882
-0.6658992171287537,-0.11997572332620621,84.57068634033203,0.5373438924610515,-0.4947244169512608,0.2458170855107408,0.19218455930240458
-0.35512083768844604,0.7109840512275696,84.75686645507812,0.5413699397157571,-0.4914802987178942,0.2373085850539308,0.1971096287015826
0.12933461368083954,0.09641698002815247,84.7684326171875,0.5453094032010999,-0.48813906872347507,0.23542703318720073,0.20383797062871362
0.08016983419656754,0.832763671875,84.71642303466797,0.5492477360075447,-0.48467724277883656,0.23717290358617912,0.21158114272790654
1.0649611949920654,-0.03825647011399269,84.64356231689453,0.5492477360075447,-0.48467724277883656,0.23717290358617912,0.21158114272790654
0.41689109802246094,0.04466438665986061,84.50399017333984,0.5492477360075447,-0.48467724277883656,0.23717290358617912,0.21158114272790654
-0.4511791169643402,0.021915068849921227,84.34741973876953,0.5492477360075447,-0.48467724277883656,0.23717290358617912,0.21158114272790654
-0.48915934562683105,-1.9277896881103516,84.38948822021484,0.5492477360075447,-0.48467724277883656,0.23717290358617912,0.21158114272790654
0.1183800920844078,-3.0140883922576904,84.76664733886719,0.5492477360075447,-0.48467724277883656,0.23717290358617912,0.21158114272790654
-0.7163636684417725,-0.8728743195533752,85.30706787109375,0.5492477360075447,-0.48467724277883656,0.23717290358617912,0.21158114272790654
-1.4863624572753906,-1.8865416049957275,86.02726745605469,0.5492477360075447,-0.48467724277883656,0.23717290358617912,0.21158114272790654
0.0168310459703207,-0.3197546899318695,87.0274429321289,0.5492477360075447,-0.48467724277883656,0.23717290358617912,0.21158114272790654
-1.3074389696121216,-1.0097813606262207,88.2094497680664,0.5492477360075447,-0.48467724277883656,0.23717290358617912,0.21158114272790654
-0.030288485810160637,-1.7875826358795166,89.52757263183594,0.5492477360075447,-0.48467724277883656,0.23717290358617912,0.21158114272790654
-0.6479803323745728,-1.5854265689849854,90.92047119140625,0.5492477360075447,-0.48467724277883656,0.23717290358617912,0.21158114272790654
-0.7317869663238525,-0.46219927072525024,92.37606048583984,0.5492477360075447,-0.48467724277883656,0.23717290358617912,0.21158114272790654
-0.36328768730163574,-0.9018325209617615,93.84127807617188,0.5492477360075447,-0.48467724277883656,0.23717290358617912,0.21158114272790654
-0.16605864465236664,-0.22995871305465698,95.39938354492188,0.5492477360075447,-0.48467724277883656,0.23717290358617912,0.21158114272790654
0.6381603479385376,-1.1112220287322998,97.03868103027344,0.5492477360075447,-0.48467724277883656,0.23717290358617912,0.21158114272790654
0.1332625448703766,-1.2771862745285034,98.66577911376953,0.5492477360075447,-0.48467724277883656,0.23717290358617912,0.21158114272790654
-1.1188374757766724,0.3036263585090637,100.40312194824219,0.5492477360075447,-0.48467724277883656,0.23717290358617912,0.21158114272790654
-0.5333083868026733,-0.6084626913070679,102.15559387207031,0.5492477360075447,-0.48467724277883656,0.23717290358617912,0.21158114272790654
-0.6310850977897644,-1.1612884998321533,104.00901794433594,0.5492477360075447,-0.48467724277883656,0.23717290358617912,0.21158114272790654
-0.4948635995388031,-0.37043729424476624,105.89582061767578,0.5492477360075447,-0.48467724277883656,0.23717290358617912,0.21158114272790654
0.07174704223871231,-0.7402793765068054,107.89562225341797,0.5492477360075447,-0.48467724277883656,0.23717290358617912,0.21158114272790654
-0.35466745495796204,-0.5456986427307129,110.01542663574219,0.5492477360075447,-0.48467724277883656,0.23717290358617912,0.21158114272790654
0.05957597494125366,-0.8195415139198303,112.22010803222656,0.5492477360075447,-0.48467724277883656,0.23717290358617912,0.21158114272790654
-0.6055510640144348,-0.9698216915130615,114.4824447631836,0.5492477360075447,-0.48467724277883656,0.23717290358617912,0.21158114272790654
-1.2017598152160645,-0.24617981910705566,116.75944519042969,0.5492477360075447,-0.48467724277883656,0.23717290358617912,0.21158114272790654
0.41519761085510254,-0.8392592668533325,119.12774658203125,0.5492477360075447,-0.48467724277883656,0.23717290358617912,0.21158114272790654
-0.7808204293251038,-0.4493149220943451,121.5042724609375,0.5492477360075447,-0.48467724277883656,0.23717290358617912,0.21158114272790654
-1.409932017326355,0.29987648129463196,123.90570068359375,0.5492477360075447,-0.48467724277883656,0.23717290358617912,0.21158114272790654
0.6661611795425415,-1.1608117818832397,126.28215026855469,0.5492477360075447,-0.48467724277883656,0.23717290358617912,0.21158114272790654
-0.47542262077331543,-0.7778089642524719,128.6700439453125,0.5492477360075447,-0.48467724277883656,0.23717290358617912,0.21158114272790654
-0.7837535738945007,-0.41911596059799194,131.001220703125,0.5492477360075447,-0.48467724277883656,0.23717290358617912,0.21158114272790654
-0.09016942977905273,-0.6848871111869812,133.28091430664062,0.5492477360075447,-0.48467724277883656,0.23717290358617912,0.21158114272790654
0.7575303912162781,-1.0456211566925049,135.6011199951172,0.5492477360075447,-0.48467724277883656,0.23717290358617912,0.21158114272790654
-1.8084105253219604,0.25349506735801697,137.9432830810547,0.5492477360075447,-0.48467724277883656,0.23717290358617912,0.21158114272790654
1.321141004562378,-0.4421633183956146,140.400390625,0.5492477360075447,-0.48467724277883656,0.23717290358617912,0.21158114272790654
0.7603040337562561,-1.183659553527832,142.81793212890625,0.5492477360075447,-0.48467724277883656,0.23717290358617912,0.21158114272790654
0.08508067578077316,-0.8454855680465698,145.17807006835938,0.5492477360075447,-0.48467724277883656,0.23717290358617912,0.21158114272790654
-0.7375895977020264,0.19669772684574127,147.60438537597656,0.5492477360075447,-0.48467724277883656,0.23717290358617912,0.21158114272790654
-0.29452672600746155,-1.0150959491729736,150.1282501220703,0.5492477360075447,-0.48467724277883656,0.23717290358617912,0.21158114272790654
0.48797640204429626,-0.23509740829467773,152.63613891601562,0.5492477360075447,-0.48467724277883656,0.23717290358617912,0.21158114272790654
-0.9141145944595337,-1.415557622909546,155.14007568359375,0.5492477360075447,-0.48467724277883656,0.23717290358617912,0.21158114272790654
0.9285180568695068,-0.2673839032649994,157.62033081054688,0.5492477360075447,-0.48467724277883656,0.23717290358617912,0.21158114272790654
0.3103511929512024,-0.4629603922367096,160.1404266357422,0.5492477360075447,-0.48467724277883656,0.23717290358617912,0.21158114272790654
0.4480828046798706,-0.010730740614235401,162.7112579345703,0.5492477360075447,-0.48467724277883656,0.23717290358617912,0.21158114272790654
-0.2821994125843048,-0.622069776058197,165.2691650390625,0.5492477360075447,-0.48467724277883656,0.23717290358617912,0.21158114272790654
1.053583025932312,-0.4070008099079132,167.8976287841797,0.5492477360075447,-0.48467724277883656,0.23717290358617912,0.21158114272790654
0.3456098139286041,-0.17421452701091766,170.47366333007812,0.5492477360075447,-0.48467724277883656,0.23717290358617912,0.21158114272790654
0.880752444267273,0.5290944576263428,173.0625457763672,0.5492477360075447,-0.48467724277883656,0.23717290358617912,0.21158114272790654
0.4696950316429138,-0.1801411509513855,175.749755859375,0.5492477360075447,-0.48467724277883656,0.23717290358617912,0.21158114272790654
-0.9712721705436707,-1.5199514627456665,178.30154418945312,0.5492477360075447,-0.48467724277883656,0.23717290358617912,0.21158114272790654
0.7243066430091858,1.0719784498214722,-179.09896850585938,0.5492477360075447,-0.48467724277883656,0.23717290358617912,0.21158114272790654
0.1644480973482132,-0.13737046718597412,-176.4427947998047,0.5492477360075447,-0.48467724277883656,0.23717290358617912,0.21158114272790654
0.007655502762645483,-1.02967369556427,-173.82891845703125,0.5492477360075447,-0.48467724277883656,0.23717290358617912,0.21158114272790654
0.6440983414649963,-0.16512975096702576,-171.15200805664062,0.5492477360075447,-0.48467724277883656,0.23717290358617912,0.21158114272790654
1.0357263088226318,-0.46688100695610046,-168.5859375,0.5492477360075447,-0.48467724277883656,0.23717290358617912,0.21158114272790654
0.7316257953643799,0.6407483220100403,-166.36048889160156,0.5492477360075447,-0.48467724277883656,0.23717290358617912,0.21158114272790654
0.01496488694101572,0.6206784248352051,-164.52720642089844,0.5492477360075447,-0.48467724277883656,0.23717290358617912,0.21158114272790654
-0.23713283240795135,1.7669425010681152,-163.03268432617188,0.5492477360075447,-0.48467724277883656,0.23717290358617912,0.21158114272790654
0.162615105509758,1.2597326040267944,-161.87551879882812,0.5492477360075447,-0.48467724277883656,0.23717290358617912,0.21158114272790654
0.3285123407840729,1.414335012435913,-161.2008819580078,0.5492477360075447,-0.48467724277883656,0.23717290358617912,0.21158114272790654
-0.21548372507095337,1.720108151435852,-160.8758087158203,0.5492477360075447,-0.48467724277883656,0.23717290358617912,0.21158114272790654
1.0409127473831177,0.8539649248123169,-160.73089599609375,0.5492477360075447,-0.48467724277883656,0.23717290358617912,0.21158114272790654
1.7295970916748047,0.6314655542373657,-160.66697692871094,0.5492477360075447,-0.48467724277883656,0.23717290358617912,0.21158114272790654
1.1854090690612793,0.43660831451416016,-160.6273193359375,0.5492477360075447,-0.48467724277883656,0.23717290358617912,0.21158114272790654
0.21664482355117798,0.04525947943329811,-160.67271423339844,0.5492477360075447,-0.48467724277883656,0.23717290358617912,0.21158114272790654
                                                                                                                                                                                                                                                                                                                                                                                                                                                                                                                                                                                                                                                                                                                                                                                                                                                                                                                                                                                                                                                                                                                                                                                                                                                                                                                                                                                                                                                                                                                                                                                                                                                                                                                                                                                                                                                                                                                                                                                                                                                                                                                                                                                                                                                                                                                                                                                                                                                                                                                                                                                                                                                                                                                                                                                                                                                                                                                                                                                                                                                