faccX,faccY,yaw,posX,posY,velX,velY
0,0,-32.311710357666016,0.0,0.0,0.0,0.0
0,0,-32.311710357666016,0.0,0.0,0.0,0.0
0,0,-32.31190872192383,0.0,0.0,0.0,0.0
0.07128306478261948,-0.153822660446167,-32.31222915649414,4.950212832126352e-06,-1.0682129197650486e-05,0.0005940255398551623,-0.0012818555037180583
2.0995376110076904,-0.5043926239013672,-32.258766174316406,0.0001656020743151506,-7.775578233930799e-05,0.018684197838107746,-0.006766982873280843
1.6782082319259644,-1.016634464263916,-32.06671905517578,0.0007393488329317836,-0.0002961657113499111,0.0501654131958882,-0.019442208607991535
0.22456613183021545,-1.2555263042449951,-31.99378776550293,0.0017075761614574326,-0.0007779914637406665,0.0660218662271897,-0.038376881678899126
1.7485564947128296,-1.3211188316345215,-32.131507873535156,0.0029449630031983054,-0.0015965398483806185,0.08246455478171508,-0.059848924477895096
1.040543556213379,-0.3352857232093811,-32.18269348144531,0.004513059753096765,-0.0027090500170985857,0.10570705520610015,-0.07365229576826095
1.9024510383605957,-0.5234622955322266,-32.133583068847656,0.00647921863115496,-0.003996223558982213,0.13023201016088326,-0.08080852925777435
0.6838750243186951,-1.2365564107894897,-32.10416793823242,0.008829358110411299,-0.0054652559012174605,0.15178472734987736,-0.09547535181045531
1.6297671794891357,-0.9197342991828918,-32.008697509765625,0.011519773163729242,-0.007206254175139797,0.17106507904827595,-0.11344444106022517
1.2868207693099976,-0.3941687345504761,-31.862241744995117,0.014573398644311559,-0.009188238125708367,0.19536997862160205,-0.12439363300800323
0.45825713872909546,-0.3785263001918793,-31.759382247924805,0.01795075092050764,-0.011315124719921084,0.20991229452192783,-0.13083275829752286
0.7514595985412598,-0.41473573446273804,-31.726587295532227,0.021533297269294656,-0.013550758332841924,0.21999326733251412,-0.137443275252978
0.9628115892410278,-0.5239322185516357,-31.640090942382812,0.02531889833509922,-0.015906664861573112,0.2342788605640332,-0.14526550819476444
0.7007145285606384,-1.3435453176498413,-31.63886070251465,0.029339068658236,-0.018457442604833178,0.2481415782123804,-0.1608278209964434
0.9791417717933655,0.42611995339393616,-31.68522834777832,0.033591418315966924,-0.02120161638284723,0.2621403807153304,-0.1684730323652426
0.9409425854682922,-0.35356107354164124,-31.64579963684082,0.038093763852698935,-0.02400446144450042,0.2781410836925109,-0.16786837503314014
-0.6855944395065308,-1.0887893438339233,-31.622106552124023,0.04274718109104368,-0.026902430918481615,0.28026898490885893,-0.17988796184460318
1.5061132907867432,0.17369644343852997,-31.615293502807617,0.04747531131530801,-0.02996411173397468,0.2871066420028607,-0.18751373601456478
0.7698583006858826,-0.6976157426834106,-31.600488662719727,0.05241847559809684,-0.03312572395222054,0.3060730719317992,-0.19187973017493878
0.4069942235946655,-1.2079278230667114,-31.38086700439453,0.057601419333368535,-0.03645604886942439,0.3158801763008038,-0.20775925988952312
-0.2890557050704956,-0.951454758644104,-31.264768600463867,0.06287427911327945,-0.040068660324646364,0.3168629972885052,-0.22575411473711327
0.674246072769165,1.6664514541625977,-31.4047794342041,0.06818207839917804,-0.043781576355298356,0.32007291701932744,-0.21979580894112583
0.427802711725235,-0.6695621013641357,-31.485994338989258,0.07359315818175673,-0.04737561141037278,0.32925665689011413,-0.2114883976678053
0.5487727522850037,-0.632003128528595,-31.473102569580078,0.07914858687048157,-0.050990804512467645,0.3373947857568661,-0.22233477458357806
1.6243373155593872,0.7312108874320984,-31.419286727905273,0.08492274372114075,-0.05468949466115898,0.35550403632223604,-0.2215080432593822
-0.8172751665115356,-0.7534735202789307,-31.493698120117188,0.09090385697575079,-0.058382841398318605,0.36222955423096814,-0.22169356519977246
0.5688130259513855,0,-31.56302261352539,0.09692376189761692,-0.06213005870166752,0.36015903639296687,-0.22797251120209688
-0.1420184075832367,-0.5601292848587036,-31.61162567138672,0.10295605101933082,-0.06596849842203988,0.36371565821270146,-0.23264025524258608
-0.19006229937076569,-0.8414551019668579,-31.726716995239258,0.10899491749600404,-0.06994316825850141,0.36094831898808477,-0.2443201251327991
0.574517548084259,-0.5693698525428772,-31.712186813354492,0.11503742109363278,-0.07411314429922235,0.36415211272736386,-0.25607699975371356
0.7186976075172424,0.8502752184867859,-31.59031867980957,0.12119642958045006,-0.07836158697803813,0.3749289056907097,-0.253736121704181
1.012710452079773,0.5464985966682434,-31.57923698425293,0.12756548134610057,-0.08249352415816649,0.3893573061873515,-0.2420963399112224
-0.05320625752210617,-0.3419724404811859,-31.657917022705078,0.1341214020182896,-0.0865142599513961,0.397353174475332,-0.24039195527633025
0.484971821308136,-0.28576210141181946,-31.692232131958008,0.14077393864591917,-0.09056438521585528,0.4009512208402156,-0.24562307645877196
-0.9387158751487732,1.1169487237930298,-31.657554626464844,0.14742494898951716,-0.09460038186361389,0.39717002039154364,-0.23869652127226187
-0.6365536451339722,-1.2445907592773438,-31.526166915893555,0.15393505561268991,-0.09858752124839355,0.38404277438918744,-0.23976020490129782
-0.08699490875005722,-0.47059357166290283,-31.406160354614258,0.1602855220918233,-0.10270263468639715,0.3780132031068205,-0.2540534076591332
0.39767181873321533,0.8020411133766174,-31.297685623168945,0.16660731692901914,-0.10691384095698592,0.38060217735668017,-0.25129134481151894
1.3891204595565796,0,-31.31169891357422,0.17307476934873395,-0.11104633273763785,0.39549211300909515,-0.24460766886671378
0.5235056281089783,-0.8917519450187683,-31.204864501953125,0.1797991258216401,-0.11518505443715382,0.41143066373964143,-0.25203893507520353
0.37497642636299133,0.1955731362104416,-31.029714584350586,0.18671869813775022,-0.11943404910568557,0.4189180141935745,-0.2578404251486063
-0.41975927352905273,-0.5504917502403259,-31.009626388549805,0.19369755512103437,-0.12375603665080331,0.418544823800524,-0.260798080265522
-0.20422281324863434,1.264922857284546,-31.090646743774414,0.20062997009501687,-0.12805305805057282,0.4133449730773766,-0.25484448770682017
-0.3680015802383423,-0.5220574736595154,-31.131507873535156,0.20747931517453655,-0.13224887830515697,0.40857643646498515,-0.24865394284327824
0.42409369349479675,-0.9450076222419739,-31.13514518737793,0.21429281773459577,-0.136494990206427,0.4090438707421223,-0.26087948530912397
-0.35518884658813477,0.2984626293182373,-31.087499618530273,0.22111500063911077,-0.14088788058608764,0.4096180777996778,-0.2662673602501551
-0.7267818450927734,-1.4204634428024292,-30.998140335083008,0.22786683174884978,-0.14540358664674885,0.40060165536900355,-0.27561736702919004
-0.08742211759090424,1.212335228919983,-30.99410057067871,0.2344869840631468,-0.15001166277875497,0.39381662234663956,-0.2773517688115438
0.876398503780365,0.5992252230644226,-31.036178588867188,0.2411053844624095,-0.1545083894497818,0.40039142556488505,-0.2622554317116737
1.9081077575683594,1.189884066581726,-31.10527992248535,0.24797194337886236,-0.15875506961097316,0.42359564440945774,-0.24734618763128913
-1.3123974800109863,-0.9381957650184631,-31.23123550415039,0.2550732395549615,-0.1628600277172194,0.42855989672243583,-0.24524878511826192
0.32739463448524475,-0.7172018885612488,-31.299636840820312,0.2621475015249517,-0.1670624656395779,0.420351539676388,-0.2590437655647595
-0.2381461262702942,-0.08277259021997452,-31.45207977294922,0.26915955833262867,-0.1714354155155726,0.4210952772448459,-0.265710219554603
-0.4297410547733307,0.1306816190481186,-31.617168426513672,0.27613143189913697,-0.17586059215892513,0.41552955073614906,-0.2653109776477018
-0.15829241275787354,-0.665315568447113,-31.58823585510254,0.2830160887539387,-0.18031956914398398,0.4106292718400557,-0.2697662605593601
0.8359999656677246,0.8538777828216553,-31.461753845214844,0.28990697297578055,-0.18480257888841953,0.41627683478097116,-0.2681949087729056
0.11142418533563614,-0.16533343493938446,-31.46905517578125,0.2969107135659497,-0.18922467845492058,0.4241720360393325,-0.26245703920721997
0,0.5384573936462402,-31.42094612121582,0.3039879852905869,-0.19357305105568626,0.4251005709171295,-0.2593476728846628
0.10100635886192322,-0.75320965051651,-31.36164093017578,0.3110800091363489,-0.1979104256216022,0.4259422905743122,-0.2611372750252484
-1.3895394802093506,0,-31.33782386779785,0.3180895658458272,-0.20231501976441998,0.41520451456308366,-0.267414022112886
-0.22717076539993286,0.07321204245090485,-31.27090072631836,0.3248973695437113,-0.20676683596335343,0.4017319291830063,-0.2668039217591285
-0.12710429728031158,-0.09757212549448013,-31.188396453857422,0.33156829926185305,-0.21121525966510582,0.39877963699400426,-0.26700692245115826
1.9623315334320068,0.5065211653709412,-31.17729377746582,0.3383420728809303,-0.21563697580041147,0.41407319729526837,-0.2635990137855211
-0.8799862265586853,-0.3947237730026245,-31.14876365661621,0.3383420728809303,-0.21563697580041147,0.41407319729526837,-0.2635990137855211
1.1513830423355103,-0.08555332571268082,-31.032705307006836,0.3383420728809303,-0.21563697580041147,0.41407319729526837,-0.2635990137855211
-0.5729759931564331,0.11283622682094574,-31.041643142700195,0.3383420728809303,-0.21563697580041147,0.41407319729526837,-0.2635990137855211
-0.6018940806388855,1.0900098085403442,-31.09271812438965,0.3383420728809303,-0.21563697580041147,0.41407319729526837,-0.2635990137855211
-2.8259849548339844,1.055619478225708,-31.538013458251953,0.3383420728809303,-0.21563697580041147,0.41407319729526837,-0.2635990137855211
-2.279949903488159,1.2037060260772705,-32.19833755493164,0.3383420728809303,-0.21563697580041147,0.41407319729526837,-0.2635990137855211
-0.9882544875144958,-0.2634516656398773,-32.987030029296875,0.3383420728809303,-0.21563697580041147,0.41407319729526837,-0.2635990137855211
-1.9287145137786865,-0.013288002461194992,-33.89104461669922,0.3383420728809303,-0.21563697580041147,0.41407319729526837,-0.2635990137855211
-2.4546637535095215,0.2707730531692505,-34.901206970214844,0.3383420728809303,-0.21563697580041147,0.41407319729526837,-0.2635990137855211
-1.9301105737686157,-0.41161778569221497,-36.02460861206055,0.3383420728809303,-0.21563697580041147,0.41407319729526837,-0.2635990137855211
-1.45948326587677,-0.2936573028564453,-37.27109909057617,0.3383420728809303,-0.21563697580041147,0.41407319729526837,-0.2635990137855211
-2.00502347946167,1.0498626232147217,-38.547157287597656,0.3383420728809303,-0.21563697580041147,0.41407319729526837,-0.2635990137855211
-1.1670076847076416,1.5882762670516968,-39.95166015625,0.3383420728809303,-0.21563697580041147,0.41407319729526837,-0.2635990137855211
-1.1639034748077393,0.32620128989219666,-41.48247146606445,0.3383420728809303,-0.21563697580041147,0.41407319729526837,-0.2635990137855211
-1.5806463956832886,1.6906782388687134,-43.159847259521484,0.3383420728809303,-0.21563697580041147,0.41407319729526837,-0.2635990137855211
-1.9010227918624878,0.6693182587623596,-45.060997009277344,0.3383420728809303,-0.21563697580041147,0.41407319729526837,-0.2635990137855211
-0.7422278523445129,0.9527252912521362,-46.986331939697266,0.3383420728809303,-0.21563697580041147,0.41407319729526837,-0.2635990137855211
-1.5131198167800903,0.13944682478904724,-48.97522735595703,0.3383420728809303,-0.21563697580041147,0.41407319729526837,-0.2635990137855211
-0.30568626523017883,0.5768830180168152,-50.944122314453125,0.3383420728809303,-0.21563697580041147,0.41407319729526837,-0.2635990137855211
-1.332245945930481,0.6957911252975464,-52.98309326171875,0.3383420728809303,-0.21563697580041147,0.41407319729526837,-0.2635990137855211
-1.213753342628479,-0.35128170251846313,-55.0274658203125,0.3383420728809303,-0.21563697580041147,0.41407319729526837,-0.2635990137855211
-1.0211186408996582,0.673996090888977,-57.02530288696289,0.3383420728809303,-0.21563697580041147,0.41407319729526837,-0.2635990137855211
-1.336448073387146,0.43579399585723877,-59.05454635620117,0.3383420728809303,-0.21563697580041147,0.41407319729526837,-0.2635990137855211
-0.9329467415809631,0.694217324256897,-61.11796951293945,0.3383420728809303,-0.21563697580041147,0.41407319729526837,-0.2635990137855211
-0.706458568572998,1.1235462427139282,-63.11789321899414,0.3383420728809303,-0.21563697580041147,0.41407319729526837,-0.2635990137855211
-1.0123997926712036,0.5749326348304749,-65.10774993896484,0.3383420728809303,-0.21563697580041147,0.41407319729526837,-0.2635990137855211
-0.04390304163098335,0.5860229730606079,-67.2018051147461,0.3383420728809303,-0.21563697580041147,0.41407319729526837,-0.2635990137855211
-0.8610426187515259,0.8291866779327393,-69.32548522949219,0.3383420728809303,-0.21563697580041147,0.41407319729526837,-0.2635990137855211
0.20695820450782776,0.20191487669944763,-71.52021789550781,0.3383420728809303,-0.21563697580041147,0.41407319729526837,-0.2635990137855211
-0.9097703695297241,-1.2565103769302368,-73.60810852050781,0.3383420728809303,-0.21563697580041147,0.41407319729526837,-0.2635990137855211
-1.1952115297317505,1.6570688486099243,-75.8333511352539,0.3383420728809303,-0.21563697580041147,0.41407319729526837,-0.2635990137855211
0.7809060215950012,0.6654477715492249,-78.0398941040039,0.3383420728809303,-0.21563697580041147,0.41407319729526837,-0.2635990137855211
-0.6740487813949585,0.19821885228157043,-80.225830078125,0.3383420728809303,-0.21563697580041147,0.41407319729526837,-0.2635990137855211
0.15160787105560303,0.7220220565795898,-82.42338562011719,0.3383420728809303,-0.21563697580041147,0.41407319729526837,-0.2635990137855211
-0.26153770089149475,-0.28572404384613037,-84.69945526123047,0.3383420728809303,-0.21563697580041147,0.41407319729526837,-0.2635990137855211
-0.36711472272872925,1.062795877456665,-87.03363800048828,0.3383420728809303,-0.21563697580041147,0.41407319729526837,-0.2635990137855211
-0.5383803248405457,0.2188747376203537,-89.31512451171875,0.3383420728809303,-0.21563697580041147,0.41407319729526837,-0.2635990137855211
-1.2003445625305176,0.36495038866996765,-91.63117218017578,0.3383420728809303,-0.21563697580041147,0.41407319729526837,-0.2635990137855211
-0.09508410096168518,0.40541785955429077,-94.01993560791016,0.3383420728809303,-0.21563697580041147,0.41407319729526837,-0.2635990137855211
0.41345274448394775,1.5292959213256836,-96.49837493896484,0.3383420728809303,-0.21563697580041147,0.41407319729526837,-0.2635990137855211
-0.2912447154521942,0.7596865892410278,-99.02946472167969,0.3383420728809303,-0.21563697580041147,0.41407319729526837,-0.2635990137855211
0.14198802411556244,0.5132656693458557,-101.46317291259766,0.3383420728809303,-0.21563697580041147,0.41407319729526837,-0.2635990137855211
0.8727025389671326,0.47589483857154846,-103.92803192138672,0.3383420728809303,-0.21563697580041147,0.41407319729526837,-0.2635990137855211
0.014474337920546532,1.0155149698257446,-106.50015258789062,0.3383420728809303,-0.21563697580041147,0.41407319729526837,-0.2635990137855211
-0.2317730039358139,-0.11173287034034729,-108.92959594726562,0.3383420728809303,-0.21563697580041147,0.41407319729526837,-0.2635990137855211
0.8055075407028198,0.8738772869110107,-111.11592864990234,0.3383420728809303,-0.21563697580041147,0.41407319729526837,-0.2635990137855211
1.1572113037109375,-0.5197277069091797,-113.37220764160156,0.3383420728809303,-0.21563697580041147,0.41407319729526837,-0.2635990137855211
-0.5983890891075134,0.8950976133346558,-115.71424865722656,0.3383420728809303,-0.21563697580041147,0.41407319729526837,-0.2635990137855211
0.48018136620521545,0.036729875952005386,-117.99179077148438,0.3383420728809303,-0.21563697580041147,0.41407319729526837,-0.2635990137855211
-0.0032977520022541285,0.3207285702228546,-120.25051879882812,0.3383420728809303,-0.21563697580041147,0.41407319729526837,-0.2635990137855211
0.02743619866669178,0.6047184467315674,-122.57374572753906,0.3383420728809303,-0.21563697580041147,0.41407319729526837,-0.2635990137855211
-0.27996304631233215,0.5225733518600464,-124.97847747802734,0.3383420728809303,-0.21563697580041147,0.41407319729526837,-0.2635990137855211
0.7933903932571411,0.8513392806053162,-127.37592315673828,0.3383420728809303,-0.21563697580041147,0.41407319729526837,-0.2635990137855211
-0.345462828874588,-0.4014807939529419,-129.71640014648438,0.3383420728809303,-0.21563697580041147,0.41407319729526837,-0.2635990137855211
-0.10912792384624481,0.6988858580589294,-132.09039306640625,0.3383420728809303,-0.21563697580041147,0.41407319729526837,-0.2635990137855211
-0.2404266893863678,-0.029036229476332664,-134.47377014160156,0.3383420728809303,-0.21563697580041147,0.41407319729526837,-0.2635990137855211
0.47705453634262085,-0.14288613200187683,-136.85816955566406,0.3383420728809303,-0.21563697580041147,0.41407319729526837,-0.2635990137855211
1.0818451642990112,-0.8998547196388245,-139.2628936767578,0.3383420728809303,-0.21563697580041147,0.41407319729526837,-0.2635990137855211
-0.49862152338027954,-0.06889975816011429,-141.76998901367188,0.3383420728809303,-0.21563697580041147,0.41407319729526837,-0.2635990137855211
-2.552234172821045,0.9768787026405334,-144.19259643554688,0.3383420728809303,-0.21563697580041147,0.41407319729526837,-0.2635990137855211
1.574885606765747,-0.08768732845783234,-146.5166778564453,0.3383420728809303,-0.21563697580041147,0.41407319729526837,-0.2635990137855211
1.8374390602111816,-1.4484527111053467,-148.83775329589844,0.3383420728809303,-0.21563697580041147,0.41407319729526837,-0.2635990137855211
-1.2774937152862549,0.9972918033599854,-151.0559844970703,0.3383420728809303,-0.21563697580041147,0.41407319729526837,-0.2635990137855211
0.4707728922367096,0.689638078212738,-153.47296142578125,0.3383420728809303,-0.21563697580041147,0.41407319729526837,-0.2635990137855211
0.5574017763137817,1.426522135734558,-155.8195343017578,0.3383420728809303,-0.21563697580041147,0.41407319729526837,-0.2635990137855211
0.06311145424842834,0.3274177610874176,-158.27915954589844,0.3383420728809303,-0.21563697580041147,0.41407319729526837,-0.2635990137855211
-0.262742280960083,-0.3801562786102295,-160.7550811767578,0.3383420728809303,-0.21563697580041147,0.41407319729526837,-0.2635990137855211
0.04111866280436516,0.6598820686340332,-163.2093505859375,0.3383420728809303,-0.21563697580041147,0.41407319729526837,-0.2635990137855211
-0.0918145701289177,0.6316493153572083,-165.5806427001953,0.3383420728809303,-0.21563697580041147,0.41407319729526837,-0.2635990137855211
0.8602635860443115,-0.845455527305603,-168.095703125,0.3383420728809303,-0.21563697580041147,0.41407319729526837,-0.2635990137855211
0.027261832728981972,0.9214720129966736,-170.55934143066406,0.3383420728809303,-0.21563697580041147,0.41407319729526837,-0.2635990137855211
0.7943758368492126,-0.0018321374664083123,-173.12489318847656,0.3383420728809303,-0.21563697580041147,0.41407319729526837,-0.2635990137855211
0.3482595980167389,-0.4699603021144867,-175.7234649658203,0.3383420728809303,-0.21563697580041147,0.41407319729526837,-0.2635990137855211
0.19727258384227753,0.4501732885837555,-178.38284301757812,0.3383420728809303,-0.21563697580041147,0.41407319729526837,-0.2635990137855211
-0.8172701597213745,0.656052827835083,179.02235412597656,0.3383420728809303,-0.21563697580041147,0.41407319729526837,-0.2635990137855211
-0.3717964291572571,0.1206146627664566,176.4173126220703,0.3383420728809303,-0.21563697580041147,0.41407319729526837,-0.2635990137855211
0.9588273167610168,-0.8325669765472412,173.70230102539062,0.3383420728809303,-0.21563697580041147,0.41407319729526837,-0.2635990137855211
0.38101670145988464,0.5676563382148743,171.05494689941406,0.3383420728809303,-0.21563697580041147,0.41407319729526837,-0.2635990137855211
0.01973365992307663,-0.13871672749519348,168.479248046875,0.3383420728809303,-0.21563697580041147,0.41407319729526837,-0.2635990137855211
-0.6704698801040649,0.3833693861961365,165.7375946044922,0.3383420728809303,-0.21563697580041147,0.41407319729526837,-0.2635990137855211
0.44604045152664185,-0.029493121430277824,162.9937286376953,0.3383420728809303,-0.21563697580041147,0.41407319729526837,-0.2635990137855211
0.3732799291610718,-0.5315428972244263,160.3540802001953,0.3383420728809303,-0.21563697580041147,0.41407319729526837,-0.2635990137855211
0.5324802994728088,0.31046268343925476,157.67123413085938,0.3383420728809303,-0.21563697580041147,0.41407319729526837,-0.2635990137855211
0.6608500480651855,-0.45183539390563965,154.93325805664062,0.3383420728809303,-0.21563697580041147,0.41407319729526837,-0.2635990137855211
0.13648225367069244,0.7966378331184387,152.24456787109375,0.3383420728809303,-0.21563697580041147,0.41407319729526837,-0.2635990137855211
-0.34135913848876953,0.337918221950531,149.54188537597656,0.3383420728809303,-0.21563697580041147,0.41407319729526837,-0.2635990137855211
0.8187563419342041,0.3107184171676636,146.8841552734375,0.3383420728809303,-0.21563697580041147,0.41407319729526837,-0.2635990137855211
-0.4153449833393097,-1.262200117111206,144.13233947753906,0.3383420728809303,-0.21563697580041147,0.41407319729526837,-0.2635990137855211
-0.11361909657716751,1.172682285308838,141.4902801513672,0.3383420728809303,-0.21563697580041147,0.41407319729526837,-0.2635990137855211
1.2094608545303345,0.43805477023124695,138.99221801757812,0.3383420728809303,-0.21563697580041147,0.41407319729526837,-0.2635990137855211
-0.6078143119812012,-2.4034440517425537,136.45712280273438,0.3383420728809303,-0.21563697580041147,0.41407319729526837,-0.2635990137855211
-1.3073420524597168,-0.5368350148200989,133.9864959716797,0.3383420728809303,-0.21563697580041147,0.41407319729526837,-0.2635990137855211
0.9302669167518616,0.2770952880382538,131.5410919189453,0.3383420728809303,-0.21563697580041147,0.41407319729526837,-0.2635990137855211
0.2026657909154892,-1.3823469877243042,129.0531463623047,0.3383420728809303,-0.21563697580041147,0.41407319729526837,-0.2635990137855211
1.051565408706665,0.6163002252578735,126.578857421875,0.3383420728809303,-0.21563697580041147,0.41407319729526837,-0.2635990137855211
0.24492083489894867,0.33381274342536926,124.14659881591797,0.3383420728809303,-0.21563697580041147,0.41407319729526837,-0.2635990137855211
-0.6069034934043884,-0.4427433907985687,121.69538116455078,0.3383420728809303,-0.21563697580041147,0.41407319729526837,-0.2635990137855211
0.9674842357635498,0.1369064748287201,119.22454833984375,0.3383420728809303,-0.21563697580041147,0.41407319729526837,-0.2635990137855211
-0.34498924016952515,-0.71054607629776,116.77027893066406,0.3383420728809303,-0.21563697580041147,0.41407319729526837,-0.2635990137855211
-0.33516499400138855,-0.6494050621986389,114.29523468017578,0.3383420728809303,-0.21563697580041147,0.41407319729526837,-0.2635990137855211
-0.3405548334121704,-0.40818583965301514,111.8766860961914,0.3383420728809303,-0.21563697580041147,0.41407319729526837,-0.2635990137855211
-0.44583284854888916,0.2759816646575928,109.55785369873047,0.3383420728809303,-0.21563697580041147,0.41407319729526837,-0.2635990137855211
0.03455718606710434,-0.021970730274915695,107.33964538574219,0.3383420728809303,-0.21563697580041147,0.41407319729526837,-0.2635990137855211
0.6762649416923523,0.40053024888038635,105.0811767578125,0.3383420728809303,-0.21563697580041147,0.41407319729526837,-0.2635990137855211
0.9088771939277649,1.0709906816482544,102.83348846435547,0.3383420728809303,-0.21563697580041147,0.41407319729526837,-0.2635990137855211
-0.9306567907333374,-1.1403402090072632,100.54042053222656,0.3383420728809303,-0.21563697580041147,0.41407319729526837,-0.2635990137855211
-0.45118415355682373,0.41218847036361694,98.30608367919922,0.3383420728809303,-0.21563697580041147,0.41407319729526837,-0.2635990137855211
-0.2681291699409485,-0.7382208108901978,96.03739166259766,0.3383420728809303,-0.21563697580041147,0.41407319729526837,-0.2635990137855211
0.7395181059837341,0.5914505124092102,93.77852630615234,0.3383420728809303,-0.21563697580041147,0.41407319729526837,-0.2635990137855211
0.16767165064811707,0.20979484915733337,91.41868591308594,0.3383420728809303,-0.21563697580041147,0.41407319729526837,-0.2635990137855211
0.5130382180213928,-0.07021956890821457,89.12711334228516,0.3383420728809303,-0.21563697580041147,0.41407319729526837,-0.2635990137855211
-0.590456485748291,-0.8539397120475769,86.84485626220703,0.3383420728809303,-0.21563697580041147,0.41407319729526837,-0.2635990137855211
0.9788992404937744,0.05743071809411049,84.57229614257812,0.3383420728809303,-0.21563697580041147,0.41407319729526837,-0.2635990137855211
-0.1352466195821762,-0.1363142430782318,82.23324584960938,0.3383420728809303,-0.21563697580041147,0.41407319729526837,-0.2635990137855211
-0.22656933963298798,0.17881229519844055,79.8390121459961,0.3383420728809303,-0.21563697580041147,0.41407319729526837,-0.2635990137855211
-1.1315885782241821,-0.20363228023052216,77.34810638427734,0.3383420728809303,-0.21563697580041147,0.41407319729526837,-0.2635990137855211
0.3888630270957947,0.22672885656356812,74.88749694824219,0.3383420728809303,-0.21563697580041147,0.41407319729526837,-0.2635990137855211
-0.1244645044207573,-0.7112780809402466,72.40815734863281,0.3383420728809303,-0.21563697580041147,0.41407319729526837,-0.2635990137855211
0.24357637763023376,0.3152342438697815,70.01739501953125,0.3383420728809303,-0.21563697580041147,0.41407319729526837,-0.2635990137855211
-0.2691709101200104,-0.05452632158994675,67.66708374023438,0.3383420728809303,-0.21563697580041147,0.41407319729526837,-0.2635990137855211
-1.3052167892456055,0.08758686482906342,65.29866027832031,0.3383420728809303,-0.21563697580041147,0.41407319729526837,-0.2635990137855211
0.47296470403671265,-0.4978196918964386,62.940608978271484,0.3383420728809303,-0.21563697580041147,0.41407319729526837,-0.2635990137855211
0.9171462655067444,0.22130751609802246,60.746185302734375,0.3383420728809303,-0.21563697580041147,0.41407319729526837,-0.2635990137855211
-2.120577096939087,-0.7140321135520935,58.60575485229492,0.3383420728809303,-0.21563697580041147,0.41407319729526837,-0.2635990137855211
-1.2617988586425781,2.396528959274292,56.449859619140625,0.3383420728809303,-0.21563697580041147,0.41407319729526837,-0.2635990137855211
1.3886237144470215,-0.4369652569293976,54.31344985961914,0.3383420728809303,-0.21563697580041147,0.41407319729526837,-0.2635990137855211
1.267864465713501,-0.30341893434524536,52.02371597290039,0.3383420728809303,-0.21563697580041147,0.41407319729526837,-0.2635990137855211
-2.418762445449829,0.614603579044342,49.765594482421875,0.3383420728809303,-0.21563697580041147,0.41407319729526837,-0.2635990137855211
0.5086934566497803,-0.29863694310188293,47.51369857788086,0.3383420728809303,-0.21563697580041147,0.41407319729526837,-0.2635990137855211
-1.2520296573638916,-0.4267366826534271,45.183189392089844,0.3383420728809303,-0.21563697580041147,0.41407319729526837,-0.2635990137855211
1.7524915933609009,-1.4025486707687378,42.853694915771484,0.3383420728809303,-0.21563697580041147,0.41407319729526837,-0.2635990137855211
-1.033265471458435,1.6331758499145508,40.476898193359375,0.3383420728809303,-0.21563697580041147,0.41407319729526837,-0.2635990137855211
-0.25145968794822693,-0.6515805125236511,38.06058883666992,0.3383420728809303,-0.21563697580041147,0.41407319729526837,-0.2635990137855211
0.07395488023757935,-0.392561674118042,35.5787353515625,0.3383420728809303,-0.21563697580041147,0.41407319729526837,-0.2635990137855211
0.40222862362861633,-0.5321606993675232,33.170997619628906,0.3383420728809303,-0.21563697580041147,0.41407319729526837,-0.2635990137855211
-1.1923248767852783,0.2089626044034958,30.69393539428711,0.3383420728809303,-0.21563697580041147,0.41407319729526837,-0.2635990137855211
-0.47684428095817566,-0.20976749062538147,28.21507453918457,0.3383420728809303,-0.21563697580041147,0.41407319729526837,-0.2635990137855211
0.40642884373664856,-0.3646039068698883,25.80312156677246,0.3383420728809303,-0.21563697580041147,0.41407319729526837,-0.2635990137855211
0.041003331542015076,0.4118351340293884,23.28141975402832,0.3383420728809303,-0.21563697580041147,0.41407319729526837,-0.2635990137855211
-2.0325024127960205,0.5040721893310547,20.762434005737305,0.3383420728809303,-0.21563697580041147,0.41407319729526837,-0.2635990137855211
0.3588663935661316,0.6724257469177246,18.360403060913086,0.3383420728809303,-0.21563697580041147,0.41407319729526837,-0.2635990137855211
-0.6825581192970276,-0.7634243965148926,15.956305503845215,0.3383420728809303,-0.21563697580041147,0.41407319729526837,-0.2635990137855211
0.1582680195569992,-1.2030287981033325,13.525209426879883,0.3383420728809303,-0.21563697580041147,0.41407319729526837,-0.2635990137855211
-0.019159827381372452,0.21177156269550323,11.124073028564453,0.3383420728809303,-0.21563697580041147,0.41407319729526837,-0.2635990137855211
-0.26707297563552856,-0.21587029099464417,8.73806381225586,0.3383420728809303,-0.21563697580041147,0.41407319729526837,-0.2635990137855211
0.42133188247680664,0.10396790504455566,6.364658832550049,0.3383420728809303,-0.21563697580041147,0.41407319729526837,-0.2635990137855211
-0.2136392444372177,-0.18554255366325378,3.9508726596832275,0.3383420728809303,-0.21563697580041147,0.41407319729526837,-0.2635990137855211
-0.9137243628501892,1.2819182872772217,1.4709371328353882,0.3383420728809303,-0.21563697580041147,0.41407319729526837,-0.2635990137855211
-1.0604294538497925,-0.2752307951450348,-0.8737110495567322,0.3383420728809303,-0.21563697580041147,0.41407319729526837,-0.2635990137855211
0.9174169898033142,-1.0224260091781616,-3.0842397212982178,0.3383420728809303,-0.21563697580041147,0.41407319729526837,-0.2635990137855211
-1.0581713914871216,1.8894271850585938,-5.400808811187744,0.3383420728809303,-0.21563697580041147,0.41407319729526837,-0.2635990137855211
1.1805663108825684,1.6115518808364868,-7.659758567810059,0.3383420728809303,-0.21563697580041147,0.41407319729526837,-0.2635990137855211
-1.1845781803131104,-1.4510126113891602,-9.920924186706543,0.3383420728809303,-0.21563697580041147,0.41407319729526837,-0.2635990137855211
-0.31627655029296875,0.2570613920688629,-12.251713752746582,0.3383420728809303,-0.21563697580041147,0.41407319729526837,-0.2635990137855211
-0.7816105484962463,1.9784512519836426,-14.629450798034668,0.3383420728809303,-0.21563697580041147,0.41407319729526837,-0.2635990137855211
0.5698469877243042,-0.29281970858573914,-16.965953826904297,0.3383420728809303,-0.21563697580041147,0.41407319729526837,-0.2635990137855211
0.2134215384721756,-0.8997247219085693,-19.15926742553711,0.3383420728809303,-0.21563697580041147,0.41407319729526837,-0.2635990137855211
-0.6833242177963257,-0.746607780456543,-21.46445083618164,0.3383420728809303,-0.21563697580041147,0.41407319729526837,-0.2635990137855211
0.3371005654335022,0.985470175743103,-23.863859176635742,0.3383420728809303,-0.21563697580041147,0.41407319729526837,-0.2635990137855211
-1.891677975654602,0.6321892142295837,-26.34430503845215,0.3383420728809303,-0.21563697580041147,0.41407319729526837,-0.2635990137855211
-0.6086771488189697,0.09660637378692627,-28.769145965576172,0.3383420728809303,-0.21563697580041147,0.41407319729526837,-0.2635990137855211
0.2734115421772003,-0.7397704720497131,-31.205997467041016,0.3383420728809303,-0.21563697580041147,0.41407319729526837,-0.2635990137855211
-0.04939143359661102,0.7523176670074463,-33.85747528076172,0.3383420728809303,-0.21563697580041147,0.41407319729526837,-0.2635990137855211
-0.16496406495571136,-0.5264703631401062,-36.43672561645508,0.3383420728809303,-0.21563697580041147,0.41407319729526837,-0.2635990137855211
-0.029159555211663246,0.6455859541893005,-38.9072151184082,0.3383420728809303,-0.21563697580041147,0.41407319729526837,-0.2635990137855211
-0.2990587055683136,0.5346387624740601,-41.41657257080078,0.3383420728809303,-0.21563697580041147,0.41407319729526837,-0.2635990137855211
-0.7698414921760559,-0.13743814826011658,-44.03358840942383,0.3383420728809303,-0.21563697580041147,0.41407319729526837,-0.2635990137855211
0.1681479513645172,0.34013259410858154,-46.603240966796875,0.3383420728809303,-0.21563697580041147,0.41407319729526837,-0.2635990137855211
-0.16948489844799042,-0.2712906301021576,-49.23714065551758,0.3383420728809303,-0.21563697580041147,0.41407319729526837,-0.2635990137855211
-0.6857500076293945,0.9068169593811035,-51.89369583129883,0.3383420728809303,-0.21563697580041147,0.41407319729526837,-0.2635990137855211
0.31882163882255554,0.6646820902824402,-54.60434341430664,0.3383420728809303,-0.21563697580041147,0.41407319729526837,-0.2635990137855211
-0.7109261751174927,-0.05165639892220497,-57.235076904296875,0.3383420728809303,-0.21563697580041147,0.41407319729526837,-0.2635990137855211
0.40516382455825806,0.6431475877761841,-59.962730407714844,0.3383420728809303,-0.21563697580041147,0.41407319729526837,-0.2635990137855211
-0.7010427117347717,0.26883429288864136,-62.70308303833008,0.3383420728809303,-0.21563697580041147,0.41407319729526837,-0.2635990137855211
0.4404502213001251,-0.15132646262645721,-65.38259887695312,0.3383420728809303,-0.21563697580041147,0.41407319729526837,-0.2635990137855211
0.10417056083679199,-0.6272878050804138,-67.9670181274414,0.3383420728809303,-0.21563697580041147,0.41407319729526837,-0.2635990137855211
0.14970317482948303,0.040442343801259995,-70.77296447753906,0.3383420728809303,-0.21563697580041147,0.41407319729526837,-0.2635990137855211
0.12182563543319702,1.6753394603729248,-73.51963806152344,0.3383420728809303,-0.21563697580041147,0.41407319729526837,-0.2635990137855211
-0.484970360994339,0.9653295278549194,-76.18147277832031,0.3383420728809303,-0.21563697580041147,0.41407319729526837,-0.2635990137855211
-0.1557338684797287,-0.006162711419165134,-78.83421325683594,0.3383420728809303,-0.21563697580041147,0.41407319729526837,-0.2635990137855211
0.08029940724372864,-0.35382646322250366,-81.48887634277344,0.3383420728809303,-0.21563697580041147,0.41407319729526837,-0.2635990137855211
-0.026071367785334587,1.5507264137268066,-84.08735656738281,0.3383420728809303,-0.21563697580041147,0.41407319729526837,-0.2635990137855211
0.3626618981361389,0.29292380809783936,-86.5208740234375,0.3383420728809303,-0.21563697580041147,0.41407319729526837,-0.2635990137855211
0.011884943582117558,1.3369132280349731,-89.04061126708984,0.3383420728809303,-0.21563697580041147,0.41407319729526837,-0.2635990137855211
-0.25863346457481384,0.43895336985588074,-91.5047836303711,0.3383420728809303,-0.21563697580041147,0.41407319729526837,-0.2635990137855211
1.9862581491470337,0.5625386834144592,-94.0822525024414,0.3383420728809303,-0.21563697580041147,0.41407319729526837,-0.2635990137855211
-1.2356674671173096,0.16773320734500885,-96.54581451416016,0.3383420728809303,-0.21563697580041147,0.41407319729526837,-0.2635990137855211
-0.42601141333580017,0.024388929829001427,-98.99435424804688,0.3383420728809303,-0.21563697580041147,0.41407319729526837,-0.2635990137855211
0.7637907862663269,0.27016764879226685,-101.28802490234375,0.3383420728809303,-0.21563697580041147,0.41407319729526837,-0.2635990137855211
1.8855912685394287,0.8335837721824646,-103.476318359375,0.3383420728809303,-0.21563697580041147,0.41407319729526837,-0.2635990137855211
0.9706606864929199,0.4529015123844147,-105.59037017822266,0.3383420728809303,-0.21563697580041147,0.41407319729526837,-0.2635990137855211
-0.6311946511268616,-0.6431578397750854,-107.5773696899414,0.3383420728809303,-0.21563697580041147,0.41407319729526837,-0.2635990137855211
-1.158071756362915,0.6419805884361267,-109.65042877197266,0.3383420728809303,-0.21563697580041147,0.41407319729526837,-0.2635990137855211
0.5182388424873352,0.24443480372428894,-111.74466705322266,0.3383420728809303,-0.21563697580041147,0.41407319729526837,-0.2635990137855211
-0.7420076727867126,-0.015537988394498825,-113.86326599121094,0.3383420728809303,-0.21563697580041147,0.41407319729526837,-0.2635990137855211
1.7304517030715942,1.130702257156372,-116.00639343261719,0.3383420728809303,-0.21563697580041147,0.41407319729526837,-0.2635990137855211
-1.4943536520004272,0.3058229386806488,-118.17942810058594,0.3383420728809303,-0.21563697580041147,0.41407319729526837,-0.2635990137855211
0.9667423963546753,-0.20422488451004028,-120.46493530273438,0.3383420728809303,-0.21563697580041147,0.41407319729526837,-0.2635990137855211
-0.5767665505409241,0.08649668097496033,-122.81550598144531,0.3383420728809303,-0.21563697580041147,0.41407319729526837,-0.2635990137855211
0.5149419903755188,-0.05350402370095253,-125.24113464355469,0.3383420728809303,-0.21563697580041147,0.41407319729526837,-0.2635990137855211
-0.6668599843978882,0.8779677152633667,-127.73192596435547,0.3383420728809303,-0.21563697580041147,0.41407319729526837,-0.2635990137855211
-0.01727687194943428,-0.685850203037262,-129.9484100341797,0.3383420728809303,-0.21563697580041147,0.41407319729526837,-0.2635990137855211
-0.2052222043275833,-1.9173283576965332,-131.80514526367188,0.3383420728809303,-0.21563697580041147,0.41407319729526837,-0.2635990137855211
2.6728434562683105,-1.1761505603790283,-133.369384765625,0.3383420728809303,-0.21563697580041147,0.41407319729526837,-0.2635990137855211
0.22802577912807465,-0.53725266456604,-134.35218811035156,0.3383420728809303,-0.21563697580041147,0.41407319729526837,-0.2635990137855211
0.1994979828596115,-0.9301071166992188,-134.808837890625,0.3383420728809303,-0.21563697580041147,0.41407319729526837,-0.2635990137855211
1.2895588874816895,-1.9521909952163696,-135.00881958007812,0.3383420728809303,-0.21563697580041147,0.41407319729526837,-0.2635990137855211
-1.0883359909057617,0.1747797131538391,-134.9453125,0.3383420728809303,-0.21563697580041147,0.41407319729526837,-0.2635990137855211
-0.5012071132659912,-0.40188097953796387,-134.93104553222656,0.3383420728809303,-0.21563697580041147,0.41407319729526837,-0.2635990137855211
-0.06811925768852234,-0.5041266679763794,-134.94081115722656,0.3383420728809303,-0.21563697580041147,0.41407319729526837,-0.2635990137855211
-0.3670733869075775,0.6525118350982666,-134.93814086914062,0.3383420728809303,-0.21563697580041147,0.41407319729526837,-0.2635990137855211
0.37388136982917786,-0.12788215279579163,-134.921142578125,0.3383420728809303,-0.21563697580041147,0.41407319729526837,-0.2635990137855211
-0.09696513414382935,0.47424888610839844,-134.94171142578125,0.3383420728809303,-0.21563697580041147,0.41407319729526837,-0.2635990137855211
0.043880585581064224,0.11879163235425949,-134.92562866210938,0.3383420728809303,-0.21563697580041147,0.41407319729526837,-0.2635990137855211
-0.04685014486312866,0.062497932463884354,-134.9315643310547,0.3383420728809303,-0.21563697580041147,0.41407319729526837,-0.2635990137855211
-0.2263769805431366,0.04511646181344986,-134.9303741455078,0.3383420728809303,-0.21563697580041147,0.41407319729526837,-0.2635990137855211
-0.19468998908996582,-0.06282902508974075,-134.92514038085938,0.3383420728809303,-0.21563697580041147,0.41407319729526837,-0.2635990137855211
-0.18739530444145203,-0.0027812032494693995,-134.92910766601562,0.3383420728809303,-0.21563697580041147,0.41407319729526837,-0.2635990137855211
-0.12034519761800766,0.10469833761453629,-134.9253387451172,0.3383420728809303,-0.21563697580041147,0.41407319729526837,-0.2635990137855211
-0.022599348798394203,0.056747619062662125,-134.92556762695312,0.3383420728809303,-0.21563697580041147,0.41407319729526837,-0.2635990137855211
-0.07313966751098633,0.1510811746120453,-134.92535400390625,0.3383420728809303,-0.21563697580041147,0.41407319729526837,-0.2635990137855211
-0.08365114033222198,0.051878299564123154,-134.92344665527344,0.3383420728809303,-0.21563697580041147,0.41407319729526837,-0.2635990137855211
-0.15072394907474518,0.05110395327210426,-134.92523193359375,0.3383420728809303,-0.21563697580041147,0.41407319729526837,-0.2635990137855211
-0.1478671133518219,0.04498351737856865,-134.9218292236328,0.3383420728809303,-0.21563697580041147,0.41407319729526837,-0.2635990137855211
-0.10107952356338501,0.05009111016988754,-134.92137145996094,0.3383420728809303,-0.21563697580041147,0.41407319729526837,-0.2635990137855211
-0.08742568641901016,0.08348028361797333,-134.92147827148438,0.3383420728809303,-0.21563697580041147,0.41407319729526837,-0.2635990137855211
-0.07823104411363602,0.080152228474617,-134.92054748535156,0.3383420728809303,-0.21563697580041147,0.41407319729526837,-0.2635990137855211
-0.1140049621462822,0.050143495202064514,-134.9207305908203,0.3383420728809303,-0.21563697580041147,0.41407319729526837,-0.2635990137855211
-0.1168188527226448,0,-134.92076110839844,0.34522726340426335,-0.22002681050967002,0.41214966550469395,-0.2631811513255039
-0.11152999103069305,0,-134.92076110839844,0.3520805669374143,-0.22441316303176176,0.41024675847341613,-0.2631811513255039
-0.1818879097700119,0,-134.92593383789062,0.3588976366688601,-0.2287995155538535,0.4078016093000769,-0.2631811513255039
-0.5500302910804749,-0.41424205899238586,-134.92825317382812,0.3656435025043579,-0.2332146348855975,0.4017022909596562,-0.2666331684837738
-1.6318992376327515,-1.135399341583252,-134.9479217529297,0.3721870178030804,-0.2377661350131448,0.383519544887046,-0.2795468468219041
-2.3588507175445557,-2.3404476642608643,-134.9187469482422,0.3783018748043105,-0.24266662739113795,0.35026329526056843,-0.3085122385372717
-0.9250636100769043,-1.033654808998108,-134.8638916015625,0.3839115467859018,-0.24804281070517992,0.3228973425303896,-0.33662975914776316
-1.2224525213241577,-1.2039233446121216,-134.823486328125,0.38914403609672765,-0.25380869406275447,0.3050013747687141,-0.3552762437611817
-1.3707499504089355,-0.4686422348022461,-134.70654296875,0.3940473088378914,-0.25984611517956685,0.2833913541709383,-0.3692142902563014
-0.8794798254966736,-0.8074483871459961,-134.5817413330078,0.3986142321174136,-0.2660883040881405,0.2646394393717249,-0.3798483787725368
-1.311529517173767,-2.1788370609283447,-134.42825317382812,0.4028727360137013,-0.2726264913349102,0.24638102818280455,-0.404734090839823
-1.1707675457000732,-0.06810028851032257,-134.2678680419922,0.4068067047429374,-0.27952809683150714,0.22569521932552256,-0.42345856875181187
-0.7302993535995483,-0.9152088165283203,-134.2528076171875,0.4104362731970225,-0.2866540249985539,0.20985299516469239,-0.43165281129380056
-0.6759801506996155,-0.380263090133667,-134.16162109375,0.4138361648175244,-0.2939382018469688,0.1981339992955327,-0.44244841051598377
-1.2048338651657104,-1.598459005355835,-134.05276489257812,0.41700778605468153,-0.3014497532788664,0.18246054916332163,-0.45893776131172964
0.08530544489622116,-0.3346652090549469,-134.0376434326172,0.4199710501782182,-0.3092329607045071,0.1731311456610759,-0.47504712976515284
-1.6266217231750488,0,-134.11929321289062,0.42274953341991117,-0.3171736535067774,0.16028684334208568,-0.4778360065072774
-0.5032245516777039,-0.905839741230011,-134.21868896484375,0.4252730748176367,-0.3252004924861508,0.1425381243849794,-0.4853846710175275
-0.1417882889509201,-0.6758803725242615,-134.2749786376953,0.42760391766567607,-0.33340007867767585,0.13716301737974088,-0.4985656719654798
-0.6960909366607666,-0.2674139738082886,-134.3234100341797,0.42983178189800425,-0.3417750130955958,0.13018069049964348,-0.5064264581849177
-0.09608690440654755,-0.40929049253463745,-134.34913635253906,0.4319464477229242,-0.3502624474310627,0.1235792084907492,-0.5120656620711088
-1.1927440166473389,-0.2844831049442291,-134.34181213378906,0.4339165990504746,-0.358845053854295,0.11283895081530015,-0.5178471087167661
-1.227552890777588,0.9416836500167847,-134.34957885742188,0.43562917205660284,-0.3674302000728333,0.09266980992009244,-0.5123704375078282
0.1397218406200409,-1.6514897346496582,-134.25828552246094,0.4370981250656768,-0.37601899945384104,0.08360455116877955,-0.5182854882131022
0.5740221738815308,-0.651188850402832,-134.04576110839844,0.43854109980838574,-0.3848169991591325,0.08955241795629264,-0.537474476421873
-0.17701585590839386,-0.8719457983970642,-134.0692138671875,0.44006120999084986,-0.39388068033899704,0.09286080393940212,-0.5501672651618721
-1.1349998712539673,1.2676973342895508,-134.1640625,0.4415177778532314,-0.4030226520128135,0.08192733954638244,-0.5468693356961014
-0.6527597904205322,-1.201486349105835,-134.16693115234375,0.4427590835358326,-0.41213254295599966,0.06702934236576161,-0.5463175774862371
-0.3255828022956848,0.9951650500297546,-134.20431518554688,0.4438082987841011,-0.421252163782095,0.058876487426459796,-0.5480369216452045
-0.3986395001411438,0,-134.2146759033203,0.4447392803590951,-0.43031700379215193,0.052841301572819556,-0.5397438795616232
-1.1906089782714844,-0.17622129619121552,-134.14048767089844,0.4455096042409746,-0.43932497270819226,0.03959756425271432,-0.5412123903632167
-0.3157987594604492,-0.4575131833553314,-134.03530883789062,0.44606495199673285,-0.4483891885531033,0.027044166438281544,-0.5464935110261046
0.42912378907203674,0.36678481101989746,-134.0352783203125,0.44652355789776055,-0.45750371431828385,0.027988541685044773,-0.5472495807955665
-0.09655583649873734,-1.4832018613815308,-133.9976348876953,0.44701312858921777,-0.4667020696267073,0.03075994128982227,-0.5565530562152468
-0.46339038014411926,-0.34295859932899475,-133.926025390625,0.44748690912344796,-0.47610477059562184,0.026093722817798464,-0.5717710600545012
-0.6348116993904114,1.2281543016433716,-133.91375732421875,0.4478455404704436,-0.485572816339425,0.016942038821677375,-0.5643944292018813
0.17336289584636688,-0.5276724100112915,-133.93873596191406,0.44809586272833657,-0.4949307455836486,0.013096632125477004,-0.5585570801049473
-0.1399073302745819,0,-134.15211486816406,0.44831646323359253,-0.5042766741694262,0.01337542850524188,-0.5629543501883747
0.3018619120121002,-0.6176955699920654,-134.39004516601562,0.44855063388796723,-0.5137021421982597,0.014725050019721199,-0.5681018132716419
0.1390121579170227,-0.8811538815498352,-134.4329071044922,0.4488266676431521,-0.5232745925202553,0.01839900060246389,-0.5805922253678244
-0.41308459639549255,1.1560460329055786,-134.2362823486328,0.4491142848449655,-0.532932039876986,0.016115063615143307,-0.5783014574398598
-0.5979730486869812,0.38623306155204773,-134.00616455078125,0.44931265690208716,-0.5424632947860908,0.007689583239456026,-0.5654491316527129
-0.34623968601226807,-0.6017971634864807,-133.88082885742188,0.4493752462939462,-0.5519024167096037,-0.0001788562163710511,-0.5672454991688332
0.39526820182800293,-0.17085334658622742,-133.90597534179688,0.4493756701150495,-0.5614101646478393,0.00022971474876007277,-0.5736842534194391
0.5283629298210144,-0.1703462451696396,-134.0703125,0.44944363974500445,-0.5709952632875908,0.007926640845835217,-0.576527583350738
-1.1128662824630737,-0.373005747795105,-134.25677490234375,0.44953515991516824,-0.5806417891207256,0.0030557795738180554,-0.5810555166254442
-0.3923487067222595,-0.20202387869358063,-134.27305603027344,0.44948156075603846,-0.5903659803441003,-0.009487678669393054,-0.5858474301795166
-0.5030434727668762,1.1167670488357544,-134.2600860595703,0.44926125276575074,-0.6000665803491657,-0.016949280165135854,-0.5782245704283318
-0.8145267367362976,0.08923178166151047,-134.28138732910156,0.44926125276575074,-0.6000665803491657,-0.016949280165135854,-0.5782245704283318
2.217801809310913,0.37080132961273193,-134.17103576660156,0.44926125276575074,-0.6000665803491657,-0.016949280165135854,-0.5782245704283318
0.3933596909046173,-0.9408106207847595,-134.0741424560547,0.44926125276575074,-0.6000665803491657,-0.016949280165135854,-0.5782245704283318
1.0928940773010254,3.634669542312622,-134.48780822753906,0.44926125276575074,-0.6000665803491657,-0.016949280165135854,-0.5782245704283318
2.3334357738494873,1.253692388534546,-135.24713134765625,0.44926125276575074,-0.6000665803491657,-0.016949280165135854,-0.5782245704283318
0.7915555238723755,1.9240301847457886,-136.23440551757812,0.44926125276575074,-0.6000665803491657,-0.016949280165135854,-0.5782245704283318
2.4712367057800293,2.1545369625091553,-137.24998474121094,0.44926125276575074,-0.6000665803491657,-0.016949280165135854,-0.5782245704283318
-0.7798375487327576,0.989899754524231,-138.5838623046875,0.44926125276575074,-0.6000665803491657,-0.016949280165135854,-0.5782245704283318
1.3501694202423096,1.4024989604949951,-140.09530639648438,0.44926125276575074,-0.6000665803491657,-0.016949280165135854,-0.5782245704283318
2.0613858699798584,1.5643550157546997,-141.68484497070312,0.44926125276575074,-0.6000665803491657,-0.016949280165135854,-0.5782245704283318
1.0258015394210815,0.7555655241012573,-143.28065490722656,0.44926125276575074,-0.6000665803491657,-0.016949280165135854,-0.5782245704283318
0.7950177788734436,1.200452208518982,-144.89964294433594,0.44926125276575074,-0.6000665803491657,-0.016949280165135854,-0.5782245704283318
-0.5093127489089966,1.1001026630401611,-146.53598022460938,0.44926125276575074,-0.6000665803491657,-0.016949280165135854,-0.5782245704283318
0.6496555209159851,0.9011009931564331,-148.19642639160156,0.44926125276575074,-0.6000665803491657,-0.016949280165135854,-0.5782245704283318
0.8956819176673889,1.3625520467758179,-149.94227600097656,0.44926125276575074,-0.6000665803491657,-0.016949280165135854,-0.5782245704283318
0.4072979986667633,1.1639074087142944,-151.76730346679688,0.44926125276575074,-0.6000665803491657,-0.016949280165135854,-0.5782245704283318
0.8185549974441528,0.9257497191429138,-153.6609649658203,0.44926125276575074,-0.6000665803491657,-0.016949280165135854,-0.5782245704283318
-0.13376641273498535,0.9604698419570923,-155.6616973876953,0.44926125276575074,-0.6000665803491657,-0.016949280165135854,-0.5782245704283318
0.6465263366699219,0.4441283941268921,-157.68943786621094,0.44926125276575074,-0.6000665803491657,-0.016949280165135854,-0.5782245704283318
0.26068803668022156,1.2308729887008667,-159.71505737304688,0.44926125276575074,-0.6000665803491657,-0.016949280165135854,-0.5782245704283318
0.12161234021186829,1.4953426122665405,-161.73617553710938,0.44926125276575074,-0.6000665803491657,-0.016949280165135854,-0.5782245704283318
1.3323657512664795,0.44756606221199036,-163.7275390625,0.44926125276575074,-0.6000665803491657,-0.016949280165135854,-0.5782245704283318
0.34739115834236145,0.33157879114151,-165.5717010498047,0.44926125276575074,-0.6000665803491657,-0.016949280165135854,-0.5782245704283318
1.0051720142364502,-0.3412572145462036,-167.3441162109375,0.44926125276575074,-0.6000665803491657,-0.016949280165135854,-0.5782245704283318
-0.6732622981071472,1.6926391124725342,-168.970947265625,0.44926125276575074,-0.6000665803491657,-0.016949280165135854,-0.5782245704283318
-0.8771650195121765,1.6640616655349731,-170.5797576904297,0.44926125276575074,-0.6000665803491657,-0.016949280165135854,-0.5782245704283318
0.6254305243492126,0.4871769845485687,-172.2999267578125,0.44926125276575074,-0.6000665803491657,-0.016949280165135854,-0.5782245704283318
0.8521293997764587,0.5132428407669067,-174.0270538330078,0.44926125276575074,-0.6000665803491657,-0.016949280165135854,-0.5782245704283318
1.1640725135803223,0.21491514146327972,-175.7697296142578,0.44926125276575074,-0.6000665803491657,-0.016949280165135854,-0.5782245704283318
-0.3786475956439972,1.0599397420883179,-177.669921875,0.44926125276575074,-0.6000665803491657,-0.016949280165135854,-0.5782245704283318
0.4525670111179352,-0.556510865688324,-179.6790771484375,0.44926125276575074,-0.6000665803491657,-0.016949280165135854,-0.5782245704283318
0.13914158940315247,0.06682472676038742,178.29290771484375,0.44926125276575074,-0.6000665803491657,-0.016949280165135854,-0.5782245704283318
1.138244867324829,0.20390523970127106,176.1872100830078,0.44926125276575074,-0.6000665803491657,-0.016949280165135854,-0.5782245704283318
0.8611470460891724,1.244217038154602,174.07647705078125,0.44926125276575074,-0.6000665803491657,-0.016949280165135854,-0.5782245704283318
0.9664862155914307,-0.4689583480358124,171.84678649902344,0.44926125276575074,-0.6000665803491657,-0.016949280165135854,-0.5782245704283318
-0.4725393056869507,0.6074295043945312,169.51699829101562,0.44926125276575074,-0.6000665803491657,-0.016949280165135854,-0.5782245704283318
-0.5623897314071655,0.17633609473705292,167.31741333007812,0.44926125276575074,-0.6000665803491657,-0.016949280165135854,-0.5782245704283318
1.7737998962402344,-0.1882038414478302,165.0390625,0.44926125276575074,-0.6000665803491657,-0.016949280165135854,-0.5782245704283318
-0.9614227414131165,0.853908896446228,162.79742431640625,0.44926125276575074,-0.6000665803491657,-0.016949280165135854,-0.5782245704283318
1.0104188919067383,-0.1574830859899521,160.53704833984375,0.44926125276575074,-0.6000665803491657,-0.016949280165135854,-0.5782245704283318
0.8350549340248108,-0.7069753408432007,158.15127563476562,0.44926125276575074,-0.6000665803491657,-0.016949280165135854,-0.5782245704283318
-0.45741862058639526,0.87262362241745,155.78057861328125,0.44926125276575074,-0.6000665803491657,-0.016949280165135854,-0.5782245704283318
0.15843451023101807,0.5705111026763916,153.46633911132812,0.44926125276575074,-0.6000665803491657,-0.016949280165135854,-0.5782245704283318
1.0127695798873901,-0.20643220841884613,151.08599853515625,0.44926125276575074,-0.6000665803491657,-0.016949280165135854,-0.5782245704283318
0.14150194823741913,-1.013354778289795,148.73123168945312,0.44926125276575074,-0.6000665803491657,-0.016949280165135854,-0.5782245704283318
0.7680025100708008,-0.36976706981658936,146.39405822753906,0.44926125276575074,-0.6000665803491657,-0.016949280165135854,-0.5782245704283318
-0.1761278361082077,-1.3696990013122559,144.10830688476562,0.44926125276575074,-0.6000665803491657,-0.016949280165135854,-0.5782245704283318
-0.6833503246307373,0.8073117136955261,142.1461181640625,0.44926125276575074,-0.6000665803491657,-0.016949280165135854,-0.5782245704283318
0.2838352918624878,-1.798140287399292,140.5564422607422,0.44926125276575074,-0.6000665803491657,-0.016949280165135854,-0.5782245704283318
-1.9708353281021118,-0.7193093299865723,139.32505798339844,0.44926125276575074,-0.6000665803491657,-0.016949280165135854,-0.5782245704283318
-0.9537456631660461,-0.5322026610374451,138.54937744140625,0.44926125276575074,-0.6000665803491657,-0.016949280165135854,-0.5782245704283318
-1.10017728805542,-0.3503919541835785,138.1900634765625,0.44926125276575074,-0.6000665803491657,-0.016949280165135854,-0.5782245704283318
-1.1031227111816406,-0.13342685997486115,138.19650268554688,0.44926125276575074,-0.6000665803491657,-0.016949280165135854,-0.5782245704283318
0.9493950009346008,0.0988127589225769,138.27899169921875,0.44926125276575074,-0.6000665803491657,-0.016949280165135854,-0.5782245704283318
0.7114090919494629,-0.6231280565261841,138.26425170898438,0.44926125276575074,-0.6000665803491657,-0.016949280165135854,-0.5782245704283318
0.1270725578069687,0.02939034067094326,138.24171447753906,0.44926125276575074,-0.6000665803491657,-0.016949280165135854,-0.5782245704283318
0.14207130670547485,0.35137227177619934,138.29002380371094,0.44926125276575074,-0.6000665803491657,-0.016949280165135854,-0.5782245704283318
-0.3914671838283539,0.2078487128019333,138.298095703125,0.44926125276575074,-0.6000665803491657,-0.016949280165135854,-0.5782245704283318
-0.05657073110342026,0.4037669003009796,138.2803192138672,0.44926125276575074,-0.6000665803491657,-0.016949280165135854,-0.5782245704283318
0.12826910614967346,0.11270617693662643,138.29266357421875,0.44926125276575074,-0.6000665803491657,-0.016949280165135854,-0.5782245704283318
0.17044863104820251,-0.10989789664745331,138.28103637695312,0.44926125276575074,-0.6000665803491657,-0.016949280165135854,-0.5782245704283318
0.2444581836462021,0.10929862409830093,138.27529907226562,0.44926125276575074,-0.6000665803491657,-0.016949280165135854,-0.5782245704283318
0.017597852274775505,0.14564597606658936,138.28707885742188,0.44926125276575074,-0.6000665803491657,-0.016949280165135854,-0.5782245704283318
-0.024069886654615402,0.18663141131401062,138.2823028564453,0.44926125276575074,-0.6000665803491657,-0.016949280165135854,-0.5782245704283318
0.07067523896694183,0.17590606212615967,138.28207397460938,0.44926125276575074,-0.6000665803491657,-0.016949280165135854,-0.5782245704283318
0.0934930294752121,0.05228383094072342,138.2841033935547,0.44926125276575074,-0.6000665803491657,-0.016949280165135854,-0.5782245704283318
0.15444956719875336,0.0666772872209549,138.28103637695312,0.44926125276575074,-0.6000665803491657,-0.016949280165135854,-0.5782245704283318
0.07550876587629318,0.1311722844839096,138.28395080566406,0.44926125276575074,-0.6000665803491657,-0.016949280165135854,-0.5782245704283318
0.006373847369104624,0.16212674975395203,138.28305053710938,0.44926125276575074,-0.6000665803491657,-0.016949280165135854,-0.5782245704283318
0.06691672652959824,0.15885674953460693,138.28158569335938,0.44926125276575074,-0.6000665803491657,-0.016949280165135854,-0.5782245704283318
0.1058744564652443,0.09283170849084854,138.28179931640625,0.44926125276575074,-0.6000665803491657,-0.016949280165135854,-0.5782245704283318
0.10670144110918045,0.08363602310419083,138.28077697753906,0.44926125276575074,-0.6000665803491657,-0.016949280165135854,-0.5782245704283318
0.07491517066955566,0.126704141497612,138.28111267089844,0.44926125276575074,-0.6000665803491657,-0.016949280165135854,-0.5782245704283318
0.04770764708518982,0.1408008337020874,138.2808074951172,0.44926125276575074,-0.6000665803491657,-0.016949280165135854,-0.5782245704283318
0.059872668236494064,0.1356257200241089,138.28125,0.44898623561822915,-0.609684460234518,-0.016052777537455154,-0.5759210158139468
-0.27097657322883606,0.2520486116409302,138.29205322265625,0.448704029332536,-0.6192562220028294,-0.01781197674572467,-0.5726903963834048
-1.4239306449890137,1.3155231475830078,138.4160919189453,0.44828946116328655,-0.6286922027926066,-0.03193620356420675,-0.559627298389872
-2.4671967029571533,1.939444661140442,138.58827209472656,0.4474869739269424,-0.6377932850012765,-0.06436226479709148,-0.53250256665051
-0.9603959321975708,2.1247775554656982,138.64259338378906,0.4461762422473274,-0.646386090124854,-0.09292553675671418,-0.49863404817879214
-1.11005437374115,0.9594967365264893,138.7092742919922,0.4444837020301364,-0.6544824718797789,-0.11017928930620352,-0.4729317624121906
-1.4012744426727295,0.2730178236961365,138.88609313964844,0.44247298270722646,-0.6622790766310778,-0.13110702944298586,-0.4626608077436687
-1.1206222772598267,1.0746791362762451,138.9799041748047,0.4401127338331814,-0.6698965000268075,-0.15212283544242383,-0.45142999974389886
0,2.093759059906006,139.0355682373047,0.43749953225099797,-0.677200302925582,-0.16146135441958906,-0.42502634810904677
-1.4056751728057861,0.8076247572898865,139.11465454101562,0.4347108933458933,-0.6840825904067608,-0.1731753141929706,-0.40084814963241433
-0.588854193687439,0.21693803369998932,139.08314514160156,0.43168612912555954,-0.6906922427068156,-0.1897963922470808,-0.39231012637416535
-1.3044127225875854,1.5682120323181152,139.10189819335938,0.42839137905225577,-0.6971067760584672,-0.20557361654937267,-0.3774338758240145
-0.8225969672203064,0.07853162288665771,139.14732360839844,0.4248174431035296,-0.7032829834572559,-0.22329869729777177,-0.3637110120306414
0.49132484197616577,0.9753389954566956,139.1092071533203,0.42107279313986923,-0.7092716481981595,-0.22605929834147295,-0.3549287568777801
-0.1360897421836853,1.4543840885162354,139.13392639160156,0.4173298072716636,-0.7150183967097354,-0.22309900584320227,-0.334681064511339
-1.1221227645874023,0.41862139105796814,139.234619140625,0.41352411463908445,-0.7204663446266206,-0.23358411006629468,-0.3190726855148873
-0.757625162601471,0.9466850161552429,139.38168334960938,0.4095005080874803,-0.7256894097735901,-0.24924867612620194,-0.3076951321214439
-0.30421680212020874,0.7486728429794312,139.40115356445312,0.405272624460049,-0.730699928790952,-0.25809735916554927,-0.2935671499619883
0.22266733646392822,0.5074153542518616,139.33631896972656,0.40096533864995265,-0.7355054862766219,-0.25877693804601826,-0.2830997483183942
-0.2229803055524826,0.06488127261400223,139.34349060058594,0.3966523679485545,-0.7401840725939517,-0.2587795461217562,-0.2783306097611786
-0.510861873626709,0.20996370911598206,139.40321350097656,0.3922884142507489,-0.7448038296329067,-0.26489489761491614,-0.2760402349134288
-1.7352772951126099,-0.21624301373958588,139.413818359375,0.3877175174037823,-0.7494049362776183,-0.2836127240210771,-0.2760925624519588
-0.7919393181800842,0.8355190753936768,139.364990234375,0.3828151375163968,-0.7539634737030916,-0.3046728624651829,-0.2709319286048414
0,0.9487370848655701,139.2286376953125,0.3776822606893257,-0.7583550991687098,-0.31127235678335025,-0.25606312726934766
0.5180107355117798,-0.4101359248161316,139.028076171875,0.3725303610440137,-0.7625854150981954,-0.3069556006540854,-0.25157478426893565
0.12308327853679657,1.7682260274887085,138.85806274414062,0.3674589547840879,-0.7666840163566587,-0.30161315053701393,-0.24025736674666417
-0.2836143970489502,-0.12378121167421341,138.8994598388672,0.3624209209474632,-0.7705741082457827,-0.30295090985794854,-0.22655365994821006
-0.7007945775985718,0,138.9955596923828,0.35730337738214685,-0.7743585984957302,-0.3111543179800112,-0.22758517004549517
1.0284771919250488,0.20649012923240662,139.03981018066406,0.352140227819586,-0.7781373450708473,-0.3084236295272906,-0.22586441896855844
-0.9669631123542786,0.4874033033847809,139.08682250976562,0.34700410580521246,-0.7818535650097249,-0.30791101219753414,-0.22008197369674853
-1.3873870372772217,-0.2340836077928543,138.8719024658203,0.34170875906375137,-0.7855040062591435,-0.3275305967777966,-0.21797097623348247
0.27764713764190674,0,138.803466796875,0.3361728505133134,-0.7891531116691316,-0.3367784292747576,-0.21992167296508958
0.6105499267578125,0.7138503193855286,138.90121459960938,0.3306215570437619,-0.7927688999463702,-0.3293767870714266,-0.2139729203035435
1.474246859550476,0.2394719272851944,138.93458557128906,0.3252767214805095,-0.7962689123509661,-0.3120034805188575,-0.20602856824795415
-0.39842647314071655,0.7303495407104492,138.9088592529297,0.32015137322091813,-0.79963537310871,-0.3030383106321095,-0.1979467226813238
-0.05600089952349663,0.6938800811767578,138.95382690429688,0.31506917725394795,-0.8028355803185455,-0.3068252054043113,-0.1860781424989304
-1.9694137573242188,0,139.0564422607422,0.30981477003492836,-0.8058886965767793,-0.32370366087804225,-0.18029580848912408
-0.08935355395078659,-0.19124595820903778,139.0687255859375,0.30427673906812247,-0.8089069076875848,-0.3408600551386673,-0.18188952480753273
0.3130873143672943,0.9758456945419312,139.07949829101562,0.2986112752158403,-0.8118839136749094,-0.3389956071351964,-0.1753511936714253
0,-0.6742345690727234,139.1083984375,0.29298309060486255,-0.8147854883523867,-0.3363865461821356,-0.17283776762584857
-0.19920714199543,-0.41663920879364014,139.0869140625,0.28736281433918837,-0.8177418729362805,-0.33804660569876416,-0.1819283824414016
1.2172095775604248,0.16670337319374084,139.09523010253906,0.2817993988577899,-0.8207913692988872,-0.32956325206905585,-0.18401118107140077
0,0.5400266051292419,139.18667602539062,0.2763912064328584,-0.823809143846027,-0.31941983892271897,-0.1781217645853759
-1.0600842237472534,0.8359829187393188,139.38772583007812,0.2709939254908307,-0.8266822837055146,-0.32825387412061274,-0.16665501855313788
0.8156137466430664,0.09448640793561935,139.4550018310547,0.26550605047235487,-0.8293952514226033,-0.330291128096481,-0.1589011074975134
-0.16017180681228638,-0.2340528517961502,139.4668426513672,0.2600467151387907,-0.8320532953283855,-0.3248291119312245,-0.16006416119635117
-0.2984103560447693,-0.9240784645080566,139.6061553955078,0.25460105062307187,-0.8348014571341791,-0.3286506299550333,-0.16971525549888622
0,0.22514133155345917,139.6901092529297,0.24910281718242933,-0.8376785820267268,-0.33113738292207306,-0.1755397316068412
-0.1345866322517395,0.20151181519031525,139.5892791748047,0.2435745145064884,-0.8405746155294281,-0.33225893819083757,-0.17198428871730975
-0.20859956741333008,0.20756588876247406,139.35488891601562,0.23801303316166436,-0.8434126121674977,-0.3351188231880465,-0.1685753078510365
0.055187005549669266,1.8724498748779297,139.21473693847656,0.23241706579173416,-0.84607775509254,-0.336397261203577,-0.15124184315403313
-0.35204780101776123,-1.0674437284469604,139.32266235351562,0.22678982943865592,-0.8485425492738273,-0.3388711011658111,-0.14453345860044173
0.6211695671081543,0,139.46238708496094,0.22116066676409313,-0.8510255682871991,-0.3366284197817245,-0.1534288230041664
0.34882229566574097,0.30347609519958496,139.5221710205078,0.21561755364709034,-0.8535616406084352,-0.3285451542586087,-0.15089985554416988
-1.2860195636749268,-1.5675442218780518,139.37179565429688,0.2100767179325018,-0.8561644207096352,-0.33635513149201857,-0.16143375659982376
0.8457766175270081,0.6985835433006287,139.2603302001953,0.20444022664748565,-0.8589153278112001,-0.3400238227099179,-0.16867509558796895
0.575835645198822,1.1530786752700806,139.23316955566406,0.1988718860094541,-0.8615979917502654,-0.3281770538538693,-0.1532445770998797
0.9128683805465698,-0.10993144661188126,139.21656799316406,0.19350565066923303,-0.8640796272554955,-0.3157711869726577,-0.14455168352772804
0.6854155659675598,0.7999343276023865,139.20086669921875,0.18835378949375223,-0.8664409051142221,-0.30245215408503995,-0.13880165951947382
-0.38769832253456116,-0.3942311704158783,139.26028442382812,0.1833335950675733,-0.8687260922758532,-0.2999711770564316,-0.1354207998762529
-2.243612289428711,-0.2931252419948578,139.3426971435547,0.17815134554635753,-0.8710308386913193,-0.3218987654894589,-0.1411487699796757
0.503856360912323,-0.17280004918575287,139.3017578125,0.17266554973760848,-0.8734156741139791,-0.3363967315604288,-0.14503148073951413
0.1494595855474472,0.530341625213623,139.33897399902344,0.16710430670788326,-0.8758080361835247,-0.3309524320065974,-0.14205196760594854
0.5210894346237183,-0.9253230690956116,139.3603057861328,0.1616349987452852,-0.8782029982438934,-0.32536452350517103,-0.14534347963829844
1.4618796110153198,1.4350614547729492,139.3296661376953,0.1616349987452852,-0.8782029982438934,-0.32536452350517103,-0.14534347963829844
0.05035911127924919,-0.5447225570678711,139.31275939941406,0.1616349987452852,-0.8782029982438934,-0.32536452350517103,-0.14534347963829844
0.9423906207084656,0.5979571342468262,139.34115600585938,0.1616349987452852,-0.8782029982438934,-0.32536452350517103,-0.14534347963829844
0.5252406001091003,-1.8260682821273804,139.25709533691406,0.1616349987452852,-0.8782029982438934,-0.32536452350517103,-0.14534347963829844
1.6157230138778687,-1.472014307975769,138.8598175048828,0.1616349987452852,-0.8782029982438934,-0.32536452350517103,-0.14534347963829844
2.0054585933685303,-1.2531205415725708,138.1455841064453,0.1616349987452852,-0.8782029982438934,-0.32536452350517103,-0.14534347963829844
1.415848731994629,0.2644556760787964,137.2612762451172,0.1616349987452852,-0.8782029982438934,-0.32536452350517103,-0.14534347963829844
2.364922285079956,-1.0808779001235962,136.11672973632812,0.1616349987452852,-0.8782029982438934,-0.32536452350517103,-0.14534347963829844
1.3276708126068115,-0.6726738810539246,134.83192443847656,0.1616349987452852,-0.8782029982438934,-0.32536452350517103,-0.14534347963829844
1.6485527753829956,-1.1349658966064453,133.42918395996094,0.1616349987452852,-0.8782029982438934,-0.32536452350517103,-0.14534347963829844
1.7933008670806885,-0.9390288591384888,131.90248107910156,0.1616349987452852,-0.8782029982438934,-0.32536452350517103,-0.14534347963829844
1.2260897159576416,-1.0499351024627686,130.2472686767578,0.1616349987452852,-0.8782029982438934,-0.32536452350517103,-0.14534347963829844
0.8941688537597656,-1.4888830184936523,128.48719787597656,0.1616349987452852,-0.8782029982438934,-0.32536452350517103,-0.14534347963829844
0.8818007707595825,-1.1895917654037476,126.693115234375,0.1616349987452852,-0.8782029982438934,-0.32536452350517103,-0.14534347963829844
0.6965394616127014,-1.5069987773895264,124.8172836303711,0.1616349987452852,-0.8782029982438934,-0.32536452350517103,-0.14534347963829844
1.708550214767456,-0.08817450702190399,122.90322875976562,0.1616349987452852,-0.8782029982438934,-0.32536452350517103,-0.14534347963829844
1.6752361059188843,-0.895494818687439,120.94644927978516,0.1616349987452852,-0.8782029982438934,-0.32536452350517103,-0.14534347963829844
1.4953769445419312,0.8527658581733704,119.117431640625,0.1616349987452852,-0.8782029982438934,-0.32536452350517103,-0.14534347963829844
0.5089648962020874,-2.2692954540252686,117.16024780273438,0.1616349987452852,-0.8782029982438934,-0.32536452350517103,-0.14534347963829844
0.31891927123069763,0.4751911163330078,115.17254638671875,0.1616349987452852,-0.8782029982438934,-0.32536452350517103,-0.14534347963829844
1.2902967929840088,-0.5439204573631287,113.11418151855469,0.1616349987452852,-0.8782029982438934,-0.32536452350517103,-0.14534347963829844
1.0787287950515747,-0.5255976319313049,111.00176239013672,0.1616349987452852,-0.8782029982438934,-0.32536452350517103,-0.14534347963829844
1.0740829706192017,0.6860276460647583,108.87894439697266,0.1616349987452852,-0.8782029982438934,-0.32536452350517103,-0.14534347963829844
0.45413509011268616,-1.4290366172790527,106.77041625976562,0.1616349987452852,-0.8782029982438934,-0.32536452350517103,-0.14534347963829844
1.3232676982879639,0.06710486114025116,104.6633071899414,0.1616349987452852,-0.8782029982438934,-0.32536452350517103,-0.14534347963829844
0.35353168845176697,-0.22140544652938843,102.61495208740234,0.1616349987452852,-0.8782029982438934,-0.32536452350517103,-0.14534347963829844
1.2227739095687866,-0.6571451425552368,100.59386444091797,0.1616349987452852,-0.8782029982438934,-0.32536452350517103,-0.14534347963829844
0.8589414954185486,-0.36184075474739075,98.57015991210938,0.1616349987452852,-0.8782029982438934,-0.32536452350517103,-0.14534347963829844
-0.06061150133609772,-1.819765329360962,96.54718017578125,0.1616349987452852,-0.8782029982438934,-0.32536452350517103,-0.14534347963829844
0.583702564239502,0.07327617704868317,94.55751037597656,0.1616349987452852,-0.8782029982438934,-0.32536452350517103,-0.14534347963829844
0.06140180304646492,-0.22471094131469727,92.56949615478516,0.1616349987452852,-0.8782029982438934,-0.32536452350517103,-0.14534347963829844
1.7464524507522583,0.8189242482185364,90.51487731933594,0.1616349987452852,-0.8782029982438934,-0.32536452350517103,-0.14534347963829844
-1.1824458837509155,-1.8379079103469849,88.55058288574219,0.1616349987452852,-0.8782029982438934,-0.32536452350517103,-0.14534347963829844
-0.20063132047653198,0.499327152967453,86.58123016357422,0.1616349987452852,-0.8782029982438934,-0.32536452350517103,-0.14534347963829844
0.7469722628593445,-1.6699339151382446,84.47321319580078,0.1616349987452852,-0.8782029982438934,-0.32536452350517103,-0.14534347963829844
0.8507243394851685,0.10257307440042496,82.3537826538086,0.1616349987452852,-0.8782029982438934,-0.32536452350517103,-0.14534347963829844
-2.1047627925872803,-0.7209339141845703,80.20796966552734,0.1616349987452852,-0.8782029982438934,-0.32536452350517103,-0.14534347963829844
1.9280633926391602,0.16765283048152924,78.04296875,0.1616349987452852,-0.8782029982438934,-0.32536452350517103,-0.14534347963829844
-0.5438175201416016,-0.8331013321876526,75.88055419921875,0.1616349987452852,-0.8782029982438934,-0.32536452350517103,-0.14534347963829844
0.07858195155858994,0.045932795852422714,73.66109466552734,0.1616349987452852,-0.8782029982438934,-0.32536452350517103,-0.14534347963829844
-0.3051663637161255,0.4614766240119934,71.4472885131836,0.1616349987452852,-0.8782029982438934,-0.32536452350517103,-0.14534347963829844
0.06441748142242432,-2.2538790702819824,69.14910888671875,0.1616349987452852,-0.8782029982438934,-0.32536452350517103,-0.14534347963829844
0.7892971634864807,0.16709931194782257,66.91114044189453,0.1616349987452852,-0.8782029982438934,-0.32536452350517103,-0.14534347963829844
0.6850683689117432,0.02751878648996353,64.65735626220703,0.1616349987452852,-0.8782029982438934,-0.32536452350517103,-0.14534347963829844
-1.0200999975204468,-0.12341291457414627,62.362510681152344,0.1616349987452852,-0.8782029982438934,-0.32536452350517103,-0.14534347963829844
0.34153372049331665,-1.1777491569519043,60.130104064941406,0.1616349987452852,-0.8782029982438934,-0.32536452350517103,-0.14534347963829844
-0.1448306143283844,-0.613379180431366,57.87202453613281,0.1616349987452852,-0.8782029982438934,-0.32536452350517103,-0.14534347963829844
0.5833060145378113,0.10148430615663528,55.652225494384766,0.1616349987452852,-0.8782029982438934,-0.32536452350517103,-0.14534347963829844
-1.1938986778259277,-0.41722238063812256,53.777835845947266,0.1616349987452852,-0.8782029982438934,-0.32536452350517103,-0.14534347963829844
0.007931231521070004,0.8854297995567322,52.224586486816406,0.1616349987452852,-0.8782029982438934,-0.32536452350517103,-0.14534347963829844
-0.8697829246520996,1.2275962829589844,50.99580001831055,0.1616349987452852,-0.8782029982438934,-0.32536452350517103,-0.14534347963829844
-0.05443338677287102,0.6021742224693298,50.05173110961914,0.1616349987452852,-0.8782029982438934,-0.32536452350517103,-0.14534347963829844
-0.9192810654640198,0.6241779923439026,49.485172271728516,0.1616349987452852,-0.8782029982438934,-0.32536452350517103,-0.14534347963829844
-0.5683783292770386,1.139053225517273,49.262908935546875,0.1616349987452852,-0.8782029982438934,-0.32536452350517103,-0.14534347963829844
0.740310788154602,1.011752724647522,49.35725402832031,0.1616349987452852,-0.8782029982438934,-0.32536452350517103,-0.14534347963829844
1.5657950639724731,0.804272472858429,49.372406005859375,0.1616349987452852,-0.8782029982438934,-0.32536452350517103,-0.14534347963829844
0.4888952076435089,0.8005155324935913,49.3553352355957,0.1616349987452852,-0.8782029982438934,-0.32536452350517103,-0.14534347963829844
0.2828787863254547,-0.4771641790866852,49.34724426269531,0.1616349987452852,-0.8782029982438934,-0.32536452350517103,-0.14534347963829844
-0.19810599088668823,-0.10435132682323456,49.358882904052734,0.1616349987452852,-0.8782029982438934,-0.32536452350517103,-0.14534347963829844
-0.19107675552368164,-0.7795793414115906,49.36186981201172,0.1616349987452852,-0.8782029982438934,-0.32536452350517103,-0.14534347963829844
-0.11996337026357651,-0.3018363118171692,49.3617057800293,0.1616349987452852,-0.8782029982438934,-0.32536452350517103,-0.14534347963829844
0.29204607009887695,-0.05538759380578995,49.35186767578125,0.1616349987452852,-0.8782029982438934,-0.32536452350517103,-0.14534347963829844
0.3815177381038666,0.22793622314929962,49.35407638549805,0.1616349987452852,-0.8782029982438934,-0.32536452350517103,-0.14534347963829844
0.37391358613967896,0.045570388436317444,49.3551139831543,0.1616349987452852,-0.8782029982438934,-0.32536452350517103,-0.14534347963829844
0.23851312696933746,0.012694292701780796,49.35392761230469,0.1616349987452852,-0.8782029982438934,-0.32536452350517103,-0.14534347963829844
0.14222319424152374,-0.2140897512435913,49.35251235961914,0.1616349987452852,-0.8782029982438934,-0.32536452350517103,-0.14534347963829844
0.0996876135468483,-0.12386755645275116,49.35023498535156,0.1616349987452852,-0.8782029982438934,-0.32536452350517103,-0.14534347963829844
0.2100355178117752,-0.09849808365106583,49.3494987487793,0.1616349987452852,-0.8782029982438934,-0.32536452350517103,-0.14534347963829844
0.26949387788772583,0.034053653478622437,49.348976135253906,0.1616349987452852,-0.8782029982438934,-0.32536452350517103,-0.14534347963829844
0.22022782266139984,-0.059098657220602036,49.34720230102539,0.1616349987452852,-0.8782029982438934,-0.32536452350517103,-0.14534347963829844
0.16481614112854004,-0.10279077291488647,49.34882736206055,0.1616349987452852,-0.8782029982438934,-0.32536452350517103,-0.14534347963829844
0.15830698609352112,-0.10477443784475327,49.34760665893555,0.1616349987452852,-0.8782029982438934,-0.32536452350517103,-0.14534347963829844
0.21946312487125397,-0.056796420365571976,49.347633361816406,0.1616349987452852,-0.8782029982438934,-0.32536452350517103,-0.14534347963829844
0.23387470841407776,-0.02351268194615841,49.34810256958008,0.1616349987452852,-0.8782029982438934,-0.32536452350517103,-0.14534347963829844
0.2113562524318695,-0.07672464847564697,49.34830856323242,0.1616349987452852,-0.8782029982438934,-0.32536452350517103,-0.14534347963829844
0.18094143271446228,-0.08960112184286118,49.34907531738281,0.1562394995816675,-0.880636939971915,-0.3220953761289516,-0.14672952772428602
0.18948966264724731,-0.07437176257371902,49.347904205322266,0.15089696769447397,-0.8830938191065153,-0.3190084503342707,-0.14809596842775752
0.2501075565814972,0,49.34832000732422,0.14561068777357145,-0.8855672499527122,-0.3153451401740312,-0.14871573311587186
0.9161141514778137,0.9889148473739624,49.4163818359375,0.14043592305595282,-0.8879771708624646,-0.3056266259402036,-0.14047477605442216
1.04266357421875,1.8178998231887817,49.64366912841797,0.13547817218790056,-0.8901234994445826,-0.2893034782260656,-0.11708465379973262
1.0345669984817505,1.2768466472625732,49.88792037963867,0.13080069967390368,-0.8918599973919079,-0.2719932234535615,-0.09129509987930466
1.7842215299606323,0.8658707737922668,49.96120071411133,0.12646322848637503,-0.8932327825689897,-0.24850331904987494,-0.07343912137051432
2.209813117980957,0.9494308233261108,49.79705047607422,0.12259887001942862,-0.894330705314254,-0.21521969698369503,-0.05831160806119451
1.103854775428772,1.4757404327392578,49.72311019897461,0.1192419908956316,-0.8951341507780471,-0.18760579787194728,-0.03810184759398311
1.2291772365570068,1.4212089776992798,49.780479431152344,0.11627724370970927,-0.8955680045288886,-0.16816386443873246,-0.013960602506995295
0.3399299085140228,0.4513036012649536,49.856300354003906,0.11358347840969366,-0.8956706456415772,-0.15508797156314055,0.0016436689843733164
1.3422915935516357,1.79364812374115,49.947322845458984,0.11111549982128475,-0.8954873517331566,-0.14106945904592674,0.020351600026090846
0.6916837096214294,0.2093326598405838,50.02796936035156,0.10890559045546189,-0.8950090625116397,-0.12411966485281786,0.03704310655593863
1.4643571376800537,1.2371553182601929,50.079307556152344,0.10698665443342197,-0.8942912268483393,-0.10615265779197217,0.04909717304011177
1.492675542831421,0.439608097076416,50.17934036254883,0.10542279296192461,-0.8933564987271613,-0.08151071878770988,0.06307020150125017
-0.15322045981884003,0.49339932203292847,50.21617126464844,0.10415729869622754,-0.8922405365202578,-0.07034859309593837,0.07084526332716137
0.5738938450813293,1.594003438949585,50.18683624267578,0.10301403557416068,-0.8909148236064035,-0.06684298155208429,0.08824028633534899
1.1578631401062012,-0.20361188054084778,50.22457504272461,0.10202024678337508,-0.889347597198147,-0.0524116733421882,0.09982688265542179
0.9171796441078186,0.3144184947013855,50.268402099609375,0.1012908190876868,-0.8876761209167955,-0.035119650140404704,0.1007502711067596
-0.4404921233654022,0.3209024965763092,50.24876022338867,0.10073859488539828,-0.8859528302183997,-0.0311472541342179,0.10604461270074039
1.5439056158065796,0.7143653631210327,50.32526779174805,0.1002960999201364,-0.8841135264053528,-0.021952141697208088,0.11467184486488491
0.7885561585426331,-0.3097414970397949,50.392032623291016,0.10009220740395718,-0.8821742301113491,-0.0025149602442979813,0.11804371041556189
0,0.08109061419963837,50.499996185302734,0.10010505224422878,-0.880222713471287,0.004056341076890627,0.11613828639189391
0.7809656262397766,1.6837096214294434,50.50809860229492,0.10022689165288805,-0.8781645197928367,0.010564387962222099,0.13084495502213625
-0.33028650283813477,-0.13877376914024353,50.47610855102539,0.10043426194693908,-0.8758764833305033,0.014320047323902447,0.14371942045787958
1.3808505535125732,0.44518592953681946,50.40263748168945,0.10074588523918984,-0.8734598810339556,0.023074747746189436,0.14627285512785104
0.20734211802482605,-0.2620009779930115,50.33308410644531,0.10124075552603864,-0.8710092789379675,0.036309686675667766,0.1477993963907161
0.4237813353538513,-0.35601457953453064,50.313865661621094,0.10188974498822885,-0.8685888734118394,0.04156904878715674,0.14264926674465325
0.6089682579040527,-0.0664815828204155,50.35613250732422,0.10265428118976881,-0.8662407256440365,0.05017529539763928,0.13912846539169538
0.7176868915557861,0.9312757253646851,50.373558044433594,0.1035826649428864,-0.8638618627387205,0.06123075497647127,0.14633508324623096
0.44156214594841003,0.28354698419570923,50.379066467285156,0.10468368093120982,-0.8613385819964526,0.07089116362233958,0.1564586058259009
1.0678813457489014,-0.15956901013851166,50.40013885498047,0.10597002278961667,-0.8587223289844892,0.08346985938648384,0.15749175560971088
-1.0343762636184692,0.6238846182823181,50.35420608520508,0.10736351385453935,-0.8560652222515396,0.08374906840423745,0.16136105234424258
-0.24941220879554749,-0.295051246881485,50.276546478271484,0.10867017968402566,-0.8533530357283439,0.07305083113412064,0.16410133043924952
0.5751192569732666,-0.27145248651504517,50.28481674194336,0.10991031208127335,-0.8506573540913978,0.07576505653560163,0.15938046599427844
1.0827341079711914,0.4635688364505768,50.465576171875,0.11128819172943229,-0.8479876715783031,0.08958050124347211,0.16098143557707453
-0.09120482206344604,0.24529479444026947,50.66449737548828,0.11285005628390042,-0.8452554210109845,0.09784324529270333,0.16688863250116492
0.8468671441078186,0.27654045820236206,50.76673889160156,0.11453325358892077,-0.8424377052434204,0.10414043130973977,0.1712372596065202
-0.17235510051250458,-0.16268399357795715,50.66643142700195,0.11631576855822166,-0.8395758442177128,0.10976136500636738,0.17218606347839024
0.430825412273407,0.43167582154273987,50.51071548461914,0.11816307396886674,-0.8366873965050199,0.11191528427104157,0.17442766204476343
0,0.5602917671203613,50.47856140136719,0.12005824713812531,-0.8337113821661722,0.11550549603998662,0.18269405861695592
0,0.45845749974250793,50.5817756652832,0.12198333873879175,-0.8305957347123575,0.11550549603998662,0.19118363584081316
0.7359081506729126,0.3070598542690277,50.715370178222656,0.12395953507214381,-0.8273561798543153,0.1216380639622609,0.19756294712424263
-1.3576878309249878,-0.7891957759857178,50.77033996582031,0.12594365699371954,-0.8240969457301416,0.11645656662682694,0.19354514777660356
1.294842004776001,0.22673751413822174,50.663719177246094,0.12788023547735075,-0.8209102528687153,0.11593285140891871,0.18885799559454108
0.9991257190704346,-1.3508579730987549,50.61825180053711,0.1299717529816554,-0.8178406835295675,0.135049249107639,0.1794903251032033
-0.20240022242069244,1.4727259874343872,50.6407585144043,0.13227790195960562,-0.8148407150546297,0.14168862824638684,0.18050589188933358
0.7066344022750854,-0.835296630859375,50.68082046508789,0.1346743953595353,-0.8117880175956009,0.14589057974517344,0.18581780319412536
0.3276903033256531,-0.070062555372715,50.76769256591797,0.13717773312651046,-0.8087539263747427,0.15450995229184628,0.17827314330885793
-0.06411873549222946,0,50.812744140625,0.13977120257914077,-0.8057875727748294,0.15670638202379147,0.17768928868075198
-0.11686054617166519,0.4834209084510803,50.72459411621094,0.14237040760719952,-0.80279251373373,0.15519822134325903,0.18171779625117765
0.5807573795318604,-0.41983139514923096,50.5936393737793,0.1449892596874594,-0.7997594678577866,0.15906402828792732,0.1822477088620264
-0.1903042048215866,-0.6551982760429382,50.58129119873047,0.14766744162939086,-0.7967966608816968,0.16231780474384627,0.17328912826875834
0.40047988295555115,0,50.633235931396484,0.15038733390832537,-0.7939540086241649,0.16406926872829597,0.16782914263506718
0.46402066946029663,0.6515007019042969,50.67408752441406,0.15318185648104807,-0.7911116131426148,0.17127343999842803,0.17325831515093632
0.4055179953575134,-0.2052980363368988,50.62815475463867,0.15609679844385643,-0.788192988260546,0.17851959553857646,0.1769766706973313
1.8328639268875122,-0.978398323059082,50.483333587646484,0.15922756822521084,-0.7853255782183263,0.19717277822395168,0.16711253436903148
-1.3143993616104126,0.6546794772148132,50.34019470214844,0.16254978567930983,-0.7825628497875816,0.20149331626792752,0.16441487732032925
-0.4345366358757019,-0.34650757908821106,50.23849868774414,0.16578655372839432,-0.779801201005984,0.1869188496222099,0.16698297647138427
0.5331541895866394,0.39554455876350403,50.346866607666016,0.1689087163299944,-0.7770147460523169,0.18774066256980104,0.16739161796867838
0.2730438709259033,-0.5291962027549744,50.51689529418945,0.17209371334924892,-0.774234167117005,0.1944589797407389,0.16627785426874947
-0.19131219387054443,-0.1002211943268776,50.56426239013672,0.17534037215583453,-0.7715065790873232,0.19514007704953354,0.16103270929306737
0,-0.094058096408844,50.37688064575195,0.17857942120430798,-0.7688361922165177,0.193545808767279,0.15941371520360303
-0.05346222594380379,0.7757157683372498,50.287635803222656,0.1818014720291832,-0.766131959624796,0.1931002902177473,0.1650941958030064
-0.2927752435207367,1.439988613128662,50.4376220703125,0.18499576593076617,-0.7632265213349219,0.19021497797220946,0.183558398981889
1.0153119564056396,-1.2661279439926147,50.575435638427734,0.18821619172425333,-0.7601551410276448,0.1962361172462503,0.18500723789135606
-0.7655149102210999,-0.3822946846485138,50.599483489990234,0.19150414069545366,-0.7571861608564445,0.19831775929778814,0.17127038265268
-0.582574188709259,0.26733407378196716,50.594932556152344,0.1947158193852133,-0.7543396378546545,0.18708368347336848,0.17031237756212544
2.2212018966674805,-1.4442028999328613,50.49440383911133,0.19794767436726654,-0.7515828252304352,0.20073891437302033,0.16050513734420133
-0.6555939316749573,0.40679439902305603,50.507747650146484,0.2014020457154969,-0.7489797818650394,0.2137856474146247,0.1518600665032863
1.2638081312179565,-0.12515579164028168,50.71293258666992,0.20500737693626447,-0.7464292225200275,0.21885409907748302,0.15420705489814274
-0.36783918738365173,0.07143060863018036,50.941123962402344,0.20871716531976658,-0.7438628358538786,0.2263205069427689,0.15375934503972521
0,0.8829691410064697,51.052249908447266,0.2124636293808,-0.741233902342825,0.22325518038123845,0.1617126762866973
-0.7975724935531616,-0.23986086249351501,50.98308181762695,0.21612916207510166,-0.7384940307742611,0.2166087429349621,0.16707191194097193
0.3879612684249878,-0.06215986981987953,50.88063430786133,0.21971086256671712,-0.7357304725705445,0.213195316058894,0.16455507250502696
0.5305919051170349,-0.624918520450592,50.86866760253906,0.22332790624919466,-0.7330356018058961,0.22084992583841084,0.15882941925277302
0.6345850229263306,-0.37490466237068176,50.930606842041016,0.22708965341094897,-0.7304578769838236,0.23055973357210555,0.15049755939592907
-0.15139377117156982,0.4529404640197754,50.92069625854492,0.23096587058518925,-0.7279441651743325,0.23458632733672855,0.15114785774300485
0.7228636145591736,-0.5551076531410217,50.85326385498047,0.23491532811325885,-0.725432129155638,0.23934857603162524,0.1502964645003278
-0.45543915033340454,0,50.800193786621094,0.23892304219046828,-0.7229657372232118,0.24157711323350664,0.1456705673908193
-0.674229621887207,0,50.72330856323242,0.24287087819073364,-0.7205378944333648,0.23216320679833488,0.1456705673908193
0.2744506299495697,-0.48879948258399963,50.77585220336914,0.24671250254071023,-0.7181439960520306,0.22883171519885456,0.14159723836928598
0.20117047429084778,-0.34840628504753113,50.889930725097656,0.2505593937040412,-0.715842181368628,0.23279522440085804,0.13462052363902322
0.5458317399024963,0.8055078387260437,50.986515045166016,0.25449118926448555,-0.7135667628111944,0.23902024285246923,0.13842970325301082
0.35880836844444275,-0.20217221975326538,50.98688507080078,0.2585376822084397,-0.7112177027834378,0.24655891042202704,0.14345750007778396
-0.09109260886907578,-0.1412542164325714,50.92174530029297,0.2626655887543329,-0.7088505935068765,0.2487898750851551,0.14059561310956867
0,0.6896820068359375,50.900238037109375,0.2668057607968029,-0.7064692480251612,0.24803077001124613,0.1451658446962634
0.9595699310302734,0.5298248529434204,50.99448013305664,0.271006243764423,-0.7039651293038499,0.25602718610316505,0.15532840186109137
-0.2690086364746094,0.27749648690223694,51.10005569458008,0.27532131917826436,-0.7013202586242313,0.2617818635577956,0.1620560796931385
-1.4573689699172974,-0.9415661096572876,51.132835388183594,0.27956446290378373,-0.6986654399087037,0.2473953835045297,0.15652216617017975
-0.12324114888906479,0.9608848690986633,50.94490051269531,0.2835779547039421,-0.6960553955586839,0.23422363251447667,0.15668315583219122
1.8072842359542847,-2.0182507038116455,50.804954528808594,0.28759862934911845,-0.6935174378111135,0.24825732490668684,0.1478717738762497
-0.6278021931648254,0.6305358409881592,50.80139923095703,0.2918181599060903,-0.6911492773342054,0.25808634192993235,0.13630748335272064
0.9120327234268188,-0.4083782136440277,50.900794982910156,0.296139337169524,-0.6888620583319833,0.26045492968211564,0.13815879691392174
0.3813239634037018,-0.4940585792064667,50.986427307128906,0.3005700691008114,-0.686622080938477,0.27123290207237,0.1306384903068343
-0.6092846989631653,-0.11565151065587997,50.96739959716797,0.30507478686204814,-0.684487113745159,0.26933322927604114,0.12555757289131475
-0.2849864959716797,0.5293127298355103,50.83191680908203,0.3095015718503339,-0.6823657610567496,0.2618809693182508,0.12900474971781167
0.45395752787590027,-0.5178942084312439,50.779170989990234,0.31387798877174256,-0.6802148889419108,0.26328906125078594,0.12909990406284721
0.14163151383399963,0.067022405564785,50.813148498535156,0.31830750014270776,-0.6780945344160625,0.26825230326503513,0.12534263903896006
1.0663390159606934,-0.4101000726222992,50.796146392822266,0.32286225870613855,-0.6760293152700699,0.27831872434665755,0.12248365848014744
0.2018285095691681,-0.07877084612846375,50.79287338256836,0.3275889713011891,-0.6740218703314251,0.2888867870594064,0.11840973415722442
0.058983128517866135,-0.2701071798801422,50.67819595336914,0.3324218630048241,-0.6720726024028331,0.2910602173767984,0.11550241727381937
0,0.28858011960983276,50.59991455078125,0.33727696267836227,-0.6701462792718993,0.2915517434477806,0.11565635843823345
-0.6883641481399536,-0.781570553779602,50.58265686035156,0.3420883553366489,-0.6682529087447461,0.28581537554661435,0.11154810482015204
0.2856563329696655,-0.11781086772680283,50.562904357910156,0.3468239791085945,-0.6664562307075704,0.2824594770868619,0.104053259640932
-0.43145570158958435,0.1718934178352356,50.6639518737793,0.35152151210388805,-0.6647182539809084,0.2812444823483626,0.10450394755850227
0.7530531287193298,-0.9530917406082153,50.76248550415039,0.35623125329768923,-0.663030771405126,0.2839244609077771,0.09799396153539411
-0.10503444075584412,0,50.71551513671875,0.3610083289439274,-0.6614637256393006,0.28932461664080616,0.09005153036365898
-0.6414650678634644,0.6226212382316589,50.59184646606445,0.36577856564428674,-0.6599196292139179,0.2831037874023119,0.09524004068225614
0.05204877257347107,1.5512789487838745,50.57468032836914,0.370456030413819,-0.658181329911782,0.27819198494156194,0.11335587557405225
0.6851813197135925,-0.3526654541492462,50.79624938964844,0.375143760030365,-0.6562088282706426,0.28433556904395413,0.12334432136267415
-0.5670282244682312,-1.1019072532653809,50.93997573852539,0.37989089125715625,-0.6542541015748352,0.2853201781709988,0.11122288213421892
-0.5901622772216797,0.33164170384407043,50.96774673461914,0.3845658671085,-0.6524538775357525,0.27567692399024957,0.104804002555708
0.3588355779647827,-1.0024654865264893,50.70294952392578,0.3891444181542224,-0.6507537291447325,0.2737492014964421,0.09921380436668785
1.2982878684997559,-0.6358290314674377,50.627925872802734,0.39382198286294534,-0.6492139361912596,0.2875585635503133,0.08556135005007179
-0.41280117630958557,0.9849404692649841,50.74384689331055,0.39867611772018596,-0.647763669840578,0.2949376193185647,0.08847061203171801
0.9394375681877136,-0.34878432750701904,50.887874603271484,0.40362831668048693,-0.6462449821302051,0.29932625591754913,0.09377191321303438
0.1033792793750763,-0.49015575647354126,51.045406341552734,0.4086895054490824,-0.6447403766380421,0.3080163963139057,0.08678074584652971
-0.532528817653656,0.5971369743347168,51.04481887817383,0.4137933100030448,-0.6432866016226929,0.3044401501615842,0.08767225599537284
-0.4051756262779236,0.21836397051811218,50.89400100708008,0.418802194141576,-0.6417687653460441,0.2966259464621544,0.09446809720247976
0.15459729731082916,-1.60841965675354,50.82536315917969,0.4237285586431003,-0.6402908287042136,0.29453779372076194,0.08288429981718452
0.8483221530914307,0.3286034166812897,50.72606658935547,0.42870716905583534,-0.6389982998350433,0.3028954558074474,0.07221916448324911
-0.0560307651758194,0.149533212184906,50.66313552856445,0.43381044688789805,-0.6377614431610956,0.3094978840400775,0.0762036363904674
0.8416306376457214,-0.3685922622680664,50.59341812133789,0.43902330050193195,-0.6365065949886214,0.31604454964399337,0.07437814430644106
0.16481934487819672,0,50.5470085144043,0.44436060202256267,-0.6352925559350604,0.3244316328316927,0.07130654212087384
-1.0646374225616455,0.15314483642578125,50.531673431396484,0.4497053085365851,-0.634093478508294,0.31693314885099727,0.07258274909108868
-0.21667751669883728,-0.49900200963020325,50.52286148071289,0.45489854747998637,-0.6329077838826929,0.3062555243571599,0.06970060598105184
0.29953888058662415,0.5218780040740967,50.64474105834961,0.4600085604806535,-0.6317445185056167,0.3069460357228915,0.06989123926808428
0.25411850214004517,0.05778898298740387,50.760555267333984,0.4651627761720577,-0.630539409865936,0.3115598472456137,0.0747217974935968
0.9117144346237183,-1.1152255535125732,50.82011032104492,0.47043640091342653,-0.6293674796695514,0.3212751217186451,0.06590982607255372
-0.5334749817848206,-0.06400281190872192,50.71461868286133,0.47581725290407334,-0.628350873427052,0.3244271171589692,0.05608292302737626
-0.5487461090087891,0.48884356021881104,50.60235595703125,0.47581725290407334,-0.628350873427052,0.3244271171589692,0.05608292302737626
0.1688832938671112,1.2968637943267822,50.68574905395508,0.47581725290407334,-0.628350873427052,0.3244271171589692,0.05608292302737626
-0.836469829082489,-1.0026404857635498,50.86602020263672,0.47581725290407334,-0.628350873427052,0.3244271171589692,0.05608292302737626
-1.2767084836959839,-3.8099732398986816,50.68733596801758,0.47581725290407334,-0.628350873427052,0.3244271171589692,0.05608292302737626
-2.140364646911621,-1.5625020265579224,50.026668548583984,0.47581725290407334,-0.628350873427052,0.3244271171589692,0.05608292302737626
-0.32791846990585327,-2.3214898109436035,49.11559295654297,0.47581725290407334,-0.628350873427052,0.3244271171589692,0.05608292302737626
-1.1716309785842896,-2.519808530807495,47.99263381958008,0.47581725290407334,-0.628350873427052,0.3244271171589692,0.05608292302737626
-0.4767712950706482,-1.7433360815048218,46.630821228027344,0.47581725290407334,-0.628350873427052,0.3244271171589692,0.05608292302737626
-1.417484998703003,-1.9184973239898682,45.12996292114258,0.47581725290407334,-0.628350873427052,0.3244271171589692,0.05608292302737626
-0.19142445921897888,-1.1903496980667114,43.58475112915039,0.47581725290407334,-0.628350873427052,0.3244271171589692,0.05608292302737626
-1.1899152994155884,-0.84626305103302,41.994171142578125,0.47581725290407334,-0.628350873427052,0.3244271171589692,0.05608292302737626
-0.7740352153778076,-0.7557075619697571,40.37815856933594,0.47581725290407334,-0.628350873427052,0.3244271171589692,0.05608292302737626
-0.31945574283599854,-1.1103427410125732,38.725196838378906,0.47581725290407334,-0.628350873427052,0.3244271171589692,0.05608292302737626
-0.14833270013332367,-1.7999238967895508,37.12568664550781,0.47581725290407334,-0.628350873427052,0.3244271171589692,0.05608292302737626
-1.2341845035552979,-0.6065273284912109,35.419307708740234,0.47581725290407334,-0.628350873427052,0.3244271171589692,0.05608292302737626
0.15142127871513367,-0.2695080637931824,33.68040084838867,0.47581725290407334,-0.628350873427052,0.3244271171589692,0.05608292302737626
-1.425267219543457,-1.2138298749923706,31.934717178344727,0.47581725290407334,-0.628350873427052,0.3244271171589692,0.05608292302737626
0.7339484095573425,-1.437751054763794,30.14462661743164,0.47581725290407334,-0.628350873427052,0.3244271171589692,0.05608292302737626
-1.6593379974365234,0.06240248307585716,28.340925216674805,0.47581725290407334,-0.628350873427052,0.3244271171589692,0.05608292302737626
-0.6797165274620056,-0.7348493337631226,26.490373611450195,0.47581725290407334,-0.628350873427052,0.3244271171589692,0.05608292302737626
-0.5894656777381897,-0.7307443618774414,24.5945987701416,0.47581725290407334,-0.628350873427052,0.3244271171589692,0.05608292302737626
-0.07644563913345337,-1.357843041419983,22.815034866333008,0.47581725290407334,-0.628350873427052,0.3244271171589692,0.05608292302737626
-2.1956796646118164,0.14318841695785522,20.9140567779541,0.47581725290407334,-0.628350873427052,0.3244271171589692,0.05608292302737626
0.19744570553302765,-1.0769051313400269,19.081823348999023,0.47581725290407334,-0.628350873427052,0.3244271171589692,0.05608292302737626
0.5460042953491211,-0.7847796082496643,17.285808563232422,0.47581725290407334,-0.628350873427052,0.3244271171589692,0.05608292302737626
-0.0805293396115303,-0.8544309139251709,15.460025787353516,0.47581725290407334,-0.628350873427052,0.3244271171589692,0.05608292302737626
0.2721351683139801,-0.8651272654533386,13.622721672058105,0.47581725290407334,-0.628350873427052,0.3244271171589692,0.05608292302737626
-1.3116713762283325,-1.1167701482772827,11.73890209197998,0.47581725290407334,-0.628350873427052,0.3244271171589692,0.05608292302737626
0.6475035548210144,-1.319800615310669,9.821391105651855,0.47581725290407334,-0.628350873427052,0.3244271171589692,0.05608292302737626
-0.6926894187927246,0.3245372474193573,7.780608177185059,0.47581725290407334,-0.628350873427052,0.3244271171589692,0.05608292302737626
0.04982632398605347,-1.3025293350219727,5.748721122741699,0.47581725290407334,-0.628350873427052,0.3244271171589692,0.05608292302737626
0.49199044704437256,-0.9844286441802979,3.6844213008880615,0.47581725290407334,-0.628350873427052,0.3244271171589692,0.05608292302737626
-0.2419162541627884,-1.77860426902771,1.5685786008834839,0.47581725290407334,-0.628350873427052,0.3244271171589692,0.05608292302737626
-0.4549226760864258,1.2564599514007568,-0.664056658744812,0.47581725290407334,-0.628350873427052,0.3244271171589692,0.05608292302737626
-0.3106491267681122,-1.7900553941726685,-2.81381893157959,0.47581725290407334,-0.628350873427052,0.3244271171589692,0.05608292302737626
-0.3596563935279846,0.17137937247753143,-4.9727277755737305,0.47581725290407334,-0.628350873427052,0.3244271171589692,0.05608292302737626
-0.29578402638435364,-0.7266356945037842,-7.138691425323486,0.47581725290407334,-0.628350873427052,0.3244271171589692,0.05608292302737626
-1.0084145069122314,0.3275337517261505,-9.363936424255371,0.47581725290407334,-0.628350873427052,0.3244271171589692,0.05608292302737626
-0.8998318910598755,-0.07727063447237015,-11.596750259399414,0.47581725290407334,-0.628350873427052,0.3244271171589692,0.05608292302737626
-0.30369022488594055,-0.19763168692588806,-13.76278305053711,0.47581725290407334,-0.628350873427052,0.3244271171589692,0.05608292302737626
0.0625724270939827,-0.8899512887001038,-16.001052856445312,0.47581725290407334,-0.628350873427052,0.3244271171589692,0.05608292302737626
-1.0340628623962402,0.8358725309371948,-18.390308380126953,0.47581725290407334,-0.628350873427052,0.3244271171589692,0.05608292302737626
-0.27117231488227844,0.17692822217941284,-20.686784744262695,0.47581725290407334,-0.628350873427052,0.3244271171589692,0.05608292302737626
-0.4947637617588043,0.08512145280838013,-22.94698715209961,0.47581725290407334,-0.628350873427052,0.3244271171589692,0.05608292302737626
0.17763057351112366,-1.0756090879440308,-25.216548919677734,0.47581725290407334,-0.628350873427052,0.3244271171589692,0.05608292302737626
-0.42600250244140625,0.9727672934532166,-27.479887008666992,0.47581725290407334,-0.628350873427052,0.3244271171589692,0.05608292302737626
1.4099812507629395,1.0298480987548828,-29.75114631652832,0.47581725290407334,-0.628350873427052,0.3244271171589692,0.05608292302737626
-1.4910601377487183,-1.0221415758132935,-32.05731964111328,0.47581725290407334,-0.628350873427052,0.3244271171589692,0.05608292302737626
0.36317864060401917,-0.4399157762527466,-34.19900131225586,0.47581725290407334,-0.628350873427052,0.3244271171589692,0.05608292302737626
0.4313099980354309,0.42613595724105835,-36.02344512939453,0.47581725290407334,-0.628350873427052,0.3244271171589692,0.05608292302737626
1.9113471508026123,3.0919909477233887,-37.546321868896484,0.47581725290407334,-0.628350873427052,0.3244271171589692,0.05608292302737626
0.4498477578163147,-0.7895475029945374,-38.763267517089844,0.47581725290407334,-0.628350873427052,0.3244271171589692,0.05608292302737626
0.3995111882686615,2.1320436000823975,-39.44052505493164,0.47581725290407334,-0.628350873427052,0.3244271171589692,0.05608292302737626
0.6810176372528076,0.8479645848274231,-39.819374084472656,0.47581725290407334,-0.628350873427052,0.3244271171589692,0.05608292302737626
0.8872619271278381,-0.29132699966430664,-39.69712448120117,0.47581725290407334,-0.628350873427052,0.3244271171589692,0.05608292302737626
0.6904460787773132,-0.9989562034606934,-39.65616226196289,0.47581725290407334,-0.628350873427052,0.3244271171589692,0.05608292302737626
0.8431313633918762,-1.563580870628357,-39.6846923828125,0.47581725290407334,-0.628350873427052,0.3244271171589692,0.05608292302737626
0.16969522833824158,-0.31818029284477234,-39.742523193359375,0.47581725290407334,-0.628350873427052,0.3244271171589692,0.05608292302737626
0.08476749807596207,-0.14117451012134552,-39.8885498046875,0.47581725290407334,-0.628350873427052,0.3244271171589692,0.05608292302737626
-0.4831900894641876,0.19662870466709137,-39.84138870239258,0.47581725290407334,-0.628350873427052,0.3244271171589692,0.05608292302737626
-0.4460649788379669,0.2802548408508301,-39.910362243652344,0.47581725290407334,-0.628350873427052,0.3244271171589692,0.05608292302737626
-0.3842897117137909,-0.22625619173049927,-39.91874694824219,0.47581725290407334,-0.628350873427052,0.3244271171589692,0.05608292302737626
0.2345196008682251,-0.11893278360366821,-39.93356704711914,0.47581725290407334,-0.628350873427052,0.3244271171589692,0.05608292302737626
0.18665768206119537,-0.4591343104839325,-39.93748092651367,0.47581725290407334,-0.628350873427052,0.3244271171589692,0.05608292302737626
0.21601305902004242,-0.3674353063106537,-39.93165588378906,0.47581725290407334,-0.628350873427052,0.3244271171589692,0.05608292302737626
-0.06995013356208801,-0.13137604296207428,-39.93527603149414,0.47581725290407334,-0.628350873427052,0.3244271171589692,0.05608292302737626
-0.16271334886550903,-0.11672327667474747,-39.93267059326172,0.47581725290407334,-0.628350873427052,0.3244271171589692,0.05608292302737626
-0.11346791684627533,-0.08784687519073486,-39.93073272705078,0.47581725290407334,-0.628350873427052,0.3244271171589692,0.05608292302737626
0.03203927353024483,-0.23955240845680237,-39.93395233154297,0.47581725290407334,-0.628350873427052,0.3244271171589692,0.05608292302737626
0.06294143199920654,-0.28157442808151245,-39.9314079284668,0.47581725290407334,-0.628350873427052,0.3244271171589692,0.05608292302737626
0.012215688824653625,-0.18729013204574585,-39.93248748779297,0.47581725290407334,-0.628350873427052,0.3244271171589692,0.05608292302737626
-0.09408009052276611,-0.1561306267976761,-40.03749084472656,0.47581725290407334,-0.628350873427052,0.3244271171589692,0.05608292302737626
-0.046653661876916885,-0.16581235826015472,-40.139835357666016,0.47581725290407334,-0.628350873427052,0.3244271171589692,0.05608292302737626
0.034654803574085236,-0.2142251580953598,-40.14113235473633,0.47581725290407334,-0.628350873427052,0.3244271171589692,0.05608292302737626
0.003632413921877742,-0.22444282472133636,-40.23984146118164,0.47581725290407334,-0.628350873427052,0.3244271171589692,0.05608292302737626
-0.03316684439778328,-0.1674061417579651,-40.347434997558594,0.47581725290407334,-0.628350873427052,0.3244271171589692,0.05608292302737626
0,-0.1685461401939392,-40.4533805847168,0.48122206827030634,-0.6274394880628423,0.3241507267889877,0.05328332067777706
0,-0.19321198761463165,-40.56171417236328,0.48662458038345613,-0.6265765548104216,0.3241507267889877,0.05026866961270564
0,-0.22200019657611847,-40.66524124145508,0.4920270924966059,-0.6257675778296675,0.3241507267889877,0.04680856807778272
0.5734142065048218,-0.9101763963699341,-40.676055908203125,0.49746942504076297,-0.6250660584028813,0.3289291785098612,0.03737376313656562
2.0991151332855225,-1.4162813425064087,-40.632869720458984,0.5031371703311905,-0.624604721915805,0.3512002563414474,0.017986615312596096
1.643951416015625,-1.3636311292648315,-40.465492248535156,0.5092504431139161,-0.6244979944711347,0.38239247758562367,-0.00517932195216424
1.3235758543014526,-2.608471393585205,-40.47315216064453,0.5158297293563374,-0.6248601569566465,0.4071218715049326,-0.038280176309247876
1.2326850891113281,-1.022257685661316,-40.59889602661133,0.5227926120024899,-0.6257502938589705,0.4284240460333725,-0.06853625196963556
1.2609535455703735,-0.8643928170204163,-40.58692932128906,0.5301061821193435,-0.6270235821211507,0.44920436798905333,-0.08425833949198333
1.080771803855896,-1.3578288555145264,-40.51841735839844,0.5377555414017601,-0.6285822087288321,0.4687187459009389,-0.10277685342977452
1.3803085088729858,-0.9155301451683044,-40.442649841308594,0.5457384288551597,-0.6304530284388202,0.48922774850701295,-0.12172151176879811
0.2688174545764923,-1.6473268270492554,-40.47084045410156,0.5540067472999606,-0.6326596964802598,0.5029704648690919,-0.14307865320394444
0.7232826352119446,-1.1166496276855469,-40.51597213745117,0.5624584842206808,-0.6352362835096821,0.5112379656173289,-0.16611179032673445
1.5720285177230835,-1.1886167526245117,-40.43524932861328,0.5711385135888123,-0.6381649012915381,0.5303655585584541,-0.18532234349598495
0.33545780181884766,0,-40.45699691772461,0.5801104038925325,-0.6413361498465145,0.5462612778879702,-0.1952274831011892
-0.3555108606815338,-0.9528342485427856,-40.551734924316406,0.5892133659504666,-0.6446561102765721,0.5460941690641145,-0.20316776850571241
1.3171907663345337,-0.34331440925598145,-40.5960578918457,0.5983817187616499,-0.6481322500751255,0.5541081682778894,-0.21396900732070215
0.43059971928596497,0.34649917483329773,-40.5699577331543,0.607738229238894,-0.6516981790328611,0.5686730889913936,-0.21394246760755783
0.5938522219657898,-0.9947034120559692,-40.650657653808594,0.6172872565513374,-0.6553089010094608,0.5772101885018248,-0.21934416958441344
1.6113269329071045,-1.7577650547027588,-40.674049377441406,0.6270605638010118,-0.659155780812726,0.595586681459099,-0.24228140680740284
-0.34672367572784424,-0.1734575629234314,-40.64254379272461,0.6370748281626343,-0.6633279169412956,0.6061250419355928,-0.2583749286209544
1.125205397605896,-0.7972372174263,-40.53670120239258,0.6472309734255801,-0.6677015751113913,0.6126123896179099,-0.2664640517905355
-0.981439471244812,-0.5564132332801819,-40.594051361083984,0.6574511636640982,-0.6722366461447549,0.6138104390042523,-0.2777444722130895
1.0357216596603394,0.1624167114496231,-40.6817626953125,0.6676851072439202,-0.6768930815512113,0.6142627905743816,-0.2810277765616775
-0.48070383071899414,-0.7310118079185486,-40.7575569152832,0.6779613633249475,-0.6816163635978274,0.6188879391488928,-0.2857660690322519
0.18733933568000793,-1.4885663986206055,-40.708282470703125,0.6882557897763847,-0.6865332687904857,0.6164432350235679,-0.30426255408674485
1.0480610132217407,-0.659834623336792,-40.614315032958984,0.6986156353843401,-0.6917535058740119,0.6267382379310825,-0.32216589593638983
0.9705132842063904,0.28990301489830017,-40.5362663269043,0.7092014514538463,-0.6971486271679821,0.6435596904096503,-0.32524865934004393
0.6755101680755615,-0.34484994411468506,-40.53691101074219,0.7200417534781933,-0.7025732539159562,0.6572765525119999,-0.32570655041684715
-0.11416192352771759,-0.2833102345466614,-40.51185989379883,0.7310353452037092,-0.7080453186575328,0.6619544545498987,-0.33094121857235836
0,0.11367001384496689,-40.561275482177734,0.7420599915348514,-0.7135727862046208,0.6610031051871676,-0.3323548870782058
0.18410895764827728,0.3686062693595886,-40.65363311767578,0.7530894952989187,-0.7190785429140351,0.6625373465009033,-0.3283359180515012
0,-0.7877533435821533,-40.624080657958984,0.7641445697515482,-0.7245799156506033,0.664071587814639,-0.33182881033668926
-0.6529937982559204,-1.407533049583435,-40.52571105957031,0.7751670827569133,-0.7302628462668513,0.658629972829173,-0.35012286361306916
-0.726302444934845,-1.0797404050827026,-40.422645568847656,0.7860484645094001,-0.7362709546503099,0.64713583746925,-0.37085014240195363
1.6903151273727417,2.4668283462524414,-40.35487747192383,0.7969010071257236,-0.742355464805539,0.6551692764895658,-0.35929107622553913
0.18603309988975525,-1.3626583814620972,-40.43589401245117,0.807950797027443,-0.7482669709395209,0.6708055117167533,-0.35008965985228624
0.18292559683322906,-1.1841157674789429,-40.55474853515625,0.8191565110211058,-0.7542786579196243,0.6738801675227781,-0.3713127777601282
0.5284202098846436,-0.5636668801307678,-40.57282638549805,0.8304372461608408,-0.7605885780105994,0.679808049245427,-0.3858776331568758
-0.4640512764453888,0.0810040533542633,-40.585933685302734,0.8417718503797534,-0.7670533901484068,0.6803444570240875,-0.38989982338001333
-0.1915142983198166,-0.6013517379760742,-40.61267852783203,0.8530653992763517,-0.7735878557939502,0.6748814105677108,-0.3942360540851951
0.6794256567955017,0.6064824461936951,-40.621334075927734,0.8530653992763517,-0.7735878557939502,0.6748814105677108,-0.3942360540851951
-0.6062151193618774,-1.2017117738723755,-40.654972076416016,0.8530653992763517,-0.7735878557939502,0.6748814105677108,-0.3942360540851951
-1.802348017692566,0.9485979080200195,-40.72254943847656,0.8530653992763517,-0.7735878557939502,0.6748814105677108,-0.3942360540851951
-1.9208439588546753,1.7505847215652466,-41.201812744140625,0.8530653992763517,-0.7735878557939502,0.6748814105677108,-0.3942360540851951
-0.8693852424621582,1.2236396074295044,-41.94322204589844,0.8530653992763517,-0.7735878557939502,0.6748814105677108,-0.3942360540851951
-0.8863284587860107,0.8670865297317505,-42.874908447265625,0.8530653992763517,-0.7735878557939502,0.6748814105677108,-0.3942360540851951
-2.3732378482818604,1.317960500717163,-44.03153991699219,0.8530653992763517,-0.7735878557939502,0.6748814105677108,-0.3942360540851951
-1.744755744934082,0.06722534447908401,-45.36386489868164,0.8530653992763517,-0.7735878557939502,0.6748814105677108,-0.3942360540851951
-2.6269094944000244,1.1446105241775513,-46.82122039794922,0.8530653992763517,-0.7735878557939502,0.6748814105677108,-0.3942360540851951
0.1926201432943344,-0.15110547840595245,-48.34227752685547,0.8530653992763517,-0.7735878557939502,0.6748814105677108,-0.3942360540851951
-1.306066632270813,0.5566079616546631,-49.941158294677734,0.8530653992763517,-0.7735878557939502,0.6748814105677108,-0.3942360540851951
-1.4637409448623657,0.7441046833992004,-51.65420150756836,0.8530653992763517,-0.7735878557939502,0.6748814105677108,-0.3942360540851951
-1.507615089416504,-0.06545856595039368,-53.488155364990234,0.8530653992763517,-0.7735878557939502,0.6748814105677108,-0.3942360540851951
-1.1352818012237549,0.45918914675712585,-55.3887939453125,0.8530653992763517,-0.7735878557939502,0.6748814105677108,-0.3942360540851951
-0.6177617311477661,1.0697802305221558,-57.354251861572266,0.8530653992763517,-0.7735878557939502,0.6748814105677108,-0.3942360540851951
-1.5097284317016602,-0.13525450229644775,-59.25753402709961,0.8530653992763517,-0.7735878557939502,0.6748814105677108,-0.3942360540851951
-0.602327823638916,0.8048020601272583,-61.21542739868164,0.8530653992763517,-0.7735878557939502,0.6748814105677108,-0.3942360540851951
-0.29802078008651733,-0.010639496147632599,-63.171627044677734,0.8530653992763517,-0.7735878557939502,0.6748814105677108,-0.3942360540851951
-0.44780150055885315,1.204460620880127,-65.17855834960938,0.8530653992763517,-0.7735878557939502,0.6748814105677108,-0.3942360540851951
-1.8644542694091797,-0.29258376359939575,-67.13602447509766,0.8530653992763517,-0.7735878557939502,0.6748814105677108,-0.3942360540851951
0.3257676661014557,1.67512047290802,-69.14197540283203,0.8530653992763517,-0.7735878557939502,0.6748814105677108,-0.3942360540851951
-0.8399521708488464,0.0993054062128067,-71.17250061035156,0.8530653992763517,-0.7735878557939502,0.6748814105677108,-0.3942360540851951
-1.8323034048080444,-0.12182428687810898,-73.26976013183594,0.8530653992763517,-0.7735878557939502,0.6748814105677108,-0.3942360540851951
-1.0271267890930176,-0.0028897570446133614,-75.38968658447266,0.8530653992763517,-0.7735878557939502,0.6748814105677108,-0.3942360540851951
0.1592717170715332,0.4828673303127289,-77.47518157958984,0.8530653992763517,-0.7735878557939502,0.6748814105677108,-0.3942360540851951
-0.043354399502277374,0.43197494745254517,-79.58689880371094,0.8530653992763517,-0.7735878557939502,0.6748814105677108,-0.3942360540851951
-1.3188811540603638,0.529241144657135,-81.68587493896484,0.8530653992763517,-0.7735878557939502,0.6748814105677108,-0.3942360540851951
-1.421790361404419,0.4248162806034088,-83.88816833496094,0.8530653992763517,-0.7735878557939502,0.6748814105677108,-0.3942360540851951
0.45504817366600037,0.9387133121490479,-86.11529541015625,0.8530653992763517,-0.7735878557939502,0.6748814105677108,-0.3942360540851951
0.17502036690711975,0.8190433382987976,-88.34264373779297,0.8530653992763517,-0.7735878557939502,0.6748814105677108,-0.3942360540851951
-1.085822582244873,-0.11972538381814957,-90.56219482421875,0.8530653992763517,-0.7735878557939502,0.6748814105677108,-0.3942360540851951
-0.528778612613678,0.1187593936920166,-92.85489654541016,0.8530653992763517,-0.7735878557939502,0.6748814105677108,-0.3942360540851951
-0.7354617714881897,1.4357227087020874,-95.16661071777344,0.8530653992763517,-0.7735878557939502,0.6748814105677108,-0.3942360540851951
-0.5687445402145386,-0.5284361243247986,-97.4772720336914,0.8530653992763517,-0.7735878557939502,0.6748814105677108,-0.3942360540851951
0.797213077545166,0.3053938150405884,-99.88058471679688,0.8530653992763517,-0.7735878557939502,0.6748814105677108,-0.3942360540851951
-0.8697008490562439,0.532943844795227,-102.3606948852539,0.8530653992763517,-0.7735878557939502,0.6748814105677108,-0.3942360540851951
-0.594039797782898,-0.18075042963027954,-104.82273864746094,0.8530653992763517,-0.7735878557939502,0.6748814105677108,-0.3942360540851951
0.6679522395133972,0.44256752729415894,-107.26679992675781,0.8530653992763517,-0.7735878557939502,0.6748814105677108,-0.3942360540851951
-0.3831736147403717,0.4719434082508087,-109.68331909179688,0.8530653992763517,-0.7735878557939502,0.6748814105677108,-0.3942360540851951
-0.1410111039876938,0.4356864094734192,-112.11963653564453,0.8530653992763517,-0.7735878557939502,0.6748814105677108,-0.3942360540851951
0.33463698625564575,-0.5080899000167847,-114.33892059326172,0.8530653992763517,-0.7735878557939502,0.6748814105677108,-0.3942360540851951
-0.25318899750709534,0.5653690099716187,-116.68307495117188,0.8530653992763517,-0.7735878557939502,0.6748814105677108,-0.3942360540851951
-0.625884473323822,0.4452989399433136,-118.9849853515625,0.8530653992763517,-0.7735878557939502,0.6748814105677108,-0.3942360540851951
0.6120521426200867,-0.22305068373680115,-121.32408142089844,0.8530653992763517,-0.7735878557939502,0.6748814105677108,-0.3942360540851951
0.6479263305664062,0.5169169306755066,-123.71512603759766,0.8530653992763517,-0.7735878557939502,0.6748814105677108,-0.3942360540851951
0.10103099048137665,-0.23055842518806458,-125.9362564086914,0.8530653992763517,-0.7735878557939502,0.6748814105677108,-0.3942360540851951
0.6436161994934082,-0.5742906332015991,-127.8543701171875,0.8530653992763517,-0.7735878557939502,0.6748814105677108,-0.3942360540851951
1.7409708499908447,-1.1809111833572388,-129.42462158203125,0.8530653992763517,-0.7735878557939502,0.6748814105677108,-0.3942360540851951
0.8492858409881592,-1.0268863439559937,-130.49111938476562,0.8530653992763517,-0.7735878557939502,0.6748814105677108,-0.3942360540851951
0.37909427285194397,-1.0640733242034912,-131.1132049560547,0.8530653992763517,-0.7735878557939502,0.6748814105677108,-0.3942360540851951
0.39077141880989075,-1.4317197799682617,-131.36495971679688,0.8530653992763517,-0.7735878557939502,0.6748814105677108,-0.3942360540851951
-0.4856354296207428,-1.1339203119277954,-131.3665771484375,0.8530653992763517,-0.7735878557939502,0.6748814105677108,-0.3942360540851951
-0.40031108260154724,-0.2599699795246124,-131.2491455078125,0.8530653992763517,-0.7735878557939502,0.6748814105677108,-0.3942360540851951
0.25119829177856445,0.4105308949947357,-131.2922821044922,0.8530653992763517,-0.7735878557939502,0.6748814105677108,-0.3942360540851951
0.402996689081192,0.8457886576652527,-131.32928466796875,0.8530653992763517,-0.7735878557939502,0.6748814105677108,-0.3942360540851951
0.02907203696668148,0.09631087630987167,-131.27883911132812,0.8530653992763517,-0.7735878557939502,0.6748814105677108,-0.3942360540851951
-0.31288084387779236,-0.21106718480587006,-131.28213500976562,0.8530653992763517,-0.7735878557939502,0.6748814105677108,-0.3942360540851951
-0.6466684937477112,-0.6827311515808105,-131.28675842285156,0.8530653992763517,-0.7735878557939502,0.6748814105677108,-0.3942360540851951
-0.18338818848133087,0.03663301840424538,-131.27957153320312,0.8530653992763517,-0.7735878557939502,0.6748814105677108,-0.3942360540851951
0.2163456678390503,0.18558858335018158,-131.28948974609375,0.8530653992763517,-0.7735878557939502,0.6748814105677108,-0.3942360540851951
-0.09964310377836227,0.22747571766376495,-131.29266357421875,0.8530653992763517,-0.7735878557939502,0.6748814105677108,-0.3942360540851951
-0.2704831659793854,-0.2781738042831421,-131.28402709960938,0.8530653992763517,-0.7735878557939502,0.6748814105677108,-0.3942360540851951
-0.25357893109321594,-0.19758401811122894,-131.28683471679688,0.8530653992763517,-0.7735878557939502,0.6748814105677108,-0.3942360540851951
-0.10050584375858307,0.0515965074300766,-131.2869110107422,0.8530653992763517,-0.7735878557939502,0.6748814105677108,-0.3942360540851951
-0.03965204209089279,0.08108630776405334,-131.28643798828125,0.8530653992763517,-0.7735878557939502,0.6748814105677108,-0.3942360540851951
-0.14814651012420654,-0.04628613218665123,-131.287841796875,0.8530653992763517,-0.7735878557939502,0.6748814105677108,-0.3942360540851951
