faccX,faccY,yaw,posX,posY,velX,velY
0,0,-100.78474426269531,0.0,0.0,0.0,0.0
0,0,-100.78412628173828,0.0,0.0,0.0,0.0
0,0,-100.78401184082031,0.0,0.0,0.0,0.0
0,0,-100.78445434570312,0.0,0.0,0.0,0.0
-0.2040325105190277,-1.1860896348953247,-100.75374603271484,-1.4168924341599146e-05,-8.236733575661978e-05,-0.0017002709209918976,-0.009884080290794373
-0.5371502041816711,-2.475931406021118,-100.78068542480469,-9.397779487901264e-05,-0.0005014090240001678,-0.007876793543497723,-0.040400922298431396
-1.092808723449707,-2.9834580421447754,-100.73646545410156,-0.0003384492794672648,-0.001553881996207767,-0.02145978460709254,-0.08589583436648052
0.8806774616241455,-1.6764116287231445,-100.59001159667969,-0.0007108436938789155,-0.0033090812961260475,-0.02322754512230555,-0.12472808162371318
-0.7117049694061279,-1.0990610122680664,-100.42743682861328,-0.001086235245068868,-0.005580623812145657,-0.021819441020488738,-0.14785702029863995
-0.13095709681510925,-0.8340244293212891,-100.32210540771484,-0.0015084107944534884,-0.008179149528344472,-0.028841624905665712,-0.16396606564521793
0,-1.651213526725769,-100.33354187011719,-0.001998198785715633,-0.01108450325826804,-0.029932934045791622,-0.1846763819456101
-0.4748976528644562,-1.2955106496810913,-100.30606842041016,-0.0025300600234833028,-0.014367076580723129,-0.033890414486328756,-0.2092324167490006
-0.10806239396333694,-1.0845863819122314,-100.17176055908203,-0.003135383601507379,-0.018019568042622676,-0.03874841487656037,-0.22906655867894493
-0.17208857834339142,-0.8829560875892639,-100.14012145996094,-0.00380064544474913,-0.02197397891432047,-0.04108300631244977,-0.24546274592479073
-0.5547609329223633,-1.1525592803955078,-100.12572479248047,-0.004535837877127859,-0.026206379913621482,-0.04714008557299773,-0.2624253739913305
-0.08663442730903625,-0.920821487903595,-100.1226806640625,-0.005366047314471668,-0.03072412092238665,-0.05248504690825939,-0.27970354706048967
-0.5728616118431091,-1.3276467323303223,-100.07543182373047,-0.006286596432328224,-0.03554199033313328,-0.05798084723452727,-0.29844078222910564
-0.5492210984230042,-0.34022828936576843,-100.12065887451172,-0.007330866296672158,-0.040631828024569494,-0.06733153648674488,-0.3123397407432397
0,-0.8457202911376953,-100.1849136352539,-0.008491198925508392,-0.0459198479106029,-0.07190837897360325,-0.3222226455807686
0.6555112600326538,-0.2584478259086609,-100.25048065185547,-0.009644150293121734,-0.0513669036784106,-0.0664457851399978,-0.33142404655615487
0.3910399079322815,-1.6762442588806152,-100.35785675048828,-0.010678902881013022,-0.0570249914046791,-0.05772452540695667,-0.3475464805960655
-0.7928310632705688,-1.0158159732818604,-100.48616027832031,-0.011668880468027458,-0.06300438137518036,-0.06107278503477573,-0.36998031586408614
-0.7253766655921936,0.9110010862350464,-100.55875396728516,-0.01279219131088919,-0.0691779987845156,-0.07372451610863208,-0.37085377325614294
-0.40625301003456116,-0.3152621388435364,-100.67152404785156,-0.014099518640173805,-0.07531752424521579,-0.0831547634055217,-0.36588928202788035
-0.31926053762435913,-0.4131607711315155,-100.73036193847656,-0.015535814248853258,-0.08146626386998429,-0.0892007096360127,-0.3719594729443391
0.21600382030010223,-0.9443075656890869,-100.66268920898438,-0.017029663348156542,-0.08775985705355804,-0.09006118228038151,-0.3832717090845108
-0.20602862536907196,-0.5460046529769897,-100.629638671875,-0.018529990330959357,-0.09425121277570725,-0.08997805565595626,-0.3956909775733948
1.1388875246047974,0.09188031405210495,-100.5283203125,-0.01996484272388948,-0.10087759881435583,-0.08220423149565856,-0.3994753470644355
0.16862697899341583,-0.29106369614601135,-100.46923828125,-0.02124411363051169,-0.10754935344474183,-0.07130827729900678,-0.40113520858188473
-0.2009461671113968,-0.09300790727138519,-100.49073028564453,-0.02243482930689222,-0.11426161189356611,-0.07157760386665662,-0.4043358052770297
-1.0063949823379517,-1.5172127485275269,-100.50347137451172,-0.023711632506714923,-0.12111236286039152,-0.08163878011206786,-0.4177543107420207
-0.6441515684127808,-0.34604665637016296,-100.39492797851562,-0.025186900130162632,-0.12820432772032087,-0.0953933347016573,-0.43328147244950144
1.4078890085220337,0.26238664984703064,-100.22205352783203,-0.026723751719627112,-0.13543149531715443,-0.08902885603408019,-0.43397863917052754
-0.35295969247817993,0,-100.1333999633789,-0.02813430700658096,-0.14264625134153494,-0.0802377784003814,-0.4317920837551356
-1.0480353832244873,-0.14614611864089966,-100.13765716552734,-0.029568894637955555,-0.14985293510680392,-0.0919127373645703,-0.4330099680771431
0.7426595091819763,-0.3603896498680115,-100.106201171875,-0.031121980251951346,-0.15710494400312497,-0.09445753631492455,-0.437231099481384
0.9550831317901611,-1.6401052474975586,-99.9476547241211,-0.0325783737293548,-0.16453105225124287,-0.08030968097349007,-0.45390189029276373
0.15392613410949707,0,-99.77555847167969,-0.033839853879892155,-0.17220997995386514,-0.07106793709099292,-0.46756943402191004
-0.424153208732605,0.35394346714019775,-99.63139343261719,-0.03504308526714642,-0.17997822444679,-0.07331982937951882,-0.46461990512907503
-0.13568896055221558,0.8361705541610718,-99.62105560302734,-0.03630396035189429,-0.1876392427252398,-0.07798518079022566,-0.4547022882848978
-0.8229622840881348,-0.16483579576015472,-99.81400299072266,-0.03767028636816474,-0.19517099372732136,-0.08597394116222859,-0.4491078319648901
0.20943284034729004,-0.598546028137207,-99.84059143066406,-0.039145791598906104,-0.20270913688672906,-0.09108668652673563,-0.4554693471640348
1.1333014965057373,-0.6504889130592346,-99.69185638427734,-0.040570657600959126,-0.21038703121037938,-0.07989723371962706,-0.46587797167400513
-0.6664777994155884,-0.45853930711746216,-99.59693145751953,-0.041869859850654986,-0.21822867992023617,-0.07600703624387582,-0.47511987350881096
-0.7398930191993713,0,-99.65995025634766,-0.04323430842823451,-0.22617918748615506,-0.08772679306566715,-0.47894103440145647
-0.2959820032119751,0.5846735239028931,-99.8092269897461,-0.04476835741144086,-0.23412093573146386,-0.09635908491909503,-0.47406875503559903
0.5288246870040894,0,-99.93862915039062,-0.04635817252927355,-0.24198147932067504,-0.09441872922082742,-0.4691964756697416
1.8203942775726318,-0.4957602322101593,-99.99864959716797,-0.04776867781041396,-0.24983584837574088,-0.0748419045160214,-0.47332781093815957
-1.2990198135375977,0.4475051164627075,-100.13168334960938,-0.04897983632567855,-0.2577279962744149,-0.07049711731572945,-0.47372993690272164
-0.8346595168113708,-0.13189435005187988,-100.27637481689453,-0.05030296045665939,-0.2656015778084595,-0.08827777840197086,-0.4710998471826314
-0.6292396187782288,-0.7113851308822632,-100.44178009033203,-0.05187591642555263,-0.2735118030032349,-0.10047693786521752,-0.47812717619041595
-0.8255749940872192,0.3859868049621582,-100.5194320678711,-0.05365156084919969,-0.28150318637904187,-0.11260039297242959,-0.4808388289064168
0.4210154414176941,0,-100.46638488769531,-0.05555632847878668,-0.289490362221582,-0.11597172257800896,-0.47762227219839887
1.4031826257705688,-0.18214498460292816,-100.3888931274414,-0.057362510100420976,-0.2974633823821527,-0.10077007201810677,-0.47914014707008995
0.19662697613239288,0.5441015362739563,-100.34415435791016,-0.058930913411701716,-0.3054239156283437,-0.08743832533558209,-0.4761238424728314
-0.12932084500789642,-0.40924710035324097,-100.36129760742188,-0.06038354479707777,-0.3133499481115075,-0.08687744090954462,-0.47500005550682545
-0.9377142786979675,-0.41353973746299744,-100.3860092163086,-0.061905601806938645,-0.3213237536781363,-0.09576940027376016,-0.48185661248862743
0.7103573083877563,0.9236217141151428,-100.20700073242188,-0.06351754715666175,-0.3293192748601237,-0.09766404169301192,-0.47760592934985957
0.1223122850060463,0.2304089516401291,-100.05327606201172,-0.0650874569075596,-0.3371992326641661,-0.09072512841473022,-0.4679890071352323
-0.2054431140422821,0,-100.07564544677734,-0.06660531535537706,-0.34498304882811165,-0.09141788532336552,-0.46606893253823123
-0.7676661014556885,-0.39397117495536804,-100.1305923461914,-0.06819652380628717,-0.3527782234797874,-0.0995271287858486,-0.4693520256628593
0.6889073848724365,-1.2963972091674805,-100.05628204345703,-0.0698607786413696,-0.3607181439341769,-0.10018345142404236,-0.483438428863883
-0.32160043716430664,-0.2556350827217102,-99.85685729980469,-0.07150499540484613,-0.36888323110217835,-0.09712256019314128,-0.4963720312962929
0.7775537371635437,0.5605343580245972,-99.68488311767578,-0.07309204131778743,-0.377134924729665,-0.0933229493598143,-0.4938312040021022
0.328669935464859,0.05179158225655556,-99.74526977539062,-0.07457060271874069,-0.38532292216162495,-0.08410441875457761,-0.4887284878330926
-1.3222849369049072,0.4048858880996704,-99.85350799560547,-0.07604134407308366,-0.393436683245624,-0.09238454376657801,-0.4849228422467907
0.9418448209762573,-0.41940492391586304,-99.8235092163086,-0.07604134407308366,-0.393436683245624,-0.09238454376657801,-0.4849228422467907
-0.06937935948371887,-0.6138836145401001,-99.76168823242188,-0.07604134407308366,-0.393436683245624,-0.09238454376657801,-0.4849228422467907
-0.46516698598861694,0.8422132730484009,-99.69500732421875,-0.07604134407308366,-0.393436683245624,-0.09238454376657801,-0.4849228422467907
-0.2971806526184082,1.649654746055603,-99.93059539794922,-0.07604134407308366,-0.393436683245624,-0.09238454376657801,-0.4849228422467907
1.2691056728363037,2.307560920715332,-100.4803695678711,-0.07604134407308366,-0.393436683245624,-0.09238454376657801,-0.4849228422467907
0.06789793819189072,1.6666609048843384,-101.25492858886719,-0.07604134407308366,-0.393436683245624,-0.09238454376657801,-0.4849228422467907
-0.25073274970054626,2.9346466064453125,-102.13824462890625,-0.07604134407308366,-0.393436683245624,-0.09238454376657801,-0.4849228422467907
0.1458795666694641,2.7128689289093018,-103.22191619873047,-0.07604134407308366,-0.393436683245624,-0.09238454376657801,-0.4849228422467907
0.059695594012737274,1.6700602769851685,-104.50430297851562,-0.07604134407308366,-0.393436683245624,-0.09238454376657801,-0.4849228422467907
0.6788699626922607,2.3755228519439697,-105.9948501586914,-0.07604134407308366,-0.393436683245624,-0.09238454376657801,-0.4849228422467907
0.46735286712646484,1.573257327079773,-107.66825103759766,-0.07604134407308366,-0.393436683245624,-0.09238454376657801,-0.4849228422467907
0.1941942274570465,1.4394128322601318,-109.43803405761719,-0.07604134407308366,-0.393436683245624,-0.09238454376657801,-0.4849228422467907
-0.1148574948310852,1.5197951793670654,-111.22164154052734,-0.07604134407308366,-0.393436683245624,-0.09238454376657801,-0.4849228422467907
0.13542479276657104,1.1917046308517456,-113.07266235351562,-0.07604134407308366,-0.393436683245624,-0.09238454376657801,-0.4849228422467907
0.1953701674938202,1.5351003408432007,-114.93909454345703,-0.07604134407308366,-0.393436683245624,-0.09238454376657801,-0.4849228422467907
0.252398818731308,1.4718257188796997,-116.88780212402344,-0.07604134407308366,-0.393436683245624,-0.09238454376657801,-0.4849228422467907
-0.5574684739112854,0.9118274450302124,-118.8469467163086,-0.07604134407308366,-0.393436683245624,-0.09238454376657801,-0.4849228422467907
0.0755305364727974,0.4459015727043152,-120.8311538696289,-0.07604134407308366,-0.393436683245624,-0.09238454376657801,-0.4849228422467907
-0.4491656720638275,1.1150914430618286,-122.78120422363281,-0.07604134407308366,-0.393436683245624,-0.09238454376657801,-0.4849228422467907
1.0923309326171875,1.2120933532714844,-124.7508544921875,-0.07604134407308366,-0.393436683245624,-0.09238454376657801,-0.4849228422467907
-0.01835823245346546,1.525490164756775,-126.73749542236328,-0.07604134407308366,-0.393436683245624,-0.09238454376657801,-0.4849228422467907
0.4640325903892517,1.0512603521347046,-128.74415588378906,-0.07604134407308366,-0.393436683245624,-0.09238454376657801,-0.4849228422467907
-1.4792711734771729,-0.28500720858573914,-130.6873321533203,-0.07604134407308366,-0.393436683245624,-0.09238454376657801,-0.4849228422467907
0.008356815204024315,0.5350725650787354,-132.67501831054688,-0.07604134407308366,-0.393436683245624,-0.09238454376657801,-0.4849228422467907
0.38614606857299805,1.3046879768371582,-134.6495819091797,-0.07604134407308366,-0.393436683245624,-0.09238454376657801,-0.4849228422467907
0.8321067094802856,0.833564817905426,-136.49440002441406,-0.07604134407308366,-0.393436683245624,-0.09238454376657801,-0.4849228422467907
0.32785168290138245,0.8254267573356628,-138.39588928222656,-0.07604134407308366,-0.393436683245624,-0.09238454376657801,-0.4849228422467907
-0.05182252451777458,0.6957898736000061,-140.25344848632812,-0.07604134407308366,-0.393436683245624,-0.09238454376657801,-0.4849228422467907
0.7286518216133118,0.1287006288766861,-142.1460723876953,-0.07604134407308366,-0.393436683245624,-0.09238454376657801,-0.4849228422467907
-0.25050443410873413,0.7815044522285461,-144.01498413085938,-0.07604134407308366,-0.393436683245624,-0.09238454376657801,-0.4849228422467907
-0.260623037815094,0.9438570141792297,-145.8118133544922,-0.07604134407308366,-0.393436683245624,-0.09238454376657801,-0.4849228422467907
0.2556192874908447,1.0267469882965088,-147.6689453125,-0.07604134407308366,-0.393436683245624,-0.09238454376657801,-0.4849228422467907
-0.46923360228538513,0.2269454002380371,-149.60218811035156,-0.07604134407308366,-0.393436683245624,-0.09238454376657801,-0.4849228422467907
1.114330530166626,0.147213414311409,-151.53652954101562,-0.07604134407308366,-0.393436683245624,-0.09238454376657801,-0.4849228422467907
-0.22011204063892365,0.40329399704933167,-153.42276000976562,-0.07604134407308366,-0.393436683245624,-0.09238454376657801,-0.4849228422467907
-0.18086032569408417,0.6002526879310608,-155.3031463623047,-0.07604134407308366,-0.393436683245624,-0.09238454376657801,-0.4849228422467907
-0.48260611295700073,0.42761287093162537,-157.3105010986328,-0.07604134407308366,-0.393436683245624,-0.09238454376657801,-0.4849228422467907
1.8918440341949463,-0.16841429471969604,-159.36451721191406,-0.07604134407308366,-0.393436683245624,-0.09238454376657801,-0.4849228422467907
1.3446252346038818,0.2399546205997467,-161.50851440429688,-0.07604134407308366,-0.393436683245624,-0.09238454376657801,-0.4849228422467907
-2.155714988708496,1.1434500217437744,-163.57241821289062,-0.07604134407308366,-0.393436683245624,-0.09238454376657801,-0.4849228422467907
0.5528315305709839,1.515724778175354,-165.83804321289062,-0.07604134407308366,-0.393436683245624,-0.09238454376657801,-0.4849228422467907
0.8179041743278503,-0.35125428438186646,-168.1005401611328,-0.07604134407308366,-0.393436683245624,-0.09238454376657801,-0.4849228422467907
1.320129156112671,-0.44218823313713074,-170.3042755126953,-0.07604134407308366,-0.393436683245624,-0.09238454376657801,-0.4849228422467907
-0.2619999051094055,0.17548419535160065,-172.47021484375,-0.07604134407308366,-0.393436683245624,-0.09238454376657801,-0.4849228422467907
-1.1227099895477295,0.5339730381965637,-174.8223114013672,-0.07604134407308366,-0.393436683245624,-0.09238454376657801,-0.4849228422467907
1.5978281497955322,0.12191256880760193,-177.2487335205078,-0.07604134407308366,-0.393436683245624,-0.09238454376657801,-0.4849228422467907
0.37988871335983276,0.1428341269493103,-179.54891967773438,-0.07604134407308366,-0.393436683245624,-0.09238454376657801,-0.4849228422467907
1.081082820892334,0.08018017560243607,178.13938903808594,-0.07604134407308366,-0.393436683245624,-0.09238454376657801,-0.4849228422467907
-0.37402990460395813,0.41770943999290466,175.73269653320312,-0.07604134407308366,-0.393436683245624,-0.09238454376657801,-0.4849228422467907
1.4085396528244019,0.19905006885528564,173.24606323242188,-0.07604134407308366,-0.393436683245624,-0.09238454376657801,-0.4849228422467907
-1.084392786026001,0.45435038208961487,170.85914611816406,-0.07604134407308366,-0.393436683245624,-0.09238454376657801,-0.4849228422467907
-0.37527307868003845,-0.5550521016120911,168.3983154296875,-0.07604134407308366,-0.393436683245624,-0.09238454376657801,-0.4849228422467907
0.4655570387840271,0.013161120004951954,165.92169189453125,-0.07604134407308366,-0.393436683245624,-0.09238454376657801,-0.4849228422467907
0.455929160118103,-1.0466102361679077,163.42105102539062,-0.07604134407308366,-0.393436683245624,-0.09238454376657801,-0.4849228422467907
1.196356177330017,1.3615961074829102,160.99085998535156,-0.07604134407308366,-0.393436683245624,-0.09238454376657801,-0.4849228422467907
0.8407084345817566,0.07396532595157623,158.6520233154297,-0.07604134407308366,-0.393436683245624,-0.09238454376657801,-0.4849228422467907
0.21462740004062653,-0.9132568836212158,156.17369079589844,-0.07604134407308366,-0.393436683245624,-0.09238454376657801,-0.4849228422467907
0.40432190895080566,-0.030867354944348335,153.69512939453125,-0.07604134407308366,-0.393436683245624,-0.09238454376657801,-0.4849228422467907
0.7794539928436279,-0.21603921055793762,151.25064086914062,-0.07604134407308366,-0.393436683245624,-0.09238454376657801,-0.4849228422467907
-0.230746790766716,0.3553289473056793,148.78076171875,-0.07604134407308366,-0.393436683245624,-0.09238454376657801,-0.4849228422467907
0.574813961982727,0.1347968429327011,146.1424102783203,-0.07604134407308366,-0.393436683245624,-0.09238454376657801,-0.4849228422467907
0.052857767790555954,-0.40702369809150696,143.5366668701172,-0.07604134407308366,-0.393436683245624,-0.09238454376657801,-0.4849228422467907
0.8154198527336121,-0.3588472604751587,140.97207641601562,-0.07604134407308366,-0.393436683245624,-0.09238454376657801,-0.4849228422467907
0.031115828081965446,0.1144670769572258,138.28497314453125,-0.07604134407308366,-0.393436683245624,-0.09238454376657801,-0.4849228422467907
0.32207515835762024,0.10928512364625931,135.73362731933594,-0.07604134407308366,-0.393436683245624,-0.09238454376657801,-0.4849228422467907
-0.11784344911575317,-0.0021043866872787476,133.15013122558594,-0.07604134407308366,-0.393436683245624,-0.09238454376657801,-0.4849228422467907
0.19920584559440613,-0.2895229756832123,130.5528564453125,-0.07604134407308366,-0.393436683245624,-0.09238454376657801,-0.4849228422467907
0.5495737791061401,-0.8382753729820251,128.00607299804688,-0.07604134407308366,-0.393436683245624,-0.09238454376657801,-0.4849228422467907
-0.14747953414916992,-0.9535708427429199,125.49860382080078,-0.07604134407308366,-0.393436683245624,-0.09238454376657801,-0.4849228422467907
-0.24836254119873047,-0.9432901740074158,123.04467010498047,-0.07604134407308366,-0.393436683245624,-0.09238454376657801,-0.4849228422467907
-1.094711184501648,1.2207454442977905,120.77490234375,-0.07604134407308366,-0.393436683245624,-0.09238454376657801,-0.4849228422467907
0.9004909992218018,-1.0167431831359863,118.52201843261719,-0.07604134407308366,-0.393436683245624,-0.09238454376657801,-0.4849228422467907
-1.249398112297058,1.290233850479126,116.30998229980469,-0.07604134407308366,-0.393436683245624,-0.09238454376657801,-0.4849228422467907
0.3634818494319916,-2.0119776725769043,114.0445556640625,-0.07604134407308366,-0.393436683245624,-0.09238454376657801,-0.4849228422467907
1.9816974401474,0.5332821607589722,111.786865234375,-0.07604134407308366,-0.393436683245624,-0.09238454376657801,-0.4849228422467907
-0.43990397453308105,0.08651846647262573,109.54386901855469,-0.07604134407308366,-0.393436683245624,-0.09238454376657801,-0.4849228422467907
0.5135987997055054,0.980380117893219,107.1604232788086,-0.07604134407308366,-0.393436683245624,-0.09238454376657801,-0.4849228422467907
-0.27730175852775574,-0.1727699488401413,104.69548034667969,-0.07604134407308366,-0.393436683245624,-0.09238454376657801,-0.4849228422467907
1.3278275728225708,-0.14242731034755707,102.31419372558594,-0.07604134407308366,-0.393436683245624,-0.09238454376657801,-0.4849228422467907
-0.20549510419368744,-0.4133944511413574,99.92747497558594,-0.07604134407308366,-0.393436683245624,-0.09238454376657801,-0.4849228422467907
0.9330933690071106,-0.07220590114593506,97.48519134521484,-0.07604134407308366,-0.393436683245624,-0.09238454376657801,-0.4849228422467907
-0.45038658380508423,0.7614286541938782,95.0494613647461,-0.07604134407308366,-0.393436683245624,-0.09238454376657801,-0.4849228422467907
-0.5098279714584351,-0.6293979287147522,92.5190200805664,-0.07604134407308366,-0.393436683245624,-0.09238454376657801,-0.4849228422467907
0.6145536303520203,0.6427858471870422,90.0369873046875,-0.07604134407308366,-0.393436683245624,-0.09238454376657801,-0.4849228422467907
0.9706760048866272,0.3173626959323883,87.54936218261719,-0.07604134407308366,-0.393436683245624,-0.09238454376657801,-0.4849228422467907
-0.8756129145622253,-0.4631320834159851,85.0504150390625,-0.07604134407308366,-0.393436683245624,-0.09238454376657801,-0.4849228422467907
-0.08634964376688004,-0.6415348052978516,82.52619171142578,-0.07604134407308366,-0.393436683245624,-0.09238454376657801,-0.4849228422467907
0.14308279752731323,-0.0007811218965798616,80.05355072021484,-0.07604134407308366,-0.393436683245624,-0.09238454376657801,-0.4849228422467907
0.24793654680252075,-0.4332738518714905,77.69894409179688,-0.07604134407308366,-0.393436683245624,-0.09238454376657801,-0.4849228422467907
-0.4556874930858612,0.03742525354027748,75.34375,-0.07604134407308366,-0.393436683245624,-0.09238454376657801,-0.4849228422467907
0.10647214949131012,-0.49289384484291077,72.91691589355469,-0.07604134407308366,-0.393436683245624,-0.09238454376657801,-0.4849228422467907
-0.011252508498728275,-0.029013462364673615,70.50151824951172,-0.07604134407308366,-0.393436683245624,-0.09238454376657801,-0.4849228422467907
-0.05597476288676262,-0.33117201924324036,68.0786361694336,-0.07604134407308366,-0.393436683245624,-0.09238454376657801,-0.4849228422467907
-0.03285178169608116,-0.7144239544868469,65.76130676269531,-0.07604134407308366,-0.393436683245624,-0.09238454376657801,-0.4849228422467907
-0.37674668431282043,0.5901439785957336,63.46281433105469,-0.07604134407308366,-0.393436683245624,-0.09238454376657801,-0.4849228422467907
-1.1319330930709839,-0.03609577193856239,61.187156677246094,-0.07604134407308366,-0.393436683245624,-0.09238454376657801,-0.4849228422467907
-0.5780099034309387,-0.18294082581996918,58.99369812011719,-0.07604134407308366,-0.393436683245624,-0.09238454376657801,-0.4849228422467907
-0.4018053412437439,0.01366946566849947,57.0683708190918,-0.07604134407308366,-0.393436683245624,-0.09238454376657801,-0.4849228422467907
-2.9143288135528564,0.960338830947876,55.14499282836914,-0.07604134407308366,-0.393436683245624,-0.09238454376657801,-0.4849228422467907
1.9247299432754517,-0.03985011950135231,53.398170471191406,-0.07604134407308366,-0.393436683245624,-0.09238454376657801,-0.4849228422467907
1.5963163375854492,-0.5579814314842224,51.71082305908203,-0.07604134407308366,-0.393436683245624,-0.09238454376657801,-0.4849228422467907
-0.1734055131673813,-0.10839039832353592,49.93485641479492,-0.07604134407308366,-0.393436683245624,-0.09238454376657801,-0.4849228422467907
-0.4270424544811249,0.3745693564414978,48.15934753417969,-0.07604134407308366,-0.393436683245624,-0.09238454376657801,-0.4849228422467907
-1.900683045387268,-0.8157172799110413,46.39799499511719,-0.07604134407308366,-0.393436683245624,-0.09238454376657801,-0.4849228422467907
2.3844945430755615,0.9049856662750244,44.75340270996094,-0.07604134407308366,-0.393436683245624,-0.09238454376657801,-0.4849228422467907
1.0633368492126465,-0.41467559337615967,42.83856201171875,-0.07604134407308366,-0.393436683245624,-0.09238454376657801,-0.4849228422467907
-0.5145539045333862,0.011270458810031414,40.87992477416992,-0.07604134407308366,-0.393436683245624,-0.09238454376657801,-0.4849228422467907
-1.4904106855392456,-0.3907719552516937,38.96524429321289,-0.07604134407308366,-0.393436683245624,-0.09238454376657801,-0.4849228422467907
0.04815942794084549,-0.4002825915813446,37.01175308227539,-0.07604134407308366,-0.393436683245624,-0.09238454376657801,-0.4849228422467907
-0.5062316656112671,0.06902848184108734,34.900230407714844,-0.07604134407308366,-0.393436683245624,-0.09238454376657801,-0.4849228422467907
0.5973475575447083,-0.7028465867042542,32.64103317260742,-0.07604134407308366,-0.393436683245624,-0.09238454376657801,-0.4849228422467907
-0.3362608253955841,0.22856560349464417,30.319917678833008,-0.07604134407308366,-0.393436683245624,-0.09238454376657801,-0.4849228422467907
1.269745111465454,0.11090398579835892,28.024463653564453,-0.07604134407308366,-0.393436683245624,-0.09238454376657801,-0.4849228422467907
-1.2509080171585083,0.8194789886474609,25.68467903137207,-0.07604134407308366,-0.393436683245624,-0.09238454376657801,-0.4849228422467907
1.38945472240448,-0.7421081066131592,23.379186630249023,-0.07604134407308366,-0.393436683245624,-0.09238454376657801,-0.4849228422467907
-0.37578409910202026,0.03554758429527283,21.11484718322754,-0.07604134407308366,-0.393436683245624,-0.09238454376657801,-0.4849228422467907
-0.15361972153186798,-0.25996679067611694,18.757423400878906,-0.07604134407308366,-0.393436683245624,-0.09238454376657801,-0.4849228422467907
-0.7996557354927063,-0.7496902942657471,16.495500564575195,-0.07604134407308366,-0.393436683245624,-0.09238454376657801,-0.4849228422467907
0.578799307346344,1.2955232858657837,14.243117332458496,-0.07604134407308366,-0.393436683245624,-0.09238454376657801,-0.4849228422467907
0.0021331377793103456,0.3738460838794708,11.895211219787598,-0.07604134407308366,-0.393436683245624,-0.09238454376657801,-0.4849228422467907
-0.26256632804870605,-0.6221157312393188,9.541205406188965,-0.07604134407308366,-0.393436683245624,-0.09238454376657801,-0.4849228422467907
-0.8931820392608643,0.014599275775253773,7.260766983032227,-0.07604134407308366,-0.393436683245624,-0.09238454376657801,-0.4849228422467907
-0.18547259271144867,0.3022873103618622,4.914287567138672,-0.07604134407308366,-0.393436683245624,-0.09238454376657801,-0.4849228422467907
0.7584072351455688,-0.5081055164337158,2.6135663986206055,-0.07604134407308366,-0.393436683245624,-0.09238454376657801,-0.4849228422467907
-0.3835000693798065,0.4758264422416687,0.1907029002904892,-0.07604134407308366,-0.393436683245624,-0.09238454376657801,-0.4849228422467907
0.35245299339294434,-0.6744391322135925,-2.1904001235961914,-0.07604134407308366,-0.393436683245624,-0.09238454376657801,-0.4849228422467907
-0.15246497094631195,0.5874009728431702,-4.566432952880859,-0.07604134407308366,-0.393436683245624,-0.09238454376657801,-0.4849228422467907
-0.3836113214492798,-0.050471145659685135,-7.066915035247803,-0.07604134407308366,-0.393436683245624,-0.09238454376657801,-0.4849228422467907
-0.8173168301582336,0.8875489234924316,-9.652802467346191,-0.07604134407308366,-0.393436683245624,-0.09238454376657801,-0.4849228422467907
0.07758308947086334,-0.28530657291412354,-12.183610916137695,-0.07604134407308366,-0.393436683245624,-0.09238454376657801,-0.4849228422467907
-0.2211216241121292,0.5609495043754578,-14.719952583312988,-0.07604134407308366,-0.393436683245624,-0.09238454376657801,-0.4849228422467907
0.4136328101158142,-1.176061749458313,-17.33162498474121,-0.07604134407308366,-0.393436683245624,-0.09238454376657801,-0.4849228422467907
-0.3281034231185913,0.8016365170478821,-19.927404403686523,-0.07604134407308366,-0.393436683245624,-0.09238454376657801,-0.4849228422467907
-0.023529501631855965,0.5060217380523682,-22.5220947265625,-0.07604134407308366,-0.393436683245624,-0.09238454376657801,-0.4849228422467907
-0.21010436117649078,1.1944199800491333,-25.131879806518555,-0.07604134407308366,-0.393436683245624,-0.09238454376657801,-0.4849228422467907
0.3943917453289032,0.5200390219688416,-27.69037628173828,-0.07604134407308366,-0.393436683245624,-0.09238454376657801,-0.4849228422467907
-0.10342130064964294,-1.2938684225082397,-30.184371948242188,-0.07604134407308366,-0.393436683245624,-0.09238454376657801,-0.4849228422467907
-0.7455083727836609,-0.6196776032447815,-32.85490798950195,-0.07604134407308366,-0.393436683245624,-0.09238454376657801,-0.4849228422467907
0.9201245903968811,1.2737797498703003,-35.60549545288086,-0.07604134407308366,-0.393436683245624,-0.09238454376657801,-0.4849228422467907
-0.36115214228630066,0.7070463299751282,-38.26274108886719,-0.07604134407308366,-0.393436683245624,-0.09238454376657801,-0.4849228422467907
0.3029409348964691,-0.5739529132843018,-41.00762939453125,-0.07604134407308366,-0.393436683245624,-0.09238454376657801,-0.4849228422467907
-0.3078431785106659,0.0035623949952423573,-43.77783966064453,-0.07604134407308366,-0.393436683245624,-0.09238454376657801,-0.4849228422467907
0.28949275612831116,0.40785855054855347,-46.553443908691406,-0.07604134407308366,-0.393436683245624,-0.09238454376657801,-0.4849228422467907
-0.7533470392227173,-0.022658303380012512,-49.3135871887207,-0.07604134407308366,-0.393436683245624,-0.09238454376657801,-0.4849228422467907
0.03337724506855011,0.496942400932312,-52.05304718017578,-0.07604134407308366,-0.393436683245624,-0.09238454376657801,-0.4849228422467907
-0.4484962224960327,0.7773111462593079,-54.80005645751953,-0.07604134407308366,-0.393436683245624,-0.09238454376657801,-0.4849228422467907
-0.01552314218133688,0.6747434735298157,-57.53261184692383,-0.07604134407308366,-0.393436683245624,-0.09238454376657801,-0.4849228422467907
-0.18460482358932495,1.9403313398361206,-60.2576789855957,-0.07604134407308366,-0.393436683245624,-0.09238454376657801,-0.4849228422467907
0.7341045141220093,-0.31927624344825745,-62.98410415649414,-0.07604134407308366,-0.393436683245624,-0.09238454376657801,-0.4849228422467907
-0.2527627944946289,-0.3650707006454468,-65.75772094726562,-0.07604134407308366,-0.393436683245624,-0.09238454376657801,-0.4849228422467907
-1.464786410331726,0.3999982178211212,-68.41592407226562,-0.07604134407308366,-0.393436683245624,-0.09238454376657801,-0.4849228422467907
0.9983572959899902,1.265838861465454,-70.97248840332031,-0.07604134407308366,-0.393436683245624,-0.09238454376657801,-0.4849228422467907
0.3456263542175293,-0.24727939069271088,-73.51309967041016,-0.07604134407308366,-0.393436683245624,-0.09238454376657801,-0.4849228422467907
0.21244090795516968,0.5220484137535095,-76.12632751464844,-0.07604134407308366,-0.393436683245624,-0.09238454376657801,-0.4849228422467907
0.03921378031373024,-0.4763088524341583,-78.71049499511719,-0.07604134407308366,-0.393436683245624,-0.09238454376657801,-0.4849228422467907
0.28334179520606995,1.1851048469543457,-81.26350402832031,-0.07604134407308366,-0.393436683245624,-0.09238454376657801,-0.4849228422467907
-0.06750006973743439,0.07610101252794266,-83.8437271118164,-0.07604134407308366,-0.393436683245624,-0.09238454376657801,-0.4849228422467907
0.5450313687324524,0.8525472283363342,-86.51661682128906,-0.07604134407308366,-0.393436683245624,-0.09238454376657801,-0.4849228422467907
-1.4411523342132568,0.005212375428527594,-89.1793441772461,-0.07604134407308366,-0.393436683245624,-0.09238454376657801,-0.4849228422467907
0.8559286594390869,0.20161451399326324,-91.85016632080078,-0.07604134407308366,-0.393436683245624,-0.09238454376657801,-0.4849228422467907
0.812504231929779,1.1542727947235107,-94.53824615478516,-0.07604134407308366,-0.393436683245624,-0.09238454376657801,-0.4849228422467907
0.8629991412162781,0.09312888234853745,-97.19483947753906,-0.07604134407308366,-0.393436683245624,-0.09238454376657801,-0.4849228422467907
0.8585114479064941,0.19059661030769348,-99.86019134521484,-0.07604134407308366,-0.393436683245624,-0.09238454376657801,-0.4849228422467907
-0.31592097878456116,-0.5207836031913757,-102.50576782226562,-0.07604134407308366,-0.393436683245624,-0.09238454376657801,-0.4849228422467907
-2.024210214614868,0.03820803761482239,-104.94976043701172,-0.07604134407308366,-0.393436683245624,-0.09238454376657801,-0.4849228422467907
2.097661256790161,1.574052333831787,-107.33158111572266,-0.07604134407308366,-0.393436683245624,-0.09238454376657801,-0.4849228422467907
0.5153224468231201,-0.80029296875,-109.78559112548828,-0.07604134407308366,-0.393436683245624,-0.09238454376657801,-0.4849228422467907
-0.2912852466106415,-0.12334127724170685,-112.23089599609375,-0.07604134407308366,-0.393436683245624,-0.09238454376657801,-0.4849228422467907
0.6484789252281189,1.7342394590377808,-114.78022766113281,-0.07604134407308366,-0.393436683245624,-0.09238454376657801,-0.4849228422467907
-1.2439775466918945,0.2742145359516144,-117.25074768066406,-0.07604134407308366,-0.393436683245624,-0.09238454376657801,-0.4849228422467907
0.03779318928718567,-0.31034228205680847,-119.79459381103516,-0.07604134407308366,-0.393436683245624,-0.09238454376657801,-0.4849228422467907
0.49269962310791016,-0.3112044334411621,-122.50563049316406,-0.07604134407308366,-0.393436683245624,-0.09238454376657801,-0.4849228422467907
0.36690083146095276,0.5811735987663269,-125.17743682861328,-0.07604134407308366,-0.393436683245624,-0.09238454376657801,-0.4849228422467907
0.8445850014686584,0.6305897831916809,-127.69364929199219,-0.07604134407308366,-0.393436683245624,-0.09238454376657801,-0.4849228422467907
0.9666687250137329,0.03441125899553299,-130.18748474121094,-0.07604134407308366,-0.393436683245624,-0.09238454376657801,-0.4849228422467907
-0.4099641442298889,-0.06345495581626892,-132.70346069335938,-0.07604134407308366,-0.393436683245624,-0.09238454376657801,-0.4849228422467907
-0.25073596835136414,1.3460054397583008,-135.17083740234375,-0.07604134407308366,-0.393436683245624,-0.09238454376657801,-0.4849228422467907
0.49928775429725647,-0.08205649256706238,-137.62005615234375,-0.07604134407308366,-0.393436683245624,-0.09238454376657801,-0.4849228422467907
0.7733928561210632,-0.41921737790107727,-140.0835418701172,-0.07604134407308366,-0.393436683245624,-0.09238454376657801,-0.4849228422467907
0.7782400250434875,-0.23324920237064362,-142.49717712402344,-0.07604134407308366,-0.393436683245624,-0.09238454376657801,-0.4849228422467907
-0.09346532076597214,0.3607889413833618,-144.86749267578125,-0.07604134407308366,-0.393436683245624,-0.09238454376657801,-0.4849228422467907
0.4275423586368561,0.4086901545524597,-147.267578125,-0.07604134407308366,-0.393436683245624,-0.09238454376657801,-0.4849228422467907
-0.01598581112921238,0.27498582005500793,-149.71522521972656,-0.07604134407308366,-0.393436683245624,-0.09238454376657801,-0.4849228422467907
0.43474769592285156,0.07411463558673859,-152.15647888183594,-0.07604134407308366,-0.393436683245624,-0.09238454376657801,-0.4849228422467907
1.240675687789917,0.3656393587589264,-154.71739196777344,-0.07604134407308366,-0.393436683245624,-0.09238454376657801,-0.4849228422467907
-0.8534632921218872,0.29404351115226746,-157.25743103027344,-0.07604134407308366,-0.393436683245624,-0.09238454376657801,-0.4849228422467907
0.21448491513729095,0.5020078420639038,-159.8166046142578,-0.07604134407308366,-0.393436683245624,-0.09238454376657801,-0.4849228422467907
-0.12317434698343277,-0.10836127400398254,-162.43296813964844,-0.07604134407308366,-0.393436683245624,-0.09238454376657801,-0.4849228422467907
-0.2646278738975525,0.533267080783844,-165.0592803955078,-0.07604134407308366,-0.393436683245624,-0.09238454376657801,-0.4849228422467907
1.1786950826644897,-0.4104589819908142,-167.68653869628906,-0.07604134407308366,-0.393436683245624,-0.09238454376657801,-0.4849228422467907
0.05315973237156868,0.9993513226509094,-170.3384552001953,-0.07604134407308366,-0.393436683245624,-0.09238454376657801,-0.4849228422467907
0.2745024561882019,-0.5443695783615112,-172.92169189453125,-0.07604134407308366,-0.393436683245624,-0.09238454376657801,-0.4849228422467907
0.8112265467643738,0.044239576905965805,-175.47491455078125,-0.07604134407308366,-0.393436683245624,-0.09238454376657801,-0.4849228422467907
0.6796219944953918,-0.05143044888973236,-178.0070037841797,-0.07604134407308366,-0.393436683245624,-0.09238454376657801,-0.4849228422467907
1.7591005563735962,-2.627005100250244,179.52784729003906,-0.07604134407308366,-0.393436683245624,-0.09238454376657801,-0.4849228422467907
-2.181770086288452,2.918854236602783,177.29507446289062,-0.07604134407308366,-0.393436683245624,-0.09238454376657801,-0.4849228422467907
0.03108750469982624,-1.160891056060791,175.11801147460938,-0.07604134407308366,-0.393436683245624,-0.09238454376657801,-0.4849228422467907
1.7498239278793335,-2.6208834648132324,172.78404235839844,-0.07604134407308366,-0.393436683245624,-0.09238454376657801,-0.4849228422467907
-1.813908338546753,0.15765000879764557,170.56350708007812,-0.07604134407308366,-0.393436683245624,-0.09238454376657801,-0.4849228422467907
1.1162759065628052,4.08757209777832,168.3773956298828,-0.07604134407308366,-0.393436683245624,-0.09238454376657801,-0.4849228422467907
1.3436486721038818,-3.879851818084717,166.0524444580078,-0.07604134407308366,-0.393436683245624,-0.09238454376657801,-0.4849228422467907
0.016975782811641693,0.18171994388103485,164.05487060546875,-0.07604134407308366,-0.393436683245624,-0.09238454376657801,-0.4849228422467907
0.30966421961784363,0.16377981007099152,162.3444061279297,-0.07604134407308366,-0.393436683245624,-0.09238454376657801,-0.4849228422467907
-0.9211302399635315,-1.5529135465621948,160.97784423828125,-0.07604134407308366,-0.393436683245624,-0.09238454376657801,-0.4849228422467907
-0.8267747163772583,-1.7975393533706665,159.98207092285156,-0.07604134407308366,-0.393436683245624,-0.09238454376657801,-0.4849228422467907
-1.2106159925460815,-0.8670540452003479,159.55934143066406,-0.07604134407308366,-0.393436683245624,-0.09238454376657801,-0.4849228422467907
-1.0374287366867065,-0.7936894297599792,159.53074645996094,-0.07604134407308366,-0.393436683245624,-0.09238454376657801,-0.4849228422467907
-0.4226886034011841,0.3535562753677368,159.6414031982422,-0.07604134407308366,-0.393436683245624,-0.09238454376657801,-0.4849228422467907
-0.24097126722335815,0.812493622303009,159.79412841796875,-0.07604134407308366,-0.393436683245624,-0.09238454376657801,-0.4849228422467907
0.256641149520874,0.054190270602703094,159.79293823242188,-0.07604134407308366,-0.393436683245624,-0.09238454376657801,-0.4849228422467907
0.09777356684207916,0.20048177242279053,159.7537841796875,-0.07604134407308366,-0.393436683245624,-0.09238454376657801,-0.4849228422467907
0.01636902615427971,0.19336916506290436,159.78372192382812,-0.07604134407308366,-0.393436683245624,-0.09238454376657801,-0.4849228422467907
-0.07958315312862396,-0.07950352132320404,159.778564453125,-0.07604134407308366,-0.393436683245624,-0.09238454376657801,-0.4849228422467907
0.14105968177318573,0.29897451400756836,159.7658233642578,-0.07604134407308366,-0.393436683245624,-0.09238454376657801,-0.4849228422467907
-0.02368081919848919,0.08226233720779419,159.78176879882812,-0.07604134407308366,-0.393436683245624,-0.09238454376657801,-0.4849228422467907
-0.04159601405262947,0.10876690596342087,159.77227783203125,-0.07604134407308366,-0.393436683245624,-0.09238454376657801,-0.4849228422467907
0.06852828711271286,0.19025017321109772,159.7710418701172,-0.07604134407308366,-0.393436683245624,-0.09238454376657801,-0.4849228422467907
0.016509566456079483,0.10468637943267822,159.77842712402344,-0.07604134407308366,-0.393436683245624,-0.09238454376657801,-0.4849228422467907
0.00759319169446826,0.13292811810970306,159.77120971679688,-0.07604134407308366,-0.393436683245624,-0.09238454376657801,-0.4849228422467907
0.03969252482056618,0.17112238705158234,159.77369689941406,-0.07604134407308366,-0.393436683245624,-0.09238454376657801,-0.4849228422467907
-0.013275612145662308,0.07889045029878616,159.7736358642578,-0.07604134407308366,-0.393436683245624,-0.09238454376657801,-0.4849228422467907
0.03036137856543064,0.1501668244600296,159.7694854736328,-0.07604134407308366,-0.393436683245624,-0.09238454376657801,-0.4849228422467907
0.026239531114697456,0.1115490272641182,159.77169799804688,-0.07604134407308366,-0.393436683245624,-0.09238454376657801,-0.4849228422467907
0.00438131345435977,0.11789549887180328,159.77000427246094,-0.07604134407308366,-0.393436683245624,-0.09238454376657801,-0.4849228422467907
0.019685067236423492,0.15948383510112762,159.7688751220703,-0.07604134407308366,-0.393436683245624,-0.09238454376657801,-0.4849228422467907
0.0010607916628941894,0.10957597196102142,159.76986694335938,-0.07604134407308366,-0.393436683245624,-0.09238454376657801,-0.4849228422467907
-0.0017194969113916159,0.12209441512823105,159.76809692382812,-0.07604134407308366,-0.393436683245624,-0.09238454376657801,-0.4849228422467907
0.02236517332494259,0.12146599590778351,159.76934814453125,-0.07604134407308366,-0.393436683245624,-0.09238454376657801,-0.4849228422467907
0,0.12967367470264435,159.76898193359375,-0.07757953333215684,-0.40150129036150034,-0.09219816732220348,-0.4828300116583705
0,0.13065294921398163,159.76715087890625,-0.07911616945419356,-0.4095303789847012,-0.09219816732220348,-0.48066062312573193
0,0.147666335105896,159.766357421875,-0.08065280557623028,-0.4175220616420523,-0.09219816732220348,-0.4783412957563996
-0.8204890489578247,0.17639513313770294,159.75770568847656,-0.08224642010444463,-0.4254719123026976,-0.09903557606351869,-0.4756407835210363
-2.5406367778778076,1.3912965059280396,159.9034881591797,-0.08413042455458909,-0.43329039121977975,-0.12704495795381562,-0.4625766865288218
-3.067255973815918,0.9375988245010376,160.00094604492188,-0.08663727751713142,-0.4408382738195359,-0.17377739755126334,-0.4431692254419128
-1.1976666450500488,0.925014853477478,160.00926208496094,-0.08982974265818483,-0.44809507940481924,-0.2093184193751464,-0.4276474447920918
-1.2033255100250244,-0.16441896557807922,160.0063934326172,-0.0934851185474286,-0.4551697176591389,-0.22932668733410533,-0.4213091457262635
-1.9266067743301392,0.9712476134300232,160.04473876953125,-0.0975245864116328,-0.46213550698736466,-0.25540945637039836,-0.4145855736608306
-1.0393952131271362,1.1529467105865479,160.00161743164062,-0.10198738304471286,-0.4688977530536551,-0.28012613959920896,-0.39688395429402584
-1.322778582572937,-0.24819163978099823,159.9274444580078,-0.10682019188495662,-0.4754496554119718,-0.2998109212300429,-0.3893443287039796
-0.18116304278373718,1.2088018655776978,159.94992065429688,-0.11192148096277377,-0.48187201851358,-0.3123437681080152,-0.3813392434890071
-1.3736965656280518,0.5419182777404785,160.1223907470703,-0.11723518679293594,-0.4881060947839997,-0.32530093151144673,-0.3667499089613556
-1.3994194269180298,0.2878720760345459,160.2936248779297,-0.12284944648427576,-0.4941609689365657,-0.34841023144933075,-0.35983498934656377
-1.2625634670257568,0.8026276230812073,160.35157775878906,-0.12884114359828847,-0.5000824896132365,-0.37059342223219566,-0.3507474918539325
-1.6184265613555908,0.19185006618499756,160.3173370361328,-0.13521776938746266,-0.5058592201934919,-0.39460167246870687,-0.3424601777767141
0.6348304152488708,0.33916521072387695,160.3584442138672,-0.14186276921653185,-0.5115300137622074,-0.4027983070195962,-0.3380350504691402
-1.6543489694595337,0.08557064086198807,160.3269805908203,-0.1486468742331231,-0.5171344357247774,-0.4112942949713517,-0.33449558503925797
-0.24664682149887085,1.1844509840011597,160.29632568359375,-0.1556337927459066,-0.5226211661959272,-0.42713592656267174,-0.32391207149873175
-0.9051780700683594,0.5633103251457214,160.3087615966797,-0.16283271269497665,-0.527898328407771,-0.436734467325732,-0.30934739392250776
0,0.8247560858726501,160.2043914794922,-0.17017448007193803,-0.5329577248057142,-0.444277617909635,-0.297780173830688
0.2545901834964752,0,160.10882568359375,-0.1775614271632447,-0.5378634529747067,-0.4421560330471644,-0.2909072064484159
1.416953682899475,0.7669180035591125,160.0173797607422,-0.18481461494553103,-0.5426586482208221,-0.42822650082719815,-0.2845162230854233
0.37885409593582153,-0.6844729781150818,159.91180419921875,-0.19182701441912078,-0.5473948599232566,-0.4132614360035707,-0.283829181206723
-0.30283620953559875,-0.42531052231788635,159.85403442382812,-0.1987094259992914,-0.5522024145753432,-0.41262795361690213,-0.29307737704366443
-1.2848560810089111,-0.4142456650733948,159.9021453857422,-0.20569681496863867,-0.5571453400390842,-0.42585872270477304,-0.30007367860525846
-2.1369171142578125,1.0419466495513916,159.7899169921875,-0.21303208348561176,-0.5621029776696942,-0.4543734993319957,-0.29484283706794184
-2.042323350906372,1.2035976648330688,159.6970672607422,-0.22089520017344808,-0.5668610843767721,-0.48920050320836395,-0.2761299677814047
-2.3598241806030273,-0.9048065543174744,159.68597412109375,-0.22935424658327563,-0.5714425011237875,-0.5258850659709423,-0.2736400418604414
2.520841360092163,0.6349092721939087,159.92291259765625,-0.2381078159342157,-0.5760219113549423,-0.5245432561418661,-0.27588918587813777
-0.3663124144077301,-0.0705275610089302,160.12403869628906,-0.24670058347090762,-0.5805808712785234,-0.5065888482611626,-0.2711860049515963
1.9341354370117188,0,160.17494201660156,-0.25503485434313505,-0.585105535775009,-0.49352365640612933,-0.2717737346266707
-0.4094087779521942,0.3311863839626312,160.08999633789062,-0.2631543648208025,-0.589612098964345,-0.48081760091396664,-0.26901384809364876
-0.4251067638397217,0.24585634469985962,159.97808837890625,-0.27122594397088196,-0.5940555906875264,-0.48777189709556595,-0.264205158688128
-1.4541435241699219,0.9048237800598145,160.05224609375,-0.2794859790813643,-0.598379101656998,-0.503432316162313,-0.25461615764846407
-1.2239590883255005,0,160.41403198242188,-0.28806249703215947,-0.602559869299746,-0.5257498379331081,-0.24707595948129896
-0.6508956551551819,-0.31015703082084656,160.7208709716797,-0.29695519257711966,-0.6066993406404636,-0.5413736274621138,-0.249660601404806
0,0.15563100576400757,160.78089904785156,-0.3060232874553184,-0.6108710816378393,-0.5467977579217403,-0.25094831828027964
1.0361711978912354,1.6556562185287476,160.67138671875,-0.3150646270874939,-0.614927769774157,-0.5381629979393134,-0.23585425807784002
0.7255147099494934,0.8126922845840454,160.931884765625,-0.3239116710873268,-0.6186872609849604,-0.5234822820406407,-0.21528468721856675
0.3085334599018097,0,161.3700714111328,-0.33256456688732006,-0.6222189021410627,-0.5148652139585466,-0.2085122515136997
0.5897805094718933,-0.32551348209381104,161.78726196289062,-0.34108327087208934,-0.6257167114358808,-0.5073792642137657,-0.21122486386448147
1.0875515937805176,-1.328716516494751,162.15928649902344,-0.3494231105462596,-0.6293520029168574,-0.4934014966866622,-0.2250101138527195
-2.8437485694885254,-2.9489307403564453,162.245849609375,-0.3577684269476837,-0.6333992303183508,-0.5080364714842289,-0.26065717432647945
-1.501141905784607,-2.0895307064056396,162.11331176757812,-0.36653742997764815,-0.6380934097131505,-0.544243892111505,-0.30264435304949683
1.5878703594207764,5.555991172790527,161.947998046875,-0.37560213870355963,-0.6428967558426988,-0.5435211549978702,-0.27375718249628944
-1.5970889329910278,0.22908347845077515,161.89291381835938,-0.38466146479891095,-0.6470576342557451,-0.543597976444289,-0.22554822706927857
0.8326927423477173,-0.33128634095191956,161.8351593017578,-0.3937745141417771,-0.6508238687945734,-0.5499679446996499,-0.22639991759012143
0.1401938945055008,-0.0894133672118187,161.88003540039062,-0.3937745141417771,-0.6508238687945734,-0.5499679446996499,-0.22639991759012143
-0.04666488617658615,-1.2811394929885864,161.90133666992188,-0.3937745141417771,-0.6508238687945734,-0.5499679446996499,-0.22639991759012143
0.7350558638572693,0.6408897042274475,161.83096313476562,-0.3937745141417771,-0.6508238687945734,-0.5499679446996499,-0.22639991759012143
2.7803561687469482,0.23635296523571014,161.4835205078125,-0.3937745141417771,-0.6508238687945734,-0.5499679446996499,-0.22639991759012143
2.4623587131500244,-1.5574980974197388,160.89984130859375,-0.3937745141417771,-0.6508238687945734,-0.5499679446996499,-0.22639991759012143
1.2287882566452026,-0.1361253410577774,160.0613555908203,-0.3937745141417771,-0.6508238687945734,-0.5499679446996499,-0.22639991759012143
2.2359461784362793,-0.3350209593772888,158.92721557617188,-0.3937745141417771,-0.6508238687945734,-0.5499679446996499,-0.22639991759012143
3.489286184310913,-1.9444057941436768,157.55307006835938,-0.3937745141417771,-0.6508238687945734,-0.5499679446996499,-0.22639991759012143
0.6089534759521484,0.5143052935600281,156.1539306640625,-0.3937745141417771,-0.6508238687945734,-0.5499679446996499,-0.22639991759012143
1.920350432395935,-1.169574499130249,154.711669921875,-0.3937745141417771,-0.6508238687945734,-0.5499679446996499,-0.22639991759012143
0.29996320605278015,0.03252444416284561,153.10609436035156,-0.3937745141417771,-0.6508238687945734,-0.5499679446996499,-0.22639991759012143
0.8073481321334839,0.12028992176055908,151.51283264160156,-0.3937745141417771,-0.6508238687945734,-0.5499679446996499,-0.22639991759012143
0.4820054769515991,-0.3456265330314636,149.81825256347656,-0.3937745141417771,-0.6508238687945734,-0.5499679446996499,-0.22639991759012143
1.9617488384246826,1.2715626955032349,148.1267852783203,-0.3937745141417771,-0.6508238687945734,-0.5499679446996499,-0.22639991759012143
1.3275355100631714,-0.4288620054721832,146.40232849121094,-0.3937745141417771,-0.6508238687945734,-0.5499679446996499,-0.22639991759012143
1.0027821063995361,0.3142102360725403,144.76937866210938,-0.3937745141417771,-0.6508238687945734,-0.5499679446996499,-0.22639991759012143
1.1484800577163696,-0.7902723550796509,143.1099395751953,-0.3937745141417771,-0.6508238687945734,-0.5499679446996499,-0.22639991759012143
0.1986319124698639,-0.24453309178352356,141.45614624023438,-0.3937745141417771,-0.6508238687945734,-0.5499679446996499,-0.22639991759012143
1.6762641668319702,0.26429086923599243,139.78701782226562,-0.3937745141417771,-0.6508238687945734,-0.5499679446996499,-0.22639991759012143
0.30874767899513245,-1.3574362993240356,138.12588500976562,-0.3937745141417771,-0.6508238687945734,-0.5499679446996499,-0.22639991759012143
1.3113194704055786,0.6819908618927002,136.50613403320312,-0.3937745141417771,-0.6508238687945734,-0.5499679446996499,-0.22639991759012143
0.41445648670196533,-1.549285888671875,134.68435668945312,-0.3937745141417771,-0.6508238687945734,-0.5499679446996499,-0.22639991759012143
0.590503454208374,0.8972573280334473,133.09225463867188,-0.3937745141417771,-0.6508238687945734,-0.5499679446996499,-0.22639991759012143
-0.002501468872651458,-1.6932049989700317,131.44615173339844,-0.3937745141417771,-0.6508238687945734,-0.5499679446996499,-0.22639991759012143
1.5508196353912354,1.8980469703674316,129.880859375,-0.3937745141417771,-0.6508238687945734,-0.5499679446996499,-0.22639991759012143
-0.08408350497484207,-2.0543460845947266,128.22146606445312,-0.3937745141417771,-0.6508238687945734,-0.5499679446996499,-0.22639991759012143
1.022337555885315,0.22627559304237366,126.62738037109375,-0.3937745141417771,-0.6508238687945734,-0.5499679446996499,-0.22639991759012143
-0.22663986682891846,-0.6097888946533203,125.04688262939453,-0.3937745141417771,-0.6508238687945734,-0.5499679446996499,-0.22639991759012143
0.9072036743164062,0.2549905776977539,123.33786010742188,-0.3937745141417771,-0.6508238687945734,-0.5499679446996499,-0.22639991759012143
-0.37080565094947815,-0.9733238220214844,121.5307846069336,-0.3937745141417771,-0.6508238687945734,-0.5499679446996499,-0.22639991759012143
1.8066860437393188,1.269012212753296,119.68207550048828,-0.3937745141417771,-0.6508238687945734,-0.5499679446996499,-0.22639991759012143
0.22429153323173523,-0.255998432636261,117.81239318847656,-0.3937745141417771,-0.6508238687945734,-0.5499679446996499,-0.22639991759012143
0.6058322191238403,-0.7452706098556519,115.89825439453125,-0.3937745141417771,-0.6508238687945734,-0.5499679446996499,-0.22639991759012143
0.6267256736755371,0.15284965932369232,114.00704193115234,-0.3937745141417771,-0.6508238687945734,-0.5499679446996499,-0.22639991759012143
0.7354593276977539,0.8262913823127747,112.1543197631836,-0.3937745141417771,-0.6508238687945734,-0.5499679446996499,-0.22639991759012143
0.5318762063980103,0.6683402061462402,110.26002502441406,-0.3937745141417771,-0.6508238687945734,-0.5499679446996499,-0.22639991759012143
0.3166763186454773,-1.3611412048339844,108.42532348632812,-0.3937745141417771,-0.6508238687945734,-0.5499679446996499,-0.22639991759012143
0.383533239364624,0.3127101957798004,106.59589385986328,-0.3937745141417771,-0.6508238687945734,-0.5499679446996499,-0.22639991759012143
1.3544689416885376,-0.43861743807792664,104.76068115234375,-0.3937745141417771,-0.6508238687945734,-0.5499679446996499,-0.22639991759012143
0.6911306381225586,-0.6630461812019348,102.9609375,-0.3937745141417771,-0.6508238687945734,-0.5499679446996499,-0.22639991759012143
-0.5904665589332581,-0.25505679845809937,100.9485092163086,-0.3937745141417771,-0.6508238687945734,-0.5499679446996499,-0.22639991759012143
1.3658161163330078,-0.1626306176185608,98.89813232421875,-0.3937745141417771,-0.6508238687945734,-0.5499679446996499,-0.22639991759012143
0.9834091663360596,-0.44884324073791504,96.82709503173828,-0.3937745141417771,-0.6508238687945734,-0.5499679446996499,-0.22639991759012143
-0.3660174608230591,0.07321133464574814,94.6463623046875,-0.3937745141417771,-0.6508238687945734,-0.5499679446996499,-0.22639991759012143
0.028126800432801247,0.9692485928535461,92.43257904052734,-0.3937745141417771,-0.6508238687945734,-0.5499679446996499,-0.22639991759012143
-0.08015204966068268,0.285851389169693,90.214111328125,-0.3937745141417771,-0.6508238687945734,-0.5499679446996499,-0.22639991759012143
0.23126618564128876,-0.5435331463813782,87.98110961914062,-0.3937745141417771,-0.6508238687945734,-0.5499679446996499,-0.22639991759012143
0.12065950036048889,-0.7595948576927185,85.7039794921875,-0.3937745141417771,-0.6508238687945734,-0.5499679446996499,-0.22639991759012143
-0.7411449551582336,-0.04622354358434677,83.36711883544922,-0.3937745141417771,-0.6508238687945734,-0.5499679446996499,-0.22639991759012143
0.6908596158027649,-0.416197270154953,81.04430389404297,-0.3937745141417771,-0.6508238687945734,-0.5499679446996499,-0.22639991759012143
0.20037215948104858,-0.4812324345111847,78.73776245117188,-0.3937745141417771,-0.6508238687945734,-0.5499679446996499,-0.22639991759012143
-0.2894412577152252,-0.3659662902355194,76.76194763183594,-0.3937745141417771,-0.6508238687945734,-0.5499679446996499,-0.22639991759012143
-0.9985910654067993,1.0657016038894653,75.0947494506836,-0.3937745141417771,-0.6508238687945734,-0.5499679446996499,-0.22639991759012143
-1.8972667455673218,0.2655757665634155,73.71015930175781,-0.3937745141417771,-0.6508238687945734,-0.5499679446996499,-0.22639991759012143
-0.6663004755973816,1.1331002712249756,72.7878189086914,-0.3937745141417771,-0.6508238687945734,-0.5499679446996499,-0.22639991759012143
-1.384572148323059,1.1829816102981567,72.28636169433594,-0.3937745141417771,-0.6508238687945734,-0.5499679446996499,-0.22639991759012143
-1.0232795476913452,0.29650095105171204,72.15855407714844,-0.3937745141417771,-0.6508238687945734,-0.5499679446996499,-0.22639991759012143
0.7794838547706604,0.22794285416603088,72.30066680908203,-0.3937745141417771,-0.6508238687945734,-0.5499679446996499,-0.22639991759012143
0.05768823251128197,0.06636994332075119,72.36963653564453,-0.3937745141417771,-0.6508238687945734,-0.5499679446996499,-0.22639991759012143
0.07523544877767563,0.22325031459331512,72.2937240600586,-0.3937745141417771,-0.6508238687945734,-0.5499679446996499,-0.22639991759012143
0.48967206478118896,-0.00024228455731645226,72.29998779296875,-0.3937745141417771,-0.6508238687945734,-0.5499679446996499,-0.22639991759012143
-0.06747900694608688,0.031071074306964874,72.33145904541016,-0.3937745141417771,-0.6508238687945734,-0.5499679446996499,-0.22639991759012143
0.11938226222991943,-0.1835355907678604,72.30814361572266,-0.3937745141417771,-0.6508238687945734,-0.5499679446996499,-0.22639991759012143
0.18606150150299072,-0.15491603314876556,72.30793762207031,-0.3937745141417771,-0.6508238687945734,-0.5499679446996499,-0.22639991759012143
0.1246347650885582,0.043767474591732025,72.31935119628906,-0.3937745141417771,-0.6508238687945734,-0.5499679446996499,-0.22639991759012143
0.12381308525800705,0.06873664259910583,72.31016540527344,-0.3937745141417771,-0.6508238687945734,-0.5499679446996499,-0.22639991759012143
0.24260291457176208,0.012659776955842972,72.31493377685547,-0.3937745141417771,-0.6508238687945734,-0.5499679446996499,-0.22639991759012143
0.0712500661611557,-0.0033251778222620487,72.31948852539062,-0.3937745141417771,-0.6508238687945734,-0.5499679446996499,-0.22639991759012143
0.15188246965408325,-0.0712561085820198,72.31421661376953,-0.3937745141417771,-0.6508238687945734,-0.5499679446996499,-0.22639991759012143
0.18005314469337463,-0.035776328295469284,72.31763458251953,-0.3937745141417771,-0.6508238687945734,-0.5499679446996499,-0.22639991759012143
0.12881439924240112,0.04070856049656868,72.3193359375,-0.3937745141417771,-0.6508238687945734,-0.5499679446996499,-0.22639991759012143
0.17860308289527893,0.004407083615660667,72.3189468383789,-0.3937745141417771,-0.6508238687945734,-0.5499679446996499,-0.22639991759012143
0.13659100234508514,-0.030391866341233253,72.32170867919922,-0.3937745141417771,-0.6508238687945734,-0.5499679446996499,-0.22639991759012143
0.12831909954547882,-0.033185843378305435,72.32144165039062,-0.3937745141417771,-0.6508238687945734,-0.5499679446996499,-0.22639991759012143
0.15896901488304138,-0.01750844344496727,72.32110595703125,-0.3937745141417771,-0.6508238687945734,-0.5499679446996499,-0.22639991759012143
0.1514681577682495,0.005154666490852833,72.32290649414062,-0.3937745141417771,-0.6508238687945734,-0.5499679446996499,-0.22639991759012143
0.1457929164171219,-0.00042859482346102595,72.32359313964844,-0.3937745141417771,-0.6508238687945734,-0.5499679446996499,-0.22639991759012143
0.13855545222759247,-0.035313379019498825,72.32360076904297,-0.3937745141417771,-0.6508238687945734,-0.5499679446996499,-0.22639991759012143
0.1338372677564621,0,72.32403564453125,-0.4029217303923279,-0.6545996530723962,-0.5476980053664495,-0.22669419574861727
0.13851404190063477,0,72.32420349121094,-0.4120311171963759,-0.6583778896682065,-0.5454284111193071,-0.22669419574861727
0.10597112774848938,0.11820375174283981,72.3289794921875,-0.4211046125782498,-0.6621479176701458,-0.5433910347055644,-0.2257091644840936
0.537575364112854,0.7970194220542908,72.3544921875,-0.43011643909474107,-0.665846179913367,-0.5380281472733865,-0.21808230470245082
0.6632195115089417,2.0051767826080322,72.52033996582031,-0.43900018634960153,-0.6692862880330841,-0.5280215233098716,-0.19473066966359814
0.7284519672393799,2.9973533153533936,72.60528564453125,-0.4477039012187419,-0.6721844012706745,-0.5164242609869689,-0.15304291884725293
1.1336684226989746,1.2247973680496216,72.54907989501953,-0.4561816583192234,-0.6744419116762257,-0.5009065910708159,-0.11785832981889448
0.11491924524307251,0.9889925122261047,72.62203216552734,-0.4644433940267966,-0.6762524817648548,-0.49050169383796555,-0.09941008081659676
0.29716047644615173,0.9686920642852783,72.74418640136719,-0.4725898056100898,-0.6777733661273181,-0.487067696157222,-0.0830960426790019
0.9044504165649414,1.5123112201690674,72.89691925048828,-0.4806241553451399,-0.6789860082772143,-0.47705427204879625,-0.06242101530854902
1.0290039777755737,1.7298429012298584,72.9923095703125,-0.4884407922130129,-0.679801208940593,-0.4609421520959586,-0.03540306429689131
0.9160997271537781,1.5033063888549805,73.13225555419922,-0.49598808476843653,-0.680166735755952,-0.4447329545548807,-0.008460153546184318
-0.09341713786125183,0.354543536901474,73.1160888671875,-0.503343169942317,-0.6801787209590997,-0.43787726631077634,0.007021929168452802
0.21616320312023163,0.39628446102142334,73.20682525634766,-0.5106326003485203,-0.6800095479731031,-0.4368543824336182,0.013278829151143614
0,1.9654850959777832,73.2947998046875,-0.5178984953888639,-0.6796242223791258,-0.43505302240761623,0.032960242126137004
1.4206500053405762,0.4248346984386444,73.39669799804688,-0.5250507228452866,-0.678908890580189,-0.42321427236311143,0.0528795737462739
-0.11941850185394287,1.4706971645355225,73.44060516357422,-0.5320139307524853,-0.6778959301939335,-0.41237067650072284,0.06867567260439196
0.5285915732383728,-0.3640572726726532,73.52957153320312,-0.5388583605642068,-0.6766744856580365,-0.4089609009058526,0.07789767170324921
0.6245132088661194,0.36250820755958557,73.53233337402344,-0.5455942988583249,-0.6753762987036152,-0.39935169438831514,0.07788476282730698
0.10735534131526947,1.2271147966384888,73.49078369140625,-0.5521993362265898,-0.6739678288367574,-0.3932527898034702,0.09113162119562426
-1.213930368423462,1.10751211643219,73.4168701171875,-0.5588303948779746,-0.6722868416145338,-0.4024742483627052,0.11058684547121325
1.3936991691589355,0.29018279910087585,73.31900787353516,-0.5655258150728575,-0.6703466653764348,-0.4009761750232429,0.12223430310065547
1.249606966972351,0.7265446186065674,73.34920501708984,-0.5720251883971247,-0.6682388209207498,-0.3789486238888155,0.13070703158155084
-0.5451247692108154,1.2599658966064453,73.3922119140625,-0.578292076420427,-0.6659224182752786,-0.3730779389074694,0.1472612858749926
0.10221195966005325,0.7060056924819946,73.4254150390625,-0.5845407999028814,-0.6633315377058976,-0.3767688789870591,0.1636443824507296
0.7254290580749512,-0.7413235306739807,73.45230865478516,-0.5907628061486564,-0.660606583959371,-0.36987187050593406,0.16335006713246306
0.5862879157066345,0.8373925685882568,73.47970581054688,-0.5968362458672427,-0.6578774113795304,-0.35894089572442084,0.16415064244841535
0.20539847016334534,-0.2665556073188782,73.48530578613281,-0.6027636159080754,-0.6551019258830797,-0.35234350917550433,0.16890761712566016
0,0.5759323835372925,73.45142364501953,-0.6086217439450169,-0.6522653144326369,-0.3506318552574765,0.17148575692748028
-1.1941585540771484,0.3540513515472412,73.23892211914062,-0.6145485358766747,-0.6493426362800203,-0.3605831765414527,0.17923562138651805
0.6824213862419128,-0.45549169182777405,73.07479095458984,-0.6205937927890208,-0.6463624203916534,-0.3648476529400797,0.1783902852175136
0.657841682434082,0.49901100993156433,73.08088684082031,-0.6265815131804752,-0.6433862267964932,-0.3536787940344464,0.17875294620171187
0.636667013168335,1.1651842594146729,73.20402526855469,-0.6323862633105213,-0.6402914419105378,-0.3428912215710929,0.1926212401129305
0.4500104784965515,-0.08892519772052765,73.39152526855469,-0.6380256532886739,-0.6370063476960379,-0.33383557580721884,0.20159006562704837
0.39238953590393066,-0.4858464300632477,73.52056121826172,-0.6435310795511275,-0.6336864279652943,-0.3268155756872148,0.19680030206218357
-0.25216206908226013,0.9833179712295532,73.4409408569336,-0.6489682677940518,-0.6303718762961213,-0.3256470134637009,0.20094589823856945
-0.12828196585178375,-0.21486184000968933,73.39569854736328,-0.654422137743095,-0.6269694129830327,-0.3288173804214846,0.20734969933206832
0.6940470933914185,-0.430766224861145,73.37584686279297,-0.6598631381718184,-0.6235584199431142,-0.324102671025321,0.2019694654581447
-0.4877898097038269,0.060371652245521545,73.37152862548828,-0.6652505259330954,-0.620217984030799,-0.3223838603279244,0.19888284401968118
0.34249404072761536,-0.13116464018821716,73.38558197021484,-0.6706336802558508,-0.6169081861435225,-0.32359465840272617,0.19829290245349204
1.014884352684021,0.5838772654533386,73.53695678710938,-0.6759326621741315,-0.6135718660592098,-0.31228317179096254,0.20206550766403472
0.1649092435836792,0.28897783160209656,73.6445083618164,-0.681055451593129,-0.610143492660847,-0.30245155848873173,0.20933930013949667
0.08760140836238861,-0.4033251702785492,73.70954132080078,-0.6860787754393338,-0.6066624451125968,-0.30034730305584784,0.20838640565052624
-0.793679416179657,1.0586872100830078,73.83479309082031,-0.6911335970185852,-0.6031438270989905,-0.30623128645432507,0.21384775598223008
0.49729815125465393,-0.5720213055610657,74.05230712890625,-0.6962580338251104,-0.5995459015892505,-0.3087011303287001,0.2179033051865796
0.18262510001659393,-0.24573062360286713,74.14225006103516,-0.7013558357714726,-0.595970968164555,-0.30303510323477306,0.21108870577688016
-1.6609277725219727,-0.4911082983016968,74.05368041992188,-0.7065090807331984,-0.5925039924378503,-0.31535429217231786,0.20494838142767546
-0.12767420709133148,0.4048687815666199,73.93429565429688,-0.7118891940735436,-0.5890941749360512,-0.3302593086690954,0.2042297187882165
1.5757092237472534,0.8336597084999084,73.8268051147461,-0.7172929578974274,-0.5856043373666596,-0.31819235019696274,0.2145507895387709
0.18161210417747498,0.35725507140159607,73.89842987060547,-0.7224741275307154,-0.5819457884590759,-0.30354800579759,0.22447507937128344
-0.06766822934150696,-0.5177374482154846,73.98004150390625,-0.7275253481915894,-0.5782156817457221,-0.30259847350729024,0.2231377262311677
0.39153915643692017,0.6820502877235413,74.02776336669922,-0.7325461650467737,-0.5744853090280146,-0.29989954911482847,0.22450699989373485
0.47438502311706543,-0.7280468940734863,73.9944839477539,-0.7374843572417741,-0.5707467199052267,-0.29268351428521194,0.22412369484081865
-0.3652062714099884,0.2066183090209961,73.96598052978516,-0.7423548339554369,-0.5670475353096195,-0.29177369135431963,0.2197784566320479
-0.37887775897979736,0.19362325966358185,73.79519653320312,-0.7472694013134527,-0.5633567664790378,-0.29797439160756783,0.22311380303775272
0.34482884407043457,-0.5050259232521057,73.62080383300781,-0.7522380056815586,-0.5596598282800467,-0.2982581325651459,0.22051878084118168
0.292498916387558,1.1313010454177856,73.57835388183594,-0.7571647156853903,-0.5559410239380989,-0.2929470678946626,0.22573774019256235
0.8761098384857178,-0.21779292821884155,73.67936706542969,-0.761966013431213,-0.5521152902045284,-0.283208661604052,0.2333503078358869
0.6420659422874451,0.19680534303188324,73.89342498779297,-0.7665807289176156,-0.5482275758784572,-0.27055719676427564,0.23317541129266225
-0.1152040958404541,-1.2519726753234863,73.94880676269531,-0.771053427902128,-0.5444145945327664,-0.2661666813772174,0.22438235019023223
-0.4655941426753998,0.4059392809867859,73.7972412109375,-0.7755298724694231,-0.5407336410153137,-0.27100666669818285,0.21733207190409307
0.21741896867752075,-1.0481375455856323,73.66043853759766,-0.7800638846348092,-0.5371560369186205,-0.2730747931481652,0.21198041969910267
-0.4040093719959259,-0.2371348738670349,73.60269927978516,-0.7800638846348092,-0.5371560369186205,-0.2730747931481652,0.21198041969910267
0.4916258454322815,0.8208956122398376,73.651611328125,-0.7800638846348092,-0.5371560369186205,-0.2730747931481652,0.21198041969910267
1.0305951833724976,-0.5551375150680542,73.69599151611328,-0.7800638846348092,-0.5371560369186205,-0.2730747931481652,0.21198041969910267
-0.4101601243019104,-1.5755232572555542,73.5017318725586,-0.7800638846348092,-0.5371560369186205,-0.2730747931481652,0.21198041969910267
-1.2797632217407227,-1.6753968000411987,72.93844604492188,-0.7800638846348092,-0.5371560369186205,-0.2730747931481652,0.21198041969910267
-0.3422495424747467,-2.0016703605651855,72.23786163330078,-0.7800638846348092,-0.5371560369186205,-0.2730747931481652,0.21198041969910267
-0.4841649830341339,-4.090198993682861,71.36395263671875,-0.7800638846348092,-0.5371560369186205,-0.2730747931481652,0.21198041969910267
-0.7539111971855164,-2.026723861694336,70.19388580322266,-0.7800638846348092,-0.5371560369186205,-0.2730747931481652,0.21198041969910267
0.3639155924320221,-1.2145004272460938,68.7704086303711,-0.7800638846348092,-0.5371560369186205,-0.2730747931481652,0.21198041969910267
-1.36952543258667,-1.964136004447937,67.17182159423828,-0.7800638846348092,-0.5371560369186205,-0.2730747931481652,0.21198041969910267
-0.4262097477912903,-1.5814839601516724,65.470458984375,-0.7800638846348092,-0.5371560369186205,-0.2730747931481652,0.21198041969910267
0.6999066472053528,-1.3314247131347656,63.75387954711914,-0.7800638846348092,-0.5371560369186205,-0.2730747931481652,0.21198041969910267
1.2649585008621216,-1.6141934394836426,62.05096435546875,-0.7800638846348092,-0.5371560369186205,-0.2730747931481652,0.21198041969910267
-0.23137277364730835,-1.099902868270874,60.29732894897461,-0.7800638846348092,-0.5371560369186205,-0.2730747931481652,0.21198041969910267
-0.2583828568458557,-0.7698860764503479,58.51769256591797,-0.7800638846348092,-0.5371560369186205,-0.2730747931481652,0.21198041969910267
-0.5418606996536255,-1.2359979152679443,56.72869873046875,-0.7800638846348092,-0.5371560369186205,-0.2730747931481652,0.21198041969910267
0.001043630880303681,-1.326909065246582,54.94171142578125,-0.7800638846348092,-0.5371560369186205,-0.2730747931481652,0.21198041969910267
-0.6760560870170593,-1.9838670492172241,53.121498107910156,-0.7800638846348092,-0.5371560369186205,-0.2730747931481652,0.21198041969910267
1.1086409091949463,-0.97664475440979,51.25328063964844,-0.7800638846348092,-0.5371560369186205,-0.2730747931481652,0.21198041969910267
-0.3334581255912781,-0.9009913206100464,49.35091781616211,-0.7800638846348092,-0.5371560369186205,-0.2730747931481652,0.21198041969910267
-0.10734579712152481,-0.39577460289001465,47.37189865112305,-0.7800638846348092,-0.5371560369186205,-0.2730747931481652,0.21198041969910267
-0.06295603513717651,-0.41874149441719055,45.39082336425781,-0.7800638846348092,-0.5371560369186205,-0.2730747931481652,0.21198041969910267
-1.1858423948287964,-0.593900740146637,43.42049026489258,-0.7800638846348092,-0.5371560369186205,-0.2730747931481652,0.21198041969910267
0.9267744421958923,-0.622617244720459,41.50194549560547,-0.7800638846348092,-0.5371560369186205,-0.2730747931481652,0.21198041969910267
-1.0166717767715454,-1.392591118812561,39.537452697753906,-0.7800638846348092,-0.5371560369186205,-0.2730747931481652,0.21198041969910267
1.0181363821029663,-0.6159929633140564,37.6341438293457,-0.7800638846348092,-0.5371560369186205,-0.2730747931481652,0.21198041969910267
0.14290565252304077,-0.25969403982162476,35.662349700927734,-0.7800638846348092,-0.5371560369186205,-0.2730747931481652,0.21198041969910267
-0.1824790984392166,-1.49679696559906,33.67707443237305,-0.7800638846348092,-0.5371560369186205,-0.2730747931481652,0.21198041969910267
-0.6055015325546265,0.02297094836831093,31.670665740966797,-0.7800638846348092,-0.5371560369186205,-0.2730747931481652,0.21198041969910267
-0.24480988085269928,-1.8961938619613647,29.557981491088867,-0.7800638846348092,-0.5371560369186205,-0.2730747931481652,0.21198041969910267
-0.5287703275680542,-0.25038182735443115,27.460533142089844,-0.7800638846348092,-0.5371560369186205,-0.2730747931481652,0.21198041969910267
-0.5544190406799316,-0.3830346465110779,25.308549880981445,-0.7800638846348092,-0.5371560369186205,-0.2730747931481652,0.21198041969910267
-1.0296510457992554,-0.16173627972602844,23.206336975097656,-0.7800638846348092,-0.5371560369186205,-0.2730747931481652,0.21198041969910267
0.40123215317726135,-0.6394097805023193,21.05656623840332,-0.7800638846348092,-0.5371560369186205,-0.2730747931481652,0.21198041969910267
0.274301141500473,-1.1562137603759766,18.902565002441406,-0.7800638846348092,-0.5371560369186205,-0.2730747931481652,0.21198041969910267
0.19182829558849335,-0.5908685922622681,16.821226119995117,-0.7800638846348092,-0.5371560369186205,-0.2730747931481652,0.21198041969910267
-1.0829761028289795,-0.5191887617111206,14.696327209472656,-0.7800638846348092,-0.5371560369186205,-0.2730747931481652,0.21198041969910267
-0.0032884657848626375,0.6567289233207703,12.52160930633545,-0.7800638846348092,-0.5371560369186205,-0.2730747931481652,0.21198041969910267
-0.5993118286132812,-1.0722295045852661,10.343661308288574,-0.7800638846348092,-0.5371560369186205,-0.2730747931481652,0.21198041969910267
-0.35387536883354187,0.411394327878952,8.117542266845703,-0.7800638846348092,-0.5371560369186205,-0.2730747931481652,0.21198041969910267
0.187967449426651,-1.1138685941696167,5.887761116027832,-0.7800638846348092,-0.5371560369186205,-0.2730747931481652,0.21198041969910267
-0.601573646068573,0.393839031457901,3.6302597522735596,-0.7800638846348092,-0.5371560369186205,-0.2730747931481652,0.21198041969910267
-0.2135070562362671,-0.11109388619661331,1.391070008277893,-0.7800638846348092,-0.5371560369186205,-0.2730747931481652,0.21198041969910267
-0.22003623843193054,-0.45847228169441223,-0.8156297206878662,-0.7800638846348092,-0.5371560369186205,-0.2730747931481652,0.21198041969910267
-0.1867402195930481,-1.5593366622924805,-2.8864777088165283,-0.7800638846348092,-0.5371560369186205,-0.2730747931481652,0.21198041969910267
-0.7868615388870239,1.346529245376587,-4.919004917144775,-0.7800638846348092,-0.5371560369186205,-0.2730747931481652,0.21198041969910267
0.7555268406867981,-0.24148686230182648,-6.545197010040283,-0.7800638846348092,-0.5371560369186205,-0.2730747931481652,0.21198041969910267
-1.0609467029571533,1.4786328077316284,-7.819510459899902,-0.7800638846348092,-0.5371560369186205,-0.2730747931481652,0.21198041969910267
0.9462429881095886,1.2992653846740723,-8.686184883117676,-0.7800638846348092,-0.5371560369186205,-0.2730747931481652,0.21198041969910267
0.42076346278190613,1.9039247035980225,-9.187122344970703,-0.7800638846348092,-0.5371560369186205,-0.2730747931481652,0.21198041969910267
0.3444642722606659,0.7246461510658264,-9.373152732849121,-0.7800638846348092,-0.5371560369186205,-0.2730747931481652,0.21198041969910267
1.3334038257598877,-0.5218906998634338,-9.296051025390625,-0.7800638846348092,-0.5371560369186205,-0.2730747931481652,0.21198041969910267
1.588807463645935,-0.5772319436073303,-9.116240501403809,-0.7800638846348092,-0.5371560369186205,-0.2730747931481652,0.21198041969910267
1.3975439071655273,-0.3644631803035736,-9.134720802307129,-0.7800638846348092,-0.5371560369186205,-0.2730747931481652,0.21198041969910267
-0.5447499752044678,-0.5258230566978455,-9.157462120056152,-0.7800638846348092,-0.5371560369186205,-0.2730747931481652,0.21198041969910267
-0.3537041246891022,0.0674574077129364,-9.092913627624512,-0.7800638846348092,-0.5371560369186205,-0.2730747931481652,0.21198041969910267
-0.804679274559021,-0.11334148794412613,-9.063036918640137,-0.7800638846348092,-0.5371560369186205,-0.2730747931481652,0.21198041969910267
-0.496429979801178,-0.04276563599705696,-9.087801933288574,-0.7800638846348092,-0.5371560369186205,-0.2730747931481652,0.21198041969910267
-0.028691792860627174,-0.3535105586051941,-9.06874942779541,-0.7800638846348092,-0.5371560369186205,-0.2730747931481652,0.21198041969910267
0.244969442486763,-0.08572495728731155,-9.065505981445312,-0.7800638846348092,-0.5371560369186205,-0.2730747931481652,0.21198041969910267
0.3987048864364624,-0.34012162685394287,-9.086091995239258,-0.7800638846348092,-0.5371560369186205,-0.2730747931481652,0.21198041969910267
0.3131854832172394,-0.2605503797531128,-9.079442977905273,-0.7800638846348092,-0.5371560369186205,-0.2730747931481652,0.21198041969910267
-0.04686757177114487,-0.1962513029575348,-9.080345153808594,-0.7800638846348092,-0.5371560369186205,-0.2730747931481652,0.21198041969910267
-0.14811323583126068,-0.18499399721622467,-9.084769248962402,-0.7800638846348092,-0.5371560369186205,-0.2730747931481652,0.21198041969910267
-0.09069102257490158,-0.1922062188386917,-9.080602645874023,-0.7800638846348092,-0.5371560369186205,-0.2730747931481652,0.21198041969910267
0.12878981232643127,-0.2156524360179901,-9.081779479980469,-0.7800638846348092,-0.5371560369186205,-0.2730747931481652,0.21198041969910267
0.13700927793979645,-0.23248620331287384,-9.079859733581543,-0.7800638846348092,-0.5371560369186205,-0.2730747931481652,0.21198041969910267
0.011109323240816593,-0.18546579778194427,-9.081437110900879,-0.7800638846348092,-0.5371560369186205,-0.2730747931481652,0.21198041969910267
-0.06300848722457886,-0.20791099965572357,-9.081853866577148,-0.7800638846348092,-0.5371560369186205,-0.2730747931481652,0.21198041969910267
0.04471810534596443,-0.195964515209198,-9.080751419067383,-0.7800638846348092,-0.5371560369186205,-0.2730747931481652,0.21198041969910267
0.09487859904766083,-0.20562860369682312,-9.082114219665527,-0.7800638846348092,-0.5371560369186205,-0.2730747931481652,0.21198041969910267
0.05626500025391579,-0.21748782694339752,-9.081975936889648,-0.7800638846348092,-0.5371560369186205,-0.2730747931481652,0.21198041969910267
-0.021629370748996735,-0.18976056575775146,-9.081616401672363,-0.7800638846348092,-0.5371560369186205,-0.2730747931481652,0.21198041969910267
0.021122319623827934,-0.21070003509521484,-9.082165718078613,-0.7800638846348092,-0.5371560369186205,-0.2730747931481652,0.21198041969910267
0.076017826795578,-0.2172120362520218,-9.082427978515625,-0.7846083853437773,-0.5336527460397011,-0.27226529192800347,0.20841448577120902
0.06195569410920143,-0.21825011074543,-9.083760261535645,-0.7891365587147368,-0.5302094117037225,-0.2711155125871303,0.20478563454623025
1.0152556896209717,-0.7124517560005188,-9.112177848815918,-0.7935803442450966,-0.5268609498686982,-0.2621387510560455,0.19702978565668067
1.775055170059204,-0.6278388500213623,-9.227602005004883,-0.7977555518418863,-0.5236701958442829,-0.2388861605587107,0.18586069727316498
2.5290889739990234,-0.22866101562976837,-9.230422019958496,-0.8014380889523052,-0.5206319967137337,-0.2030182926915588,0.1787231983927389
2.4632606506347656,-0.6735746264457703,-9.011907577514648,-0.804475036217676,-0.5177159319934433,-0.1614153791529439,0.1712045680421094
1.6295750141143799,0.36361798644065857,-8.859354972839355,-0.8068810678379509,-0.5148840472927418,-0.12730841528003436,0.1686215960420668
1.6891868114471436,-0.5241974592208862,-8.729694366455078,-0.8087724051880653,-0.5120848387109838,-0.09965206673368834,0.16728343376889823
0.9576801657676697,-0.6191220879554749,-8.6331787109375,-0.810249462760209,-0.5093761786722782,-0.0775948419235649,0.1577557708757619
1.2178189754486084,-0.1760784238576889,-8.546621322631836,-0.8113916337963507,-0.5068021380821137,-0.059465682413429255,0.15112909994398555
1.6202316284179688,-0.6226878762245178,-8.480555534362793,-0.8121856416557505,-0.5043387896316641,-0.03581526071454111,0.14447271410996715
1.990827202796936,-0.4746040999889374,-8.30813217163086,-0.8125317946932695,-0.5020071118948461,-0.005723103787750237,0.13532861430818835
-0.7869220972061157,-0.12123454362154007,-8.105347633361816,-0.8125435752351771,-0.49979301267329374,0.004309438758839932,0.13036329227810103
1.704926609992981,-0.6380028128623962,-8.08709716796875,-0.8124080009424751,-0.4976730159517479,0.011959476365397143,0.12403631430740157
0.4791790246963501,-0.31352850794792175,-8.087409019470215,-0.8120570023339762,-0.4956718226105697,0.0301603566544749,0.11610688663398225
0.9007237553596497,-0.6397766470909119,-8.12336540222168,-0.8114585031411199,-0.49380290958021433,0.0416595464882749,0.10816267700865864
0.6443378925323486,0.196238711476326,-8.236339569091797,-0.8106568814185451,-0.4920309995422655,0.05453506022070822,0.10446652754520376
0.474990576505661,-0.5720316767692566,-8.29632568359375,-0.8096702326045168,-0.4903159874835463,0.06386279746269163,0.10133491950109601
1.2919353246688843,0.4575222134590149,-8.348799705505371,-0.8084831494592236,-0.48863502420459126,0.0785871799724795,0.10038067397351066
1.4738370180130005,-1.4816720485687256,-8.319600105285645,-0.8069812956025516,-0.4870331344880265,0.10163528282816188,0.09184609201426308
0.474968284368515,0.5599103569984436,-8.296969413757324,-0.805152040520528,-0.48556637751637005,0.11787532701467451,0.08416474458451073
0.5420403480529785,-0.43503209948539734,-8.291305541992188,-0.8031168261374764,-0.48415495967207867,0.12635039895152028,0.08520539673045278
0.1992289125919342,-0.9947729110717773,-8.347167015075684,-0.8009595091229618,-0.48283416174119315,0.13252764279022788,0.07329035497580966
0.17109033465385437,-1.384055733680725,-8.374688148498535,-0.7987249984620659,-0.48177785225859304,0.13561363651727612,0.05346678293620547
-0.5941261649131775,0.8634230494499207,-8.420570373535156,-0.7964941486749905,-0.48092289425717233,0.13208833793178176,0.0491281772342821
1.256972074508667,-0.1707039177417755,-8.49244499206543,-0.7942466454101833,-0.4800559858080101,0.13761205384507752,0.05490083666518331
0.23647654056549072,0.44066721200942993,-8.585219383239746,-0.7918493994700518,-0.4791222244125996,0.1500574589706955,0.05715053078408043
0.4723435640335083,-0.4015870690345764,-8.627728462219238,-0.7892992182021653,-0.4781670016673806,0.15596429317568716,0.05747619864220421
0.8385355472564697,-0.07942909002304077,-8.631232261657715,-0.7866087800442865,-0.4772424689232784,0.1668882857697703,0.0534677306500574
0.11689845472574234,-0.42849937081336975,-8.617934226989746,-0.7837609590313193,-0.47638661288889106,0.17485023578628872,0.049234993476420644
-0.40435194969177246,-0.9466698169708252,-8.658502578735352,-0.7808667504831427,-0.4756615275245468,0.17245478999490513,0.037775250244885684
1.3083267211914062,-0.6280341744422913,-8.712388038635254,-0.777929727957429,-0.4751412944643135,0.17998791309073542,0.024652716983109717
0.6692203283309937,0.34645235538482666,-8.660467147827148,-0.7747925997496999,-0.47474997014091846,0.19646747183675542,0.02230620182429751
-0.1150042861700058,-1.3162565231323242,-8.604159355163574,-0.771479654660604,-0.4744455476221626,0.20108593885476364,0.014224500426401696
-0.3488212823867798,0.6927409768104553,-8.533124923706055,-0.7681604324552854,-0.4742517723057727,0.1972207257834571,0.009028537540386121
-0.5561549663543701,-0.8505651354789734,-8.57747745513916,-0.7649362659317237,-0.47411225669111823,0.1896792570439475,0.00771333621814847
0,0.6094181537628174,-8.636199951171875,-0.7618135668536548,-0.47400044740565717,0.18504463232432775,0.005703778037180503
0.8111188411712646,-0.47764119505882263,-8.535365104675293,-0.7586731619509457,-0.47389623326068303,0.19180395600075495,0.006801919359713793
0.8432776927947998,0.9183298349380493,-8.276514053344727,-0.755361540702741,-0.47375226456025177,0.20559059378380548,0.010474324692040682
0.13959114253520966,0,-8.004286766052246,-0.751866776026113,-0.4735139195768471,0.21378116741155556,0.018127073316524425
0.8029563426971436,-0.17995712161064148,-7.836301803588867,-0.7482383018827792,-0.4732242987105724,0.22163572978849183,0.016627430636435746
-0.06783942878246307,-1.185765266418457,-7.8358893394470215,-0.7444933232672825,-0.47304201669913387,0.22776170407111418,0.005246410736193259
0.26336029171943665,-0.28778305649757385,-7.863482475280762,-0.7406837170283933,-0.47305690626484426,0.22939104459558896,-0.007033158621440331
0.05193610116839409,0.20648278295993805,-8.001260757446289,-0.7368386373689607,-0.4731797714275306,0.23201851453632089,-0.007710660900920629
-1.1966296434402466,-0.459919273853302,-8.044966697692871,-0.7330511547337909,-0.47332588219885796,0.22247940168405544,-0.00982263165836533
-0.35414204001426697,1.4097321033477783,-8.072434425354004,-0.729450857183741,-0.47342363350222694,0.2095563043219345,-0.0019075247459113594
1.628441333770752,-0.8367610573768616,-8.089237213134766,-0.7258697591051979,-0.47341563592535524,0.22017546510323854,0.0028672339705129463
0.10091016441583633,-1.5477843284606934,-8.015493392944336,-0.7220800741661032,-0.4735334421220854,0.23458672758812676,-0.017003977578133343
0.46347394585609436,-0.3019450902938843,-7.997203826904297,-0.7181311020319766,-0.4739452951802456,0.23928992850705952,-0.032418389401088155
-0.4282364845275879,-0.7211605906486511,-8.105103492736816,-0.7141404895109333,-0.4745566506758847,0.2395835740181304,-0.04094427007560928
-1.0628551244735718,-0.3035317361354828,-8.224333763122559,-0.7102509779723674,-0.4753102143665049,0.2271578106097874,-0.0494833727988104
0.24446594715118408,0.7547663450241089,-8.309610366821289,-0.7065218470439627,-0.47610360150975667,0.2203379007987675,-0.04572308439140518
0.053892843425273895,0.7369615435600281,-8.441246032714844,-0.7028288293368599,-0.47676206070179505,0.22282422405357133,-0.03329201865320404
0.5109795331954956,-0.3254641890525818,-8.469663619995117,-0.6990758650209239,-0.4772883514741743,0.2275314938587444,-0.029862874032308653
0.3641994893550873,-0.2704698443412781,-8.428305625915527,-0.695222897135601,-0.477827450349254,0.23482465237999928,-0.03482899097725749
-0.2129799872636795,-0.6063406467437744,-8.42168140411377,-0.6912986515749558,-0.47846882314964473,0.23608481489742766,-0.04213574506963293
0,-0.2676178216934204,-8.427350997924805,-0.6873786949368921,-0.4792317771277801,0.23430998167023034,-0.04941873230660955
0,0.7145538926124573,-8.396892547607422,-0.6834735285757215,-0.48002438543907644,0.23430998167023034,-0.04569426504895091
-0.22504380345344543,-1.2146341800689697,-8.286178588867188,-0.6795839902564575,-0.48082068432096564,0.23243461664145162,-0.04986160077775518
0.4429629147052765,-0.13270574808120728,-8.180706024169922,-0.6756949467074853,-0.4817452762733831,0.23425060923521687,-0.06108943351233999
-1.233511209487915,-0.06411280483007431,-8.239930152893066,-0.6718456690740361,-0.48277710145365205,0.22766270677869488,-0.062729588119934
0.7929524183273315,-0.12034779787063599,-8.234066009521484,-0.6680818849882217,-0.4838354043530607,0.22399138351902334,-0.06426675980910658
0.977461576461792,0.10771986097097397,-8.060941696166992,-0.6642257498465999,-0.4849073939566083,0.23874483347559938,-0.06437199261660376
-0.30467426776885986,0.5319772362709045,-7.782783031463623,-0.6601999479477918,-0.48593583709068766,0.24435139438137382,-0.059041183472921435
0.9194229245185852,-0.1964622437953949,-7.568419933319092,-0.6560847338291613,-0.4868965571629811,0.2494742998542882,-0.056245225202292186
-0.3500225841999054,0.12650690972805023,-7.511951446533203,-0.65188728714129,-0.4878388355923295,0.2542193026902772,-0.05682818631952006
-0.23805786669254303,-1.3122590780258179,-7.630466938018799,-0.6476911376833195,-0.4888683159315644,0.24931863226617346,-0.06670945438866813
0.2636580765247345,0.13527457416057587,-7.636901378631592,-0.6435340493532006,-0.4900618752063662,0.2495319673481084,-0.07651765858754514
-0.7275576591491699,0,-7.66649055480957,-0.6394073984795254,-0.4913277754485086,0.24566613749290478,-0.07539037046954034
-0.6346896886825562,1.661279320716858,-7.622923374176025,-0.6354075633649098,-0.4924689150035067,0.23431407626097372,-0.061546376130233185
0,-1.0595316886901855,-7.725042343139648,-0.6315464044333854,-0.49345289990900876,0.22902499552195243,-0.05653181253001092
0.9199190735816956,-1.5805797576904297,-7.715580940246582,-0.6276654379056874,-0.49457843785717426,0.2366909878017999,-0.07853274124984938
0,-0.6235730051994324,-7.6735944747924805,-0.623656704839992,-0.49604038304209463,0.24435698008164736,-0.09690068094059823
-0.2755489647388458,0.10826640576124191,-7.7220072746276855,-0.6196032238500714,-0.4976911795716211,0.24206073870882364,-0.10119490260258315
-0.758387565612793,-0.9624500274658203,-7.787264347076416,-0.6156406793528654,-0.499437079588727,0.2334446009558933,-0.10831309945012131
0.2305065095424652,0.8941007256507874,-7.842986583709717,-0.611786594410272,-0.5012470443921884,0.22904559215530726,-0.10888267696524659
0.32059088349342346,0.4165398180484772,-7.86704683303833,-0.6079308972220561,-0.5029707389705189,0.23363807043060633,-0.09796067243441939
0.07371225953102112,0,-7.84755277633667,-0.6040095472188359,-0.5045744904681725,0.23692392995581005,-0.09448950728401541
0.1440371870994568,-0.7619144320487976,-7.8398237228393555,-0.6000456935635564,-0.5062022263140206,0.2387385086777307,-0.10083879421775539
1.4868321418762207,0,-7.87034273147583,-0.5959534636044154,-0.5079357836087643,0.25232908641919466,-0.10718808115149538
-1.386027455329895,0.06979159265756607,-7.825610637664795,-0.5917409785053075,-0.509717404989577,0.25316912547374737,-0.10660648454601566
0.40350744128227234,0.274981826543808,-7.76664924621582,-0.5875897236372761,-0.5114702371334549,0.2449814586900172,-0.10373337271933755
-0.47854822874069214,-1.5514330863952637,-7.680013179779053,-0.5835119104915716,-0.513287769127378,0.24435611879453037,-0.11437046655143301
-1.0596609115600586,-0.3134482800960541,-7.602463245391846,-0.5795461285908503,-0.5153234492203527,0.2315377092920241,-0.12991114460552733
-1.0868942737579346,1.0471587181091309,-7.565848350524902,-0.5758362331016303,-0.5174376828500272,0.21364974941437417,-0.12379689095541836
1.4147611856460571,0.15015901625156403,-7.5311503410339355,-0.5722526354091764,-0.5194178173010647,0.21638197368010853,-0.11381924316907924
0.4334544837474823,0.6642161011695862,-7.455574035644531,-0.5685179208708,-0.5212582508596174,0.2317837709250547,-0.10703278385723632
0.49544262886047363,-0.06230618432164192,-7.187928199768066,-0.564590351278118,-0.5230003312907903,0.23952458019678766,-0.10201686788350345
0.34649890661239624,0,-6.969457626342773,-0.5605398067793192,-0.5247049392405376,0.24654075965906158,-0.1025360860861838
-0.5902671813964844,-1.0463690757751465,-6.899258136749268,-0.5564477224707505,-0.5264865385277917,0.24450935736919419,-0.11125582838431002
-0.6011636853218079,-0.5618880391120911,-6.964864730834961,-0.5524553047692304,-0.528452486856064,0.2345807668132084,-0.12465797100837032
0.08063101768493652,0,-7.097486972808838,-0.5485817734242628,-0.5305691397089197,0.23024299458290115,-0.12934037133430443
-0.5177933573722839,0.3520892560482025,-7.113766670227051,-0.5447747486770261,-0.5327003619217103,0.22659997508550658,-0.1264062942005694
0.9700788855552673,1.532667636871338,-7.086747169494629,-0.540966673708366,-0.5346762475963782,0.23036902115369812,-0.11069998675957322
-0.6800030469894409,-1.924825668334961,-7.17395544052124,-0.5371070458670151,-0.5365484805723338,0.23278631980841333,-0.11396797035510342
1.3069244623184204,-1.1971622705459595,-7.145206928253174,-0.5331837376608104,-0.5386647514628967,0.23801066493615483,-0.1399845365124444
-0.5088467597961426,0,-7.160676956176758,-0.5291614711825327,-0.5410809633402254,0.24466131245717382,-0.14996088876699407
-1.0072152614593506,-0.990237832069397,-7.183534622192383,-0.5251890647263892,-0.5436490780024579,0.2320274622800447,-0.1582128707009057
-0.37772417068481445,0.396182119846344,-7.237304210662842,-0.5214181167045095,-0.5463272130497107,0.22048630034550998,-0.16316333496943114
0.36032217741012573,0.7190804481506348,-7.345201015472412,-0.5177445535038395,-0.5489691531764236,0.22034128373488757,-0.15386948023612299
-0.24604906141757965,-0.1160673126578331,-7.413333892822266,-0.5140642631418697,-0.5514917686015053,0.22129355970149212,-0.14884437077368298
0.8048633337020874,-0.31137487292289734,-7.384554862976074,-0.5103372306001585,-0.5540021915995098,0.22595034530386301,-0.15240638898685574
-0.3976542353630066,-0.1961127519607544,-7.429258346557617,-0.5065431131021538,-0.5565775402787966,0.2293437544566887,-0.15663545252755284
0.4595733880996704,-0.4489979147911072,-7.4715070724487305,-0.5027164172533801,-0.5592329305061136,0.22985974739616089,-0.16201137475048502
0.3027500510215759,-0.09753615409135818,-7.415602207183838,-0.49883248233572736,-0.5619710738400718,0.23621244272217126,-0.16656582532450556
-0.9382447004318237,0.20973069965839386,-7.251902103424072,-0.49493973986323353,-0.564739379640927,0.23091665397708586,-0.1656308707781136
0.3734939694404602,-0.6392853260040283,-7.151558876037598,-0.4911303477643787,-0.5675297243362807,0.22621039788549116,-0.1692104926643272
-1.5531821250915527,0.13360127806663513,-7.148313045501709,-0.48744209725487403,-0.5703850161617929,0.21637966325506539,-0.17342452639713882
0.7294852137565613,0.4874308407306671,-7.171478271484375,-0.4838929707083545,-0.5732322977046066,0.2095155223272738,-0.16824925874049462
0.8718817830085754,-0.5706270933151245,-7.131130218505859,-0.48028983929479124,-0.5760422295344888,0.22286024730031662,-0.1689425608453651
-0.09220730513334274,-0.1550300419330597,-6.927045822143555,-0.47652135777882243,-0.578908331738526,0.22935753461594355,-0.17498970363909996
0.7212672233581543,0.4871689975261688,-6.616794586181641,-0.47265504748534665,-0.5818017615939282,0.23459970060115032,-0.1722218790091574
-0.053472209721803665,-0.21882835030555725,-6.46333646774292,-0.46869867782160274,-0.5846534914769127,0.2401646590481199,-0.16998570694898563
0.5729511380195618,-1.6095279455184937,-6.5391316413879395,-0.46465985857855785,-0.5876135557799391,0.2444936501172679,-0.18522200941418604
-1.1743345260620117,-0.6344470977783203,-6.59983491897583,-0.46062672714521746,-0.5908564208704045,0.2394821218835808,-0.2039218014416595
0.09754575043916702,1.0968608856201172,-6.687414169311523,-0.4567101354454649,-0.5942230054924986,0.23050888208672377,-0.20006835320964453
-0.12314590066671371,1.4768379926681519,-6.60361385345459,-0.45287009853222976,-0.5973787489572226,0.2302955475014942,-0.1786208625572423
-0.16318483650684357,0.19770069420337677,-6.5972442626953125,-0.4490517234861752,-0.6002394759243662,0.2279094580250479,-0.16466637349997956
-0.9749559164047241,-1.6717909574508667,-6.738218307495117,-0.4453322700713766,-0.6030862828620914,0.21842495175078483,-0.17695045902704198
0.7837992310523987,-1.0931925773620605,-6.774559497833252,-0.44170512897867964,-0.6062274699246819,0.2168319793728488,-0.19999198848381639
-0.23422877490520477,0.4334222972393036,-6.719105243682861,-0.4380530980407886,-0.6096064871133096,0.2214117331740754,-0.20549007415150602
-0.9363480806350708,-0.6533394455909729,-6.696151256561279,-0.4344441925472999,-0.6130465937066925,0.2116569260445731,-0.2073227170544366
0.6214964389801025,0.4547702372074127,-6.756146430969238,-0.4309384418105608,-0.6165157618526264,0.209033162364115,-0.20897746045763294
0.2614876329898834,0.19479770958423615,-6.847006320953369,-0.42739323743282764,-0.6199536106417264,0.21639136296386488,-0.2035643942343692
-0.5649911165237427,-0.3295035660266876,-6.8904709815979,-0.4238077913475642,-0.6233557051189966,0.2138621672677494,-0.2046869430380563
0.20974519848823547,0,-6.917789459228516,-0.4202680917485208,-0.626790036361716,0.2109017846174535,-0.2074328060882787
-0.24743185937404633,-0.42629069089889526,-7.018964767456055,-0.41675567913412476,-0.630276853316722,0.21058772911007176,-0.21098522851243615
-0.4369010329246521,0.5076321363449097,-6.939748764038086,-0.41329340676647763,-0.63378762508044,0.2048849550075826,-0.21030738313371936
1.205729603767395,0.07077331840991974,-6.826714992523193,-0.40982526664337604,-0.6372525810871995,0.21129185976460546,-0.2054873376774291
-1.1896685361862183,-1.0327248573303223,-6.650966167449951,-0.40630262029538394,-0.6407441722386928,0.2114257019944486,-0.21350360050176578
-0.17125743627548218,-0.43968886137008667,-6.620635986328125,-0.4028733673435641,-0.6444048165330765,0.20008465222393443,-0.2257737148242692
-0.10725907981395721,-0.23876743018627167,-6.577102184295654,-0.3995579645645603,-0.6482148268003946,0.19776368125652244,-0.2314275172539055
0.5393904447555542,0.45949792861938477,-6.525673866271973,-0.3962318940877195,-0.652056623581124,0.20136477596436908,-0.22958809643362957
0.9112977981567383,1.2387490272521973,-6.499614238739014,-0.3962318940877195,-0.652056623581124,0.20136477596436908,-0.22958809643362957
-0.3302065432071686,-0.91983562707901,-6.3302717208862305,-0.3962318940877195,-0.652056623581124,0.20136477596436908,-0.22958809643362957
-0.023533249273896217,0.524591863155365,-6.085145950317383,-0.3962318940877195,-0.652056623581124,0.20136477596436908,-0.22958809643362957
-19.903261184692383,-3.9767184257507324,-6.238332748413086,-0.3962318940877195,-0.652056623581124,0.20136477596436908,-0.22958809643362957
-9.562947273254395,2.2758121490478516,-6.8577165603637695,-0.3962318940877195,-0.652056623581124,0.20136477596436908,-0.22958809643362957
-4.4008307456970215,4.761200904846191,-7.330483436584473,-0.3962318940877195,-0.652056623581124,0.20136477596436908,-0.22958809643362957
-0.279368132352829,0.05542092025279999,-7.753054618835449,-0.3962318940877195,-0.652056623581124,0.20136477596436908,-0.22958809643362957
0.8315393328666687,-0.9551548957824707,-8.463193893432617,-0.3962318940877195,-0.652056623581124,0.20136477596436908,-0.22958809643362957
0.40356090664863586,-1.0195988416671753,-9.493606567382812,-0.3962318940877195,-0.652056623581124,0.20136477596436908,-0.22958809643362957
-1.2844154834747314,1.2279837131500244,-10.492829322814941,-0.3962318940877195,-0.652056623581124,0.20136477596436908,-0.22958809643362957
-1.1025607585906982,-0.578400194644928,-11.153199195861816,-0.3962318940877195,-0.652056623581124,0.20136477596436908,-0.22958809643362957
-0.15956193208694458,-0.6918230652809143,-11.740636825561523,-0.3962318940877195,-0.652056623581124,0.20136477596436908,-0.22958809643362957
-0.2875988483428955,-1.706620454788208,-12.455156326293945,-0.3962318940877195,-0.652056623581124,0.20136477596436908,-0.22958809643362957
-0.18833765387535095,0.8101228475570679,-13.182247161865234,-0.3962318940877195,-0.652056623581124,0.20136477596436908,-0.22958809643362957
0.0289309024810791,0.21500220894813538,-14.001361846923828,-0.3962318940877195,-0.652056623581124,0.20136477596436908,-0.22958809643362957
-0.016303468495607376,-0.17783556878566742,-14.9581880569458,-0.3962318940877195,-0.652056623581124,0.20136477596436908,-0.22958809643362957
-0.9971240162849426,-0.913479745388031,-16.03379249572754,-0.3962318940877195,-0.652056623581124,0.20136477596436908,-0.22958809643362957
-0.14505109190940857,-0.7136680483818054,-17.199892044067383,-0.3962318940877195,-0.652056623581124,0.20136477596436908,-0.22958809643362957
-0.1009359061717987,0.48673108220100403,-18.401426315307617,-0.3962318940877195,-0.652056623581124,0.20136477596436908,-0.22958809643362957
-1.306496262550354,-1.1566511392593384,-19.706104278564453,-0.3962318940877195,-0.652056623581124,0.20136477596436908,-0.22958809643362957
-1.3073891401290894,0.4104791283607483,-21.136075973510742,-0.3962318940877195,-0.652056623581124,0.20136477596436908,-0.22958809643362957
-0.03915899991989136,-0.7458971738815308,-22.773134231567383,-0.3962318940877195,-0.652056623581124,0.20136477596436908,-0.22958809643362957
-0.65370112657547,0.9790010452270508,-24.659160614013672,-0.3962318940877195,-0.652056623581124,0.20136477596436908,-0.22958809643362957
0.2932591438293457,-2.0144214630126953,-26.55796241760254,-0.3962318940877195,-0.652056623581124,0.20136477596436908,-0.22958809643362957
0.574654757976532,-0.5675249695777893,-28.56324005126953,-0.3962318940877195,-0.652056623581124,0.20136477596436908,-0.22958809643362957
-0.20949698984622955,-0.7145771980285645,-30.728347778320312,-0.3962318940877195,-0.652056623581124,0.20136477596436908,-0.22958809643362957
-0.4990352988243103,1.1948015689849854,-32.985294342041016,-0.3962318940877195,-0.652056623581124,0.20136477596436908,-0.22958809643362957
0.2239210456609726,-0.19877636432647705,-35.2130012512207,-0.3962318940877195,-0.652056623581124,0.20136477596436908,-0.22958809643362957
-0.6685489416122437,0.6099433302879333,-37.418190002441406,-0.3962318940877195,-0.652056623581124,0.20136477596436908,-0.22958809643362957
-0.11624760180711746,-1.0053737163543701,-39.76582336425781,-0.3962318940877195,-0.652056623581124,0.20136477596436908,-0.22958809643362957
-0.3925192654132843,0.04748149961233139,-42.12525939941406,-0.3962318940877195,-0.652056623581124,0.20136477596436908,-0.22958809643362957
-0.43727555871009827,0.7692553400993347,-44.518314361572266,-0.3962318940877195,-0.652056623581124,0.20136477596436908,-0.22958809643362957
0.6148401498794556,0.6215439438819885,-46.94526290893555,-0.3962318940877195,-0.652056623581124,0.20136477596436908,-0.22958809643362957
-0.1637292057275772,-0.15034887194633484,-49.47748947143555,-0.3962318940877195,-0.652056623581124,0.20136477596436908,-0.22958809643362957
-0.602429986000061,-0.4803638756275177,-51.997657775878906,-0.3962318940877195,-0.652056623581124,0.20136477596436908,-0.22958809643362957
-0.17844489216804504,-0.15993167459964752,-54.61540222167969,-0.3962318940877195,-0.652056623581124,0.20136477596436908,-0.22958809643362957
0.21882466971874237,-0.46618878841400146,-57.217838287353516,-0.3962318940877195,-0.652056623581124,0.20136477596436908,-0.22958809643362957
-0.5669255256652832,0.6087879538536072,-59.81086730957031,-0.3962318940877195,-0.652056623581124,0.20136477596436908,-0.22958809643362957
-0.24879062175750732,-0.48446863889694214,-62.399898529052734,-0.3962318940877195,-0.652056623581124,0.20136477596436908,-0.22958809643362957
-0.18010184168815613,-0.689866840839386,-65.10697174072266,-0.3962318940877195,-0.652056623581124,0.20136477596436908,-0.22958809643362957
-0.38117504119873047,1.1955101490020752,-67.74676513671875,-0.3962318940877195,-0.652056623581124,0.20136477596436908,-0.22958809643362957
0.11914107948541641,1.3258709907531738,-70.38118743896484,-0.3962318940877195,-0.652056623581124,0.20136477596436908,-0.22958809643362957
-0.42688044905662537,-0.037697773426771164,-73.11306762695312,-0.3962318940877195,-0.652056623581124,0.20136477596436908,-0.22958809643362957
0.11735440045595169,0.3419300317764282,-75.80851745605469,-0.3962318940877195,-0.652056623581124,0.20136477596436908,-0.22958809643362957
-0.5329374074935913,-0.0390726700425148,-78.50580596923828,-0.3962318940877195,-0.652056623581124,0.20136477596436908,-0.22958809643362957
-0.6133922934532166,1.1150199174880981,-81.25691223144531,-0.3962318940877195,-0.652056623581124,0.20136477596436908,-0.22958809643362957
0.41175612807273865,-0.17272751033306122,-83.96001434326172,-0.3962318940877195,-0.652056623581124,0.20136477596436908,-0.22958809643362957
0.2621241807937622,0.34990373253822327,-86.60028076171875,-0.3962318940877195,-0.652056623581124,0.20136477596436908,-0.22958809643362957
-0.4606980085372925,-0.06679026037454605,-89.17453002929688,-0.3962318940877195,-0.652056623581124,0.20136477596436908,-0.22958809643362957
3.643477201461792,2.1442136764526367,-91.6294937133789,-0.3962318940877195,-0.652056623581124,0.20136477596436908,-0.22958809643362957
-0.8849831223487854,-2.179948568344116,-93.9865493774414,-0.3962318940877195,-0.652056623581124,0.20136477596436908,-0.22958809643362957
-0.758374035358429,0.10772711783647537,-96.47968292236328,-0.3962318940877195,-0.652056623581124,0.20136477596436908,-0.22958809643362957
-0.6325513124465942,1.2360107898712158,-98.9206771850586,-0.3962318940877195,-0.652056623581124,0.20136477596436908,-0.22958809643362957
-0.19889749586582184,0.8080610632896423,-101.42094421386719,-0.3962318940877195,-0.652056623581124,0.20136477596436908,-0.22958809643362957
0.31538480520248413,-0.39623352885246277,-103.98388671875,-0.3962318940877195,-0.652056623581124,0.20136477596436908,-0.22958809643362957
-0.33959048986434937,0.6521016359329224,-106.84650421142578,-0.3962318940877195,-0.652056623581124,0.20136477596436908,-0.22958809643362957
-0.37817999720573425,-0.5955224633216858,-109.48295593261719,-0.3962318940877195,-0.652056623581124,0.20136477596436908,-0.22958809643362957
0.21460339426994324,0.6199424862861633,-112.17958068847656,-0.3962318940877195,-0.652056623581124,0.20136477596436908,-0.22958809643362957
0.40784022212028503,-0.04066580906510353,-114.76470947265625,-0.3962318940877195,-0.652056623581124,0.20136477596436908,-0.22958809643362957
1.043735384941101,0.13894040882587433,-117.29497528076172,-0.3962318940877195,-0.652056623581124,0.20136477596436908,-0.22958809643362957
0.06454917043447495,0.17130354046821594,-119.63566589355469,-0.3962318940877195,-0.652056623581124,0.20136477596436908,-0.22958809643362957
1.3558651208877563,0.3301064372062683,-121.81190490722656,-0.3962318940877195,-0.652056623581124,0.20136477596436908,-0.22958809643362957
-1.8420604467391968,0.5053364038467407,-124.0538558959961,-0.3962318940877195,-0.652056623581124,0.20136477596436908,-0.22958809643362957
0.7254146337509155,-0.4028192162513733,-126.37590789794922,-0.3962318940877195,-0.652056623581124,0.20136477596436908,-0.22958809643362957
1.2627522945404053,0.08273042738437653,-128.7485809326172,-0.3962318940877195,-0.652056623581124,0.20136477596436908,-0.22958809643362957
-0.22771114110946655,0.33944782614707947,-130.94183349609375,-0.3962318940877195,-0.652056623581124,0.20136477596436908,-0.22958809643362957
-0.40230268239974976,0.6058375239372253,-133.14820861816406,-0.3962318940877195,-0.652056623581124,0.20136477596436908,-0.22958809643362957
0.17651811242103577,-0.5563057661056519,-135.4744873046875,-0.3962318940877195,-0.652056623581124,0.20136477596436908,-0.22958809643362957
-0.052132125943899155,0.10663343220949173,-137.8610382080078,-0.3962318940877195,-0.652056623581124,0.20136477596436908,-0.22958809643362957
0.2281429022550583,1.0942147970199585,-140.19786071777344,-0.3962318940877195,-0.652056623581124,0.20136477596436908,-0.22958809643362957
0.30882203578948975,0.5950079560279846,-142.4448699951172,-0.3962318940877195,-0.652056623581124,0.20136477596436908,-0.22958809643362957
-0.5283449292182922,-0.09100949019193649,-144.74539184570312,-0.3962318940877195,-0.652056623581124,0.20136477596436908,-0.22958809643362957
0.47594916820526123,-0.33526378870010376,-147.16921997070312,-0.3962318940877195,-0.652056623581124,0.20136477596436908,-0.22958809643362957
0.5306415557861328,0.2991851568222046,-149.66744995117188,-0.3962318940877195,-0.652056623581124,0.20136477596436908,-0.22958809643362957
-0.2353755086660385,0.12639710307121277,-152.12815856933594,-0.3962318940877195,-0.652056623581124,0.20136477596436908,-0.22958809643362957
0.26432004570961,0.43545910716056824,-154.64462280273438,-0.3962318940877195,-0.652056623581124,0.20136477596436908,-0.22958809643362957
-0.38795334100723267,-0.20276883244514465,-157.13946533203125,-0.3962318940877195,-0.652056623581124,0.20136477596436908,-0.22958809643362957
0.39524370431900024,-0.45400944352149963,-159.63592529296875,-0.3962318940877195,-0.652056623581124,0.20136477596436908,-0.22958809643362957
0.5483505725860596,-0.9238097071647644,-162.11074829101562,-0.3962318940877195,-0.652056623581124,0.20136477596436908,-0.22958809643362957
-0.6995213031768799,1.3042117357254028,-164.65960693359375,-0.3962318940877195,-0.652056623581124,0.20136477596436908,-0.22958809643362957
0.3758165240287781,-0.21001265943050385,-167.3192901611328,-0.3962318940877195,-0.652056623581124,0.20136477596436908,-0.22958809643362957
1.032021164894104,-0.16594284772872925,-170.03158569335938,-0.3962318940877195,-0.652056623581124,0.20136477596436908,-0.22958809643362957
-2.025484085083008,-0.4031220078468323,-172.75921630859375,-0.3962318940877195,-0.652056623581124,0.20136477596436908,-0.22958809643362957
-1.422240138053894,1.0496718883514404,-175.5382080078125,-0.3962318940877195,-0.652056623581124,0.20136477596436908,-0.22958809643362957
1.4032790660858154,-1.3587062358856201,-178.2466278076172,-0.3962318940877195,-0.652056623581124,0.20136477596436908,-0.22958809643362957
0.08815222233533859,0.4603687524795532,179.11871337890625,-0.3962318940877195,-0.652056623581124,0.20136477596436908,-0.22958809643362957
0.9928001761436462,-0.5002089738845825,176.53152465820312,-0.3962318940877195,-0.652056623581124,0.20136477596436908,-0.22958809643362957
-0.5676954388618469,0.6332149505615234,173.89376831054688,-0.3962318940877195,-0.652056623581124,0.20136477596436908,-0.22958809643362957
0.8920025825500488,-0.8123385906219482,171.2847442626953,-0.3962318940877195,-0.652056623581124,0.20136477596436908,-0.22958809643362957
0.3657223880290985,-0.9969761967658997,168.70359802246094,-0.3962318940877195,-0.652056623581124,0.20136477596436908,-0.22958809643362957
0.5908576846122742,0.2198731154203415,166.1473846435547,-0.3962318940877195,-0.652056623581124,0.20136477596436908,-0.22958809643362957
-0.2645987868309021,0.943203866481781,163.59347534179688,-0.3962318940877195,-0.652056623581124,0.20136477596436908,-0.22958809643362957
0.41174057126045227,-0.6393753886222839,161.02169799804688,-0.3962318940877195,-0.652056623581124,0.20136477596436908,-0.22958809643362957
0.054254718124866486,0.10647907108068466,158.33883666992188,-0.3962318940877195,-0.652056623581124,0.20136477596436908,-0.22958809643362957
0.8149966597557068,-0.19973139464855194,155.75331115722656,-0.3962318940877195,-0.652056623581124,0.20136477596436908,-0.22958809643362957
0.007569281850010157,-0.6353493928909302,153.2221221923828,-0.3962318940877195,-0.652056623581124,0.20136477596436908,-0.22958809643362957
-0.8127028346061707,-0.03504450246691704,150.60630798339844,-0.3962318940877195,-0.652056623581124,0.20136477596436908,-0.22958809643362957
0.045295264571905136,0.5835937261581421,148.03662109375,-0.3962318940877195,-0.652056623581124,0.20136477596436908,-0.22958809643362957
1.0546478033065796,-0.7329150438308716,145.48269653320312,-0.3962318940877195,-0.652056623581124,0.20136477596436908,-0.22958809643362957
0.027340460568666458,-0.35088613629341125,142.96995544433594,-0.3962318940877195,-0.652056623581124,0.20136477596436908,-0.22958809643362957
0.015945138409733772,-0.13261166214942932,140.4635467529297,-0.3962318940877195,-0.652056623581124,0.20136477596436908,-0.22958809643362957
-0.05672251060605049,-0.0620284341275692,137.85816955566406,-0.3962318940877195,-0.652056623581124,0.20136477596436908,-0.22958809643362957
-0.2965170741081238,0.15966357290744781,135.18414306640625,-0.3962318940877195,-0.652056623581124,0.20136477596436908,-0.22958809643362957
0.5347095131874084,0.532143235206604,132.60646057128906,-0.3962318940877195,-0.652056623581124,0.20136477596436908,-0.22958809643362957
-0.4257514476776123,-1.2313002347946167,129.9913787841797,-0.3962318940877195,-0.652056623581124,0.20136477596436908,-0.22958809643362957
0.17686912417411804,0.009774458594620228,127.30194091796875,-0.3962318940877195,-0.652056623581124,0.20136477596436908,-0.22958809643362957
0.1217881292104721,0.1319180279970169,124.56068420410156,-0.3962318940877195,-0.652056623581124,0.20136477596436908,-0.22958809643362957
0.3774257302284241,-0.42798706889152527,121.95654296875,-0.3962318940877195,-0.652056623581124,0.20136477596436908,-0.22958809643362957
-0.35847753286361694,-0.2545720040798187,119.32227325439453,-0.3962318940877195,-0.652056623581124,0.20136477596436908,-0.22958809643362957
0.6282870769500732,0.36676666140556335,116.7365951538086,-0.3962318940877195,-0.652056623581124,0.20136477596436908,-0.22958809643362957
-0.3093585968017578,-1.5424615144729614,114.16902160644531,-0.3962318940877195,-0.652056623581124,0.20136477596436908,-0.22958809643362957
0.11925335228443146,1.3836451768875122,111.59565734863281,-0.3962318940877195,-0.652056623581124,0.20136477596436908,-0.22958809643362957
-0.8176644444465637,-1.4865278005599976,109.00786590576172,-0.3962318940877195,-0.652056623581124,0.20136477596436908,-0.22958809643362957
0.06544477492570877,0.5090000629425049,106.36711120605469,-0.3962318940877195,-0.652056623581124,0.20136477596436908,-0.22958809643362957
1.0762141942977905,1.4689613580703735,103.89790344238281,-0.3962318940877195,-0.652056623581124,0.20136477596436908,-0.22958809643362957
0.574639081954956,-1.2272361516952515,101.35160064697266,-0.3962318940877195,-0.652056623581124,0.20136477596436908,-0.22958809643362957
-2.5368294715881348,-1.7633256912231445,98.89664459228516,-0.3962318940877195,-0.652056623581124,0.20136477596436908,-0.22958809643362957
1.1260472536087036,-0.5389102697372437,96.39695739746094,-0.3962318940877195,-0.652056623581124,0.20136477596436908,-0.22958809643362957
-0.010928205214440823,-0.340698778629303,94.00502014160156,-0.3962318940877195,-0.652056623581124,0.20136477596436908,-0.22958809643362957
-0.3981159031391144,-0.099807970225811,91.44671630859375,-0.3962318940877195,-0.652056623581124,0.20136477596436908,-0.22958809643362957
0.10086549818515778,-0.13461847603321075,89.0019760131836,-0.3962318940877195,-0.652056623581124,0.20136477596436908,-0.22958809643362957
0.5274145007133484,-0.16317206621170044,86.59400939941406,-0.3962318940877195,-0.652056623581124,0.20136477596436908,-0.22958809643362957
-0.32932066917419434,-0.02223922498524189,84.17222595214844,-0.3962318940877195,-0.652056623581124,0.20136477596436908,-0.22958809643362957
0.040360864251852036,-1.0749667882919312,81.65814208984375,-0.3962318940877195,-0.652056623581124,0.20136477596436908,-0.22958809643362957
-0.4141877293586731,-0.5011898279190063,79.18562316894531,-0.3962318940877195,-0.652056623581124,0.20136477596436908,-0.22958809643362957
0.5846218466758728,0.0683618113398552,76.72240447998047,-0.3962318940877195,-0.652056623581124,0.20136477596436908,-0.22958809643362957
0.3902648687362671,0.5467089414596558,74.21519470214844,-0.3962318940877195,-0.652056623581124,0.20136477596436908,-0.22958809643362957
-1.3496757745742798,-0.9037361741065979,71.67144012451172,-0.3962318940877195,-0.652056623581124,0.20136477596436908,-0.22958809643362957
-0.4716596007347107,-0.7571334838867188,69.26148223876953,-0.3962318940877195,-0.652056623581124,0.20136477596436908,-0.22958809643362957
-0.9248732328414917,0.578980028629303,66.81391143798828,-0.3962318940877195,-0.652056623581124,0.20136477596436908,-0.22958809643362957
0.6708155274391174,-0.41356855630874634,64.3368148803711,-0.3962318940877195,-0.652056623581124,0.20136477596436908,-0.22958809643362957
0.27216026186943054,0.2447645366191864,61.732364654541016,-0.3962318940877195,-0.652056623581124,0.20136477596436908,-0.22958809643362957
-0.10675511509180069,-0.41908177733421326,59.26484298706055,-0.3962318940877195,-0.652056623581124,0.20136477596436908,-0.22958809643362957
-0.5266533493995667,-0.08161595463752747,56.74515151977539,-0.3962318940877195,-0.652056623581124,0.20136477596436908,-0.22958809643362957
-0.9586343169212341,-0.7300834059715271,54.12690734863281,-0.3962318940877195,-0.652056623581124,0.20136477596436908,-0.22958809643362957
1.379677653312683,-0.540615975856781,51.59278106689453,-0.3962318940877195,-0.652056623581124,0.20136477596436908,-0.22958809643362957
-1.6312015056610107,-0.008241606876254082,49.11006546020508,-0.3962318940877195,-0.652056623581124,0.20136477596436908,-0.22958809643362957
-0.133666530251503,-0.585745632648468,46.57867431640625,-0.3962318940877195,-0.652056623581124,0.20136477596436908,-0.22958809643362957
-1.5329872369766235,0.2526102364063263,44.04051208496094,-0.3962318940877195,-0.652056623581124,0.20136477596436908,-0.22958809643362957
0.7407901287078857,-0.43070361018180847,41.53911209106445,-0.3962318940877195,-0.652056623581124,0.20136477596436908,-0.22958809643362957
-0.6417651772499084,-0.9973255395889282,39.111629486083984,-0.3962318940877195,-0.652056623581124,0.20136477596436908,-0.22958809643362957
-1.5697052478790283,0.8555111289024353,36.618263244628906,-0.3962318940877195,-0.652056623581124,0.20136477596436908,-0.22958809643362957
1.1083916425704956,-0.7287994623184204,34.14616775512695,-0.3962318940877195,-0.652056623581124,0.20136477596436908,-0.22958809643362957
-0.6446230411529541,0.25589531660079956,31.510452270507812,-0.3962318940877195,-0.652056623581124,0.20136477596436908,-0.22958809643362957
1.3121061325073242,-0.14501769840717316,28.899171829223633,-0.3962318940877195,-0.652056623581124,0.20136477596436908,-0.22958809643362957
-1.1787352561950684,-0.547613263130188,26.354034423828125,-0.3962318940877195,-0.652056623581124,0.20136477596436908,-0.22958809643362957
0.10860615223646164,-0.09386682510375977,23.84279441833496,-0.3962318940877195,-0.652056623581124,0.20136477596436908,-0.22958809643362957
-2.068436622619629,2.01204776763916,21.30455207824707,-0.3962318940877195,-0.652056623581124,0.20136477596436908,-0.22958809643362957
0.1979237049818039,-1.630791187286377,18.75589370727539,-0.3962318940877195,-0.652056623581124,0.20136477596436908,-0.22958809643362957
-0.3419935703277588,-0.22210901975631714,16.28618049621582,-0.3962318940877195,-0.652056623581124,0.20136477596436908,-0.22958809643362957
-0.24940025806427002,-0.3333026170730591,13.81638240814209,-0.3962318940877195,-0.652056623581124,0.20136477596436908,-0.22958809643362957
-1.4664829969406128,0.9294978976249695,11.387300491333008,-0.3962318940877195,-0.652056623581124,0.20136477596436908,-0.22958809643362957
0.12885379791259766,-0.6215445399284363,9.026997566223145,-0.3962318940877195,-0.652056623581124,0.20136477596436908,-0.22958809643362957
-0.20499692857265472,0.38612571358680725,6.661566734313965,-0.3962318940877195,-0.652056623581124,0.20136477596436908,-0.22958809643362957
-1.390144944190979,0.2470816969871521,4.331007480621338,-0.3962318940877195,-0.652056623581124,0.20136477596436908,-0.22958809643362957
0.6755646467208862,-0.4507001042366028,2.0868635177612305,-0.3962318940877195,-0.652056623581124,0.20136477596436908,-0.22958809643362957
-0.6579747200012207,0.14409992098808289,-0.18710684776306152,-0.3962318940877195,-0.652056623581124,0.20136477596436908,-0.22958809643362957
-0.41449299454689026,0.40194210410118103,-2.489018440246582,-0.3962318940877195,-0.652056623581124,0.20136477596436908,-0.22958809643362957
-0.1495048701763153,0.7086084485054016,-4.845580577850342,-0.3962318940877195,-0.652056623581124,0.20136477596436908,-0.22958809643362957
-0.648955762386322,-0.5829756259918213,-7.17573356628418,-0.3962318940877195,-0.652056623581124,0.20136477596436908,-0.22958809643362957
-0.4601297378540039,0.09989333152770996,-9.499898910522461,-0.3962318940877195,-0.652056623581124,0.20136477596436908,-0.22958809643362957
0.328314870595932,-0.36387208104133606,-11.82778549194336,-0.3962318940877195,-0.652056623581124,0.20136477596436908,-0.22958809643362957
-0.500401496887207,0.8780006170272827,-14.239070892333984,-0.3962318940877195,-0.652056623581124,0.20136477596436908,-0.22958809643362957
-0.04374172165989876,-0.4390018880367279,-16.61873435974121,-0.3962318940877195,-0.652056623581124,0.20136477596436908,-0.22958809643362957
-0.3751225769519806,0.4349117875099182,-19.11003875732422,-0.3962318940877195,-0.652056623581124,0.20136477596436908,-0.22958809643362957
-0.3632385730743408,-1.4353822469711304,-21.604961395263672,-0.3962318940877195,-0.652056623581124,0.20136477596436908,-0.22958809643362957
0.14762592315673828,0.07961319386959076,-24.092121124267578,-0.3962318940877195,-0.652056623581124,0.20136477596436908,-0.22958809643362957
-0.1761946678161621,0.6591742634773254,-26.684621810913086,-0.3962318940877195,-0.652056623581124,0.20136477596436908,-0.22958809643362957
-0.8475214838981628,1.0743839740753174,-29.31987762451172,-0.3962318940877195,-0.652056623581124,0.20136477596436908,-0.22958809643362957
-0.2653564214706421,-0.3539022207260132,-31.918231964111328,-0.3962318940877195,-0.652056623581124,0.20136477596436908,-0.22958809643362957
0.07910052686929703,1.272370457649231,-34.565223693847656,-0.3962318940877195,-0.652056623581124,0.20136477596436908,-0.22958809643362957
-0.5083641409873962,-0.6745723485946655,-37.33621597290039,-0.3962318940877195,-0.652056623581124,0.20136477596436908,-0.22958809643362957
0.023988831788301468,-0.8976818323135376,-40.009246826171875,-0.3962318940877195,-0.652056623581124,0.20136477596436908,-0.22958809643362957
0.5171884894371033,-0.6207985877990723,-42.71140670776367,-0.3962318940877195,-0.652056623581124,0.20136477596436908,-0.22958809643362957
