faccX,faccY,yaw,posX,posY,velX,velY
0,0,-78.70755767822266,0.0,0.0,0.0,0.0
0,0,-78.70735931396484,0.0,0.0,0.0,0.0
0.07313269376754761,-0.179684117436409,-78.70956420898438,5.078659289413028e-06,-1.2478063710861736e-05,0.0006094391147295633,-0.0014973676453034082
0.4247951805591583,-1.0435214042663574,-78.68174743652344,4.981430247426033e-05,-0.00012237901902861065,0.004758838067452113,-0.011690746992826462
0.0854998379945755,-1.7208105325698853,-78.54354095458984,0.0001645654243313604,-0.000509192297856013,0.009011296555399895,-0.03472684646646182
1.1978912353515625,-2.839940071105957,-78.36823272705078,0.00040387808034817374,-0.0014046918642189768,0.01970622216661771,-0.07273310149709383
0.31460756063461304,-2.2066025733947754,-78.37810516357422,0.0008373497550686201,-0.0029673645728164246,0.03231037879983584,-0.11478762353459994
-0.5020427703857422,-0.8123539686203003,-78.33043670654297,0.0013628397343887222,-0.005090141391588581,0.030748418718576427,-0.1399455947180589
0.19179017841815948,-1.1627849340438843,-78.3213119506836,0.0018537680608116916,-0.00755973039401902,0.028162980452179905,-0.15640508557359378
0.4941759705543518,-0.8957693576812744,-78.28845977783203,0.0023707876064711143,-0.010309436979393164,0.03387936502695083,-0.17355970467130344
0.5895876288414001,-2.1482391357421875,-78.23687744140625,0.0030107050513227774,-0.01341348820262485,0.04291072835524876,-0.19892644211649896
-0.3546156585216522,-1.0662949085235596,-78.1579360961914,0.0037422013551824617,-0.01695216043541829,0.04486882810791333,-0.22571422581871353
1.2286843061447144,-0.817738950252533,-78.0962905883789,0.004550714368621507,-0.020844899883700745,0.05215273350477218,-0.24141450797518096
-0.38322940468788147,-1.2179652452468872,-78.13777160644531,0.0054786387396355465,-0.02500984336353011,0.059198191016912455,-0.2583787096043428
1.3365933895111084,-1.4558384418487549,-78.06941223144531,0.006531481088863478,-0.02950183600187302,0.06714289089043934,-0.28066040699680644
-0.49275195598602295,-0.6619224548339844,-78.08064270019531,0.007709129369921153,-0.034326576180756095,0.07417490283648172,-0.2983084144691626
-0.2527410686016083,-1.7356634140014648,-78.00956726074219,0.008893607401599486,-0.0394648821072446,0.06796246096491812,-0.318288296709458
1.5337779521942139,0.4735698699951172,-77.96339416503906,0.010115275979042052,-0.044857332437402676,0.07863776832818983,-0.3288057429095109
-0.8504243493080139,-1.155015468597412,-78.01065063476562,0.011473360562490091,-0.05038475076357524,0.08433238168557483,-0.3344844562311967
-0.1864473819732666,-0.4363970458507538,-78.03813171386719,0.012806895275910694,-0.05607000645870964,0.07569178392489749,-0.3477462271849314
0.6163412928581238,-0.5302830338478088,-78.12787628173828,0.014098278751803767,-0.06193290747288201,0.0792742331822713,-0.3558018945157528
-0.2609052062034607,-1.1345585584640503,-78.19402313232422,0.01544419903308153,-0.06797855304761065,0.08223620057106015,-0.3696755744516849
1.2933075428009033,-0.09223613142967224,-78.20242309570312,0.01688649698264069,-0.07422500669749246,0.09083955337603884,-0.3798988635341326
-0.45266780257225037,-0.4163358211517334,-77.98828125,0.018458867298646105,-0.08059197191976838,0.09784488454461095,-0.38413696313897766
0.498776376247406,-0.25970184803009033,-77.80536651611328,0.02009281735867262,-0.0870412016991112,0.09822912265857058,-0.38977061038215954
1.4254348278045654,-0.300462543964386,-77.75389862060547,0.021863595181041293,-0.09357627884381348,0.11426421602567033,-0.3944386469821135
-1.65146005153656,0,-77.83116912841797,0.023752302585376632,-0.10017112174795734,0.11238067249457037,-0.39694250151515004
-0.4433709681034088,-1.2598423957824707,-77.80976867675781,0.025479839417255585,-0.10687431916180584,0.09492374733090396,-0.40744118814667063
0,-0.6165860295295715,-77.91270446777344,0.027031112222207915,-0.11379531316045258,0.09122898926337555,-0.42307809169093763
-0.45381462574005127,-0.6266638040542603,-78.0084228515625,0.028520080472032226,-0.12093295148263375,0.0874472007155418,-0.4334385069708029
0.8493054509162903,0.7247549295425415,-77.94489288330078,0.030004998457928495,-0.12815011471509932,0.09074295759201045,-0.4326210809250672
-0.23784787952899933,-0.45522254705429077,-77.91819763183594,0.03155984341580834,-0.13534174853728875,0.09583843735357121,-0.4303749777376651
1.1246633529663086,0.19831092655658722,-77.88688659667969,0.03321873511291212,-0.1425325059176733,0.10322856629888212,-0.43251590790847927
-0.6229068636894226,0.19214162230491638,-77.80142211914062,0.03497405541853772,-0.149713989622477,0.1074098703761895,-0.42926213666796675
-0.10708644986152649,-1.1061686277389526,-77.75452423095703,0.03671352594469984,-0.1569318326645427,0.10132659276326493,-0.43687902837991704
-0.48782405257225037,-0.2585718035697937,-77.7371826171875,0.03836098926141858,-0.1643079234452711,0.09636900524298346,-0.44825186530748995
0.4251345098018646,0,-77.86785888671875,0.03996278590833147,-0.1717967442423105,0.09584659238656358,-0.4504066303372382
-0.8831028938293457,0.06964053213596344,-78.02162170410156,0.041528425754772294,-0.1792986852665328,0.09203018918633457,-0.4498262925694385
0.1723848432302475,-0.07068981975317001,-78.09668731689453,0.04301290682103071,-0.18679586300988577,0.08610753876467542,-0.44983503663291524
0.9421893358230591,-0.1289561688899994,-78.07774353027344,0.044525433451765115,-0.19430697792520124,0.09539565692345298,-0.45149875320494165
-0.15606696903705597,-0.3731476366519928,-78.08846282958984,0.046169952898182806,-0.20186682546511292,0.10194667664666966,-0.45568295158445826
0.06925320625305176,0.21687348186969757,-78.03096008300781,0.04786303544210063,-0.20947239369671378,0.10122322862346962,-0.45698523620764403
0.37024834752082825,-0.5755754709243774,-78.00027465820312,0.04958061019372609,-0.21711372416052552,0.10488574157158528,-0.45997441944976636
0.6104612946510315,0,-78.11898803710938,0.051396810722847776,-0.22481993500350247,0.11305832192301744,-0.4647708817074695
-0.5229043364524841,-0.9941800236701965,-78.17854309082031,0.05328719643255074,-0.23263515664471518,0.11378796324133868,-0.47305571523805445
-0.4849763512611389,-0.6956260800361633,-78.0509262084961,0.055113670772148494,-0.24063676621144015,0.10538895751039182,-0.4871374327689408
0.24177122116088867,1.241111397743225,-77.99351501464844,0.05685326415217584,-0.24871784249941506,0.10336224809288973,-0.4825917217880486
0.13166774809360504,-0.8381782174110413,-78.20789337158203,0.05860190154881112,-0.2567330563916928,0.10647423950334384,-0.4792339452852804
1.5137333869934082,0.9777743220329285,-78.27013397216797,0.06049073617491456,-0.26471059463918206,0.12018591562906894,-0.47807064441343133
-0.8796445727348328,-0.4397496283054352,-78.17124938964844,0.062537868714167,-0.27264107588678593,0.12546998908122373,-0.4735871052990356
0.1352614015340805,-0.06994765251874924,-77.99151611328125,0.06457734192307624,-0.2805695899529382,0.11926679598788413,-0.4778345826392371
1.1294506788253784,-0.18906572461128235,-77.94007873535156,0.06665294908401038,-0.2885514867036706,0.12980606332421296,-0.479993027448654
-1.580275535583496,0,-78.0897216796875,0.06878507619102796,-0.2965645000586906,0.12604918951789532,-0.481568575153748
-1.1838738918304443,-1.0957695245742798,-78.21276092529297,0.07069394119497802,-0.30466673808379297,0.10301461095611247,-0.4906999878585337
-0.24051211774349213,0.27072346210479736,-78.21614074707031,0.07231193568247059,-0.3129023660802178,0.09114472754299634,-0.49757537171244604
0.5680951476097107,0.9956378936767578,-78.1824722290039,0.07385376329637235,-0.32110734718127376,0.09387458612521482,-0.4870223604142664
0.5480297207832336,0.39543721079826355,-78.19410705566406,0.07549584840320878,-0.32912778408370075,0.10317562669515602,-0.47543006787697456
-0.0694626122713089,-0.5870732665061951,-78.1904067993164,0.07724867600844137,-0.3370649266077412,0.1071636859327554,-0.47702703500787397
-0.25502485036849976,0.15987806022167206,-78.16080474853516,0.07901220358908176,-0.3450450435249755,0.10445962374409032,-0.480586995060245
-0.25519949197769165,-0.6788086295127869,-78.12701416015625,0.08071776507215367,-0.35309086362106923,0.10020775422453873,-0.4849114164710043
-0.40578749775886536,1.1538426876068115,-78.18827819824219,0.08234199243494206,-0.3611397320859961,0.09469952931006742,-0.4809527993202207
0.6010046005249023,-0.7585620880126953,-78.36383056640625,0.08393387466669082,-0.36912816203302795,0.09632633849978439,-0.4776587943236031
-0.3947760760784149,-0.10226602107286453,-78.42835998535156,0.08555363506699601,-0.37714892166821895,0.09804490953683845,-0.4848323618993161
0,0,-78.3638687133789,0.08716030188732676,-0.3852365628402265,0.09475510890285166,-0.48568457874159
0.20424862205982208,0.09218773245811462,-78.39212799072266,0.08875373763446177,-0.39332490389338787,0.09645718075335018,-0.48491634763777236
0,0,-78.35923767089844,0.09037554124577177,-0.4014004410948189,0.0981592526038487,-0.48414811653395473
0.5250502228736877,-0.2917380928993225,-78.30152130126953,0.09204799061020214,-0.4094898359601695,0.10253467112779609,-0.48657926730811574
0.7944726347923279,0.37412089109420776,-78.32601165771484,0.09384853532744776,-0.41759376938765236,0.11353069494167956,-0.485892743989825
-0.49451085925102234,0.15371713042259216,-78.3959732055664,0.09576154425533279,-0.4256553263693219,0.11603037640452377,-0.48149409381051833
-0.21218860149383545,-0.7842491865158081,-78.37967681884766,0.09764630751063423,-0.43372401488117035,0.11014121423164995,-0.4867485276112951
-0.21975751221179962,-0.15861108899116516,-78.37821197509766,0.09945199815659884,-0.4419019667493799,0.10654166328410299,-0.4946056965738532
1.2766988277435303,-0.2984667420387268,-78.50599670410156,0.10130109124713471,-0.45017713654165453,0.11534950758020074,-0.4984146784991023
0.328291118144989,0.7507327795028687,-78.46190643310547,0.1033350406752692,-0.4584526404862601,0.1287244237959384,-0.4946457948535678
-1.4585994482040405,-0.384726345539093,-78.30684661865234,0.10540195410450297,-0.4666713199536832,0.11930518771211297,-0.491595741237203
0.8543493747711182,0.24604596197605133,-78.1710205078125,0.10734841208904979,-0.47487421288982845,0.11426977043350528,-0.49275141110022835
-0.12289062142372131,0.07897024601697922,-78.23038482666016,0.10930370400970178,-0.4830641658381661,0.12036526004473358,-0.4900429427002864
-0.9860228300094604,0,-78.33305358886719,0.11123278379854226,-0.4912260641716419,0.11112431461612374,-0.4893848573168116
-0.1149442046880722,-0.6981136798858643,-78.38404846191406,0.11123278379854226,-0.4912260641716419,0.11112431461612374,-0.4893848573168116
-1.0224027633666992,0.6166601777076721,-78.31177520751953,0.11123278379854226,-0.4912260641716419,0.11112431461612374,-0.4893848573168116
0.8490150570869446,0.7273529171943665,-78.24141693115234,0.11123278379854226,-0.4912260641716419,0.11112431461612374,-0.4893848573168116
0.5650879740715027,0.7436549663543701,-78.26570129394531,0.11123278379854226,-0.4912260641716419,0.11112431461612374,-0.4893848573168116
-0.8894497752189636,2.351816177368164,-78.53019714355469,0.11123278379854226,-0.4912260641716419,0.11112431461612374,-0.4893848573168116
0.10425355285406113,1.3391132354736328,-79.14555358886719,0.11123278379854226,-0.4912260641716419,0.11112431461612374,-0.4893848573168116
-1.322718858718872,0.9516542553901672,-79.9012222290039,0.11123278379854226,-0.4912260641716419,0.11112431461612374,-0.4893848573168116
-1.0829811096191406,2.746237277984619,-80.8777847290039,0.11123278379854226,-0.4912260641716419,0.11112431461612374,-0.4893848573168116
-0.9996163249015808,1.018895149230957,-82.05683898925781,0.11123278379854226,-0.4912260641716419,0.11112431461612374,-0.4893848573168116
-0.2435499131679535,2.238995313644409,-83.40879821777344,0.11123278379854226,-0.4912260641716419,0.11112431461612374,-0.4893848573168116
-0.9802558422088623,0.934327244758606,-84.95409393310547,0.11123278379854226,-0.4912260641716419,0.11112431461612374,-0.4893848573168116
0.6184247732162476,1.1759021282196045,-86.59422302246094,0.11123278379854226,-0.4912260641716419,0.11112431461612374,-0.4893848573168116
-1.0477945804595947,0.5937023162841797,-88.36499786376953,0.11123278379854226,-0.4912260641716419,0.11112431461612374,-0.4893848573168116
0.02485308237373829,1.491932988166809,-90.2374267578125,0.11123278379854226,-0.4912260641716419,0.11112431461612374,-0.4893848573168116
0.6673105359077454,1.2483786344528198,-92.2498779296875,0.11123278379854226,-0.4912260641716419,0.11112431461612374,-0.4893848573168116
-0.5446707010269165,1.6149811744689941,-94.39800262451172,0.11123278379854226,-0.4912260641716419,0.11112431461612374,-0.4893848573168116
-1.5625180006027222,1.1486858129501343,-96.58577728271484,0.11123278379854226,-0.4912260641716419,0.11112431461612374,-0.4893848573168116
-0.5294702053070068,0.4844839870929718,-98.83465576171875,0.11123278379854226,-0.4912260641716419,0.11112431461612374,-0.4893848573168116
0.8032088279724121,1.6926528215408325,-101.1824722290039,0.11123278379854226,-0.4912260641716419,0.11112431461612374,-0.4893848573168116
-0.7282862067222595,0.8447336554527283,-103.48824310302734,0.11123278379854226,-0.4912260641716419,0.11112431461612374,-0.4893848573168116
-0.7992527484893799,0.14810435473918915,-105.88754272460938,0.11123278379854226,-0.4912260641716419,0.11112431461612374,-0.4893848573168116
0.5080526471138,1.2133253812789917,-108.35490417480469,0.11123278379854226,-0.4912260641716419,0.11112431461612374,-0.4893848573168116
-0.8087274432182312,1.1425443887710571,-110.88623809814453,0.11123278379854226,-0.4912260641716419,0.11112431461612374,-0.4893848573168116
-0.17582353949546814,1.1991227865219116,-113.46139526367188,0.11123278379854226,-0.4912260641716419,0.11112431461612374,-0.4893848573168116
-1.241793155670166,-0.06432560086250305,-116.01140594482422,0.11123278379854226,-0.4912260641716419,0.11112431461612374,-0.4893848573168116
2.535998582839966,1.4393434524536133,-118.64144134521484,0.11123278379854226,-0.4912260641716419,0.11112431461612374,-0.4893848573168116
-2.7679200172424316,1.1733793020248413,-121.14186096191406,0.11123278379854226,-0.4912260641716419,0.11112431461612374,-0.4893848573168116
1.1107202768325806,-0.3040313720703125,-123.72696685791016,0.11123278379854226,-0.4912260641716419,0.11112431461612374,-0.4893848573168116
0.17351780831813812,1.4801874160766602,-126.35926818847656,0.11123278379854226,-0.4912260641716419,0.11112431461612374,-0.4893848573168116
-1.3921220302581787,1.2973949909210205,-128.99057006835938,0.11123278379854226,-0.4912260641716419,0.11112431461612374,-0.4893848573168116
0.06849010288715363,-0.34249579906463623,-131.62619018554688,0.11123278379854226,-0.4912260641716419,0.11112431461612374,-0.4893848573168116
0.06085321679711342,0.9231894016265869,-134.30592346191406,0.11123278379854226,-0.4912260641716419,0.11112431461612374,-0.4893848573168116
-0.517233669757843,1.1735183000564575,-136.9744110107422,0.11123278379854226,-0.4912260641716419,0.11112431461612374,-0.4893848573168116
0.828993022441864,0.21948669850826263,-139.62742614746094,0.11123278379854226,-0.4912260641716419,0.11112431461612374,-0.4893848573168116
-0.6609362959861755,1.464355230331421,-142.24478149414062,0.11123278379854226,-0.4912260641716419,0.11112431461612374,-0.4893848573168116
0.707435667514801,-0.8431450724601746,-144.78033447265625,0.11123278379854226,-0.4912260641716419,0.11112431461612374,-0.4893848573168116
0.8535970449447632,0.6741863489151001,-147.3729248046875,0.11123278379854226,-0.4912260641716419,0.11112431461612374,-0.4893848573168116
-1.6164032220840454,1.7233883142471313,-149.9710235595703,0.11123278379854226,-0.4912260641716419,0.11112431461612374,-0.4893848573168116
1.858502984046936,0.28228938579559326,-152.63690185546875,0.11123278379854226,-0.4912260641716419,0.11112431461612374,-0.4893848573168116
-0.6715899109840393,0.6557937264442444,-155.32080078125,0.11123278379854226,-0.4912260641716419,0.11112431461612374,-0.4893848573168116
0.18462054431438446,1.242978572845459,-158.0794219970703,0.11123278379854226,-0.4912260641716419,0.11112431461612374,-0.4893848573168116
0.11448889225721359,-0.29507529735565186,-160.79827880859375,0.11123278379854226,-0.4912260641716419,0.11112431461612374,-0.4893848573168116
0.5068517923355103,-0.8833853006362915,-163.4981231689453,0.11123278379854226,-0.4912260641716419,0.11112431461612374,-0.4893848573168116
0.07581363618373871,1.6679198741912842,-166.23663330078125,0.11123278379854226,-0.4912260641716419,0.11112431461612374,-0.4893848573168116
-0.024577243253588676,-0.05994134768843651,-168.90782165527344,0.11123278379854226,-0.4912260641716419,0.11112431461612374,-0.4893848573168116
0.6248775720596313,-0.20678192377090454,-171.6099853515625,0.11123278379854226,-0.4912260641716419,0.11112431461612374,-0.4893848573168116
0.06815793365240097,0.9596459269523621,-174.2804718017578,0.11123278379854226,-0.4912260641716419,0.11112431461612374,-0.4893848573168116
0.5111821889877319,-0.5771544575691223,-176.89012145996094,0.11123278379854226,-0.4912260641716419,0.11112431461612374,-0.4893848573168116
0.7402530312538147,1.0580805540084839,-179.37576293945312,0.11123278379854226,-0.4912260641716419,0.11112431461612374,-0.4893848573168116
-0.16767124831676483,0.5543279051780701,178.6216278076172,0.11123278379854226,-0.4912260641716419,0.11112431461612374,-0.4893848573168116
0.43818792700767517,-0.43843314051628113,176.97080993652344,0.11123278379854226,-0.4912260641716419,0.11112431461612374,-0.4893848573168116
-0.059259459376335144,-0.07345618307590485,175.6227264404297,0.11123278379854226,-0.4912260641716419,0.11112431461612374,-0.4893848573168116
-0.4272298812866211,-1.5488903522491455,174.48846435546875,0.11123278379854226,-0.4912260641716419,0.11112431461612374,-0.4893848573168116
-0.8241263031959534,-0.9124531149864197,173.69439697265625,0.11123278379854226,-0.4912260641716419,0.11112431461612374,-0.4893848573168116
-0.6143325567245483,-1.5046508312225342,173.27627563476562,0.11123278379854226,-0.4912260641716419,0.11112431461612374,-0.4893848573168116
-0.6156779527664185,-1.012427806854248,173.2266845703125,0.11123278379854226,-0.4912260641716419,0.11112431461612374,-0.4893848573168116
0.027742641046643257,0.5746191740036011,173.3800048828125,0.11123278379854226,-0.4912260641716419,0.11112431461612374,-0.4893848573168116
0.05798482149839401,0.28074920177459717,173.4362335205078,0.11123278379854226,-0.4912260641716419,0.11112431461612374,-0.4893848573168116
0.09699802100658417,0.38399070501327515,173.3946990966797,0.11123278379854226,-0.4912260641716419,0.11112431461612374,-0.4893848573168116
0.049915608018636703,0.05307522416114807,173.39772033691406,0.11123278379854226,-0.4912260641716419,0.11112431461612374,-0.4893848573168116
0.13411945104599,0.23450104892253876,173.4131622314453,0.11123278379854226,-0.4912260641716419,0.11112431461612374,-0.4893848573168116
0.009015139192342758,0.15218153595924377,173.4029998779297,0.11123278379854226,-0.4912260641716419,0.11112431461612374,-0.4893848573168116
-0.004715775139629841,0.2397608458995819,173.4105224609375,0.11123278379854226,-0.4912260641716419,0.11112431461612374,-0.4893848573168116
-0.061824094504117966,0.17898379266262054,173.40907287597656,0.11123278379854226,-0.4912260641716419,0.11112431461612374,-0.4893848573168116
-0.04440637677907944,0.22949033975601196,173.40863037109375,0.11123278379854226,-0.4912260641716419,0.11112431461612374,-0.4893848573168116
-0.009423800744116306,0.21304519474506378,173.41122436523438,0.11123278379854226,-0.4912260641716419,0.11112431461612374,-0.4893848573168116
0.022705623880028725,0.18221208453178406,173.4110565185547,0.11123278379854226,-0.4912260641716419,0.11112431461612374,-0.4893848573168116
0.011426468379795551,0.21432356536388397,173.41160583496094,0.11123278379854226,-0.4912260641716419,0.11112431461612374,-0.4893848573168116
-0.02428816445171833,0.20298954844474792,173.41302490234375,0.11123278379854226,-0.4912260641716419,0.11112431461612374,-0.4893848573168116
-0.02401018887758255,0.21301928162574768,173.41302490234375,0.11123278379854226,-0.4912260641716419,0.11112431461612374,-0.4893848573168116
-0.013071374036371708,0.1969676911830902,173.4137420654297,0.11123278379854226,-0.4912260641716419,0.11112431461612374,-0.4893848573168116
0.007788829505443573,0.19772370159626007,173.4142608642578,0.11123278379854226,-0.4912260641716419,0.11112431461612374,-0.4893848573168116
-0.00371148600243032,0.19556528329849243,173.41368103027344,0.11123278379854226,-0.4912260641716419,0.11112431461612374,-0.4893848573168116
-0.016991090029478073,0.20798145234584808,173.41461181640625,0.11123278379854226,-0.4912260641716419,0.11112431461612374,-0.4893848573168116
-0.03797530010342598,0.1951126903295517,173.41497802734375,0.11123278379854226,-0.4912260641716419,0.11112431461612374,-0.4893848573168116
-0.020008547231554985,0.20400168001651764,173.41549682617188,0.11123278379854226,-0.4912260641716419,0.11112431461612374,-0.4893848573168116
0.002186019439250231,0.19635362923145294,173.4159393310547,0.11123278379854226,-0.4912260641716419,0.11112431461612374,-0.4893848573168116
-0.011967816390097141,0.2003505676984787,173.41732788085938,0.11123278379854226,-0.4912260641716419,0.11112431461612374,-0.4893848573168116
-0.012219353578984737,0.20322160422801971,173.4181365966797,0.11123278379854226,-0.4912260641716419,0.11112431461612374,-0.4893848573168116
-0.012608620338141918,0.21246246993541718,173.4173126220703,0.11123278379854226,-0.4912260641716419,0.11112431461612374,-0.4893848573168116
-0.005233491770923138,0.19822527468204498,173.41575622558594,0.11123278379854226,-0.4912260641716419,0.11112431461612374,-0.4893848573168116
-0.005041871219873428,0.1913023442029953,173.4153289794922,0.11123278379854226,-0.4912260641716419,0.11112431461612374,-0.4893848573168116
-0.01367133017629385,0.20496706664562225,173.41412353515625,0.11123278379854226,-0.4912260641716419,0.11112431461612374,-0.4893848573168116
-0.008217829279601574,0.19545607268810272,173.41481018066406,0.11123278379854226,-0.4912260641716419,0.11112431461612374,-0.4893848573168116
-0.015104330144822598,0.190880686044693,173.41563415527344,0.11123278379854226,-0.4912260641716419,0.11112431461612374,-0.4893848573168116
-0.02265366166830063,0.2045678347349167,173.4167022705078,0.11123278379854226,-0.4912260641716419,0.11112431461612374,-0.4893848573168116
-0.009857560507953167,0.21196192502975464,173.41819763183594,0.11123278379854226,-0.4912260641716419,0.11112431461612374,-0.4893848573168116
-0.010273385792970657,0.19689182937145233,173.4176788330078,0.11123278379854226,-0.4912260641716419,0.11112431461612374,-0.4893848573168116
-0.013084368780255318,0.20658737421035767,173.4178009033203,0.11123278379854226,-0.4912260641716419,0.11112431461612374,-0.4893848573168116
-0.011109915561974049,0.19341474771499634,173.4188690185547,0.11123278379854226,-0.4912260641716419,0.11112431461612374,-0.4893848573168116
-0.009840462356805801,0.20328977704048157,173.41819763183594,0.11123278379854226,-0.4912260641716419,0.11112431461612374,-0.4893848573168116
-0.003122971160337329,0.2072526216506958,173.4197540283203,0.11123278379854226,-0.4912260641716419,0.11112431461612374,-0.4893848573168116
-0.004900431726127863,0.21213556826114655,173.4197235107422,0.11123278379854226,-0.4912260641716419,0.11112431461612374,-0.4893848573168116
-0.025199100375175476,0.20628148317337036,173.42027282714844,0.11123278379854226,-0.4912260641716419,0.11112431461612374,-0.4893848573168116
-0.007248705718666315,0.2092365324497223,173.42066955566406,0.11123278379854226,-0.4912260641716419,0.11112431461612374,-0.4893848573168116
-0.016959985718131065,0.20530088245868683,173.42019653320312,0.11123278379854226,-0.4912260641716419,0.11112431461612374,-0.4893848573168116
-0.0007736567058600485,0.19766175746917725,173.419921875,0.11123278379854226,-0.4912260641716419,0.11112431461612374,-0.4893848573168116
0.001735102734528482,0.19236481189727783,173.42059326171875,0.11123278379854226,-0.4912260641716419,0.11112431461612374,-0.4893848573168116
-0.003001301782205701,0.20332267880439758,173.42088317871094,0.11123278379854226,-0.4912260641716419,0.11112431461612374,-0.4893848573168116
-0.019222442060709,0.18469619750976562,173.42111206054688,0.11123278379854226,-0.4912260641716419,0.11112431461612374,-0.4893848573168116
-0.018370091915130615,0.19072048366069794,173.42140197753906,0.11123278379854226,-0.4912260641716419,0.11112431461612374,-0.4893848573168116
-0.014400213956832886,0.20307840406894684,173.4214630126953,0.11123278379854226,-0.4912260641716419,0.11112431461612374,-0.4893848573168116
-0.0005432820762507617,0.19112057983875275,173.42124938964844,0.11123278379854226,-0.4912260641716419,0.11112431461612374,-0.4893848573168116
-0.02606922760605812,0.18698936700820923,173.42184448242188,0.11123278379854226,-0.4912260641716419,0.11112431461612374,-0.4893848573168116
-0.004724089987576008,0.19040775299072266,173.42214965820312,0.11123278379854226,-0.4912260641716419,0.11112431461612374,-0.4893848573168116
-0.00957433320581913,0.2080383151769638,173.4222869873047,0.11123278379854226,-0.4912260641716419,0.11112431461612374,-0.4893848573168116
-0.020281968638300896,0.19901232421398163,173.4230194091797,0.11123278379854226,-0.4912260641716419,0.11112431461612374,-0.4893848573168116
-0.03135402873158455,0.20381969213485718,173.42327880859375,0.11123278379854226,-0.4912260641716419,0.11112431461612374,-0.4893848573168116
-0.009958188980817795,0.20501281321048737,173.42271423339844,0.11123278379854226,-0.4912260641716419,0.11112431461612374,-0.4893848573168116
-0.014455555938184261,0.18867860734462738,173.42257690429688,0.11123278379854226,-0.4912260641716419,0.11112431461612374,-0.4893848573168116
-0.0028455094434320927,0.21315030753612518,173.42205810546875,0.11123278379854226,-0.4912260641716419,0.11112431461612374,-0.4893848573168116
-0.003069309750571847,0.1897060126066208,173.42271423339844,0.11123278379854226,-0.4912260641716419,0.11112431461612374,-0.4893848573168116
-0.006350290961563587,0.19710378348827362,173.4240264892578,0.11123278379854226,-0.4912260641716419,0.11112431461612374,-0.4893848573168116
-0.0017707456136122346,0.18644046783447266,173.42300415039062,0.11123278379854226,-0.4912260641716419,0.11112431461612374,-0.4893848573168116
-0.005812403745949268,0.1947496384382248,173.42221069335938,0.11123278379854226,-0.4912260641716419,0.11112431461612374,-0.4893848573168116
-0.006915628910064697,0.19342149794101715,173.422607421875,0.11123278379854226,-0.4912260641716419,0.11112431461612374,-0.4893848573168116
-0.009304058738052845,0.18546001613140106,173.42276000976562,0.11123278379854226,-0.4912260641716419,0.11112431461612374,-0.4893848573168116
-0.008501704782247543,0.20088478922843933,173.42274475097656,0.11123278379854226,-0.4912260641716419,0.11112431461612374,-0.4893848573168116
-0.01706129126250744,0.1873035877943039,173.42176818847656,0.11123278379854226,-0.4912260641716419,0.11112431461612374,-0.4893848573168116
-0.004033393692225218,0.20210467278957367,173.42152404785156,0.11123278379854226,-0.4912260641716419,0.11112431461612374,-0.4893848573168116
-0.008517609909176826,0.21287591755390167,173.42141723632812,0.11123278379854226,-0.4912260641716419,0.11112431461612374,-0.4893848573168116
-0.009759644977748394,0.1940838098526001,173.4207000732422,0.11123278379854226,-0.4912260641716419,0.11112431461612374,-0.4893848573168116
-0.01403791457414627,0.2111731320619583,173.42124938964844,0.11123278379854226,-0.4912260641716419,0.11112431461612374,-0.4893848573168116
-0.015180863440036774,0.19783782958984375,173.42103576660156,0.11123278379854226,-0.4912260641716419,0.11112431461612374,-0.4893848573168116
-0.005882895551621914,0.19213935732841492,173.4196014404297,0.11123278379854226,-0.4912260641716419,0.11112431461612374,-0.4893848573168116
-0.0065205334685742855,0.1983199417591095,173.42015075683594,0.11123278379854226,-0.4912260641716419,0.11112431461612374,-0.4893848573168116
-0.023147182539105415,0.1958211362361908,173.42025756835938,0.11123278379854226,-0.4912260641716419,0.11112431461612374,-0.4893848573168116
-0.01865207776427269,0.18533207476139069,173.42066955566406,0.11123278379854226,-0.4912260641716419,0.11112431461612374,-0.4893848573168116
-0.020049776881933212,0.18947045505046844,173.42098999023438,0.11123278379854226,-0.4912260641716419,0.11112431461612374,-0.4893848573168116
-0.013366623781621456,0.1921023577451706,173.42283630371094,0.11123278379854226,-0.4912260641716419,0.11112431461612374,-0.4893848573168116
-0.009556392207741737,0.17727379500865936,173.42327880859375,0.11123278379854226,-0.4912260641716419,0.11112431461612374,-0.4893848573168116
-0.005317221395671368,0.1913851648569107,173.4234161376953,0.11123278379854226,-0.4912260641716419,0.11112431461612374,-0.4893848573168116
-0.017522752285003662,0.20534974336624146,173.42471313476562,0.11123278379854226,-0.4912260641716419,0.11112431461612374,-0.4893848573168116
-0.013941203244030476,0.190825417637825,173.42538452148438,0.11123278379854226,-0.4912260641716419,0.11112431461612374,-0.4893848573168116
-0.015214572660624981,0.18835735321044922,173.42478942871094,0.11123278379854226,-0.4912260641716419,0.11112431461612374,-0.4893848573168116
-0.01896223984658718,0.19231674075126648,173.42446899414062,0.11123278379854226,-0.4912260641716419,0.11112431461612374,-0.4893848573168116
-0.008861826732754707,0.19804179668426514,173.4240264892578,0.11123278379854226,-0.4912260641716419,0.11112431461612374,-0.4893848573168116
-0.015935136005282402,0.18765194714069366,173.42332458496094,0.11123278379854226,-0.4912260641716419,0.11112431461612374,-0.4893848573168116
0.0076338485814630985,0.2028428316116333,173.42140197753906,0.11123278379854226,-0.4912260641716419,0.11112431461612374,-0.4893848573168116
-0.005149333272129297,0.1971832811832428,173.42051696777344,0.11123278379854226,-0.4912260641716419,0.11112431461612374,-0.4893848573168116
-0.01875603012740612,0.18979915976524353,173.42074584960938,0.11123278379854226,-0.4912260641716419,0.11112431461612374,-0.4893848573168116
-0.016183296218514442,0.18959465622901917,173.42098999023438,0.11123278379854226,-0.4912260641716419,0.11112431461612374,-0.4893848573168116
-0.004348221700638533,0.1807529628276825,173.42080688476562,0.11123278379854226,-0.4912260641716419,0.11112431461612374,-0.4893848573168116
0.0040679690428078175,0.19028207659721375,173.4202117919922,0.11123278379854226,-0.4912260641716419,0.11112431461612374,-0.4893848573168116
-0.01793883740901947,0.1866857260465622,173.42210388183594,0.11123278379854226,-0.4912260641716419,0.11112431461612374,-0.4893848573168116
-0.00808623619377613,0.18255575001239777,173.4210662841797,0.11123278379854226,-0.4912260641716419,0.11112431461612374,-0.4893848573168116
-0.01476097758859396,0.1760966181755066,173.42233276367188,0.11123278379854226,-0.4912260641716419,0.11112431461612374,-0.4893848573168116
-0.006212432403117418,0.1877385675907135,173.4214630126953,0.11123278379854226,-0.4912260641716419,0.11112431461612374,-0.4893848573168116
-0.01044956874102354,0.2001969963312149,173.42083740234375,0.11123278379854226,-0.4912260641716419,0.11112431461612374,-0.4893848573168116
-0.00965820997953415,0.19475103914737701,173.42025756835938,0.11123278379854226,-0.4912260641716419,0.11112431461612374,-0.4893848573168116
-0.008814526721835136,0.1816100925207138,173.41958618164062,0.11123278379854226,-0.4912260641716419,0.11112431461612374,-0.4893848573168116
-0.005463922396302223,0.18172714114189148,173.4196014404297,0.11123278379854226,-0.4912260641716419,0.11112431461612374,-0.4893848573168116
-0.0058058323338627815,0.1769438236951828,173.4202423095703,0.11123278379854226,-0.4912260641716419,0.11112431461612374,-0.4893848573168116
-0.011974003165960312,0.196881502866745,173.42050170898438,0.11123278379854226,-0.4912260641716419,0.11112431461612374,-0.4893848573168116
-0.008064083755016327,0.17895786464214325,173.42178344726562,0.11123278379854226,-0.4912260641716419,0.11112431461612374,-0.4893848573168116
-0.018008336424827576,0.19077536463737488,173.42205810546875,0.11123278379854226,-0.4912260641716419,0.11112431461612374,-0.4893848573168116
0.002179445931687951,0.19131441414356232,173.42237854003906,0.11123278379854226,-0.4912260641716419,0.11112431461612374,-0.4893848573168116
-0.005160145927220583,0.17417536675930023,173.4220733642578,0.11123278379854226,-0.4912260641716419,0.11112431461612374,-0.4893848573168116
0.00030122933094389737,0.18836556375026703,173.42149353027344,0.11123278379854226,-0.4912260641716419,0.11112431461612374,-0.4893848573168116
-0.00392381614074111,0.1766517162322998,173.42189025878906,0.11123278379854226,-0.4912260641716419,0.11112431461612374,-0.4893848573168116
-0.028375621885061264,0.19264543056488037,173.42135620117188,0.11123278379854226,-0.4912260641716419,0.11112431461612374,-0.4893848573168116
-0.005888188723474741,0.17429248988628387,173.42288208007812,0.11123278379854226,-0.4912260641716419,0.11112431461612374,-0.4893848573168116
0.003731277771294117,0.1861122101545334,173.42385864257812,0.11123278379854226,-0.4912260641716419,0.11112431461612374,-0.4893848573168116
-0.002781615126878023,0.1791282743215561,173.42369079589844,0.11123278379854226,-0.4912260641716419,0.11112431461612374,-0.4893848573168116
-0.02070857770740986,0.17784807085990906,173.42315673828125,0.11123278379854226,-0.4912260641716419,0.11112431461612374,-0.4893848573168116
-0.012018976733088493,0.18051189184188843,173.42271423339844,0.11123278379854226,-0.4912260641716419,0.11112431461612374,-0.4893848573168116
-0.009018217213451862,0.19066782295703888,173.42288208007812,0.11123278379854226,-0.4912260641716419,0.11112431461612374,-0.4893848573168116
-0.016698775812983513,0.17566516995429993,173.42335510253906,0.11123278379854226,-0.4912260641716419,0.11112431461612374,-0.4893848573168116
-0.02145254984498024,0.17295444011688232,173.4250946044922,0.11123278379854226,-0.4912260641716419,0.11112431461612374,-0.4893848573168116
0.003138588275760412,0.17860570549964905,173.42518615722656,0.11123278379854226,-0.4912260641716419,0.11112431461612374,-0.4893848573168116
-0.008501834236085415,0.17513112723827362,173.4253387451172,0.11123278379854226,-0.4912260641716419,0.11112431461612374,-0.4893848573168116
-0.00754101388156414,0.17497655749320984,173.42547607421875,0.11123278379854226,-0.4912260641716419,0.11112431461612374,-0.4893848573168116
-0.005602787248790264,0.17020487785339355,173.4247283935547,0.11123278379854226,-0.4912260641716419,0.11112431461612374,-0.4893848573168116
-0.016350707039237022,0.18511655926704407,173.42425537109375,0.11123278379854226,-0.4912260641716419,0.11112431461612374,-0.4893848573168116
-0.020786402747035027,0.1771268993616104,173.42526245117188,0.11123278379854226,-0.4912260641716419,0.11112431461612374,-0.4893848573168116
-0.0012887816410511732,0.17269565165042877,173.42445373535156,0.11123278379854226,-0.4912260641716419,0.11112431461612374,-0.4893848573168116
-0.0022094256710261106,0.17834891378879547,173.4261016845703,0.11123278379854226,-0.4912260641716419,0.11112431461612374,-0.4893848573168116
-0.008902600035071373,0.17771676182746887,173.4274444580078,0.11123278379854226,-0.4912260641716419,0.11112431461612374,-0.4893848573168116
0.0004580548848025501,0.18826130032539368,173.42857360839844,0.11123278379854226,-0.4912260641716419,0.11112431461612374,-0.4893848573168116
-0.0103140352293849,0.1922677457332611,173.42857360839844,0.11123278379854226,-0.4912260641716419,0.11112431461612374,-0.4893848573168116
-0.00561610609292984,0.18522348999977112,173.4291534423828,0.11123278379854226,-0.4912260641716419,0.11112431461612374,-0.4893848573168116
-0.0042772600427269936,0.17013171315193176,173.42967224121094,0.11123278379854226,-0.4912260641716419,0.11112431461612374,-0.4893848573168116
-0.0029913445468991995,0.1723913550376892,173.43032836914062,0.11123278379854226,-0.4912260641716419,0.11112431461612374,-0.4893848573168116
-0.002266828203573823,0.15914329886436462,173.4310302734375,0.11123278379854226,-0.4912260641716419,0.11112431461612374,-0.4893848573168116
-0.006417854689061642,0.18800130486488342,173.4309844970703,0.11123278379854226,-0.4912260641716419,0.11112431461612374,-0.4893848573168116
-0.008417831733822823,0.17061670124530792,173.43057250976562,0.11123278379854226,-0.4912260641716419,0.11112431461612374,-0.4893848573168116
-0.004334402736276388,0.17936016619205475,173.43006896972656,0.11123278379854226,-0.4912260641716419,0.11112431461612374,-0.4893848573168116
0.003873030422255397,0.17368945479393005,173.42994689941406,0.11123278379854226,-0.4912260641716419,0.11112431461612374,-0.4893848573168116
-0.008104538545012474,0.1631024032831192,173.42982482910156,0.11123278379854226,-0.4912260641716419,0.11112431461612374,-0.4893848573168116
-0.00712004816159606,0.1707744002342224,173.43109130859375,0.11123278379854226,-0.4912260641716419,0.11112431461612374,-0.4893848573168116
-0.0002826405398081988,0.16280268132686615,173.43101501464844,0.11123278379854226,-0.4912260641716419,0.11112431461612374,-0.4893848573168116
-0.006021448411047459,0.18079432845115662,173.4307098388672,0.11123278379854226,-0.4912260641716419,0.11112431461612374,-0.4893848573168116
-0.009617738425731659,0.17627136409282684,173.40907287597656,0.11123278379854226,-0.4912260641716419,0.11112431461612374,-0.4893848573168116
-0.014637957327067852,0.17115433514118195,173.4098358154297,0.11123278379854226,-0.4912260641716419,0.11112431461612374,-0.4893848573168116
-0.014662280678749084,0.1579425036907196,173.41050720214844,0.11123278379854226,-0.4912260641716419,0.11112431461612374,-0.4893848573168116
-0.012666882947087288,0.1660231649875641,173.41091918945312,0.11123278379854226,-0.4912260641716419,0.11112431461612374,-0.4893848573168116
0.00035829332773573697,0.16771917045116425,173.41055297851562,0.11123278379854226,-0.4912260641716419,0.11112431461612374,-0.4893848573168116
-0.004750425927340984,0.17256547510623932,173.4116973876953,0.11123278379854226,-0.4912260641716419,0.11112431461612374,-0.4893848573168116
0.0022551033180207014,0.1588137000799179,173.41236877441406,0.11123278379854226,-0.4912260641716419,0.11112431461612374,-0.4893848573168116
0.0004832815029658377,0.15231488645076752,173.41134643554688,0.11123278379854226,-0.4912260641716419,0.11112431461612374,-0.4893848573168116
-0.008465362712740898,0.16350676119327545,173.41073608398438,0.11123278379854226,-0.4912260641716419,0.11112431461612374,-0.4893848573168116
0.004653326701372862,0.1664893627166748,173.4107666015625,0.11123278379854226,-0.4912260641716419,0.11112431461612374,-0.4893848573168116
-0.007310047745704651,0.15336593985557556,173.41036987304688,0.11123278379854226,-0.4912260641716419,0.11112431461612374,-0.4893848573168116
0.004704134073108435,0.1688607633113861,173.4097137451172,0.11123278379854226,-0.4912260641716419,0.11112431461612374,-0.4893848573168116
0.002847102237865329,0.1704244315624237,173.40969848632812,0.11123278379854226,-0.4912260641716419,0.11112431461612374,-0.4893848573168116
-0.013153173960745335,0.14871935546398163,173.4099578857422,0.11123278379854226,-0.4912260641716419,0.11112431461612374,-0.4893848573168116
0.0004301981534808874,0.15440396964550018,173.41098022460938,0.11123278379854226,-0.4912260641716419,0.11112431461612374,-0.4893848573168116
-0.009182723239064217,0.15255756676197052,173.41184997558594,0.11123278379854226,-0.4912260641716419,0.11112431461612374,-0.4893848573168116
0.004425461404025555,0.15995322167873383,173.4120635986328,0.11123278379854226,-0.4912260641716419,0.11112431461612374,-0.4893848573168116
-0.005045869387686253,0.16271725296974182,173.4111328125,0.11123278379854226,-0.4912260641716419,0.11112431461612374,-0.4893848573168116
0.004656649194657803,0.17372384667396545,173.41116333007812,0.11123278379854226,-0.4912260641716419,0.11112431461612374,-0.4893848573168116
-0.009676038287580013,0.17022742331027985,173.41116333007812,0.11123278379854226,-0.4912260641716419,0.11112431461612374,-0.4893848573168116
-0.0002900043618865311,0.16955064237117767,173.41061401367188,0.11123278379854226,-0.4912260641716419,0.11112431461612374,-0.4893848573168116
0.0026156569365411997,0.1590196192264557,173.41033935546875,0.11123278379854226,-0.4912260641716419,0.11112431461612374,-0.4893848573168116
-0.01856422983109951,0.1693323701620102,173.4106903076172,0.11123278379854226,-0.4912260641716419,0.11112431461612374,-0.4893848573168116
0.017731012776494026,0.16102299094200134,173.410888671875,0.11123278379854226,-0.4912260641716419,0.11112431461612374,-0.4893848573168116
-0.0056747267954051495,0.16733965277671814,173.4115447998047,0.11123278379854226,-0.4912260641716419,0.11112431461612374,-0.4893848573168116
-0.004571241792291403,0.1624811440706253,173.41104125976562,0.11123278379854226,-0.4912260641716419,0.11112431461612374,-0.4893848573168116
-0.006658835802227259,0.1710188239812851,173.41107177734375,0.11123278379854226,-0.4912260641716419,0.11112431461612374,-0.4893848573168116
-0.0006831470527686179,0.17389129102230072,173.41152954101562,0.11123278379854226,-0.4912260641716419,0.11112431461612374,-0.4893848573168116
-0.005682696122676134,0.14748334884643555,173.4117889404297,0.11123278379854226,-0.4912260641716419,0.11112431461612374,-0.4893848573168116
-0.00651793647557497,0.1632741242647171,173.41151428222656,0.11123278379854226,-0.4912260641716419,0.11112431461612374,-0.4893848573168116
-0.004661128856241703,0.16590863466262817,173.41229248046875,0.11123278379854226,-0.4912260641716419,0.11112431461612374,-0.4893848573168116
0.0009809181792661548,0.1586630493402481,173.41159057617188,0.11123278379854226,-0.4912260641716419,0.11112431461612374,-0.4893848573168116
-0.008936990983784199,0.1533757597208023,173.41241455078125,0.11123278379854226,-0.4912260641716419,0.11112431461612374,-0.4893848573168116
-0.00391183840110898,0.15125614404678345,173.4129180908203,0.11123278379854226,-0.4912260641716419,0.11112431461612374,-0.4893848573168116
-0.020366448909044266,0.1578933745622635,173.4126739501953,0.11123278379854226,-0.4912260641716419,0.11112431461612374,-0.4893848573168116
-0.0018287976272404194,0.1607949137687683,173.41342163085938,0.11123278379854226,-0.4912260641716419,0.11112431461612374,-0.4893848573168116
0.010313482023775578,0.1602749526500702,173.41464233398438,0.11123278379854226,-0.4912260641716419,0.11112431461612374,-0.4893848573168116
-0.002503911731764674,0.15192241966724396,173.4139862060547,0.11123278379854226,-0.4912260641716419,0.11112431461612374,-0.4893848573168116
0.008814496919512749,0.13884618878364563,173.41323852539062,0.11123278379854226,-0.4912260641716419,0.11112431461612374,-0.4893848573168116
-0.006313415244221687,0.1543293446302414,173.4136962890625,0.11123278379854226,-0.4912260641716419,0.11112431461612374,-0.4893848573168116
-0.00535375252366066,0.16038639843463898,173.4144287109375,0.11123278379854226,-0.4912260641716419,0.11112431461612374,-0.4893848573168116
-0.0040686349384486675,0.15103480219841003,173.4143829345703,0.11123278379854226,-0.4912260641716419,0.11112431461612374,-0.4893848573168116
-0.00019051122944802046,0.15677188336849213,173.41387939453125,0.11123278379854226,-0.4912260641716419,0.11112431461612374,-0.4893848573168116
-0.010739357210695744,0.15631970763206482,173.4137420654297,0.11123278379854226,-0.4912260641716419,0.11112431461612374,-0.4893848573168116
0.006299913860857487,0.15753225982189178,173.4137420654297,0.11123278379854226,-0.4912260641716419,0.11112431461612374,-0.4893848573168116
-0.0066122193820774555,0.14603690803050995,173.41404724121094,0.11123278379854226,-0.4912260641716419,0.11112431461612374,-0.4893848573168116
-0.003264484228566289,0.1491159051656723,173.41343688964844,0.11123278379854226,-0.4912260641716419,0.11112431461612374,-0.4893848573168116
-0.0005154561949893832,0.15768545866012573,173.41429138183594,0.11123278379854226,-0.4912260641716419,0.11112431461612374,-0.4893848573168116
0.003831507870927453,0.15318220853805542,173.4144287109375,0.11123278379854226,-0.4912260641716419,0.11112431461612374,-0.4893848573168116
-0.007489935960620642,0.1486574411392212,173.41505432128906,0.11123278379854226,-0.4912260641716419,0.11112431461612374,-0.4893848573168116
-0.0168337132781744,0.1613081395626068,173.41522216796875,0.11123278379854226,-0.4912260641716419,0.11112431461612374,-0.4893848573168116
0.006262132432311773,0.15884943306446075,173.41580200195312,0.11123278379854226,-0.4912260641716419,0.11112431461612374,-0.4893848573168116
-0.008263735100626945,0.1435467004776001,173.41648864746094,0.11123278379854226,-0.4912260641716419,0.11112431461612374,-0.4893848573168116
-0.003893523709848523,0.15119093656539917,173.4160614013672,0.11123278379854226,-0.4912260641716419,0.11112431461612374,-0.4893848573168116
-0.007282220758497715,0.13852214813232422,173.41622924804688,0.11123278379854226,-0.4912260641716419,0.11112431461612374,-0.4893848573168116
-0.014815589413046837,0.1466921716928482,173.41546630859375,0.11123278379854226,-0.4912260641716419,0.11112431461612374,-0.4893848573168116
-0.0007767892675474286,0.14615492522716522,173.41610717773438,0.11123278379854226,-0.4912260641716419,0.11112431461612374,-0.4893848573168116
0.0029105343855917454,0.15212509036064148,173.4159393310547,0.11123278379854226,-0.4912260641716419,0.11112431461612374,-0.4893848573168116
-0.014851993881165981,0.14223521947860718,173.41500854492188,0.11123278379854226,-0.4912260641716419,0.11112431461612374,-0.4893848573168116
-0.01039481908082962,0.14948426187038422,173.415771484375,0.11123278379854226,-0.4912260641716419,0.11112431461612374,-0.4893848573168116
0.00011627432104432955,0.15812179446220398,173.41531372070312,0.11123278379854226,-0.4912260641716419,0.11112431461612374,-0.4893848573168116
-0.000641650753095746,0.14781659841537476,173.4144744873047,0.11123278379854226,-0.4912260641716419,0.11112431461612374,-0.4893848573168116
-0.0007542276871390641,0.14888699352741241,173.41412353515625,0.11123278379854226,-0.4912260641716419,0.11112431461612374,-0.4893848573168116
0.0014361663488671184,0.14268192648887634,173.4139862060547,0.11123278379854226,-0.4912260641716419,0.11112431461612374,-0.4893848573168116
-0.009112942032516003,0.14935460686683655,173.41452026367188,0.11123278379854226,-0.4912260641716419,0.11112431461612374,-0.4893848573168116
-0.0044420999474823475,0.15386313199996948,173.41392517089844,0.11123278379854226,-0.4912260641716419,0.11112431461612374,-0.4893848573168116
-0.0040853023529052734,0.14590467512607574,173.4140625,0.11123278379854226,-0.4912260641716419,0.11112431461612374,-0.4893848573168116
0.0036950192879885435,0.14055503904819489,173.4138946533203,0.11123278379854226,-0.4912260641716419,0.11112431461612374,-0.4893848573168116
0.012201768346130848,0.14291104674339294,173.4158477783203,0.11123278379854226,-0.4912260641716419,0.11112431461612374,-0.4893848573168116
-0.001454701996408403,0.1433805525302887,173.41429138183594,0.11123278379854226,-0.4912260641716419,0.11112431461612374,-0.4893848573168116
-0.002553093247115612,0.13949161767959595,173.41506958007812,0.11123278379854226,-0.4912260641716419,0.11112431461612374,-0.4893848573168116
-0.006016942206770182,0.13860675692558289,173.41506958007812,0.11123278379854226,-0.4912260641716419,0.11112431461612374,-0.4893848573168116
-0.0005047394661232829,0.1500253975391388,173.41493225097656,0.11123278379854226,-0.4912260641716419,0.11112431461612374,-0.4893848573168116
-0.004430606961250305,0.14611099660396576,173.41439819335938,0.11123278379854226,-0.4912260641716419,0.11112431461612374,-0.4893848573168116
-0.008647228591144085,0.1480051726102829,173.41400146484375,0.11123278379854226,-0.4912260641716419,0.11112431461612374,-0.4893848573168116
7.727425690973178e-05,0.152297705411911,173.41444396972656,0.11123278379854226,-0.4912260641716419,0.11112431461612374,-0.4893848573168116
0.007482989225536585,0.14087703824043274,173.41513061523438,0.11123278379854226,-0.4912260641716419,0.11112431461612374,-0.4893848573168116
0.004907934460788965,0.1441146433353424,173.41578674316406,0.11123278379854226,-0.4912260641716419,0.11112431461612374,-0.4893848573168116
-0.008013143204152584,0.14535203576087952,173.41656494140625,0.11123278379854226,-0.4912260641716419,0.11112431461612374,-0.4893848573168116
-0.014268249273300171,0.14343778789043427,173.4157257080078,0.11123278379854226,-0.4912260641716419,0.11112431461612374,-0.4893848573168116
0.0017078882083296776,0.15044118463993073,173.41552734375,0.11123278379854226,-0.4912260641716419,0.11112431461612374,-0.4893848573168116
0.003496702993288636,0.13112767040729523,173.4156494140625,0.11123278379854226,-0.4912260641716419,0.11112431461612374,-0.4893848573168116
-0.0057230559177696705,0.14544257521629333,173.41555786132812,0.11123278379854226,-0.4912260641716419,0.11112431461612374,-0.4893848573168116
0.005229725036770105,0.13858650624752045,173.41525268554688,0.11123278379854226,-0.4912260641716419,0.11112431461612374,-0.4893848573168116
-0.0031457107979804277,0.13214758038520813,173.41664123535156,0.11123278379854226,-0.4912260641716419,0.11112431461612374,-0.4893848573168116
-0.012236746028065681,0.1354016214609146,173.41648864746094,0.11123278379854226,-0.4912260641716419,0.11112431461612374,-0.4893848573168116
-0.008628598414361477,0.1489313393831253,173.4178924560547,0.11123278379854226,-0.4912260641716419,0.11112431461612374,-0.4893848573168116
-0.009925981983542442,0.13464388251304626,173.41830444335938,0.11123278379854226,-0.4912260641716419,0.11112431461612374,-0.4893848573168116
0.013241731561720371,0.13821229338645935,173.4191131591797,0.11123278379854226,-0.4912260641716419,0.11112431461612374,-0.4893848573168116
0.00020140773267485201,0.14580023288726807,173.41957092285156,0.11123278379854226,-0.4912260641716419,0.11112431461612374,-0.4893848573168116
-0.0020367675460875034,0.1375458538532257,173.41876220703125,0.11123278379854226,-0.4912260641716419,0.11112431461612374,-0.4893848573168116
-0.009354454465210438,0.13607889413833618,173.41848754882812,0.11123278379854226,-0.4912260641716419,0.11112431461612374,-0.4893848573168116
-0.000861052016261965,0.1335260570049286,173.4177703857422,0.11123278379854226,-0.4912260641716419,0.11112431461612374,-0.4893848573168116
0,0.13315436244010925,173.41769409179688,0.11308479591353209,-0.49936395898668284,0.11111713918265488,-0.48716252048810293
-0.0709981620311737,0.11447077989578247,173.41671752929688,0.11493181780532417,-0.5074661381377112,0.1105254878323951,-0.48509897763530385
-0.7150519490242004,0.434953510761261,173.43736267089844,0.1167193224559297,-0.5155129666336706,0.10397507024026699,-0.4805204418798285
-1.563525676727295,0.5568601489067078,173.38265991210938,0.11829400573592362,-0.5234527647164131,0.08498692335900453,-0.4722553280492621
-2.687851905822754,-0.3861318826675415,173.31678771972656,0.11941521990422994,-0.5313118307209675,0.04955877683775412,-0.47083259249726905
-2.816943407058716,1.097779631614685,173.26742553710938,0.11985892206590908,-0.5391096206133562,0.0036854825637418764,-0.4649021945893762
-1.5192971229553223,-0.7127186059951782,173.26272583007812,0.11961921896072046,-0.5468312501741778,-0.03244985518637511,-0.46169335270921363
-1.080287218093872,0.6342555284500122,173.27587890625,0.1188978613505969,-0.5545315882108275,-0.05411305802845173,-0.4623472116887567
-1.3902945518493652,0.26352229714393616,173.3555450439453,0.11782440887165443,-0.5621750293899739,-0.07470123944464538,-0.45486572980880713
-1.6531769037246704,-0.31442683935165405,173.42111206054688,0.11636803602982881,-0.5697596599244407,-0.100063501574429,-0.45528993432720477
-1.0301048755645752,0.8244433999061584,173.46014404296875,0.11451397199113769,-0.5773124076798556,-0.12242418306850605,-0.4510397963225839
-1.1437383890151978,0.7320656776428223,173.54415893554688,0.11232260760217788,-0.5847216467104022,-0.1405395436066708,-0.4380688873430091
-1.3589247465133667,-0.06580553948879242,173.61769104003906,0.10980648582432166,-0.591976526767636,-0.1613950697360755,-0.4325167195250588
-1.4838005304336548,-0.48264840245246887,173.69720458984375,0.1069191565178213,-0.5992232258390218,-0.18508444704396734,-0.437087169041236
0.30794423818588257,1.3466391563415527,173.73915100097656,0.10375275904679353,-0.6064480126318,-0.19488324947936544,-0.42988724609216034
-1.5506365299224854,0.1308712214231491,173.6434783935547,0.10041840681298907,-0.6135101951793246,-0.20523901857717047,-0.4175746596107878
-0.7019134759902954,0.21601885557174683,173.56370544433594,0.09684132941962562,-0.6204456832508242,-0.22401026862644363,-0.4146839089691637
-0.3829540014266968,1.0755397081375122,173.48880004882812,0.09303248692325315,-0.6272673901667193,-0.2330508309382519,-0.4039209209382532
-0.5157446265220642,-1.4907655715942383,173.40933227539062,0.08908589678067473,-0.6340282406450969,-0.24053998617115824,-0.40738113646705926
-0.22327359020709991,0.9909011125564575,173.31712341308594,0.08502557630166034,-0.6408526390625366,-0.24669847131056793,-0.4115466736257074
-1.0970227718353271,1.1956138610839844,173.3260040283203,0.08082224786578682,-0.6475599089720179,-0.25770094099425483,-0.39332571551203704
-1.5190556049346924,-0.817325234413147,173.3485870361328,0.07634556007305132,-0.6540890675203663,-0.279501594134005,-0.3901733102897801
-0.38753175735473633,-0.5271462798118591,173.37278747558594,0.07155479827065891,-0.6606853221025727,-0.29538982215308357,-0.40137723957498844
-0.32925957441329956,0.6711158752441406,173.39080810546875,0.06658185739229029,-0.6673649448735841,-0.3013630832511505,-0.4001774929463861
-0.38802996277809143,0.8365249037742615,173.3684539794922,0.06150932756468838,-0.6739298724797032,-0.30734049606107877,-0.38761381978789944
-0.8359122276306152,-0.11879033595323563,173.30662536621094,0.05630198997822535,-0.6803402601311805,-0.31754001431448464,-0.3816326983893909
-0.366336464881897,0,173.266357421875,0.050926166913781684,-0.6867090544332227,-0.32755875341875557,-0.38262261785566787
0.08861919492483139,0,173.22897338867188,0.04544756843527763,-0.6930860980641506,-0.3298730640017311,-0.38262261785566787
0.253711998462677,0.39433252811431885,173.21119689941406,0.03997345703478958,-0.699435757491737,-0.3270203040568352,-0.3793365134547152
-0.6340863704681396,0.6595442295074463,173.20838928222656,0.0344967037468975,-0.7056848468300363,-0.330190090490214,-0.37055420714120046
-0.47044190764427185,-1.1042664051055908,173.22816467285156,0.028916832219413904,-0.7118916337668062,-0.33939449280781747,-0.374260225271185
-0.7826234102249146,-0.2512297034263611,173.26080322265625,0.023173238914431585,-0.7182234358621962,-0.3498367037900607,-0.38555602617561796
-0.6043221950531006,-0.1559246927499771,173.26010131835938,0.017246311517564044,-0.7246776442426354,-0.36139458383404416,-0.38894897947708745
0.11910539120435715,0.9212086796760559,173.28843688964844,0.011189372842284924,-0.7311069825126059,-0.36543805719945033,-0.38257161291937014
-0.22794827818870544,0.7944076061248779,173.2806854248047,0.0050911800218090605,-0.7373640360414148,-0.36634508125765325,-0.3682748105376957
0.47426387667655945,0.5299543738365173,173.2820587158203,-0.0009974660825901706,-0.7434099799684346,-0.36429245127025445,-0.35723846070468407
-1.1022605895996094,0.7671274542808533,173.2909698486328,-0.00711261781993629,-0.7492738791865601,-0.36952575721127984,-0.34642944547037263
-0.7470940947532654,-1.4595592021942139,173.31935119628906,-0.013399807848759902,-0.7550957888157825,-0.3849370462475538,-0.3521997100363173
-0.17522895336151123,-0.49609872698783875,173.330322265625,-0.01987947549789377,-0.7611015935614699,-0.3926230716485103,-0.3684968594461677
0.6836488246917725,0.4412972927093506,173.3157196044922,-0.026387886423193226,-0.7672470135407309,-0.3883862393874248,-0.36895353806515513
0.34050437808036804,0.9537433981895447,173.28948974609375,-0.03278986866279113,-0.7732993613493933,-0.3798516293643236,-0.357328198974331
-1.1204530000686646,0.17842622101306915,173.327880859375,-0.03917489225094571,-0.7791762084420764,-0.38635120121422606,-0.34789345214764256
0.16599926352500916,0.418825626373291,173.34930419921875,-0.045680360447331675,-0.7849329568218019,-0.39430498235208983,-0.3429163534194229
0,0.7232539057731628,173.3006134033203,-0.05224058242656616,-0.790568918300171,-0.3929216551560481,-0.3333990239848691
0.3419470489025116,-0.241389662027359,173.176513671875,-0.058765530356326506,-0.7960921059052142,-0.39007209641519386,-0.32938348862032074
0.1511029303073883,-0.22537153959274292,173.11056518554688,-0.06523249238135682,-0.8016142446878876,-0.38596334658844467,-0.3332731653004883
0.743771493434906,0.7560287714004517,173.07725524902344,-0.07160307076729325,-0.8071319462462424,-0.37850605972392554,-0.3288510217020907
-1.0941085815429688,-0.24477054178714752,173.13380432128906,-0.07793583406047729,-0.8125772925642207,-0.3814255354581594,-0.32459053645531316
-0.2252475917339325,-0.7846227288246155,173.13906860351562,-0.08438454827459084,-0.8180586204822684,-0.3924201702354669,-0.3331688137104112
-0.20478862524032593,1.1616785526275635,173.0887908935547,-0.09095474807136072,-0.8235852496119,-0.39600380537691904,-0.33002668184538664
-0.24108707904815674,0,172.95559692382812,-0.09758577508488496,-0.829005022187613,-0.3997194362459897,-0.3203460272401569
-0.19086335599422455,-0.3536561131477356,172.92355346679688,-0.10427776224697384,-0.8343686820939175,-0.4033190232046762,-0.32329316151638804
0.08185634762048721,-0.17968469858169556,172.92173767089844,-0.11100731589818884,-0.839793939008894,-0.404227414941124,-0.3277376682808
0.18994185328483582,0.3306594789028168,172.93548583984375,-0.11772556460547803,-0.8452457491204961,-0.40196242993357967,-0.3264795451114573
0.41332292556762695,0,172.94847106933594,-0.12438304505028405,-0.850664112408541,-0.39693522344314247,-0.32372404945393385
-0.6442141532897949,-0.6475164294242859,173.06906127929688,-0.131014666220706,-0.8561044796514833,-0.3988593170074939,-0.32912001969913623
-0.5035495162010193,0.7765331864356995,173.06968688964844,-0.13774202731454555,-0.8615808538161209,-0.40842401425325064,-0.3280448800573745
0.4932607412338257,1.2043944597244263,173.1371612548828,-0.144549808717028,-0.8669107040638716,-0.4085097540446439,-0.31153714967270674
-0.7513875961303711,0.5195983052253723,173.203857421875,-0.15137623009380655,-0.8719832681719619,-0.4106608111687818,-0.2971705432981251
0.6615034937858582,0.7143512964248657,173.2625732421875,-0.15822681889817128,-0.876850419615705,-0.41140984535498604,-0.2868876299510398
-0.7650838494300842,-0.9262329339981079,173.308837890625,-0.16509084273434077,-0.8816465941174982,-0.41227301498535457,-0.28865331026415014
-0.9534626007080078,-1.9808335304260254,173.3463592529297,-0.17208140315424517,-0.8866593622374858,-0.426594235403172,-0.31287886413435123
1.2468860149383545,0.4604424238204956,173.31936645507812,-0.17917093045164315,-0.8919795926887948,-0.4241490402845858,-0.3255487900227306
0.534516453742981,0.4914475381374359,173.291015625,-0.18611637261828337,-0.8973393023862599,-0.40930401971224134,-0.3176163736730812
-0.8662351369857788,1.5002957582473755,173.2779998779297,-0.18611637261828337,-0.8973393023862599,-0.40930401971224134,-0.3176163736730812
0.2751094698905945,-0.13741809129714966,173.2971649169922,-0.18611637261828337,-0.8973393023862599,-0.40930401971224134,-0.3176163736730812
0.10765388607978821,-0.019446497783064842,173.26817321777344,-0.18611637261828337,-0.8973393023862599,-0.40930401971224134,-0.3176163736730812
0.09345834702253342,0.8584379553794861,173.2270050048828,-0.18611637261828337,-0.8973393023862599,-0.40930401971224134,-0.3176163736730812
0.6739646196365356,-0.5847066044807434,173.21612548828125,-0.18611637261828337,-0.8973393023862599,-0.40930401971224134,-0.3176163736730812
0.7018296122550964,0.7876463532447815,173.2154083251953,-0.18611637261828337,-0.8973393023862599,-0.40930401971224134,-0.3176163736730812
-1.319156289100647,-0.6113868951797485,173.2676544189453,-0.18611637261828337,-0.8973393023862599,-0.40930401971224134,-0.3176163736730812
0.8197418451309204,-0.7227487564086914,173.2671356201172,-0.18611637261828337,-0.8973393023862599,-0.40930401971224134,-0.3176163736730812
2.6221630573272705,0.9854005575180054,172.8687744140625,-0.18611637261828337,-0.8973393023862599,-0.40930401971224134,-0.3176163736730812
1.101135492324829,0.7958935499191284,172.27548217773438,-0.18611637261828337,-0.8973393023862599,-0.40930401971224134,-0.3176163736730812
2.287842035293579,-0.891052782535553,171.55606079101562,-0.18611637261828337,-0.8973393023862599,-0.40930401971224134,-0.3176163736730812
1.7034084796905518,1.1312671899795532,170.5543975830078,-0.18611637261828337,-0.8973393023862599,-0.40930401971224134,-0.3176163736730812
1.7461384534835815,-0.4834376871585846,169.33119201660156,-0.18611637261828337,-0.8973393023862599,-0.40930401971224134,-0.3176163736730812
1.8853552341461182,0.26412713527679443,167.83033752441406,-0.18611637261828337,-0.8973393023862599,-0.40930401971224134,-0.3176163736730812
1.5334293842315674,0.23853512108325958,166.15147399902344,-0.18611637261828337,-0.8973393023862599,-0.40930401971224134,-0.3176163736730812
2.080288887023926,-0.4405193626880646,164.34840393066406,-0.18611637261828337,-0.8973393023862599,-0.40930401971224134,-0.3176163736730812
0.9035794138908386,-0.039294127374887466,162.37937927246094,-0.18611637261828337,-0.8973393023862599,-0.40930401971224134,-0.3176163736730812
1.2939950227737427,0.1660473644733429,160.31809997558594,-0.18611637261828337,-0.8973393023862599,-0.40930401971224134,-0.3176163736730812
1.104297161102295,-0.540428102016449,158.14991760253906,-0.18611637261828337,-0.8973393023862599,-0.40930401971224134,-0.3176163736730812
0.6425731182098389,1.614596962928772,155.9055633544922,-0.18611637261828337,-0.8973393023862599,-0.40930401971224134,-0.3176163736730812
1.8993033170700073,-1.309348225593567,153.54446411132812,-0.18611637261828337,-0.8973393023862599,-0.40930401971224134,-0.3176163736730812
1.1773109436035156,1.1332851648330688,151.14308166503906,-0.18611637261828337,-0.8973393023862599,-0.40930401971224134,-0.3176163736730812
0.9312976598739624,-0.6255953907966614,148.67384338378906,-0.18611637261828337,-0.8973393023862599,-0.40930401971224134,-0.3176163736730812
0.8370018005371094,0.3646145164966583,146.17388916015625,-0.18611637261828337,-0.8973393023862599,-0.40930401971224134,-0.3176163736730812
1.312445044517517,-0.18078242242336273,143.62217712402344,-0.18611637261828337,-0.8973393023862599,-0.40930401971224134,-0.3176163736730812
1.8097457885742188,1.1232050657272339,141.0612335205078,-0.18611637261828337,-0.8973393023862599,-0.40930401971224134,-0.3176163736730812
0.9767590165138245,0.264821857213974,138.51678466796875,-0.18611637261828337,-0.8973393023862599,-0.40930401971224134,-0.3176163736730812
0.6350691318511963,0.8295379877090454,135.9608612060547,-0.18611637261828337,-0.8973393023862599,-0.40930401971224134,-0.3176163736730812
1.433069109916687,-1.0065563917160034,133.4091796875,-0.18611637261828337,-0.8973393023862599,-0.40930401971224134,-0.3176163736730812
1.9851430654525757,5.046637535095215,131.239501953125,-0.18611637261828337,-0.8973393023862599,-0.40930401971224134,-0.3176163736730812
1.526095986366272,0.0471716932952404,129.21160888671875,-0.18611637261828337,-0.8973393023862599,-0.40930401971224134,-0.3176163736730812
-0.3925803005695343,-1.75380277633667,127.20494079589844,-0.18611637261828337,-0.8973393023862599,-0.40930401971224134,-0.3176163736730812
0.8277154564857483,1.6623258590698242,125.11470794677734,-0.18611637261828337,-0.8973393023862599,-0.40930401971224134,-0.3176163736730812
0.7149072289466858,-3.4626359939575195,122.9758071899414,-0.18611637261828337,-0.8973393023862599,-0.40930401971224134,-0.3176163736730812
0.20659595727920532,2.365910530090332,120.75357818603516,-0.18611637261828337,-0.8973393023862599,-0.40930401971224134,-0.3176163736730812
-0.040736403316259384,-1.1707723140716553,118.39192199707031,-0.18611637261828337,-0.8973393023862599,-0.40930401971224134,-0.3176163736730812
0.6139448881149292,-1.1299394369125366,115.91407775878906,-0.18611637261828337,-0.8973393023862599,-0.40930401971224134,-0.3176163736730812
1.014248013496399,0.5208341479301453,113.31453704833984,-0.18611637261828337,-0.8973393023862599,-0.40930401971224134,-0.3176163736730812
-1.4782847166061401,-3.35309100151062,110.63036346435547,-0.18611637261828337,-0.8973393023862599,-0.40930401971224134,-0.3176163736730812
2.8916494846343994,1.6185810565948486,107.9412612915039,-0.18611637261828337,-0.8973393023862599,-0.40930401971224134,-0.3176163736730812
-2.1235415935516357,-0.6571225523948669,105.33881378173828,-0.18611637261828337,-0.8973393023862599,-0.40930401971224134,-0.3176163736730812
0.548907458782196,-0.19271159172058105,102.66853332519531,-0.18611637261828337,-0.8973393023862599,-0.40930401971224134,-0.3176163736730812
1.020020842552185,0.408892422914505,100.06509399414062,-0.18611637261828337,-0.8973393023862599,-0.40930401971224134,-0.3176163736730812
-0.5577393770217896,-0.8953065276145935,97.37533569335938,-0.18611637261828337,-0.8973393023862599,-0.40930401971224134,-0.3176163736730812
1.2416266202926636,-0.40200522541999817,94.77393341064453,-0.18611637261828337,-0.8973393023862599,-0.40930401971224134,-0.3176163736730812
0.21956218779087067,-0.973516583442688,92.25965881347656,-0.18611637261828337,-0.8973393023862599,-0.40930401971224134,-0.3176163736730812
0.3633004426956177,0.9127232432365417,90.0451889038086,-0.18611637261828337,-0.8973393023862599,-0.40930401971224134,-0.3176163736730812
-0.5074366927146912,-1.01654052734375,88.16082000732422,-0.18611637261828337,-0.8973393023862599,-0.40930401971224134,-0.3176163736730812
0.5084781646728516,0.20975075662136078,86.67890930175781,-0.18611637261828337,-0.8973393023862599,-0.40930401971224134,-0.3176163736730812
-0.7817021608352661,0.26354265213012695,85.62535095214844,-0.18611637261828337,-0.8973393023862599,-0.40930401971224134,-0.3176163736730812
-0.7771731615066528,0.35049399733543396,84.92737579345703,-0.18611637261828337,-0.8973393023862599,-0.40930401971224134,-0.3176163736730812
-1.497485637664795,0.3054813742637634,84.50271606445312,-0.18611637261828337,-0.8973393023862599,-0.40930401971224134,-0.3176163736730812
-0.6339003443717957,0.47530466318130493,84.42488861083984,-0.18611637261828337,-0.8973393023862599,-0.40930401971224134,-0.3176163736730812
0.23610903322696686,0.1417340338230133,84.54673767089844,-0.18611637261828337,-0.8973393023862599,-0.40930401971224134,-0.3176163736730812
0.22287379205226898,0.14774703979492188,84.51614379882812,-0.18611637261828337,-0.8973393023862599,-0.40930401971224134,-0.3176163736730812
0.1870652139186859,0.1610996574163437,84.50753784179688,-0.18611637261828337,-0.8973393023862599,-0.40930401971224134,-0.3176163736730812
0.2545505166053772,0.08619997650384903,84.52952575683594,-0.18611637261828337,-0.8973393023862599,-0.40930401971224134,-0.3176163736730812
-0.064885713160038,0.03775620087981224,84.51921081542969,-0.18611637261828337,-0.8973393023862599,-0.40930401971224134,-0.3176163736730812
0.4257190525531769,0.014004199765622616,84.5152587890625,-0.18611637261828337,-0.8973393023862599,-0.40930401971224134,-0.3176163736730812
0.006280975881963968,0.04302172735333443,84.52764129638672,-0.18611637261828337,-0.8973393023862599,-0.40930401971224134,-0.3176163736730812
0.21283313632011414,0.11855106055736542,84.51608276367188,-0.18611637261828337,-0.8973393023862599,-0.40930401971224134,-0.3176163736730812
0.18154829740524292,0.11639726907014847,84.52357482910156,-0.18611637261828337,-0.8973393023862599,-0.40930401971224134,-0.3176163736730812
0.14374950528144836,0.06863096356391907,84.52129364013672,-0.18611637261828337,-0.8973393023862599,-0.40930401971224134,-0.3176163736730812
0.20161350071430206,0.04849407449364662,84.51896667480469,-0.18611637261828337,-0.8973393023862599,-0.40930401971224134,-0.3176163736730812
0.1580517590045929,0.0753893256187439,84.52201080322266,-0.18611637261828337,-0.8973393023862599,-0.40930401971224134,-0.3176163736730812
0.141793355345726,0.11104299873113632,84.5186538696289,-0.18611637261828337,-0.8973393023862599,-0.40930401971224134,-0.3176163736730812
0.20832549035549164,0.10575658828020096,84.5193862915039,-0.18611637261828337,-0.8973393023862599,-0.40930401971224134,-0.3176163736730812
0.1292555332183838,0.06604137271642685,84.52050018310547,-0.18611637261828337,-0.8973393023862599,-0.40930401971224134,-0.3176163736730812
0.18096919357776642,0.07350583374500275,84.51787567138672,-0.18611637261828337,-0.8973393023862599,-0.40930401971224134,-0.3176163736730812
0.15407392382621765,0.09020400047302246,84.52007293701172,-0.18611637261828337,-0.8973393023862599,-0.40930401971224134,-0.3176163736730812
0.16774311661720276,0.08205546438694,84.51741027832031,-0.18611637261828337,-0.8973393023862599,-0.40930401971224134,-0.3176163736730812
0.19083771109580994,0.07534730434417725,84.51836395263672,-0.18611637261828337,-0.8973393023862599,-0.40930401971224134,-0.3176163736730812
0.16715119779109955,0.07670916616916656,84.51980590820312,-0.18611637261828337,-0.8973393023862599,-0.40930401971224134,-0.3176163736730812
0.18036311864852905,0.09561262279748917,84.52066040039062,-0.18611637261828337,-0.8973393023862599,-0.40930401971224134,-0.3176163736730812
0.16936953365802765,0.0961202085018158,84.52064514160156,-0.18611637261828337,-0.8973393023862599,-0.40930401971224134,-0.3176163736730812
0.1618204265832901,0.06932887434959412,84.52085876464844,-0.18611637261828337,-0.8973393023862599,-0.40930401971224134,-0.3176163736730812
0.17398422956466675,0.0688018798828125,84.52070617675781,-0.18611637261828337,-0.8973393023862599,-0.40930401971224134,-0.3176163736730812
0.1643507182598114,0.07308895885944366,84.52095794677734,-0.18611637261828337,-0.8973393023862599,-0.40930401971224134,-0.3176163736730812
0.1833326816558838,0.06854905933141708,84.5208511352539,-0.18611637261828337,-0.8973393023862599,-0.40930401971224134,-0.3176163736730812
0.16789063811302185,0.08766746520996094,84.52186584472656,-0.18611637261828337,-0.8973393023862599,-0.40930401971224134,-0.3176163736730812
0.17655223608016968,0.06934063136577606,84.52110290527344,-0.18611637261828337,-0.8973393023862599,-0.40930401971224134,-0.3176163736730812
0.16557390987873077,0.06831182539463043,84.52167510986328,-0.18611637261828337,-0.8973393023862599,-0.40930401971224134,-0.3176163736730812
0.1710657775402069,0.06351009756326675,84.52184295654297,-0.18611637261828337,-0.8973393023862599,-0.40930401971224134,-0.3176163736730812
0.1803131252527237,0.07270260900259018,84.5217514038086,-0.18611637261828337,-0.8973393023862599,-0.40930401971224134,-0.3176163736730812
0.16880203783512115,0.09289943426847458,84.52163696289062,-0.18611637261828337,-0.8973393023862599,-0.40930401971224134,-0.3176163736730812
0.1791369467973709,0.07297202199697495,84.52262115478516,-0.18611637261828337,-0.8973393023862599,-0.40930401971224134,-0.3176163736730812
0.1667676866054535,0.0561332106590271,84.52091979980469,-0.18611637261828337,-0.8973393023862599,-0.40930401971224134,-0.3176163736730812
0.17242570221424103,0.07784690707921982,84.52122497558594,-0.18611637261828337,-0.8973393023862599,-0.40930401971224134,-0.3176163736730812
0.16964475810527802,0.06167079508304596,84.52188873291016,-0.18611637261828337,-0.8973393023862599,-0.40930401971224134,-0.3176163736730812
0.1690143644809723,0.06282568722963333,84.52113342285156,-0.18611637261828337,-0.8973393023862599,-0.40930401971224134,-0.3176163736730812
0.15791384875774384,0.07096000760793686,84.52210998535156,-0.18611637261828337,-0.8973393023862599,-0.40930401971224134,-0.3176163736730812
0.17097926139831543,0.07149619609117508,84.5222396850586,-0.18611637261828337,-0.8973393023862599,-0.40930401971224134,-0.3176163736730812
0.16605950891971588,0.06929606199264526,84.5221939086914,-0.18611637261828337,-0.8973393023862599,-0.40930401971224134,-0.3176163736730812
0.16268794238567352,0.06469134241342545,84.52164459228516,-0.18611637261828337,-0.8973393023862599,-0.40930401971224134,-0.3176163736730812
0.16534951329231262,0.06805913895368576,84.5228042602539,-0.18611637261828337,-0.8973393023862599,-0.40930401971224134,-0.3176163736730812
0.15836283564567566,0.07422209531068802,84.52299499511719,-0.18611637261828337,-0.8973393023862599,-0.40930401971224134,-0.3176163736730812
0.1765255331993103,0.057149071246385574,84.5226821899414,-0.18611637261828337,-0.8973393023862599,-0.40930401971224134,-0.3176163736730812
0.15402895212173462,0.06501594185829163,84.52223205566406,-0.18611637261828337,-0.8973393023862599,-0.40930401971224134,-0.3176163736730812
0.17032378911972046,0.07720869779586792,84.52201080322266,-0.18611637261828337,-0.8973393023862599,-0.40930401971224134,-0.3176163736730812
0.1681419312953949,0.08699251711368561,84.52251434326172,-0.18611637261828337,-0.8973393023862599,-0.40930401971224134,-0.3176163736730812
0.16830012202262878,0.08093228936195374,84.52222442626953,-0.18611637261828337,-0.8973393023862599,-0.40930401971224134,-0.3176163736730812
0.16297510266304016,0.055461715906858444,84.5230712890625,-0.18611637261828337,-0.8973393023862599,-0.40930401971224134,-0.3176163736730812
0.1749381721019745,0.0706305131316185,84.52236938476562,-0.18611637261828337,-0.8973393023862599,-0.40930401971224134,-0.3176163736730812
0.1670047491788864,0.07545430213212967,84.52265167236328,-0.18611637261828337,-0.8973393023862599,-0.40930401971224134,-0.3176163736730812
0.16688108444213867,0.0651220828294754,84.52310180664062,-0.18611637261828337,-0.8973393023862599,-0.40930401971224134,-0.3176163736730812
0.16005729138851166,0.071254201233387,84.52360534667969,-0.18611637261828337,-0.8973393023862599,-0.40930401971224134,-0.3176163736730812
0.1631615161895752,0.07952268421649933,84.52330780029297,-0.18611637261828337,-0.8973393023862599,-0.40930401971224134,-0.3176163736730812
0.15200486779212952,0.07688960433006287,84.52272033691406,-0.18611637261828337,-0.8973393023862599,-0.40930401971224134,-0.3176163736730812
0.16997851431369781,0.06339969485998154,84.52262878417969,-0.18611637261828337,-0.8973393023862599,-0.40930401971224134,-0.3176163736730812
0.1781471073627472,0.051864802837371826,84.5217514038086,-0.18611637261828337,-0.8973393023862599,-0.40930401971224134,-0.3176163736730812
0.1676461547613144,0.07602127641439438,84.52153778076172,-0.18611637261828337,-0.8973393023862599,-0.40930401971224134,-0.3176163736730812
0.16302189230918884,0.07178142666816711,84.5207290649414,-0.18611637261828337,-0.8973393023862599,-0.40930401971224134,-0.3176163736730812
0.18248672783374786,0.05816321447491646,84.5217056274414,-0.18611637261828337,-0.8973393023862599,-0.40930401971224134,-0.3176163736730812
0.175449937582016,0.07128994911909103,84.52226257324219,-0.18611637261828337,-0.8973393023862599,-0.40930401971224134,-0.3176163736730812
0.17067302763462067,0.058339864015579224,84.52271270751953,-0.18611637261828337,-0.8973393023862599,-0.40930401971224134,-0.3176163736730812
0.16302037239074707,0.06687440723180771,84.52312469482422,-0.18611637261828337,-0.8973393023862599,-0.40930401971224134,-0.3176163736730812
0.1704702079296112,0.0534968376159668,84.52239990234375,-0.18611637261828337,-0.8973393023862599,-0.40930401971224134,-0.3176163736730812
0.16470657289028168,0.06432690471410751,84.52306365966797,-0.18611637261828337,-0.8973393023862599,-0.40930401971224134,-0.3176163736730812
0.1601267009973526,0.0685061514377594,84.52296447753906,-0.18611637261828337,-0.8973393023862599,-0.40930401971224134,-0.3176163736730812
0.16908325254917145,0.06450273841619492,84.52500915527344,-0.18611637261828337,-0.8973393023862599,-0.40930401971224134,-0.3176163736730812
0.17071355879306793,0.08125104755163193,84.5260238647461,-0.18611637261828337,-0.8973393023862599,-0.40930401971224134,-0.3176163736730812
0.17065240442752838,0.07190577685832977,84.52635192871094,-0.18611637261828337,-0.8973393023862599,-0.40930401971224134,-0.3176163736730812
0.16655296087265015,0.0639607161283493,84.52603149414062,-0.18611637261828337,-0.8973393023862599,-0.40930401971224134,-0.3176163736730812
0.1699029505252838,0.06798036396503448,84.5263671875,-0.18611637261828337,-0.8973393023862599,-0.40930401971224134,-0.3176163736730812
0.16199961304664612,0.06437588483095169,84.52584075927734,-0.18611637261828337,-0.8973393023862599,-0.40930401971224134,-0.3176163736730812
0.16808713972568512,0.06502865254878998,84.52544403076172,-0.18611637261828337,-0.8973393023862599,-0.40930401971224134,-0.3176163736730812
0.17299972474575043,0.06768191605806351,84.52547454833984,-0.18611637261828337,-0.8973393023862599,-0.40930401971224134,-0.3176163736730812
0.1568623185157776,0.06085243076086044,84.52556610107422,-0.18611637261828337,-0.8973393023862599,-0.40930401971224134,-0.3176163736730812
0.16394513845443726,0.0702126994729042,84.5258560180664,-0.18611637261828337,-0.8973393023862599,-0.40930401971224134,-0.3176163736730812
0.16581961512565613,0.06861299276351929,84.52632141113281,-0.18611637261828337,-0.8973393023862599,-0.40930401971224134,-0.3176163736730812
0.15912999212741852,0.062335263937711716,84.52644348144531,-0.18611637261828337,-0.8973393023862599,-0.40930401971224134,-0.3176163736730812
0.15623481571674347,0.06550008058547974,84.52586364746094,-0.18611637261828337,-0.8973393023862599,-0.40930401971224134,-0.3176163736730812
0.14826683700084686,0.05358700826764107,84.5262451171875,-0.18611637261828337,-0.8973393023862599,-0.40930401971224134,-0.3176163736730812
0.1684362143278122,0.06673993170261383,84.5257797241211,-0.18611637261828337,-0.8973393023862599,-0.40930401971224134,-0.3176163736730812
0.15897901356220245,0.056251898407936096,84.52653503417969,-0.18611637261828337,-0.8973393023862599,-0.40930401971224134,-0.3176163736730812
0.16176645457744598,0.06832405924797058,84.52590942382812,-0.18611637261828337,-0.8973393023862599,-0.40930401971224134,-0.3176163736730812
0.17028504610061646,0.044702108949422836,84.52609252929688,-0.18611637261828337,-0.8973393023862599,-0.40930401971224134,-0.3176163736730812
0.1767338067293167,0.05878804251551628,84.52668762207031,-0.18611637261828337,-0.8973393023862599,-0.40930401971224134,-0.3176163736730812
0.1644141972064972,0.06989900022745132,84.52848052978516,-0.18611637261828337,-0.8973393023862599,-0.40930401971224134,-0.3176163736730812
0.1552870124578476,0.05645023658871651,84.5272216796875,-0.18611637261828337,-0.8973393023862599,-0.40930401971224134,-0.3176163736730812
0.15647876262664795,0.049317557364702225,84.52706909179688,-0.18611637261828337,-0.8973393023862599,-0.40930401971224134,-0.3176163736730812
0.1634065955877304,0.05611073970794678,84.52704620361328,-0.18611637261828337,-0.8973393023862599,-0.40930401971224134,-0.3176163736730812
0.1714525818824768,0.06637004762887955,84.52690124511719,-0.18611637261828337,-0.8973393023862599,-0.40930401971224134,-0.3176163736730812
0.16768722236156464,0.06958364695310593,84.52618408203125,-0.18611637261828337,-0.8973393023862599,-0.40930401971224134,-0.3176163736730812
0.15901276469230652,0.05802483111619949,84.52641296386719,-0.18611637261828337,-0.8973393023862599,-0.40930401971224134,-0.3176163736730812
0.16234953701496124,0.06484246253967285,84.5256576538086,-0.18611637261828337,-0.8973393023862599,-0.40930401971224134,-0.3176163736730812
0.1642225831747055,0.04971781373023987,84.52558898925781,-0.18611637261828337,-0.8973393023862599,-0.40930401971224134,-0.3176163736730812
0.1625428944826126,0.05827987194061279,84.52410888671875,-0.18611637261828337,-0.8973393023862599,-0.40930401971224134,-0.3176163736730812
0.16770613193511963,0.0503167025744915,84.52399444580078,-0.18611637261828337,-0.8973393023862599,-0.40930401971224134,-0.3176163736730812
0.15698117017745972,0.05735908821225166,84.52506256103516,-0.18611637261828337,-0.8973393023862599,-0.40930401971224134,-0.3176163736730812
0.17755115032196045,0.06334558874368668,84.52449035644531,-0.18611637261828337,-0.8973393023862599,-0.40930401971224134,-0.3176163736730812
0.1695317029953003,0.04964642971754074,84.5251693725586,-0.18611637261828337,-0.8973393023862599,-0.40930401971224134,-0.3176163736730812
0.17113246023654938,0.06058754399418831,84.52538299560547,-0.18611637261828337,-0.8973393023862599,-0.40930401971224134,-0.3176163736730812
0.1692991852760315,0.052613694220781326,84.52520751953125,-0.18611637261828337,-0.8973393023862599,-0.40930401971224134,-0.3176163736730812
0.169131338596344,0.05869072303175926,84.52447509765625,-0.18611637261828337,-0.8973393023862599,-0.40930401971224134,-0.3176163736730812
0.16493341326713562,0.05771428346633911,84.52335357666016,-0.18611637261828337,-0.8973393023862599,-0.40930401971224134,-0.3176163736730812
0.16685451567173004,0.050183411687612534,84.5237808227539,-0.18611637261828337,-0.8973393023862599,-0.40930401971224134,-0.3176163736730812
0.14779098331928253,0.05734593793749809,84.52388000488281,-0.18611637261828337,-0.8973393023862599,-0.40930401971224134,-0.3176163736730812
0.14668403565883636,0.0629865750670433,84.52476501464844,-0.18611637261828337,-0.8973393023862599,-0.40930401971224134,-0.3176163736730812
0.1580580174922943,0.0676332414150238,84.52497100830078,-0.18611637261828337,-0.8973393023862599,-0.40930401971224134,-0.3176163736730812
0.14298675954341888,0.04765821620821953,84.52519989013672,-0.18611637261828337,-0.8973393023862599,-0.40930401971224134,-0.3176163736730812
0.16303572058677673,0.06458255648612976,84.52385711669922,-0.18611637261828337,-0.8973393023862599,-0.40930401971224134,-0.3176163736730812
0.16302461922168732,0.06211631000041962,84.52413940429688,-0.18611637261828337,-0.8973393023862599,-0.40930401971224134,-0.3176163736730812
0.16630128026008606,0.05592091381549835,84.52416229248047,-0.18611637261828337,-0.8973393023862599,-0.40930401971224134,-0.3176163736730812
0.17182283103466034,0.053044721484184265,84.52278900146484,-0.18611637261828337,-0.8973393023862599,-0.40930401971224134,-0.3176163736730812
0.158522367477417,0.04745865985751152,84.52305603027344,-0.18611637261828337,-0.8973393023862599,-0.40930401971224134,-0.3176163736730812
0.16199973225593567,0.05392175540328026,84.52239990234375,-0.18611637261828337,-0.8973393023862599,-0.40930401971224134,-0.3176163736730812
0.16070601344108582,0.03796892240643501,84.52201843261719,-0.18611637261828337,-0.8973393023862599,-0.40930401971224134,-0.3176163736730812
0.16514599323272705,0.05596763640642166,84.52278137207031,-0.18611637261828337,-0.8973393023862599,-0.40930401971224134,-0.3176163736730812
0.15596012771129608,0.0735708624124527,84.52325439453125,-0.18611637261828337,-0.8973393023862599,-0.40930401971224134,-0.3176163736730812
0.14632922410964966,0.05940989777445793,84.52300262451172,-0.18611637261828337,-0.8973393023862599,-0.40930401971224134,-0.3176163736730812
0.16081510484218597,0.051913950592279434,84.52313232421875,-0.18611637261828337,-0.8973393023862599,-0.40930401971224134,-0.3176163736730812
0.1602024883031845,0.0522625558078289,84.52310943603516,-0.18611637261828337,-0.8973393023862599,-0.40930401971224134,-0.3176163736730812
0.16750571131706238,0.05780540034174919,84.5223388671875,-0.18611637261828337,-0.8973393023862599,-0.40930401971224134,-0.3176163736730812
0.15367591381072998,0.04561041295528412,84.52200317382812,-0.18611637261828337,-0.8973393023862599,-0.40930401971224134,-0.3176163736730812
0.14942653477191925,0.05850134789943695,84.5223388671875,-0.18611637261828337,-0.8973393023862599,-0.40930401971224134,-0.3176163736730812
0.15096133947372437,0.03787874057888985,84.52254486083984,-0.18611637261828337,-0.8973393023862599,-0.40930401971224134,-0.3176163736730812
0.15562433004379272,0.052336785942316055,84.52322387695312,-0.18611637261828337,-0.8973393023862599,-0.40930401971224134,-0.3176163736730812
0.14555038511753082,0.05923956632614136,84.52420043945312,-0.18611637261828337,-0.8973393023862599,-0.40930401971224134,-0.3176163736730812
0.15369921922683716,0.05349694937467575,84.52474975585938,-0.18611637261828337,-0.8973393023862599,-0.40930401971224134,-0.3176163736730812
0.1592831164598465,0.04936225712299347,84.52523803710938,-0.18611637261828337,-0.8973393023862599,-0.40930401971224134,-0.3176163736730812
0.15347664058208466,0.04912646487355232,84.52519226074219,-0.18611637261828337,-0.8973393023862599,-0.40930401971224134,-0.3176163736730812
0.15623648464679718,0.058161187916994095,84.5253677368164,-0.18611637261828337,-0.8973393023862599,-0.40930401971224134,-0.3176163736730812
0.16831354796886444,0.06283232569694519,84.52494049072266,-0.18611637261828337,-0.8973393023862599,-0.40930401971224134,-0.3176163736730812
0.1545242816209793,0.055537089705467224,84.5250473022461,-0.18611637261828337,-0.8973393023862599,-0.40930401971224134,-0.3176163736730812
0.15301591157913208,0.045795738697052,84.52507781982422,-0.18611637261828337,-0.8973393023862599,-0.40930401971224134,-0.3176163736730812
0.1616707146167755,0.049160439521074295,84.52538299560547,-0.18611637261828337,-0.8973393023862599,-0.40930401971224134,-0.3176163736730812
0.15013347566127777,0.041582584381103516,84.52610778808594,-0.18611637261828337,-0.8973393023862599,-0.40930401971224134,-0.3176163736730812
0.15415894985198975,0.043739672750234604,84.52625274658203,-0.18611637261828337,-0.8973393023862599,-0.40930401971224134,-0.3176163736730812
0.15317422151565552,0.04603928327560425,84.52681732177734,-0.18611637261828337,-0.8973393023862599,-0.40930401971224134,-0.3176163736730812
0.15238897502422333,0.05218195542693138,84.527099609375,-0.18611637261828337,-0.8973393023862599,-0.40930401971224134,-0.3176163736730812
0.16951081156730652,0.05147293210029602,84.52726745605469,-0.18611637261828337,-0.8973393023862599,-0.40930401971224134,-0.3176163736730812
0.1520920693874359,0.056756965816020966,84.52800750732422,-0.18611637261828337,-0.8973393023862599,-0.40930401971224134,-0.3176163736730812
0.14971508085727692,0.029748233035206795,84.52828216552734,-0.18611637261828337,-0.8973393023862599,-0.40930401971224134,-0.3176163736730812
0.14623095095157623,0.03678243234753609,84.52839660644531,-0.18611637261828337,-0.8973393023862599,-0.40930401971224134,-0.3176163736730812
0.14764270186424255,0.057666290551424026,84.52814483642578,-0.18611637261828337,-0.8973393023862599,-0.40930401971224134,-0.3176163736730812
0.14721229672431946,0.044296082109212875,84.52826690673828,-0.18611637261828337,-0.8973393023862599,-0.40930401971224134,-0.3176163736730812
0.14771488308906555,0.05483561009168625,84.52906036376953,-0.18611637261828337,-0.8973393023862599,-0.40930401971224134,-0.3176163736730812
0.15624232590198517,0.049065180122852325,84.52899932861328,-0.18611637261828337,-0.8973393023862599,-0.40930401971224134,-0.3176163736730812
0.17470373213291168,0.05647294223308563,84.52853393554688,-0.18611637261828337,-0.8973393023862599,-0.40930401971224134,-0.3176163736730812
0.15741290152072906,0.028727348893880844,84.52893829345703,-0.18611637261828337,-0.8973393023862599,-0.40930401971224134,-0.3176163736730812
0.14449886977672577,0.06541883945465088,84.52845001220703,-0.18611637261828337,-0.8973393023862599,-0.40930401971224134,-0.3176163736730812
0.14767713844776154,0.058848727494478226,84.52749633789062,-0.18611637261828337,-0.8973393023862599,-0.40930401971224134,-0.3176163736730812
0.1496443897485733,0.043815478682518005,84.51337432861328,-0.18611637261828337,-0.8973393023862599,-0.40930401971224134,-0.3176163736730812
0.14936889708042145,0.037465158849954605,84.51405334472656,-0.18611637261828337,-0.8973393023862599,-0.40930401971224134,-0.3176163736730812
0.15737351775169373,0.030848722904920578,84.51353454589844,-0.18611637261828337,-0.8973393023862599,-0.40930401971224134,-0.3176163736730812
0.1422334909439087,0.038147665560245514,84.51380920410156,-0.18611637261828337,-0.8973393023862599,-0.40930401971224134,-0.3176163736730812
0.14154556393623352,0.04213057830929756,84.51396179199219,-0.18611637261828337,-0.8973393023862599,-0.40930401971224134,-0.3176163736730812
0.13656923174858093,0.052823420614004135,84.51400756835938,-0.18611637261828337,-0.8973393023862599,-0.40930401971224134,-0.3176163736730812
0.1364036351442337,0.04796558991074562,84.51533508300781,-0.18611637261828337,-0.8973393023862599,-0.40930401971224134,-0.3176163736730812
0.15930284559726715,0.04451702535152435,84.51441192626953,-0.18611637261828337,-0.8973393023862599,-0.40930401971224134,-0.3176163736730812
0.14756979048252106,0.04167532920837402,84.51525115966797,-0.18611637261828337,-0.8973393023862599,-0.40930401971224134,-0.3176163736730812
0.13327060639858246,0.03735196217894554,84.5147705078125,-0.18611637261828337,-0.8973393023862599,-0.40930401971224134,-0.3176163736730812
0.14218005537986755,0.024884864687919617,84.51496124267578,-0.18611637261828337,-0.8973393023862599,-0.40930401971224134,-0.3176163736730812
0.15627369284629822,0.035459328442811966,84.51485443115234,-0.18611637261828337,-0.8973393023862599,-0.40930401971224134,-0.3176163736730812
0.15038438141345978,0.04541437700390816,84.513916015625,-0.18611637261828337,-0.8973393023862599,-0.40930401971224134,-0.3176163736730812
0.1392936408519745,0.0427982322871685,84.5147476196289,-0.18611637261828337,-0.8973393023862599,-0.40930401971224134,-0.3176163736730812
0.14232434332370758,0.03032049722969532,84.51496887207031,-0.18611637261828337,-0.8973393023862599,-0.40930401971224134,-0.3176163736730812
0.13874401152133942,0.04807860031723976,84.51512145996094,-0.18611637261828337,-0.8973393023862599,-0.40930401971224134,-0.3176163736730812
0.15309081971645355,0.04099898040294647,84.5155258178711,-0.18611637261828337,-0.8973393023862599,-0.40930401971224134,-0.3176163736730812
0.15420177578926086,0.0403333343565464,84.5154037475586,-0.18611637261828337,-0.8973393023862599,-0.40930401971224134,-0.3176163736730812
0.14046064019203186,0.042356327176094055,84.51480102539062,-0.18611637261828337,-0.8973393023862599,-0.40930401971224134,-0.3176163736730812
0.14507579803466797,0.0413346067070961,84.51471710205078,-0.18611637261828337,-0.8973393023862599,-0.40930401971224134,-0.3176163736730812
0.15011033415794373,0.03587476909160614,84.51484680175781,-0.18611637261828337,-0.8973393023862599,-0.40930401971224134,-0.3176163736730812
0.148452028632164,0.03263481706380844,84.5148696899414,-0.18611637261828337,-0.8973393023862599,-0.40930401971224134,-0.3176163736730812
0.14441731572151184,0.03673555701971054,84.51507568359375,-0.18611637261828337,-0.8973393023862599,-0.40930401971224134,-0.3176163736730812
0.1491832286119461,0.04146745055913925,84.5166015625,-0.18611637261828337,-0.8973393023862599,-0.40930401971224134,-0.3176163736730812
0.125385120511055,0.02485719323158264,84.51668548583984,-0.18611637261828337,-0.8973393023862599,-0.40930401971224134,-0.3176163736730812
0.13665169477462769,0.04674937576055527,84.5171890258789,-0.18611637261828337,-0.8973393023862599,-0.40930401971224134,-0.3176163736730812
0.14948922395706177,0.046928685158491135,84.51545715332031,-0.18611637261828337,-0.8973393023862599,-0.40930401971224134,-0.3176163736730812
0.13939552009105682,0.02962583862245083,84.51510620117188,-0.18611637261828337,-0.8973393023862599,-0.40930401971224134,-0.3176163736730812
0.14297005534172058,0.03655672073364258,84.51630401611328,-0.18611637261828337,-0.8973393023862599,-0.40930401971224134,-0.3176163736730812
0.15252181887626648,0.036748744547367096,84.51609802246094,-0.18611637261828337,-0.8973393023862599,-0.40930401971224134,-0.3176163736730812
0.13101153075695038,0.04946422576904297,84.51683807373047,-0.18611637261828337,-0.8973393023862599,-0.40930401971224134,-0.3176163736730812
0.14628902077674866,0.04297841340303421,84.51647186279297,-0.18611637261828337,-0.8973393023862599,-0.40930401971224134,-0.3176163736730812
0.13567118346691132,0.04108993336558342,84.5160903930664,-0.18611637261828337,-0.8973393023862599,-0.40930401971224134,-0.3176163736730812
0.1515273153781891,0.038065940141677856,84.5164794921875,-0.18611637261828337,-0.8973393023862599,-0.40930401971224134,-0.3176163736730812
0.14024223387241364,0.03501637279987335,84.51655578613281,-0.18611637261828337,-0.8973393023862599,-0.40930401971224134,-0.3176163736730812
0.13835826516151428,0.026302048936486244,84.51673126220703,-0.18611637261828337,-0.8973393023862599,-0.40930401971224134,-0.3176163736730812
0.13721118867397308,0.0342797189950943,84.5171127319336,-0.18611637261828337,-0.8973393023862599,-0.40930401971224134,-0.3176163736730812
0.14188897609710693,0.035133372992277145,84.51708221435547,-0.18611637261828337,-0.8973393023862599,-0.40930401971224134,-0.3176163736730812
0.13730448484420776,0.026777811348438263,84.51846313476562,-0.18611637261828337,-0.8973393023862599,-0.40930401971224134,-0.3176163736730812
0.14532779157161713,0.03141606226563454,84.5179443359375,-0.18611637261828337,-0.8973393023862599,-0.40930401971224134,-0.3176163736730812
0.13999058306217194,0.041935551911592484,84.5183334350586,-0.18611637261828337,-0.8973393023862599,-0.40930401971224134,-0.3176163736730812
0.12834908068180084,0.02847246453166008,84.51748657226562,-0.18611637261828337,-0.8973393023862599,-0.40930401971224134,-0.3176163736730812
0.12777668237686157,0.04412546008825302,84.5171127319336,-0.18611637261828337,-0.8973393023862599,-0.40930401971224134,-0.3176163736730812
0.12927386164665222,0.04306630417704582,84.51624298095703,-0.18611637261828337,-0.8973393023862599,-0.40930401971224134,-0.3176163736730812
0.15377689898014069,0.04720545932650566,84.51577758789062,-0.18611637261828337,-0.8973393023862599,-0.40930401971224134,-0.3176163736730812
0.13531771302223206,0.029860569164156914,84.51583099365234,-0.18611637261828337,-0.8973393023862599,-0.40930401971224134,-0.3176163736730812
0.15292805433273315,0.027797963470220566,84.5168685913086,-0.18611637261828337,-0.8973393023862599,-0.40930401971224134,-0.3176163736730812
0.14216408133506775,0.03636646643280983,84.51763916015625,-0.18611637261828337,-0.8973393023862599,-0.40930401971224134,-0.3176163736730812
0.15149399638175964,0.03893022984266281,84.51791381835938,-0.18611637261828337,-0.8973393023862599,-0.40930401971224134,-0.3176163736730812
0.14382559061050415,0.04043580964207649,84.51874542236328,-0.18611637261828337,-0.8973393023862599,-0.40930401971224134,-0.3176163736730812
0.14488485455513,0.04270051792263985,84.51966857910156,-0.18611637261828337,-0.8973393023862599,-0.40930401971224134,-0.3176163736730812
0.1522929072380066,0.040478240698575974,84.5192642211914,-0.18611637261828337,-0.8973393023862599,-0.40930401971224134,-0.3176163736730812
0.13750097155570984,0.03182427957653999,84.52001190185547,-0.18611637261828337,-0.8973393023862599,-0.40930401971224134,-0.3176163736730812
0.1450708508491516,0.03154291585087776,84.51966094970703,-0.18611637261828337,-0.8973393023862599,-0.40930401971224134,-0.3176163736730812
0.14365653693675995,0.028290726244449615,84.51844787597656,-0.18611637261828337,-0.8973393023862599,-0.40930401971224134,-0.3176163736730812
0.14318501949310303,0.031664635986089706,84.51850891113281,-0.18611637261828337,-0.8973393023862599,-0.40930401971224134,-0.3176163736730812
0.1379082351922989,0.037455104291439056,84.51932525634766,-0.18611637261828337,-0.8973393023862599,-0.40930401971224134,-0.3176163736730812
0.14478152990341187,0.031900618225336075,84.5209732055664,-0.18611637261828337,-0.8973393023862599,-0.40930401971224134,-0.3176163736730812
0.14744777977466583,0.030972430482506752,84.52027893066406,-0.18611637261828337,-0.8973393023862599,-0.40930401971224134,-0.3176163736730812
0.13641789555549622,0.02306663990020752,84.52046203613281,-0.18611637261828337,-0.8973393023862599,-0.40930401971224134,-0.3176163736730812
0.11907362192869186,0.029500337317585945,84.5206527709961,-0.18611637261828337,-0.8973393023862599,-0.40930401971224134,-0.3176163736730812
0.13515251874923706,0.030656369403004646,84.51968383789062,-0.18611637261828337,-0.8973393023862599,-0.40930401971224134,-0.3176163736730812
0.14947699010372162,0.04551005735993385,84.5193862915039,-0.18611637261828337,-0.8973393023862599,-0.40930401971224134,-0.3176163736730812
0.1577983796596527,0.04450782388448715,84.52008819580078,-0.18611637261828337,-0.8973393023862599,-0.40930401971224134,-0.3176163736730812
0.14853693544864655,0.04053012281656265,84.51956176757812,-0.18611637261828337,-0.8973393023862599,-0.40930401971224134,-0.3176163736730812
0.12572841346263885,0.025422729551792145,84.51874542236328,-0.18611637261828337,-0.8973393023862599,-0.40930401971224134,-0.3176163736730812
0.13457141816616058,0.03107394091784954,84.51885986328125,-0.18611637261828337,-0.8973393023862599,-0.40930401971224134,-0.3176163736730812
0.14291685819625854,0.030957993119955063,84.5197525024414,-0.18611637261828337,-0.8973393023862599,-0.40930401971224134,-0.3176163736730812
0.1307709813117981,0.02859487757086754,84.52053833007812,-0.18611637261828337,-0.8973393023862599,-0.40930401971224134,-0.3176163736730812
0.1503218710422516,0.03463250398635864,84.52100372314453,-0.18611637261828337,-0.8973393023862599,-0.40930401971224134,-0.3176163736730812
0.14366549253463745,0.028980717062950134,84.52186584472656,-0.18611637261828337,-0.8973393023862599,-0.40930401971224134,-0.3176163736730812
0.131872296333313,0.024453390389680862,84.52203369140625,-0.18611637261828337,-0.8973393023862599,-0.40930401971224134,-0.3176163736730812
0.13272786140441895,0.03551289811730385,84.52184295654297,-0.18611637261828337,-0.8973393023862599,-0.40930401971224134,-0.3176163736730812
0.1323523074388504,0.016962477937340736,84.52193450927734,-0.18611637261828337,-0.8973393023862599,-0.40930401971224134,-0.3176163736730812
0.12042184919118881,0.03418470174074173,84.52253723144531,-0.18611637261828337,-0.8973393023862599,-0.40930401971224134,-0.3176163736730812
0.13465653359889984,0.02413209155201912,84.52235412597656,-0.18611637261828337,-0.8973393023862599,-0.40930401971224134,-0.3176163736730812
0.1448502540588379,0.015493076294660568,84.52156829833984,-0.18611637261828337,-0.8973393023862599,-0.40930401971224134,-0.3176163736730812
0.13229942321777344,0.025824610143899918,84.52129364013672,-0.18611637261828337,-0.8973393023862599,-0.40930401971224134,-0.3176163736730812
0.13549304008483887,0.029781624674797058,84.52090454101562,-0.18611637261828337,-0.8973393023862599,-0.40930401971224134,-0.3176163736730812
0.13552546501159668,0,84.52017211914062,-0.19291928555063348,-0.9026308404457644,-0.407045532169771,-0.3173681934674579
0.08877088874578476,0.14972418546676636,84.51763916015625,-0.1996878016177854,-0.907909912824009,-0.4051763958884595,-0.31612049192190156
0.3772778809070587,0.8209630250930786,84.51052856445312,-0.20640837705136716,-0.9131111788553073,-0.40129265614135246,-0.30803143183390286
0.31678059697151184,1.719954490661621,84.3812026977539,-0.21304838948164814,-0.9180685834472784,-0.3955088354923644,-0.2868571192026137
0.4535634517669678,2.9236955642700195,84.39656829833984,-0.21958670729202515,-0.9225270597357295,-0.38908930175287704,-0.24816003541151668
-1.2859686613082886,1.6598025560379028,84.48780059814453,-0.22612933490523568,-0.9263447618453444,-0.39602601183238806,-0.209964217742284
0.47247424721717834,1.404923677444458,84.66154479980469,-0.23278626110342068,-0.929631337263724,-0.402805131949814,-0.18442483246326433
0.9170307517051697,1.5928186178207397,84.8638687133789,-0.23940318656654797,-0.9324969079231629,-0.3912259236254611,-0.15944364666938768
-0.6135423183441162,0.9834016561508179,85.06065368652344,-0.24590254304132225,-0.9349753978486268,-0.3886968533474523,-0.13797514438629135
0.14495795965194702,1.8381718397140503,85.27652740478516,-0.2524133645109112,-0.9370790409845189,-0.3926017230032204,-0.11446203192075079
1.2587287425994873,0.7341257929801941,85.46992492675781,-0.2588592483177529,-0.9388081097364832,-0.38090433381779176,-0.09302621831496541
-0.3178635239601135,1.2330178022384644,85.58155822753906,-0.26514231601897725,-0.9402219395142869,-0.37306379032913034,-0.07663335502147658
0.6602455377578735,0.33503127098083496,85.6575698852539,-0.27133626932906013,-0.9413902698012269,-0.3702106068808157,-0.06356627941131576
-0.48345282673835754,2.0039267539978027,85.76044464111328,-0.2774941688388085,-0.942287280150792,-0.3687373342889864,-0.04407496253649378
1.0114163160324097,0.5032826066017151,85.85468292236328,-0.2836031269457573,-0.9428477510985808,-0.36433763854486934,-0.023181551198164466
0.165660098195076,1.2654670476913452,85.983642578125,-0.2895936795038504,-0.9431112804481132,-0.354528668426307,-0.008441970745722296
0.6549365520477295,0.9063387513160706,86.08869171142578,-0.2954455047657998,-0.9431011601133886,-0.3476903630076169,0.009656410912672834
0,0.156283438205719,86.0571517944336,-0.30119486244425675,-0.9428664267239051,-0.34223255840721917,0.018511595825354416
-0.1537332385778427,1.871997356414795,85.95234680175781,-0.3069094143370561,-0.9424170472938561,-0.3435136687287012,0.03541393578052536
-0.5414955019950867,-0.10383614152669907,85.81159973144531,-0.312682921922852,-0.9417040260575913,-0.3493072415668089,0.05014861257125949
0.26730799674987793,0.9315807819366455,85.78844451904297,-0.3185237500812742,-0.9408107335813751,-0.3515921374438523,0.05704648457467571
0.38235363364219666,-0.28261783719062805,85.78884887695312,-0.3243385036476723,-0.939814891967301,-0.34617829052391835,0.062454509114225856
1.051439642906189,0.4311009645462036,85.7392807006836,-0.33000857284553287,-0.9387636721537753,-0.3342300132193485,0.06369186850885565
-0.3853960335254669,0.6482324600219727,85.69206237792969,-0.3355328200374261,-0.9376271873019216,-0.3286796498078425,0.07268631371359045
0.9585530757904053,0.7924973964691162,85.61566925048828,-0.3409710116285107,-0.9363156980555499,-0.32390334112230135,0.08469239585101619
-0.09913387894630432,1.3121622800827026,85.66442108154297,-0.346309718758546,-0.9347580012027169,-0.31674151448193383,0.10223122648894802
-0.32677364349365234,0,85.60572814941406,-0.3516183209111921,-0.9329630250473399,-0.32029074383560013,0.11316591215630387
0.7239173650741577,0,85.50527954101562,-0.356928920550009,-0.9310769265114015,-0.31698121282242925,0.11316591215630387
0,0.6427454948425293,85.51994323730469,-0.3621616687244749,-0.9291461928716546,-0.31094856811347793,0.11852212461332494
-0.5655913352966309,0.47729113698005676,85.58015441894531,-0.3673834220357618,-0.9270930438064447,-0.3156618292409499,0.1278557632118465
-0.6338952779769897,0.9885337948799133,85.5574951171875,-0.3727277502045883,-0.9248603210215348,-0.3256575510182301,0.14007097097734625
0.555224597454071,0.28412291407585144,85.55282592773438,-0.3781608392965951,-0.9224374259004571,-0.3263131400225877,0.15067644355197762
1.3417017459869385,-0.2787397801876068,85.549072265625,-0.3834676606342326,-0.9199257780125152,-0.3105054204939126,0.15072130300104633
0.13707304000854492,-0.2004254013299942,85.57685089111328,-0.3885400582823259,-0.9174470316556587,-0.29818229727728357,0.146728259821733
0.07034941762685776,-0.18021506071090698,85.60030364990234,-0.3934953588996115,-0.9150279940240493,-0.29645377679698853,0.14355625597139215
0,0.9792778491973877,85.6801528930664,-0.3984313698033372,-0.9125798992864368,-0.29586753165009805,0.15021511254211284
0,0.9802623391151428,85.84044647216797,-0.40336249533083884,-0.9099402348976576,-0.29586753165009805,0.16654461411138394
-1.5351394414901733,-0.6863853335380554,86.02924346923828,-0.40840022776399953,-0.9071440832037473,-0.3086603603291828,0.16899358915785967
0.5855505466461182,1.3762856721878052,86.27660369873047,-0.4136105107760723,-0.90427961363871,-0.31657360111954996,0.17474275864660757
-0.9366097450256348,0.2665989398956299,86.37498474121094,-0.4189111165723967,-0.9012531451187608,-0.3194990944393793,0.18843346374730285
0.9720649123191833,-0.6941309571266174,86.3982162475586,-0.4242336393153243,-0.8981422771130578,-0.3192036347119331,0.18487069693704464
0.9471728205680847,0.2183113992214203,86.43946838378906,-0.4294204194957394,-0.8950941418556283,-0.3032099869378725,0.18090553395450132
0,0.14518435299396515,86.43936157226562,-0.43440814338772005,-0.8920538068624828,-0.2953168800998051,0.18393466522296287
0.13778406381607056,0.3274470567703247,86.40991973876953,-0.43932052305161845,-0.8889554074830887,-0.2941686795680045,0.18787326030433196
1.181005835533142,0.21357257664203644,86.4067153930664,-0.4441317517458526,-0.8857866156701406,-0.28317876374009443,0.19238175724943496
-1.0471066236495972,0,86.37555694580078,-0.44884209925180674,-0.8825654216203832,-0.2820629369743982,0.19416152872145193
-0.5319150686264038,-0.41104504466056824,86.2379379272461,-0.4536528024855659,-0.8793579409364605,-0.2952214510766982,0.1907361533492805
0.4712776839733124,0.820583701133728,86.23467254638672,-0.45857737093300066,-0.8761505648628285,-0.295726762615474,0.19414897548655685
0.519012451171875,0,86.24336242675781,-0.46343738016165126,-0.8728577636254738,-0.2874743448225974,0.20098717299600458
0.7923921346664429,-0.903188943862915,86.15731811523438,-0.46813754947912245,-0.8695706988633087,-0.27654597327394476,0.1934605984638136
1.3134605884552002,0.37554553151130676,85.95899963378906,-0.4726004092612492,-0.866382997459214,-0.2589972005812644,0.1890635700275502
-0.835992693901062,0.5800386667251587,85.92384338378906,-0.4768838717782596,-0.8631655779449884,-0.25501830145997995,0.19702677167952073
-0.11892583966255188,-0.15891236066818237,85.95267486572266,-0.4812004905896456,-0.8598525535346313,-0.2629759559063434,0.20053615756332888
-0.3459551930427551,0.4986811578273773,85.97917175292969,-0.48561570659313363,-0.8564866891865509,-0.2668499645122209,0.20336756420632215
0.11096692085266113,-0.08269661664962769,86.01038360595703,-0.49007952463168386,-0.8530683419677526,-0.268808200113805,0.20683410204947006
-1.1059919595718384,0.5670697689056396,85.99264526367188,-0.49462876026126945,-0.8495874699091326,-0.2771000754364648,0.21087054498493682
0.7816639542579651,-0.11878039687871933,85.95333862304688,-0.499269617630024,-0.8460418296196596,-0.27980280881408043,0.21460628975182783
1.3414000272750854,-0.39691218733787537,85.96807861328125,-0.5037855627782077,-0.8425008701088108,-0.26211060896797167,0.21030885155002288
-0.3183942139148712,-0.2653709650039673,85.95458984375,-0.5080830308573017,-0.8390417144685564,-0.2535855605233032,0.20478982528050751
0.4343965947628021,-0.23344719409942627,85.92176818847656,-0.5123014011451311,-0.835663190863819,-0.2526188740162371,0.20063300728797923
0.868403434753418,0.8596464395523071,85.95652770996094,-0.5164212434877964,-0.8322758213503073,-0.24176220710360194,0.2058513343334199
-2.2711031436920166,0.31994834542274475,86.1322021484375,-0.5205480233081994,-0.8287630494735715,-0.2534513713447569,0.21568129087487867
0.5152043104171753,-0.2253200262784958,86.35008239746094,-0.5248941502495894,-0.8251617898812719,-0.2680838616220473,0.21646986020108075
-0.7581753730773926,0.6958545446395874,86.58977508544922,-0.5293790876004194,-0.821521282869701,-0.2701086204775491,0.22039098118742317
0.74070805311203,-0.5542594790458679,86.63480377197266,-0.5338821109500428,-0.8178382668592444,-0.27025418147726044,0.22157094006737083
1.2292193174362183,0.4173177182674408,86.65351867675781,-0.5382495467961534,-0.8141549277026201,-0.253838120056025,0.2204297587275506
0.09792957454919815,0.5355820655822754,86.68766784667969,-0.5423880190129216,-0.8104149247943936,-0.24277854595614656,0.22837059025963158
-0.08838340640068054,-0.1198258101940155,86.63250732421875,-0.5464336651838471,-0.8065798763278866,-0.24269899455490893,0.2318352257212004
0.5801829099655151,0,86.60269927978516,-0.5504444956831258,-0.802724277136019,-0.2386006653585353,0.23083667730291696
0.22193536162376404,-0.7876016497612,86.50934600830078,-0.5543654707813521,-0.7989316937399816,-0.23191634642862463,0.2242733302215736
-0.8545839786529541,0.45540371537208557,86.33389282226562,-0.5582746771535674,-0.7952168742039546,-0.23718841823720122,0.22150501410166432
0.4959433972835541,0.7623128890991211,86.32444763183594,-0.5622527230534492,-0.7914405603158385,-0.24017708974861288,0.2316526524722577
1.2389183044433594,-1.1204054355621338,86.26844024658203,-0.566135198042195,-0.787604550312583,-0.2257199089008886,0.22866854791839925
-0.21037954092025757,-0.7326512932777405,86.09577941894531,-0.5698257702208541,-0.7839220923423347,-0.2171487525381961,0.2132264085114003
-0.10732629895210266,0.2931799590587616,85.96147155761719,-0.5734669790020375,-0.7803988377097988,-0.2197963012037991,0.2095641473929088
-0.07656680792570114,-0.30850455164909363,85.90391540527344,-0.5771430210434118,-0.7769071661277357,-0.2213287437611141,0.20943644245465604
-0.18449755012989044,-0.2763386070728302,85.87989044189453,-0.5808499629087397,-0.773457172861736,-0.22350428007824405,0.20456274946530667
0.4330242872238159,0.9488067030906677,85.89274597167969,-0.58455777544219,-0.7700010945306464,-0.22143322393579468,0.2101666502654553
-1.1131272315979004,0.07243663817644119,85.89651489257812,-0.5882955585455903,-0.7664273973497452,-0.22710074847224537,0.2186770114426812
0.843490481376648,0.20818118751049042,85.87627410888672,-0.5920992957944486,-0.7627632931433611,-0.22934772139075582,0.22101549332340564
0.26182183623313904,-0.608831524848938,85.88365173339844,-0.595845000017794,-0.759107524528064,-0.22013678541067427,0.21767674051225192
0.17580166459083557,-0.4843038022518158,85.86864471435547,-0.5994835559204146,-0.7555554910283528,-0.2164899229038078,0.20856727945307896
1.39569890499115,0.062299150973558426,85.84048461914062,-0.602982589318146,-0.7521086755826959,-0.20339408482395793,0.20505057402576016
0.07280227541923523,0.9803805947303772,85.92237091064453,-0.606270511483239,-0.748618757699926,-0.19115657498720473,0.2137395719066263
-1.913896918296814,0.6148579716682434,86.13447570800781,-0.6095843081943366,-0.7449456510454824,-0.2064990303445179,0.2270332266266148
0.9018685221672058,-0.30348506569862366,86.51107025146484,-0.6130962384498098,-0.7411401408165686,-0.21493260031226463,0.22962800084302828
-2.0183615684509277,0.9961729049682617,86.85822296142578,-0.6167559826943394,-0.7372649041470133,-0.22423670903129564,0.2354003995036086
0.816700279712677,-1.1233383417129517,86.92346954345703,-0.6205767098788012,-0.7333503950883937,-0.23425055310411438,0.2343406875307362
1.611322045326233,0.11473258584737778,86.927734375,-0.6243122731024088,-0.729514759029261,-0.21401703372879013,0.22593563956518975
-0.16054952144622803,0.8173887729644775,86.92074584960938,-0.6277784755726191,-0.7256844343865904,-0.20192726269645675,0.23370331755528853
0.3256905972957611,-0.4576398432254791,86.90491485595703,-0.6311324618206261,-0.721764396529437,-0.2005510870643773,0.23670122530311352
0.3682859241962433,-0.6848697662353516,86.91252899169922,-0.6344267871243732,-0.7178987170528199,-0.19476794938527725,0.22718031189093993
-1.3828370571136475,0.061045363545417786,86.84569549560547,-0.6377433745539137,-0.71415569966038,-0.20322254215958896,0.22198177520185713
0.45430752635002136,-0.3307410180568695,86.7722396850586,-0.6411948981406543,-0.7104747322719123,-0.21096028824928584,0.2197343114142617
0.3043958246707916,0.9426543712615967,86.83710479736328,-0.6446582152120993,-0.7067699997654798,-0.2046377603241124,0.22483358935763442
0.793164074420929,-0.9139893651008606,86.81731414794922,-0.6479926251133976,-0.7030207826507581,-0.1954914278316814,0.22507246440897388
1.1705095767974854,-0.4150829613208771,86.577392578125,-0.6479926251133976,-0.7030207826507581,-0.1954914278316814,0.22507246440897388
-0.8778886795043945,-0.18245646357536316,86.32890319824219,-0.6479926251133976,-0.7030207826507581,-0.1954914278316814,0.22507246440897388
0.5500314235687256,0.6502766609191895,86.24080657958984,-0.6479926251133976,-0.7030207826507581,-0.1954914278316814,0.22507246440897388
0.06048307195305824,-0.2702549695968628,86.30757904052734,-0.6479926251133976,-0.7030207826507581,-0.1954914278316814,0.22507246440897388
-0.2069990336894989,0.7669615745544434,86.37495422363281,-0.6479926251133976,-0.7030207826507581,-0.1954914278316814,0.22507246440897388
-0.5749098062515259,0.5727123022079468,86.34031677246094,-0.6479926251133976,-0.7030207826507581,-0.1954914278316814,0.22507246440897388
0.47443249821662903,-0.3564051389694214,86.24432373046875,-0.6479926251133976,-0.7030207826507581,-0.1954914278316814,0.22507246440897388
0.11244732141494751,-0.1980772465467453,86.2513198852539,-0.6479926251133976,-0.7030207826507581,-0.1954914278316814,0.22507246440897388
0.5577205419540405,-0.5755906701087952,86.30028533935547,-0.6479926251133976,-0.7030207826507581,-0.1954914278316814,0.22507246440897388
-0.019365360960364342,-0.62941575050354,86.287353515625,-0.6479926251133976,-0.7030207826507581,-0.1954914278316814,0.22507246440897388
0.7352014183998108,0.523493766784668,86.2740249633789,-0.6479926251133976,-0.7030207826507581,-0.1954914278316814,0.22507246440897388
-1.418007493019104,0.36669883131980896,86.38516998291016,-0.6479926251133976,-0.7030207826507581,-0.1954914278316814,0.22507246440897388
0.18239685893058777,0.0016081687062978745,86.66276550292969,-0.6479926251133976,-0.7030207826507581,-0.1954914278316814,0.22507246440897388
-1.122568964958191,0.6447330117225647,86.9112548828125,-0.6479926251133976,-0.7030207826507581,-0.1954914278316814,0.22507246440897388
0.2610704004764557,-0.16007807850837708,87.05290222167969,-0.6479926251133976,-0.7030207826507581,-0.1954914278316814,0.22507246440897388
1.4236037731170654,-0.642062246799469,86.98014068603516,-0.6479926251133976,-0.7030207826507581,-0.1954914278316814,0.22507246440897388
0.5688929557800293,-0.7821511030197144,86.82635498046875,-0.6479926251133976,-0.7030207826507581,-0.1954914278316814,0.22507246440897388
-0.23220327496528625,-3.118608236312866,86.3721923828125,-0.6479926251133976,-0.7030207826507581,-0.1954914278316814,0.22507246440897388
1.0333974361419678,-2.060992956161499,85.6743392944336,-0.6479926251133976,-0.7030207826507581,-0.1954914278316814,0.22507246440897388
0.6923447847366333,-2.4181149005889893,84.76261138916016,-0.6479926251133976,-0.7030207826507581,-0.1954914278316814,0.22507246440897388
0.5534654855728149,-2.6667678356170654,83.62247467041016,-0.6479926251133976,-0.7030207826507581,-0.1954914278316814,0.22507246440897388
-0.35812506079673767,-0.7662441730499268,82.22652435302734,-0.6479926251133976,-0.7030207826507581,-0.1954914278316814,0.22507246440897388
0.32433217763900757,-1.7261745929718018,80.66241455078125,-0.6479926251133976,-0.7030207826507581,-0.1954914278316814,0.22507246440897388
-0.6741353869438171,-2.3390090465545654,78.92623901367188,-0.6479926251133976,-0.7030207826507581,-0.1954914278316814,0.22507246440897388
-0.44542497396469116,-0.7971020340919495,77.09628295898438,-0.6479926251133976,-0.7030207826507581,-0.1954914278316814,0.22507246440897388
0.45149362087249756,-1.7029048204421997,75.20784759521484,-0.6479926251133976,-0.7030207826507581,-0.1954914278316814,0.22507246440897388
-0.30878180265426636,-1.4262254238128662,73.2409896850586,-0.6479926251133976,-0.7030207826507581,-0.1954914278316814,0.22507246440897388
0.541772186756134,-0.21585145592689514,71.30089569091797,-0.6479926251133976,-0.7030207826507581,-0.1954914278316814,0.22507246440897388
-1.0756560564041138,-1.547289490699768,69.37259674072266,-0.6479926251133976,-0.7030207826507581,-0.1954914278316814,0.22507246440897388
0.05904555693268776,-0.417729914188385,67.41069793701172,-0.6479926251133976,-0.7030207826507581,-0.1954914278316814,0.22507246440897388
0.04452754184603691,-1.0378694534301758,65.46253204345703,-0.6479926251133976,-0.7030207826507581,-0.1954914278316814,0.22507246440897388
-0.11328167468309402,-1.1573001146316528,63.51886749267578,-0.6479926251133976,-0.7030207826507581,-0.1954914278316814,0.22507246440897388
0.812149167060852,0.36133021116256714,61.52741622924805,-0.6479926251133976,-0.7030207826507581,-0.1954914278316814,0.22507246440897388
-0.8722766041755676,-1.5658280849456787,59.437618255615234,-0.6479926251133976,-0.7030207826507581,-0.1954914278316814,0.22507246440897388
1.661698579788208,-0.9112201929092407,57.251461029052734,-0.6479926251133976,-0.7030207826507581,-0.1954914278316814,0.22507246440897388
-0.40121516585350037,-0.49612098932266235,54.992454528808594,-0.6479926251133976,-0.7030207826507581,-0.1954914278316814,0.22507246440897388
-0.5456283092498779,-0.8854783177375793,52.76007843017578,-0.6479926251133976,-0.7030207826507581,-0.1954914278316814,0.22507246440897388
-0.09001103043556213,-1.9733829498291016,50.49751281738281,-0.6479926251133976,-0.7030207826507581,-0.1954914278316814,0.22507246440897388
-0.6870439648628235,-0.4766293168067932,48.220951080322266,-0.6479926251133976,-0.7030207826507581,-0.1954914278316814,0.22507246440897388
0.8160330653190613,-0.5172155499458313,45.872859954833984,-0.6479926251133976,-0.7030207826507581,-0.1954914278316814,0.22507246440897388
0.6284947991371155,-0.7408412098884583,43.49196243286133,-0.6479926251133976,-0.7030207826507581,-0.1954914278316814,0.22507246440897388
-0.6848082542419434,-1.1270138025283813,41.13948440551758,-0.6479926251133976,-0.7030207826507581,-0.1954914278316814,0.22507246440897388
0.5346991419792175,-0.8125027418136597,38.832740783691406,-0.6479926251133976,-0.7030207826507581,-0.1954914278316814,0.22507246440897388
0.2674669325351715,-0.3585292100906372,36.47598648071289,-0.6479926251133976,-0.7030207826507581,-0.1954914278316814,0.22507246440897388
-1.2254372835159302,-1.3723886013031006,34.1229133605957,-0.6479926251133976,-0.7030207826507581,-0.1954914278316814,0.22507246440897388
1.1873352527618408,-0.48315101861953735,31.793498992919922,-0.6479926251133976,-0.7030207826507581,-0.1954914278316814,0.22507246440897388
-0.46883338689804077,-0.27715009450912476,29.335912704467773,-0.6479926251133976,-0.7030207826507581,-0.1954914278316814,0.22507246440897388
0.472272664308548,-1.0929689407348633,26.837310791015625,-0.6479926251133976,-0.7030207826507581,-0.1954914278316814,0.22507246440897388
0.18908444046974182,-0.78363436460495,24.374435424804688,-0.6479926251133976,-0.7030207826507581,-0.1954914278316814,0.22507246440897388
0.15609441697597504,-0.9533830285072327,21.797527313232422,-0.6479926251133976,-0.7030207826507581,-0.1954914278316814,0.22507246440897388
-0.43687522411346436,0.068567655980587,19.144655227661133,-0.6479926251133976,-0.7030207826507581,-0.1954914278316814,0.22507246440897388
-0.06677994877099991,-1.073573350906372,16.456832885742188,-0.6479926251133976,-0.7030207826507581,-0.1954914278316814,0.22507246440897388
-0.4629063904285431,0.8915242552757263,13.720120429992676,-0.6479926251133976,-0.7030207826507581,-0.1954914278316814,0.22507246440897388
-0.05237294360995293,-0.2087525874376297,10.94076156616211,-0.6479926251133976,-0.7030207826507581,-0.1954914278316814,0.22507246440897388
-0.5085547566413879,-0.2189311981201172,8.153912544250488,-0.6479926251133976,-0.7030207826507581,-0.1954914278316814,0.22507246440897388
-0.39046549797058105,0.3888873755931854,5.391764163970947,-0.6479926251133976,-0.7030207826507581,-0.1954914278316814,0.22507246440897388
