faccX,faccY,yaw,posX,posY,velX,velY
0,0,-100.35546875,0.0,0.0,0.0,0.0
0,0,-100.35511779785156,0.0,0.0,0.0,0.0
0,0,-100.35547637939453,0.0,0.0,0.0,0.0
-0.19953639805316925,-0.41782626509666443,-100.3604507446289,-1.3856694309247864e-05,-2.901571285393503e-05,-0.0016628033171097437,-0.0034818855424722035
0.25561538338661194,-1.21916925907135,-100.36876678466797,-3.767570894625451e-05,-0.00020072738329569498,-0.0011954784393310546,-0.01712351491053899
-0.47495463490486145,-2.124220371246338,-100.23432159423828,-7.28322420683172e-05,-0.0007182991339100731,-0.003023305535316467,-0.04498509516318639
-0.7354615926742554,-2.9155070781707764,-100.07154846191406,-0.00020727735012769698,-0.001818031792839368,-0.013110107431809107,-0.08698282390832901
0.6540594696998596,-1.6831597089767456,-99.94249725341797,-0.00043143206586440403,-0.0035870973848634293,-0.013788458456595739,-0.12530504713455837
0.09451913833618164,-0.45795461535453796,-99.85978698730469,-0.0006092550812496079,-0.0058242033318512965,-0.007550303389628728,-0.14314766650398572
-0.5070444941520691,-1.3642603158950806,-99.69373321533203,-0.0007637410652306344,-0.008336540477143392,-0.010988014688094457,-0.15833279093106586
-0.4303904175758362,-1.3799269199371338,-99.53145599365234,-0.0010119742900133132,-0.011165988884038393,-0.018799972285827,-0.1812010178963343
-0.16628891229629517,-1.4723119735717773,-99.40472412109375,-0.0013667432260182169,-0.01438407799435986,-0.023772300034761426,-0.2049696753422419
-0.7411438822746277,-0.4635104835033417,-99.34675598144531,-0.0018259643928872215,-0.017934671365138554,-0.03133423998951912,-0.2211015291512012
0.3006422817707062,-1.13775634765625,-99.33210754394531,-0.002378792114969757,-0.0217308959364891,-0.03500508666038513,-0.23444541941086447
0.09064549207687378,-0.9179198741912842,-99.28459167480469,-0.0029350374639034275,-0.025781074886520698,-0.0317443552116553,-0.25157605459292726
0.15635359287261963,-2.1159768104553223,-99.18608856201172,-0.0034469573365317457,-0.030184696399503278,-0.029686029503742856,-0.2768585269649823
-0.8253443241119385,0.24023239314556122,-99.14682006835938,-0.003988182184596857,-0.034929265211232824,-0.035260952264070514,-0.29248973044256366
0.08281213045120239,-1.3847930431365967,-99.07681274414062,-0.00462742945800225,-0.03988357743041382,-0.04144872054457665,-0.3020277358591556
0.48035940527915955,-0.8001126050949097,-98.92292785644531,-0.005279132332652807,-0.04506910258697138,-0.0367556244134903,-0.3202352829277515
-0.20706534385681152,-0.6294487714767456,-98.89488983154297,-0.0058727473186122045,-0.05050563239802916,-0.0344781739016374,-0.332148294399182
0.9825528860092163,-1.4632501602172852,-98.95902252197266,-0.0063935302487677995,-0.05618676361938317,-0.028015777717034025,-0.3495874521632989
-1.0911496877670288,-0.25991058349609375,-99.05882263183594,-0.006868001321951548,-0.062132885095973804,-0.028920751065015796,-0.36394712502757703
-0.5898385643959045,-1.3827451467514038,-99.11395263671875,-0.007466749134990904,-0.06831274382770061,-0.0429289864997069,-0.37763592277963953
0,0.08259880542755127,-99.24891662597656,-0.008223193254735734,-0.07469696381439765,-0.047844307869672774,-0.388470475624005
-1.637953281402588,-0.280394047498703,-99.2834243774414,-0.009134345141549904,-0.0811852075221638,-0.06149391854802767,-0.39011876930793127
0.08686178177595139,0.22974807024002075,-99.17745971679688,-0.010266958471491104,-0.08769070409238339,-0.07441968104491631,-0.3905408191184203
1.2366886138916016,0.2588748335838318,-99.07689666748047,-0.011415373266985019,-0.09416578559825818,-0.06339009441435337,-0.38646896158655486
0.7995835542678833,-1.5205904245376587,-99.01995086669922,-0.012330467051102054,-0.10069455409629478,-0.04642115967969099,-0.39698325817783675
0.03303412348031998,-0.8494970202445984,-99.04557037353516,-0.012330467051102054,-0.10069455409629478,-0.04642115967969099,-0.39698325817783675
-1.2451390027999878,-1.1472185850143433,-98.93896484375,-0.013188326995716326,-0.10744960253851282,-0.05652203367402155,-0.41362255488832794
0,-0.061549846082925797,-98.9046630859375,-0.014216828876588906,-0.11442725403881115,-0.06689819203068811,-0.42369562514747183
0.6766360998153687,0.768945038318634,-99.05192565917969,-0.015284810125724307,-0.12143972312514154,-0.06125955786556004,-0.41780066521217424
0.3199154734611511,2.174022674560547,-99.21129608154297,-0.01623659778645055,-0.12819869478750562,-0.05295496142158904,-0.3932759342715144
-0.5240762233734131,0,-99.2056655883789,-0.017133358306665385,-0.13460231989518637,-0.05465630100419123,-0.3751590786501765
0,0.5547757744789124,-99.23564910888672,-0.01808069083891395,-0.14081644511057273,-0.059023602865636335,-0.37053594719618554
-0.29339399933815,-1.645233154296875,-99.15645599365234,-0.019084792136628594,-0.14706777043744096,-0.061468552860120915,-0.3796230920280019
0,-2.3378045558929443,-99.05165100097656,-0.02012964260091798,-0.1536714218122264,-0.0639135028546055,-0.41281507294625036
-0.8998823165893555,-0.053682904690504074,-98.95555877685547,-0.021257359476035666,-0.1607177485460933,-0.0714125221595168,-0.4327441351177791
0.602665364742279,0.2527344822883606,-98.8739013671875,-0.02246820824479477,-0.1679163277718342,-0.07388933009157576,-0.4310853719711303
1.3560471534729004,0.1701192706823349,-98.81509399414062,-0.023563675377000534,-0.17507171912739675,-0.05756672577311593,-0.4275615906963745
0,0.1414015144109726,-98.74653625488281,-0.02442895086533907,-0.1821761122511493,-0.04626633282750843,-0.42496558415393026
-0.5053578019142151,-0.9601740837097168,-98.75238037109375,-0.02523515070426381,-0.18931573119324943,-0.05047764784346022,-0.43178868889808647
-1.416811227798462,-0.3037314713001251,-98.7873764038086,-0.02620992879538486,-0.19659998056064878,-0.06649572309106586,-0.4423212351898351
0.8785790205001831,0.12772148847579956,-98.6978759765625,-0.02735556808352056,-0.20398422406261996,-0.07098099148521818,-0.4437879850467045
0.19545632600784302,-0.4275202751159668,-98.62908172607422,-0.02735556808352056,-0.20398422406261996,-0.07098099148521818,-0.4437879850467045
-0.4949866533279419,-0.15668490529060364,-98.59107971191406,-0.028559385325449202,-0.21142126028425992,-0.073477077546219,-0.4486563615500926
-0.6725751757621765,0,-98.54915618896484,-0.029865083967128555,-0.21890974720629552,-0.08320675945530333,-0.44996206909418096
1.2444416284561157,0.14393553137779236,-98.42884063720703,-0.031212150343279864,-0.22639911950151953,-0.07844120568285383,-0.4487626063326994
0.9379732608795166,0.17846766114234924,-98.49398040771484,-0.03236794718179023,-0.2338561071631395,-0.060254414938390226,-0.4460759130616982
-0.3664868175983429,0.8923822641372681,-98.66735076904297,-0.03333250087220221,-0.2412163411360234,-0.05549202791104711,-0.43715216368436804
-0.4394548833370209,-0.6839936971664429,-98.80567169189453,-0.03431333617772906,-0.248487739102501,-0.06220820875217514,-0.4354155922929445
-1.1943317651748657,-0.4915691316127777,-98.85533142089844,-0.03546359706307864,-0.25582630194827083,-0.0758230974897742,-0.445211949199438
-0.6928827166557312,0.6264301538467407,-98.79717254638672,-0.036858371915813114,-0.26323713575282853,-0.0915498848383625,-0.4440881073474883
1.0179240703582764,0.060653794556856155,-98.67200469970703,-0.038361631013556476,-0.27059089004553644,-0.0888412068908413,-0.43836240777745833
0.9293395280838013,-2.169247627258301,-98.66668701171875,-0.0397070911562898,-0.27804336030243165,-0.07261401023715731,-0.4559340230499704
-0.5373201370239258,-0.3154412806034088,-98.6844711303711,-0.04089010109141882,-0.2858148085274216,-0.06934718197832501,-0.47663976394881796
-0.3001491129398346,0.08176253736019135,-98.73692321777344,-0.04210404504452728,-0.2937750322837382,-0.07632609239468968,-0.4785870868091781
0.41858354210853577,0.10154644399881363,-98.73721313476562,-0.043367921971302056,-0.3017387539401857,-0.07533913881828384,-0.47705951196451973
-0.3012130558490753,0.46467819809913635,-98.74066162109375,-0.04461542355672766,-0.30965042465055975,-0.07436105143278834,-0.47234097328037017
0.007580459583550692,0.380990207195282,-98.8161849975586,-0.04461542355672766,-0.30965042465055975,-0.07436105143278834,-0.47234097328037017
-0.27002260088920593,-0.3171004354953766,-98.86056518554688,-0.045872999562642576,-0.3175183374155312,-0.07654806927700214,-0.4718085585162043
0.5275630950927734,-0.1110304743051529,-98.76321411132812,-0.04713091596071736,-0.32541154470398187,-0.07440189849197242,-0.4753763160978754
-0.41419413685798645,1.8486111164093018,-98.69071960449219,-0.04836307475792838,-0.3332138179832448,-0.07345715717334919,-0.4608964774136742
0.4401121735572815,1.4962126016616821,-98.74887084960938,-0.04958556084715786,-0.3406631465152733,-0.0732411735341884,-0.4330229464297493
0,0.8472607135772705,-98.78948974609375,-0.050775683727341744,-0.34771745441998864,-0.06957357208787772,-0.4134940021360914
0.5687468647956848,-0.8698027729988098,-98.8186264038086,-0.05189574695208445,-0.35461058654305,-0.06483401488124702,-0.4136818526312709
-0.38645949959754944,-0.4198201894760132,-98.9177017211914,-0.052963655021966476,-0.36159484123707636,-0.06331495350459589,-0.4244287106518944
-0.6056109666824341,-1.090303659439087,-99.0931167602539,-0.05408779802942363,-0.3687735227930048,-0.07158220739026241,-0.4370130760595202
-0.10188806056976318,-0.33606812357902527,-99.05726623535156,-0.05532996669615385,-0.37615612765670636,-0.07747803261736405,-0.4488995075846712
0.7532735466957092,-0.30377209186553955,-98.91301727294922,-0.0565760321365734,-0.3836822194647456,-0.07204982023298116,-0.45423150938004253
-0.169767826795578,0.14682014286518097,-98.90406036376953,-0.05773634124324113,-0.39126364406198244,-0.06718727256714674,-0.45553944228837884
-0.8800802826881409,-0.10480246692895889,-98.8795394897461,-0.05892903523807439,-0.39885305020595985,-0.0759360068128444,-0.4551892949889103
0.12103629112243652,-0.5862365961074829,-98.77161407470703,-0.06024734673992497,-0.40648752727959697,-0.08226137340922528,-0.46094795384754733
1.1387243270874023,-0.9821643233299255,-98.80805206298828,-0.06153088625381415,-0.4142789099075726,-0.07176336825747662,-0.47401796150952574
-0.5799908638000488,1.2005259990692139,-99.02234649658203,-0.06153088625381415,-0.4142789099075726,-0.07176336825747662,-0.47401796150952574
-0.096148282289505,0.23899689316749573,-99.21922302246094,-0.06277389649880609,-0.42207924239854827,-0.07739786114155624,-0.46202193740755315
0.4826134145259857,1.0163110494613647,-99.32389068603516,-0.06403702299476005,-0.42969243385932493,-0.0741773183729189,-0.451561037885646
-1.697873592376709,2.511425018310547,-99.2641830444336,-0.065357704702215,-0.436973469486046,-0.08430448652167492,-0.42216323732088007
1.4524260759353638,1.0268588066101074,-99.2213363647461,-0.06677982444399579,-0.4437638092868856,-0.08634988249201947,-0.3926775387798746
0.700048565864563,-1.0554434061050415,-99.16246032714844,-0.06806951174651556,-0.45031041997484844,-0.06841259381035342,-0.39291574377566574
-0.3326898217201233,-0.928945779800415,-99.18319702148438,-0.06918421061945586,-0.45699682050901963,-0.06535127094248308,-0.4094523203248779
0,-0.9258392453193665,-99.29983520507812,-0.07029650192833892,-0.46394983036340093,-0.06812368612348411,-0.42490886220087604
-0.1373588740825653,-0.8945180773735046,-99.2705078125,-0.07144143550776383,-0.4711580584363803,-0.0692683434075055,-0.44007850655665
0.05608834698796272,0.26345881819725037,-99.22180938720703,-0.07260155168449271,-0.4785365237719895,-0.06994559779996051,-0.4453373337164521
-0.49802783131599426,0.22262181341648102,-99.24968719482422,-0.07379800188979262,-0.4859250570678461,-0.07362842683602744,-0.4412866617863377
0.44793426990509033,-0.7516080737113953,-99.3268814086914,-0.07502862105660217,-0.49331656992125,-0.0740458731811183,-0.44569488062212864
-0.7619689106941223,-0.05596260353922844,-99.35115814208984,-0.07628452690412005,-0.5008008992286501,-0.0766628285210269,-0.45242463626588386
0,-0.08885874599218369,-99.22320556640625,-0.07761515522049092,-0.5083513668712434,-0.08301256944347793,-0.4536314808453123
-1.0264930725097656,0.18182134628295898,-99.09414672851562,-0.0790699822856954,-0.5159054358158672,-0.09156667838105931,-0.45285679250955585
0.47868332266807556,-0.09846758842468262,-98.98641967773438,-0.0790699822856954,-0.5159054358158672,-0.09156667838105931,-0.45285679250955585
1.232320785522461,-0.15788821876049042,-98.90300750732422,-0.0790699822856954,-0.5159054358158672,-0.09156667838105931,-0.45285679250955585
0.39337924122810364,-0.16780850291252136,-98.8787612915039,-0.0790699822856954,-0.5159054358158672,-0.09156667838105931,-0.45285679250955585
-0.9460604786872864,-0.0258700642734766,-99.0197525024414,-0.0790699822856954,-0.5159054358158672,-0.09156667838105931,-0.45285679250955585
-0.4726271331310272,2.5809237957000732,-99.22254180908203,-0.0790699822856954,-0.5159054358158672,-0.09156667838105931,-0.45285679250955585
0.6754121780395508,1.023871898651123,-99.48426055908203,-0.0790699822856954,-0.5159054358158672,-0.09156667838105931,-0.45285679250955585
-0.013684936799108982,2.7380480766296387,-99.9559097290039,-0.0790699822856954,-0.5159054358158672,-0.09156667838105931,-0.45285679250955585
-0.9630607962608337,0.23490291833877563,-100.6087875366211,-0.0790699822856954,-0.5159054358158672,-0.09156667838105931,-0.45285679250955585
0.3932107388973236,1.4581096172332764,-101.5545425415039,-0.0790699822856954,-0.5159054358158672,-0.09156667838105931,-0.45285679250955585
0.4359673857688904,1.52556312084198,-102.76145935058594,-0.0790699822856954,-0.5159054358158672,-0.09156667838105931,-0.45285679250955585
0.34721556305885315,2.1659233570098877,-104.10421752929688,-0.0790699822856954,-0.5159054358158672,-0.09156667838105931,-0.45285679250955585
-0.34289392828941345,1.6017727851867676,-105.61061096191406,-0.0790699822856954,-0.5159054358158672,-0.09156667838105931,-0.45285679250955585
0.190760537981987,1.4782588481903076,-107.23526763916016,-0.0790699822856954,-0.5159054358158672,-0.09156667838105931,-0.45285679250955585
-0.23258738219738007,1.2608654499053955,-108.98277282714844,-0.0790699822856954,-0.5159054358158672,-0.09156667838105931,-0.45285679250955585
-0.059731412678956985,0.7898104786872864,-110.77916717529297,-0.0790699822856954,-0.5159054358158672,-0.09156667838105931,-0.45285679250955585
-0.43937742710113525,1.0604432821273804,-112.72370910644531,-0.0790699822856954,-0.5159054358158672,-0.09156667838105931,-0.45285679250955585
0.9016151428222656,1.104444146156311,-114.78467559814453,-0.0790699822856954,-0.5159054358158672,-0.09156667838105931,-0.45285679250955585
-0.6469178795814514,1.4505068063735962,-116.91825103759766,-0.0790699822856954,-0.5159054358158672,-0.09156667838105931,-0.45285679250955585
0.7124738097190857,1.7811917066574097,-119.10968780517578,-0.0790699822856954,-0.5159054358158672,-0.09156667838105931,-0.45285679250955585
-0.4700518250465393,1.0388808250427246,-121.33381652832031,-0.0790699822856954,-0.5159054358158672,-0.09156667838105931,-0.45285679250955585
-0.07312119007110596,0.07626066356897354,-123.63003540039062,-0.0790699822856954,-0.5159054358158672,-0.09156667838105931,-0.45285679250955585
-0.42370155453681946,1.328006625175476,-125.95453643798828,-0.0790699822856954,-0.5159054358158672,-0.09156667838105931,-0.45285679250955585
-0.17860205471515656,0.7694244980812073,-128.3456573486328,-0.0790699822856954,-0.5159054358158672,-0.09156667838105931,-0.45285679250955585
0.14756500720977783,1.3500474691390991,-130.74453735351562,-0.0790699822856954,-0.5159054358158672,-0.09156667838105931,-0.45285679250955585
-1.4679237604141235,0.9425969123840332,-133.1854705810547,-0.0790699822856954,-0.5159054358158672,-0.09156667838105931,-0.45285679250955585
0.5134915709495544,0.747001588344574,-135.62811279296875,-0.0790699822856954,-0.5159054358158672,-0.09156667838105931,-0.45285679250955585
-0.15334463119506836,0.567690908908844,-138.1213836669922,-0.0790699822856954,-0.5159054358158672,-0.09156667838105931,-0.45285679250955585
0.325503945350647,1.3303751945495605,-140.66610717773438,-0.0790699822856954,-0.5159054358158672,-0.09156667838105931,-0.45285679250955585
-0.24518321454524994,1.5464513301849365,-143.20912170410156,-0.0790699822856954,-0.5159054358158672,-0.09156667838105931,-0.45285679250955585
0.4271351993083954,0.4266771376132965,-145.73294067382812,-0.0790699822856954,-0.5159054358158672,-0.09156667838105931,-0.45285679250955585
1.0947964191436768,1.5854477882385254,-148.22821044921875,-0.0790699822856954,-0.5159054358158672,-0.09156667838105931,-0.45285679250955585
-1.064702033996582,-0.013874009251594543,-150.68455505371094,-0.0790699822856954,-0.5159054358158672,-0.09156667838105931,-0.45285679250955585
-0.11583741009235382,0.49569451808929443,-153.20907592773438,-0.0790699822856954,-0.5159054358158672,-0.09156667838105931,-0.45285679250955585
0.33862626552581787,0.600434422492981,-155.76441955566406,-0.0790699822856954,-0.5159054358158672,-0.09156667838105931,-0.45285679250955585
1.584486961364746,0.19287988543510437,-158.405029296875,-0.0790699822856954,-0.5159054358158672,-0.09156667838105931,-0.45285679250955585
-0.9130637645721436,2.524982213973999,-161.02398681640625,-0.0790699822856954,-0.5159054358158672,-0.09156667838105931,-0.45285679250955585
-0.06937585026025772,2.1406383514404297,-163.6800994873047,-0.0790699822856954,-0.5159054358158672,-0.09156667838105931,-0.45285679250955585
0.9079819321632385,0.4288142919540405,-166.37913513183594,-0.0790699822856954,-0.5159054358158672,-0.09156667838105931,-0.45285679250955585
0.7478330135345459,-0.0033674584701657295,-169.091552734375,-0.0790699822856954,-0.5159054358158672,-0.09156667838105931,-0.45285679250955585
-0.42734894156455994,0.8173375129699707,-171.8232421875,-0.0790699822856954,-0.5159054358158672,-0.09156667838105931,-0.45285679250955585
1.300270438194275,0.5410698056221008,-174.61563110351562,-0.0790699822856954,-0.5159054358158672,-0.09156667838105931,-0.45285679250955585
1.549052357673645,-1.0090092420578003,-177.37399291992188,-0.0790699822856954,-0.5159054358158672,-0.09156667838105931,-0.45285679250955585
0.7223312854766846,-0.9711030125617981,179.98248291015625,-0.0790699822856954,-0.5159054358158672,-0.09156667838105931,-0.45285679250955585
-1.0183219909667969,0.7811391353607178,177.50234985351562,-0.0790699822856954,-0.5159054358158672,-0.09156667838105931,-0.45285679250955585
0.37105029821395874,0.8032664656639099,174.9326171875,-0.0790699822856954,-0.5159054358158672,-0.09156667838105931,-0.45285679250955585
0.04637766629457474,-1.2860512733459473,172.35855102539062,-0.0790699822856954,-0.5159054358158672,-0.09156667838105931,-0.45285679250955585
0.8637065291404724,0.9829285144805908,169.76580810546875,-0.0790699822856954,-0.5159054358158672,-0.09156667838105931,-0.45285679250955585
0.30434146523475647,0.8281826376914978,167.1455078125,-0.0790699822856954,-0.5159054358158672,-0.09156667838105931,-0.45285679250955585
0.6807810664176941,-0.09325908124446869,164.6574249267578,-0.0790699822856954,-0.5159054358158672,-0.09156667838105931,-0.45285679250955585
-0.016154995188117027,-0.6153425574302673,162.4337921142578,-0.0790699822856954,-0.5159054358158672,-0.09156667838105931,-0.45285679250955585
-0.27463504672050476,-0.03246394172310829,160.578369140625,-0.0790699822856954,-0.5159054358158672,-0.09156667838105931,-0.45285679250955585
-0.5878057479858398,-1.3346983194351196,158.94961547851562,-0.0790699822856954,-0.5159054358158672,-0.09156667838105931,-0.45285679250955585
0.20729824900627136,-0.9621751308441162,157.6470184326172,-0.0790699822856954,-0.5159054358158672,-0.09156667838105931,-0.45285679250955585
-0.6836655735969543,-0.4258677065372467,156.72769165039062,-0.0790699822856954,-0.5159054358158672,-0.09156667838105931,-0.45285679250955585
-0.9044569134712219,-0.5410401225090027,156.07093811035156,-0.0790699822856954,-0.5159054358158672,-0.09156667838105931,-0.45285679250955585
-0.7912623882293701,-0.458330363035202,155.65695190429688,-0.0790699822856954,-0.5159054358158672,-0.09156667838105931,-0.45285679250955585
-0.46665841341018677,-0.34398043155670166,155.48434448242188,-0.0790699822856954,-0.5159054358158672,-0.09156667838105931,-0.45285679250955585
0.16595284640789032,-0.28783324360847473,155.50521850585938,-0.0790699822856954,-0.5159054358158672,-0.09156667838105931,-0.45285679250955585
0.9182180166244507,0.28392475843429565,155.4698944091797,-0.0790699822856954,-0.5159054358158672,-0.09156667838105931,-0.45285679250955585
0.5537600517272949,-0.27503862977027893,155.49444580078125,-0.0790699822856954,-0.5159054358158672,-0.09156667838105931,-0.45285679250955585
0.9696440100669861,0.16091132164001465,155.50035095214844,-0.0790699822856954,-0.5159054358158672,-0.09156667838105931,-0.45285679250955585
0.43411707878112793,-0.21545124053955078,155.4989776611328,-0.0790699822856954,-0.5159054358158672,-0.09156667838105931,-0.45285679250955585
-0.26355627179145813,0.5074322819709778,155.4965057373047,-0.0790699822856954,-0.5159054358158672,-0.09156667838105931,-0.45285679250955585
-0.28920432925224304,0.2648235559463501,155.51434326171875,-0.0790699822856954,-0.5159054358158672,-0.09156667838105931,-0.45285679250955585
-0.2988116145133972,0.31309986114501953,155.504150390625,-0.0790699822856954,-0.5159054358158672,-0.09156667838105931,-0.45285679250955585
0.073178231716156,0.24628470838069916,155.50457763671875,-0.0790699822856954,-0.5159054358158672,-0.09156667838105931,-0.45285679250955585
0.40952664613723755,0.04273517429828644,155.5074462890625,-0.0790699822856954,-0.5159054358158672,-0.09156667838105931,-0.45285679250955585
0.2954918146133423,0.10051538050174713,155.50640869140625,-0.0790699822856954,-0.5159054358158672,-0.09156667838105931,-0.45285679250955585
-0.08732334524393082,0.28893449902534485,155.50692749023438,-0.0790699822856954,-0.5159054358158672,-0.09156667838105931,-0.45285679250955585
-0.16009829938411713,0.2666310667991638,155.50860595703125,-0.0790699822856954,-0.5159054358158672,-0.09156667838105931,-0.45285679250955585
-0.02749275229871273,0.23987989127635956,155.50723266601562,-0.0790699822856954,-0.5159054358158672,-0.09156667838105931,-0.45285679250955585
0.22806322574615479,0.15373335778713226,155.50967407226562,-0.0790699822856954,-0.5159054358158672,-0.09156667838105931,-0.45285679250955585
0.17938856780529022,0.13772934675216675,155.5088348388672,-0.0790699822856954,-0.5159054358158672,-0.09156667838105931,-0.45285679250955585
0.0040140761993825436,0.2420249730348587,155.5087432861328,-0.0790699822856954,-0.5159054358158672,-0.09156667838105931,-0.45285679250955585
-0.07135436683893204,0.24218885600566864,155.5101776123047,-0.0790699822856954,-0.5159054358158672,-0.09156667838105931,-0.45285679250955585
0.045006319880485535,0.21457581222057343,155.51019287109375,-0.0790699822856954,-0.5159054358158672,-0.09156667838105931,-0.45285679250955585
0.17395061254501343,0.1657145768404007,155.50967407226562,-0.08058088824951684,-0.523426639969564,-0.08974203727751348,-0.4496877059340477
0.11971540004014969,0.18527604639530182,155.50965881347656,-0.08205619539771254,-0.5308970607196289,-0.08729482050597046,-0.4467627840737502
-0.16619117558002472,0.24054363369941711,155.49862670898438,-0.08351433655722454,-0.5383135363097404,-0.08768211863546942,-0.44321428673962754
-0.6912308931350708,0.5174608826637268,155.50379943847656,-0.08503524840036536,-0.545647801886209,-0.09482730254142854,-0.4368975824366013
-2.386383295059204,1.609432339668274,155.55609130859375,-0.08682942665023599,-0.5527817273419349,-0.1204740874430475,-0.41917347225050133
-3.3201065063476562,1.0083718299865723,155.5620880126953,-0.0892336121216067,-0.5595861599232171,-0.168028169121438,-0.3973584375033776
-1.7021574974060059,0.5840262174606323,155.53614807128906,-0.09238284994055801,-0.566098217350534,-0.20988036915271852,-0.3840884537746509
-0.152870774269104,1.1880946159362793,155.53302001953125,-0.09600967750085854,-0.5723766276333478,-0.22533893808334443,-0.36932078016300995
-0.6045103073120117,0.681076169013977,155.60104370117188,-0.09981792237735741,-0.5784021704426654,-0.23165044709652038,-0.35374435695509115
-1.378650188446045,0.5956718921661377,155.76345825195312,-0.1038164826411715,-0.584209246665446,-0.24817678456117087,-0.3431047897785902
-1.977903962135315,0.5643385648727417,155.88125610351562,-0.1081858564220925,-0.5898471035466838,-0.27614806914934886,-0.3334380359699329
-1.1375806331634521,0.5162580013275146,156.06849670410156,-0.11300467733814405,-0.5953293627179743,-0.3021104407768386,-0.32443306458493076
-1.7254729270935059,-0.33197924494743347,156.2515106201172,-0.11823867451499809,-0.6007237833251968,-0.3259692204456466,-0.32289740828176344
1.224111557006836,1.594014286994934,156.3455352783203,-0.12370631161757044,-0.6060177654741952,-0.3301472318630355,-0.3123804495980343
-1.8941926956176758,0.4914482831954956,156.4485626220703,-0.12370631161757044,-0.6060177654741952,-0.3301472318630355,-0.3123804495980343
-0.6694578528404236,0.9738685488700867,156.5161590576172,-0.12938679677004172,-0.6111223481874912,-0.3515109864335197,-0.3001694759974878
-0.6463813185691833,-0.5817785859107971,156.5208282470703,-0.13533669093083717,-0.6160979443177994,-0.3624763128619331,-0.2969020596394937
-0.19438761472702026,0.8530938029289246,156.39651489257812,-0.1414363495433483,-0.6210274706439425,-0.36948272063940146,-0.294641099497676
1.1408253908157349,0.6849111914634705,156.25759887695312,-0.1475286700417766,-0.6258313497331821,-0.3615957391719955,-0.28182439121107267
-0.22964699566364288,0,156.1653289794922,-0.15349198941720207,-0.6304808596428484,-0.3540025858790614,-0.27611679794887706
0,-0.24539101123809814,156.11109924316406,-0.15940798022321861,-0.6350998473177768,-0.35591631084292513,-0.2781617230425279
-1.6295274496078491,0.5461501479148865,156.0398406982422,-0.16545308036571235,-0.6397149899839941,-0.3694957062563239,-0.2756553969035547
-1.431990146636963,0.5131800174713135,156.02853393554688,-0.17182394752527919,-0.6442356820042349,-0.39500835289169733,-0.26682764552533633
-0.3387918770313263,1.3278133869171143,156.0847625732422,-0.17853039104734,-0.6485549626654635,-0.4097648697555997,-0.25148603382209944
-0.7263325452804565,0.4501602053642273,156.1575927734375,-0.18543377251703833,-0.6526229261741456,-0.4186409066081979,-0.23666958721975492
-0.49860191345214844,0.9978779554367065,156.19461059570312,-0.19249618585347583,-0.6564668610888638,-0.42884869376430296,-0.22460260254641382
-0.3108413815498352,-0.7831348776817322,156.22726440429688,-0.19969987542281156,-0.6601953250842377,-0.43559405455598615,-0.2228130768984557
0.24557438492774963,1.1703001260757446,156.23825073242188,-0.20696430876239896,-0.6638819898902958,-0.4361379461945035,-0.2195866998285056
0.20656104385852814,0.39371082186698914,156.25807189941406,-0.20696430876239896,-0.6638819898902958,-0.4361379461945035,-0.2195866998285056
-0.6401692628860474,0.3064870536327362,156.29312133789062,-0.21426338621418425,-0.6674931433683057,-0.43975134801973287,-0.21375171753267455
0.4458603858947754,-1.0248191356658936,156.29197692871094,-0.22160606901985974,-0.6711055561662137,-0.4413705886613268,-0.2197378182162842
0.8371934294700623,-0.6174760460853577,156.23452758789062,-0.2288731445381482,-0.6748819014129956,-0.4306784735332865,-0.2334236113975446
0.7392886877059937,0.3860713541507721,156.2935333251953,-0.2359416411722324,-0.6787883647065613,-0.41754112255681936,-0.23535198383033282
0.13524092733860016,0.514918863773346,156.3428955078125,-0.24283992865824575,-0.6826483290052666,-0.41025337576478105,-0.2278437320142985
-1.690739631652832,0.23439577221870422,156.28857421875,-0.24978550566434726,-0.6863936888002277,-0.42321586496739966,-0.2215994433810314
-0.8072188496589661,0.08611665666103363,156.33255004882812,-0.2570125727527839,-0.6900647550490171,-0.44403218564499797,-0.21892850647370027
-1.2546941041946411,1.115889072418213,156.4798126220703,-0.26455629757977367,-0.6936300908701705,-0.46121479359377804,-0.20891179206470656
0.3094843626022339,0.9116355776786804,156.61380004882812,-0.272308850371725,-0.6969711537483255,-0.46909154144038145,-0.1920157533138991
-0.11828584969043732,0.8396919369697571,156.62472534179688,-0.28011376505455693,-0.7000497963372622,-0.46749822049944983,-0.17742135735849546
0.3674384653568268,-2.3941879272460938,156.6011505126953,-0.28788809979790425,-0.7031147700703396,-0.4654219487022299,-0.19037549061079825
-0.8347176313400269,0.8928031325340271,156.51016235351562,-0.29567758221835694,-0.7063919577468191,-0.4693159417520899,-0.20288703056673213
-0.2272776961326599,1.0497711896896362,156.4147491455078,-0.3035732642564107,-0.7096385072616658,-0.4781659028143623,-0.18669891121486826
-1.008508563041687,1.3437522649765015,156.51341247558594,-0.3035732642564107,-0.7096385072616658,-0.4781659028143623,-0.18669891121486826
0.7751463651657104,-0.39119625091552734,156.6693572998047,-0.31155890167816924,-0.7126840060587148,-0.4801105877966621,-0.1787609444310268
0.43067672848701477,0.2379945069551468,156.76573181152344,-0.31947700709327664,-0.7156739941425625,-0.47006206201622275,-0.18003762563069664
2.372697353363037,-0.5568134188652039,156.6495819091797,-0.327116696037863,-0.7186967614386234,-0.44670061133413896,-0.1826944498966138
0.9418763518333435,-0.7076093554496765,156.36915588378906,-0.33433152749723777,-0.7218294760740055,-0.4190791637908358,-0.1932313063492378
-0.087789386510849,0.5171309113502502,156.198974609375,-0.34125686863227095,-0.7250632255162219,-0.41196177241314835,-0.19481862671673303
0.056699857115745544,0.6002218127250671,156.10409545898438,-0.34812505716758696,-0.7282326086889955,-0.4122208518247742,-0.18550735401610538
-1.574736475944519,-0.19108445942401886,156.1357421875,-0.35510082390764075,-0.7312959856063959,-0.42487115698168065,-0.18209787607192998
-0.7279735207557678,0.2859802842140198,156.1060791015625,-0.36234192027377293,-0.7343243602197621,-0.44406040695418303,-0.1813070775320133
-0.9877231121063232,1.8219854831695557,156.03610229492188,-0.369862072655847,-0.7371997583336718,-0.4583578788947005,-0.16374069613715017
0,1.089853286743164,156.0199432373047,-0.37756996252021047,-0.7397265589102693,-0.46658890482891985,-0.13947537305454416
-0.10264614224433899,0.06742392480373383,156.01614379882812,-0.38535357247168167,-0.7419707819881542,-0.46744428934762267,-0.12983139629165336
0.655857503414154,-0.3785645067691803,156.10862731933594,-0.3931058931718386,-0.7441562455778739,-0.46283419467120757,-0.13242423447469875
1.803238034248352,1.1007229089736938,156.11395263671875,-0.4006490258929099,-0.7463131662634102,-0.44234173185735337,-0.12640624778966114
-0.8074610829353333,-1.2857005596160889,156.09295654296875,-0.4006490258929099,-0.7463131662634102,-0.44234173185735337,-0.12640624778966114
-1.8007806539535522,0.22513867914676666,156.00485229492188,-0.40820251598892754,-0.7484935871904926,-0.46407707966476075,-0.13524426346023882
-0.6409589052200317,0.5690025091171265,156.03402709960938,-0.41610669923050503,-0.7506925095545338,-0.48442490932454063,-0.12862642022470638
1.3636738061904907,0,156.18299865722656,-0.42413025918445774,-0.7527967691618125,-0.47840228514978683,-0.12388473264873033
2.561185598373413,-0.6127738952636719,156.36888122558594,-0.43183107092274836,-0.7549040684486846,-0.44569512344508766,-0.1289911817759276
-0.6053339838981628,-0.7231171131134033,156.43136596679688,-0.4391234999513835,-0.7571466916871985,-0.42939635999112724,-0.14012360684573658
0,0.16730354726314545,156.36431884765625,-0.44632214303345075,-0.7595206832989226,-0.4344408098569453,-0.14475538656115539
-0.19546814262866974,1.3618968725204468,156.35511779785156,-0.4535763973743046,-0.7618270786013458,-0.4360697110455175,-0.13201204972962546
-1.121348261833191,0.786791205406189,156.34019470214844,-0.46093567147537307,-0.7638780649803169,-0.4470431810826997,-0.1141063157469035
0,-1.3632233142852783,156.42857360839844,-0.46846426256715645,-0.765819866916993,-0.4563877499313096,-0.11890991665422924
-1.5147076845169067,-0.1701658070087433,156.45950317382812,-0.4761759130996586,-0.7679081842168756,-0.4690103139689505,-0.13168815933167943
0.6235853433609009,1.036102294921875,156.33001708984375,-0.4840546351617214,-0.7700428523940762,-0.4764363334785839,-0.12447202193240334
-0.06841310113668442,1.7614414691925049,156.26954650878906,-0.4919566870917656,-0.7719231122204416,-0.4718098981267154,-0.10115915723145016
-0.6246875524520874,0.2099321335554123,156.3915557861328,-0.49986831738371007,-0.7734721972296639,-0.47758573690662187,-0.08473104387521752
1.208836317062378,1.4149547815322876,156.55982971191406,-0.49986831738371007,-0.7734721972296639,-0.47758573690662187,-0.08473104387521752
-0.33648383617401123,-0.5991988778114319,156.67835998535156,-0.49986831738371007,-0.7734721972296639,-0.47758573690662187,-0.08473104387521752
-0.3272733986377716,-0.7895739078521729,156.62698364257812,-0.49986831738371007,-0.7734721972296639,-0.47758573690662187,-0.08473104387521752
1.2323722839355469,-0.17052125930786133,156.41993713378906,-0.49986831738371007,-0.7734721972296639,-0.47758573690662187,-0.08473104387521752
2.1413655281066895,-0.6227487921714783,156.0802001953125,-0.49986831738371007,-0.7734721972296639,-0.47758573690662187,-0.08473104387521752
1.8458517789840698,-0.5984446406364441,155.59156799316406,-0.49986831738371007,-0.7734721972296639,-0.47758573690662187,-0.08473104387521752
1.0088655948638916,0.39990857243537903,155.02064514160156,-0.49986831738371007,-0.7734721972296639,-0.47758573690662187,-0.08473104387521752
1.22344172000885,-0.10679774731397629,154.3333740234375,-0.49986831738371007,-0.7734721972296639,-0.47758573690662187,-0.08473104387521752
1.16864812374115,0.8432895541191101,153.50392150878906,-0.49986831738371007,-0.7734721972296639,-0.47758573690662187,-0.08473104387521752
2.2015650272369385,-0.28410467505455017,152.44708251953125,-0.49986831738371007,-0.7734721972296639,-0.47758573690662187,-0.08473104387521752
1.7364851236343384,0.9057661890983582,151.28289794921875,-0.49986831738371007,-0.7734721972296639,-0.47758573690662187,-0.08473104387521752
1.3651280403137207,0.6088956594467163,150.17552185058594,-0.49986831738371007,-0.7734721972296639,-0.47758573690662187,-0.08473104387521752
0.714629054069519,-1.3264037370681763,149.00381469726562,-0.49986831738371007,-0.7734721972296639,-0.47758573690662187,-0.08473104387521752
0.5544913411140442,1.116827130317688,147.76841735839844,-0.49986831738371007,-0.7734721972296639,-0.47758573690662187,-0.08473104387521752
1.6163339614868164,0.20206426084041595,146.477294921875,-0.49986831738371007,-0.7734721972296639,-0.47758573690662187,-0.08473104387521752
1.2338560819625854,1.2534455060958862,145.2061004638672,-0.49986831738371007,-0.7734721972296639,-0.47758573690662187,-0.08473104387521752
0.9944577813148499,-1.6233587265014648,143.87344360351562,-0.49986831738371007,-0.7734721972296639,-0.47758573690662187,-0.08473104387521752
0.8796807527542114,-0.501738429069519,142.46392822265625,-0.49986831738371007,-0.7734721972296639,-0.47758573690662187,-0.08473104387521752
0.6081736087799072,0.635999321937561,141.2784423828125,-0.49986831738371007,-0.7734721972296639,-0.47758573690662187,-0.08473104387521752
1.3327419757843018,-3.1698548793792725,140.18878173828125,-0.49986831738371007,-0.7734721972296639,-0.47758573690662187,-0.08473104387521752
-0.6016961336135864,0.3788889944553375,139.27720642089844,-0.49986831738371007,-0.7734721972296639,-0.47758573690662187,-0.08473104387521752
2.07383131980896,0.7001716494560242,138.11801147460938,-0.49986831738371007,-0.7734721972296639,-0.47758573690662187,-0.08473104387521752
0.40670642256736755,-2.326645612716675,136.77195739746094,-0.49986831738371007,-0.7734721972296639,-0.47758573690662187,-0.08473104387521752
0.5351541042327881,-0.13408558070659637,135.45860290527344,-0.49986831738371007,-0.7734721972296639,-0.47758573690662187,-0.08473104387521752
1.1531219482421875,0.14306078851222992,134.25360107421875,-0.49986831738371007,-0.7734721972296639,-0.47758573690662187,-0.08473104387521752
0.12691842019557953,-0.9855061769485474,133.0354766845703,-0.49986831738371007,-0.7734721972296639,-0.47758573690662187,-0.08473104387521752
-0.6452674865722656,-2.2470850944519043,131.74365234375,-0.49986831738371007,-0.7734721972296639,-0.47758573690662187,-0.08473104387521752
1.7487311363220215,0.4468351900577545,130.4239044189453,-0.49986831738371007,-0.7734721972296639,-0.47758573690662187,-0.08473104387521752
0.7375763058662415,-0.7195114493370056,129.05958557128906,-0.49986831738371007,-0.7734721972296639,-0.47758573690662187,-0.08473104387521752
0.32966119050979614,-0.769396185874939,127.50531768798828,-0.49986831738371007,-0.7734721972296639,-0.47758573690662187,-0.08473104387521752
0.2276211827993393,1.505914330482483,125.8999252319336,-0.49986831738371007,-0.7734721972296639,-0.47758573690662187,-0.08473104387521752
1.8511137962341309,-0.3594856262207031,124.33386993408203,-0.49986831738371007,-0.7734721972296639,-0.47758573690662187,-0.08473104387521752
-0.9885326623916626,-1.443951964378357,122.78732299804688,-0.49986831738371007,-0.7734721972296639,-0.47758573690662187,-0.08473104387521752
0.6895312666893005,-0.6304401755332947,121.28620147705078,-0.49986831738371007,-0.7734721972296639,-0.47758573690662187,-0.08473104387521752
0.30898088216781616,-0.5899690389633179,119.73857116699219,-0.49986831738371007,-0.7734721972296639,-0.47758573690662187,-0.08473104387521752
0.9466076493263245,1.5623434782028198,118.22252655029297,-0.49986831738371007,-0.7734721972296639,-0.47758573690662187,-0.08473104387521752
-0.6434350609779358,-1.9641419649124146,116.63700866699219,-0.49986831738371007,-0.7734721972296639,-0.47758573690662187,-0.08473104387521752
0.8511168360710144,-0.348511278629303,115.0205078125,-0.49986831738371007,-0.7734721972296639,-0.47758573690662187,-0.08473104387521752
0.7246701717376709,0.2584245800971985,113.30657958984375,-0.49986831738371007,-0.7734721972296639,-0.47758573690662187,-0.08473104387521752
0.6507009863853455,0.7107487320899963,111.64640045166016,-0.49986831738371007,-0.7734721972296639,-0.47758573690662187,-0.08473104387521752
-1.930338740348816,-1.2926006317138672,110.1894302368164,-0.49986831738371007,-0.7734721972296639,-0.47758573690662187,-0.08473104387521752
1.6172407865524292,1.6122304201126099,108.66078186035156,-0.49986831738371007,-0.7734721972296639,-0.47758573690662187,-0.08473104387521752
1.6370182037353516,0.7237398028373718,107.149658203125,-0.49986831738371007,-0.7734721972296639,-0.47758573690662187,-0.08473104387521752
1.4533921480178833,0.6825331449508667,105.51656341552734,-0.49986831738371007,-0.7734721972296639,-0.47758573690662187,-0.08473104387521752
1.148348331451416,0.10628315061330795,103.80690002441406,-0.49986831738371007,-0.7734721972296639,-0.47758573690662187,-0.08473104387521752
1.7725346088409424,1.109736442565918,102.04647827148438,-0.49986831738371007,-0.7734721972296639,-0.47758573690662187,-0.08473104387521752
0.6199101209640503,-0.037932805716991425,100.21183013916016,-0.49986831738371007,-0.7734721972296639,-0.47758573690662187,-0.08473104387521752
0.4801200330257416,0.6114341020584106,98.26742553710938,-0.49986831738371007,-0.7734721972296639,-0.47758573690662187,-0.08473104387521752
1.1985692977905273,-0.09705071151256561,96.22892761230469,-0.49986831738371007,-0.7734721972296639,-0.47758573690662187,-0.08473104387521752
0.970710039138794,0.5234665274620056,94.17289733886719,-0.49986831738371007,-0.7734721972296639,-0.47758573690662187,-0.08473104387521752
0.06345202773809433,-0.2882087230682373,91.9622573852539,-0.49986831738371007,-0.7734721972296639,-0.47758573690662187,-0.08473104387521752
0.21772374212741852,0.42333850264549255,89.72794342041016,-0.49986831738371007,-0.7734721972296639,-0.47758573690662187,-0.08473104387521752
-0.20180557668209076,-0.6779715418815613,87.33941650390625,-0.49986831738371007,-0.7734721972296639,-0.47758573690662187,-0.08473104387521752
1.2061911821365356,0.6548299789428711,84.97086334228516,-0.49986831738371007,-0.7734721972296639,-0.47758573690662187,-0.08473104387521752
-0.03460584580898285,-0.2955459952354431,82.59519958496094,-0.49986831738371007,-0.7734721972296639,-0.47758573690662187,-0.08473104387521752
0.14013510942459106,0.8114566206932068,80.21981048583984,-0.49986831738371007,-0.7734721972296639,-0.47758573690662187,-0.08473104387521752
-0.5146706700325012,-0.1153879463672638,77.82096099853516,-0.49986831738371007,-0.7734721972296639,-0.47758573690662187,-0.08473104387521752
-0.9665703773498535,-0.3680676221847534,75.62435913085938,-0.49986831738371007,-0.7734721972296639,-0.47758573690662187,-0.08473104387521752
-0.15352971851825714,1.2433048486709595,73.84251403808594,-0.49986831738371007,-0.7734721972296639,-0.47758573690662187,-0.08473104387521752
-1.3959105014801025,0.5425843000411987,72.39328002929688,-0.49986831738371007,-0.7734721972296639,-0.47758573690662187,-0.08473104387521752
-0.7071173191070557,-0.1708042472600937,71.32943725585938,-0.49986831738371007,-0.7734721972296639,-0.47758573690662187,-0.08473104387521752
-0.8183556795120239,0.7774627208709717,70.59395599365234,-0.49986831738371007,-0.7734721972296639,-0.47758573690662187,-0.08473104387521752
-1.228739619255066,0.6842969655990601,70.2297592163086,-0.49986831738371007,-0.7734721972296639,-0.47758573690662187,-0.08473104387521752
-0.4850178062915802,1.2511323690414429,70.2642822265625,-0.49986831738371007,-0.7734721972296639,-0.47758573690662187,-0.08473104387521752
0.5073841214179993,-0.7527927756309509,70.3213882446289,-0.49986831738371007,-0.7734721972296639,-0.47758573690662187,-0.08473104387521752
0.13219232857227325,-0.2874354422092438,70.28400421142578,-0.49986831738371007,-0.7734721972296639,-0.47758573690662187,-0.08473104387521752
0.1456095576286316,0.21557235717773438,70.3084487915039,-0.49986831738371007,-0.7734721972296639,-0.47758573690662187,-0.08473104387521752
0.3412419259548187,0.29408061504364014,70.31387329101562,-0.49986831738371007,-0.7734721972296639,-0.47758573690662187,-0.08473104387521752
0.15243904292583466,0.36139976978302,70.30683135986328,-0.49986831738371007,-0.7734721972296639,-0.47758573690662187,-0.08473104387521752
0.33230161666870117,-0.03090425580739975,70.31242370605469,-0.49986831738371007,-0.7734721972296639,-0.47758573690662187,-0.08473104387521752
0.019374480471014977,-0.030348310247063637,70.30729675292969,-0.49986831738371007,-0.7734721972296639,-0.47758573690662187,-0.08473104387521752
0.28656622767448425,0.025272797793149948,70.3104019165039,-0.49986831738371007,-0.7734721972296639,-0.47758573690662187,-0.08473104387521752
0.21493427455425262,0.2256595492362976,70.31295776367188,-0.49986831738371007,-0.7734721972296639,-0.47758573690662187,-0.08473104387521752
0.253458708524704,0.1863998919725418,70.31399536132812,-0.49986831738371007,-0.7734721972296639,-0.47758573690662187,-0.08473104387521752
0.21340668201446533,0.03568030893802643,70.31332397460938,-0.49986831738371007,-0.7734721972296639,-0.47758573690662187,-0.08473104387521752
0.1796320229768753,0.017999177798628807,70.31483459472656,-0.49986831738371007,-0.7734721972296639,-0.47758573690662187,-0.08473104387521752
0.2160830795764923,0.08505207300186157,70.31368255615234,-0.49986831738371007,-0.7734721972296639,-0.47758573690662187,-0.08473104387521752
0.24078340828418732,0.14599810540676117,70.3166732788086,-0.49986831738371007,-0.7734721972296639,-0.47758573690662187,-0.08473104387521752
0.209316223859787,0.12536151707172394,70.31731414794922,-0.49986831738371007,-0.7734721972296639,-0.47758573690662187,-0.08473104387521752
0.206220343708992,0.0524863675236702,70.31682586669922,-0.49986831738371007,-0.7734721972296639,-0.47758573690662187,-0.08473104387521752
0.2059413194656372,0.039992090314626694,70.31692504882812,-0.49986831738371007,-0.7734721972296639,-0.47758573690662187,-0.08473104387521752
0.21960288286209106,0.10928279906511307,70.31856536865234,-0.49986831738371007,-0.7734721972296639,-0.47758573690662187,-0.08473104387521752
0.22209018468856812,0.11186181753873825,70.32025909423828,-0.49986831738371007,-0.7734721972296639,-0.47758573690662187,-0.08473104387521752
0.20248158276081085,0.08739275485277176,70.32020568847656,-0.49986831738371007,-0.7734721972296639,-0.47758573690662187,-0.08473104387521752
0.19905711710453033,0.06447111070156097,70.3211898803711,-0.507800195033552,-0.7748738351924762,-0.4742395810744107,-0.08346551166226475
0.23504747450351715,0.6932386159896851,70.3405532836914,-0.5156740418992638,-0.7762123083224938,-0.47062204281101033,-0.0771512639398377
0.4168906509876251,1.3749076128005981,70.47039794921875,-0.5234724691318438,-0.7773545414556029,-0.4651892250985841,-0.05991671203325201
0.7399894595146179,0.9904674887657166,70.54557037353516,-0.5311452839869242,-0.7781888911629927,-0.45554855751106543,-0.04020525285353272
1.387463927268982,1.4922561645507812,70.42668914794922,-0.5385900201269153,-0.7786865673457379,-0.43781977928786875,-0.01951588907589524
1.2235761880874634,2.2558577060699463,70.30670928955078,-0.5457056942181466,-0.7787515464782098,-0.4160611116598984,0.01171839317927749
-0.09381646662950516,2.051438093185425,70.32936096191406,-0.5525615905429326,-0.7782571221613847,-0.4066464473144154,0.047612524839738914
-0.12567481398582458,1.3125040531158447,70.44783782958984,-0.559354273781549,-0.7772299729872292,-0.40847554131954317,0.07564537605891616
0.5786043405532837,1.241702675819397,70.5267105102539,-0.5661307460308631,-0.7757918412522934,-0.40470112859814766,0.09693043213337652
1.5672235488891602,0.6929905414581299,70.580810546875,-0.5727267490151765,-0.7740419803544262,-0.38681922951946063,0.11305287561068925
0.7723184823989868,1.8361910581588745,70.60899353027344,-0.5790112679772169,-0.7719821281498301,-0.3673230459253927,0.13412938894083096
0.11720248311758041,1.4323021173477173,70.6593017578125,-0.5850715464533681,-0.7695196596414061,-0.35991037121275465,0.16136683207005256
0.4032500386238098,0.8387892246246338,70.58517456054688,-0.5910339101040153,-0.7666724977637127,-0.35557326686490975,0.1802925932531555
0.8639777302742004,0.24792511761188507,70.53567504882812,-0.5968721292900347,-0.7635921549357271,-0.34501303545742634,0.1893485461051265
-0.20370133221149445,1.2674839496612549,70.42454528808594,-0.6025764940200152,-0.7603311090931921,-0.33951073214023714,0.20197695499906934
0.5202165842056274,0.8485805988311768,70.3768539428711,-0.6025764940200152,-0.7603311090931921,-0.33951073214023714,0.20197695499906934
1.0132174491882324,-0.08729495108127594,70.46876525878906,-0.6081285177478113,-0.7569119594510028,-0.32673211519528833,0.20832100206365184
0.3274488151073456,1.0905704498291016,70.5550765991211,-0.6134809511771567,-0.7533702708403066,-0.3155598963261585,0.2166816312198837
0,0.8871825337409973,70.68391418457031,-0.6187175432815436,-0.7496215663627829,-0.31283115620026397,0.23316290608296786
-0.30778560042381287,-1.869714617729187,70.66783905029297,-0.6239527698849108,-0.7458037493227881,-0.31539603620379575,0.22497513871639963
0.34521520137786865,1.7892367839813232,70.59579467773438,-0.6292067712104633,-0.7420597524159696,-0.315084122862512,0.2243044901018341
0.8667615652084351,1.7712640762329102,70.66529846191406,-0.6343740082049367,-0.7380740872434242,-0.30498431647429275,0.2539753306036194
0.07476690411567688,0.9563939571380615,70.8634262084961,-0.639391696224694,-0.7336517443699353,-0.2971382458965918,0.27670581421504414
0.6326847076416016,0.1546589881181717,71.03913879394531,-0.6442948717388207,-0.7289628243451529,-0.2912428157986145,0.28596458875884606
0.16858883202075958,0.2239624261856079,71.16719818115234,-0.6490932746729877,-0.7241704547120678,-0.28456553630142817,0.28911976721137755
0.3788830637931824,0.5497518181800842,71.24581909179688,-0.6537980147296911,-0.7192980617693527,-0.28000327050297863,0.295567385914425
-0.39338356256484985,-0.11935029923915863,71.2457504272461,-0.6584657428838221,-0.7143420496764081,-0.2801241079927425,0.29915406523893273
0.9372479915618896,1.0445191860198975,71.23870849609375,-0.6630967096539097,-0.7092919007497328,-0.27559190441776715,0.30686380596210555
0.17540207505226135,0.8950942158699036,71.24190521240234,-0.6676126406951354,-0.7040428086085665,-0.2663198205293159,0.3230272509778539
0.9864752292633057,0.7001867294311523,71.26060485839844,-0.6719706184467131,-0.6985482376932897,-0.2566375096600195,0.3363212588553627
-0.4629303216934204,0.9741518497467041,71.29965209960938,-0.6762115529891322,-0.6928266098665907,-0.25227463543027046,0.3502740803485115
0.9545698761940002,0.209872767329216,71.32927703857422,-0.6803819886105741,-0.6869064845957075,-0.2481776391427656,0.3601409521574775
0.648594081401825,0.7183383703231812,71.53985595703125,-0.6803819886105741,-0.6869064845957075,-0.2481776391427656,0.3601409521574775
-0.12599436938762665,0.34691372513771057,71.63668823242188,-0.6844819909496191,-0.6808301595531203,-0.2438226415426473,0.3690180529529849
-0.18019050359725952,-1.5993965864181519,71.57493591308594,-0.6885669644803983,-0.6747668366470484,-0.2463741821508547,0.3585806957756479
-0.2292424589395523,-0.9990447163581848,71.23262786865234,-0.6927016336941999,-0.668970939030147,-0.2497861235053281,0.33692701825251176
-0.8650566935539246,-1.5505483150482178,70.96522521972656,-0.696940728749323,-0.663532543797564,-0.25890528310944044,0.3156804096574584
-0.15487223863601685,0.701003909111023,70.77853393554688,-0.7013266451992157,-0.6583301997759076,-0.26740469087769,0.3086008729413151
1.2214224338531494,0.24964220821857452,70.66549682617188,-0.7057093240613983,-0.6531208348020711,-0.25851677258421385,0.3165229239190617
1.5383951663970947,1.196338176727295,70.64759826660156,-0.7098262829377845,-0.6477450374322432,-0.23551829258212847,0.3285727604602773
0.772080659866333,0.7125824093818665,70.66199493408203,-0.7135911381039961,-0.6421362608283143,-0.21626432736326656,0.34448043201118694
1.2898430824279785,1.0286598205566406,70.64579010009766,-0.7170523544112801,-0.6362740006954932,-0.19908162951081396,0.3589907839273412
-0.5642889142036438,-0.0878882184624672,70.69341278076172,-0.720319995863667,-0.6302254896021143,-0.19303534477561116,0.366830547278126
-0.5973803997039795,0.6610815525054932,70.77182006835938,-0.7236179230900597,-0.624071842054837,-0.202715922391508,0.3716071583951512
-0.22452741861343384,-0.1504410356283188,70.780029296875,-0.7270535987284125,-0.6178429282679124,-0.20956515421081978,0.3758624960357943
0.9462291598320007,-0.32930123805999756,70.72159576416016,-0.7304962331221193,-0.6116118687696553,-0.20355097303399838,0.37186464375505834
0.6405840516090393,-0.22295807301998138,70.55760955810547,-0.733778553977447,-0.6054524760481182,-0.19032752960532306,0.36726248282939183
0.6783283948898315,1.1939976215362549,70.47748565673828,-0.736859088328751,-0.5992640013656481,-0.1793365925511658,0.37535447906702746
-0.5025230050086975,1.9569838047027588,70.5846939086914,-0.736859088328751,-0.5992640013656481,-0.1793365925511658,0.37535447906702746
-0.41187870502471924,0,70.64769744873047,-0.7399115316566894,-0.5928721917280932,-0.18695660680144427,0.39166267743955047
0.745143711566925,0.1514589786529541,70.74513244628906,-0.7430043317001481,-0.5863339624528054,-0.18417939841359254,0.39292483559499175
0.10556244105100632,-1.4763163328170776,70.89321899414062,-0.7460149115242206,-0.579877219175817,-0.17709018047510977,0.38188435764362405
-0.5137046575546265,-1.8617079257965088,70.86297607421875,-0.7489947577416185,-0.5737442871219381,-0.18049136561263993,0.3540674888218442
-0.8276159763336182,-1.5369845628738403,70.87422180175781,-0.752096094434738,-0.5680791826199539,-0.19166903756170864,0.3257450514162579
0.5620195865631104,0.7380080223083496,70.91087341308594,-0.755309022587834,-0.5627055829116667,-0.19388234080979622,0.3190869135782122
0.6754612922668457,1.2647943496704102,70.9410171508789,-0.7584544587625229,-0.5572483841873092,-0.18357000015287991,0.3357769333447018
0.20334342122077942,1.6455405950546265,71.02632141113281,-0.7614529306599677,-0.5514499953715137,-0.17624662754048304,0.3600297245507438
0.29863253235816956,1.3930511474609375,71.24388122558594,-0.7643555150110883,-0.5452384866468822,-0.17206349459399178,0.38535132240504016
0.23692186176776886,0.05642056092619896,71.33074188232422,-0.7671860486436184,-0.5387153068492714,-0.16760054130960897,0.3974302533082663
0.6114687323570251,0.17711876332759857,71.30467224121094,-0.7699204749852977,-0.5320752512855049,-0.16053061969190235,0.3993764143437146
0.7922133207321167,-0.5852662324905396,71.24842071533203,-0.7724985073931426,-0.5254473212873572,-0.14883326924949283,0.39597518543402344
0.6882824897766113,0,71.2025146484375,-0.7748762496715711,-0.5188883783518242,-0.1364958041619201,0.3910979668299356
-1.0428754091262817,-0.062198396772146225,71.1888656616211,-0.7771758042492246,-0.5123743982377678,-0.13945074515650066,0.3905796468568344
-0.7215870022773743,0.8215544819831848,71.15287017822266,-0.7796225154470693,-0.5058120043953476,-0.15415459858486447,0.39690761423359305
1.04005765914917,-0.12710624933242798,71.05259704589844,-0.7796225154470693,-0.5058120043953476,-0.15415459858486447,0.39690761423359305
1.2551019191741943,0.5857871770858765,71.02909088134766,-0.782032372674989,-0.4991650246492493,-0.1350282687655031,0.4007299552982051
1.0080928802490234,-0.67330402135849,70.95164489746094,-0.7841256775155653,-0.49249226961957593,-0.11616831210364297,0.4000006482626
-0.8060159683227539,-2.1076879501342773,70.85413360595703,-0.7860477829317423,-0.4860187165909974,-0.11448433783759072,0.37682571516682695
-1.2893555164337158,-0.7403013110160828,70.6922378540039,-0.7881013671376991,-0.47993606503690794,-0.13194576687722798,0.3530924713239073
0.3483486771583557,0,70.60407257080078,-0.7903658109494914,-0.4741026003281078,-0.13978749053785597,0.3469232937321066
-0.11529882252216339,0.5564874410629272,70.4941177368164,-0.7926794184407726,-0.4682819004713878,-0.1378454084158877,0.35156068907429766
1.4388574361801147,-0.8054299354553223,70.31216430664062,-0.7948849281217556,-0.4624398433267045,-0.12681575330207143,0.34948616828769435
-0.11704204976558685,0.683560311794281,70.17389678955078,-0.7969067312749558,-0.45662353702355274,-0.11580062508195035,0.348470588090519
1.651741862297058,1.807772159576416,70.11100769042969,-0.798730165317118,-0.45064268468931,-0.10301145997752142,0.36923169201860817
-1.2467988729476929,0.610863983631134,70.32791900634766,-0.800418901942483,-0.44432086231238827,-0.09963693506627672,0.38938699321200443
-0.3143536150455475,0,70.56524658203125,-0.8021879308941426,-0.4377886579822138,-0.11264653913288705,0.3944775264089305
0.4887446463108063,-0.061458881944417953,70.72554779052734,-0.8040532627247418,-0.4312183005199777,-0.1111932805390099,0.3939653690593937
0.8336157202720642,0.7236030101776123,70.81504821777344,-0.8058146534860459,-0.4246062288045272,-0.10017361081748598,0.39948323679467035
-0.28783825039863586,-0.23904475569725037,70.84675598144531,-0.8074463124531517,-0.417914524979166,-0.0956254652352074,0.4035212222486734
-0.20362748205661774,-0.9721820950508118,70.92268371582031,-0.8090741997718256,-0.4112732842507678,-0.09972101300566785,0.3934276651591062
-0.41634300351142883,0.17204289138317108,70.96395874023438,-0.8107792701611957,-0.40477172172059295,-0.10488743371873491,0.3867598384618759
-0.06058762967586517,1.1885857582092285,70.93177795410156,-0.8107792701611957,-0.40477172172059295,-0.10488743371873491,0.3867598384618759
1.3827701807022095,0.0783691480755806,70.83682250976562,-0.8107792701611957,-0.40477172172059295,-0.10488743371873491,0.3867598384618759
-0.4573590159416199,0.34377521276474,70.88278198242188,-0.8107792701611957,-0.40477172172059295,-0.10488743371873491,0.3867598384618759
0.9870356917381287,-2.1572928428649902,70.8565673828125,-0.8107792701611957,-0.40477172172059295,-0.10488743371873491,0.3867598384618759
-0.48424673080444336,-1.3984049558639526,70.50447082519531,-0.8107792701611957,-0.40477172172059295,-0.10488743371873491,0.3867598384618759
0.4615168273448944,-2.13582181930542,69.93207550048828,-0.8107792701611957,-0.40477172172059295,-0.10488743371873491,0.3867598384618759
-0.23107680678367615,-3.0081257820129395,69.19094848632812,-0.8107792701611957,-0.40477172172059295,-0.10488743371873491,0.3867598384618759
0.0022992603480815887,-2.3751399517059326,68.24976348876953,-0.8107792701611957,-0.40477172172059295,-0.10488743371873491,0.3867598384618759
-0.12218078970909119,-0.36547258496284485,67.07276916503906,-0.8107792701611957,-0.40477172172059295,-0.10488743371873491,0.3867598384618759
-0.8601507544517517,-1.8792273998260498,65.54298400878906,-0.8107792701611957,-0.40477172172059295,-0.10488743371873491,0.3867598384618759
-1.2489230632781982,-2.359431028366089,63.89455032348633,-0.8107792701611957,-0.40477172172059295,-0.10488743371873491,0.3867598384618759
0.22453047335147858,-1.5663961172103882,62.17668151855469,-0.8107792701611957,-0.40477172172059295,-0.10488743371873491,0.3867598384618759
-1.4807369709014893,-1.8066790103912354,60.35016632080078,-0.8107792701611957,-0.40477172172059295,-0.10488743371873491,0.3867598384618759
1.5226801633834839,-0.6743630170822144,58.568546295166016,-0.8107792701611957,-0.40477172172059295,-0.10488743371873491,0.3867598384618759
-0.01693667657673359,-0.9542374014854431,56.80309295654297,-0.8107792701611957,-0.40477172172059295,-0.10488743371873491,0.3867598384618759
-0.10910961776971817,-0.9885781407356262,55.07632064819336,-0.8107792701611957,-0.40477172172059295,-0.10488743371873491,0.3867598384618759
0.18414832651615143,-1.0175786018371582,53.34870147705078,-0.8107792701611957,-0.40477172172059295,-0.10488743371873491,0.3867598384618759
-0.029940566048026085,-1.6060913801193237,51.61077117919922,-0.8107792701611957,-0.40477172172059295,-0.10488743371873491,0.3867598384618759
0.030438793823122978,-1.0036860704421997,49.843345642089844,-0.8107792701611957,-0.40477172172059295,-0.10488743371873491,0.3867598384618759
-0.1522679328918457,0.12473107129335403,48.032440185546875,-0.8107792701611957,-0.40477172172059295,-0.10488743371873491,0.3867598384618759
-0.26740896701812744,-0.9762317538261414,46.18293380737305,-0.8107792701611957,-0.40477172172059295,-0.10488743371873491,0.3867598384618759
0.9293737411499023,-1.0418013334274292,44.356388092041016,-0.8107792701611957,-0.40477172172059295,-0.10488743371873491,0.3867598384618759
-1.1447380781173706,-0.30168014764785767,42.529178619384766,-0.8107792701611957,-0.40477172172059295,-0.10488743371873491,0.3867598384618759
0.7125431895256042,-0.9585750699043274,40.74930191040039,-0.8107792701611957,-0.40477172172059295,-0.10488743371873491,0.3867598384618759
-2.0666589736938477,-0.2487531304359436,38.92239761352539,-0.8107792701611957,-0.40477172172059295,-0.10488743371873491,0.3867598384618759
1.0059765577316284,-0.2619630992412567,37.15044403076172,-0.8107792701611957,-0.40477172172059295,-0.10488743371873491,0.3867598384618759
0.6666043400764465,-1.7477003335952759,35.303688049316406,-0.8107792701611957,-0.40477172172059295,-0.10488743371873491,0.3867598384618759
0.11757365614175797,-0.6088268756866455,33.3957405090332,-0.8107792701611957,-0.40477172172059295,-0.10488743371873491,0.3867598384618759
-0.25024518370628357,-0.7945824265480042,31.40462303161621,-0.8107792701611957,-0.40477172172059295,-0.10488743371873491,0.3867598384618759
-1.0408802032470703,-0.28570756316185,29.367265701293945,-0.8107792701611957,-0.40477172172059295,-0.10488743371873491,0.3867598384618759
-0.17850254476070404,-1.162493109703064,27.3542423248291,-0.8107792701611957,-0.40477172172059295,-0.10488743371873491,0.3867598384618759
0.14941832423210144,0.013276499696075916,25.32415008544922,-0.8107792701611957,-0.40477172172059295,-0.10488743371873491,0.3867598384618759
-0.52828049659729,-0.821458637714386,23.26034927368164,-0.8107792701611957,-0.40477172172059295,-0.10488743371873491,0.3867598384618759
-0.15874795615673065,0.08289214223623276,21.211435317993164,-0.8107792701611957,-0.40477172172059295,-0.10488743371873491,0.3867598384618759
0.2041948437690735,-1.02686607837677,19.07489585876465,-0.8107792701611957,-0.40477172172059295,-0.10488743371873491,0.3867598384618759
-0.33003801107406616,0.3365127444267273,16.92228889465332,-0.8107792701611957,-0.40477172172059295,-0.10488743371873491,0.3867598384618759
-0.24989689886569977,-0.33360040187835693,14.749614715576172,-0.8107792701611957,-0.40477172172059295,-0.10488743371873491,0.3867598384618759
-0.048200588673353195,-0.024515092372894287,12.552477836608887,-0.8107792701611957,-0.40477172172059295,-0.10488743371873491,0.3867598384618759
-0.4458443522453308,0.5223344564437866,10.2899751663208,-0.8107792701611957,-0.40477172172059295,-0.10488743371873491,0.3867598384618759
0.28697705268859863,-0.2239314764738083,7.976553916931152,-0.8107792701611957,-0.40477172172059295,-0.10488743371873491,0.3867598384618759
-0.535737931728363,0.6542937755584717,5.684268951416016,-0.8107792701611957,-0.40477172172059295,-0.10488743371873491,0.3867598384618759
-0.39596953988075256,0.05331355333328247,3.3125383853912354,-0.8107792701611957,-0.40477172172059295,-0.10488743371873491,0.3867598384618759
-1.432971715927124,0.8762873411178589,0.9435921311378479,-0.8107792701611957,-0.40477172172059295,-0.10488743371873491,0.3867598384618759
0.6221650242805481,0.23930811882019043,-1.3340201377868652,-0.8107792701611957,-0.40477172172059295,-0.10488743371873491,0.3867598384618759
1.2787644863128662,-1.0213702917099,-3.6259872913360596,-0.8107792701611957,-0.40477172172059295,-0.10488743371873491,0.3867598384618759
0.06947977095842361,-1.0942707061767578,-5.950110912322998,-0.8107792701611957,-0.40477172172059295,-0.10488743371873491,0.3867598384618759
0.7377259135246277,-0.5703929662704468,-8.219850540161133,-0.8107792701611957,-0.40477172172059295,-0.10488743371873491,0.3867598384618759
-0.31613418459892273,-0.6708978414535522,-10.00384521484375,-0.8107792701611957,-0.40477172172059295,-0.10488743371873491,0.3867598384618759
0.03926481306552887,2.3250205516815186,-11.357641220092773,-0.8107792701611957,-0.40477172172059295,-0.10488743371873491,0.3867598384618759
-0.3738159239292145,1.929722547531128,-12.371053695678711,-0.8107792701611957,-0.40477172172059295,-0.10488743371873491,0.3867598384618759
0.6959781646728516,0.952917754650116,-13.044151306152344,-0.8107792701611957,-0.40477172172059295,-0.10488743371873491,0.3867598384618759
1.1223411560058594,0.8992645740509033,-13.364039421081543,-0.8107792701611957,-0.40477172172059295,-0.10488743371873491,0.3867598384618759
0.35028576850891113,0.9279738664627075,-13.411516189575195,-0.8107792701611957,-0.40477172172059295,-0.10488743371873491,0.3867598384618759
0.8572700619697571,-0.8355751633644104,-13.2831392288208,-0.8107792701611957,-0.40477172172059295,-0.10488743371873491,0.3867598384618759
1.2419058084487915,-0.7053095698356628,-13.209918975830078,-0.8107792701611957,-0.40477172172059295,-0.10488743371873491,0.3867598384618759
1.8276385068893433,-0.1163930594921112,-13.29389762878418,-0.8107792701611957,-0.40477172172059295,-0.10488743371873491,0.3867598384618759
0.733208179473877,-0.38817301392555237,-13.26236629486084,-0.8107792701611957,-0.40477172172059295,-0.10488743371873491,0.3867598384618759
-0.29707658290863037,0.028433766216039658,-13.238001823425293,-0.8107792701611957,-0.40477172172059295,-0.10488743371873491,0.3867598384618759
-0.2812415361404419,-0.07583534717559814,-13.248347282409668,-0.8107792701611957,-0.40477172172059295,-0.10488743371873491,0.3867598384618759
-0.5046220421791077,-0.03309706598520279,-13.237340927124023,-0.8107792701611957,-0.40477172172059295,-0.10488743371873491,0.3867598384618759
-0.2499745488166809,0.006837444845587015,-13.235417366027832,-0.8107792701611957,-0.40477172172059295,-0.10488743371873491,0.3867598384618759
-0.18414714932441711,-0.0908789411187172,-13.240364074707031,-0.8107792701611957,-0.40477172172059295,-0.10488743371873491,0.3867598384618759
0.04789355769753456,-0.11897663027048111,-13.23178482055664,-0.8107792701611957,-0.40477172172059295,-0.10488743371873491,0.3867598384618759
0.17542009055614471,-0.18021032214164734,-13.235252380371094,-0.8107792701611957,-0.40477172172059295,-0.10488743371873491,0.3867598384618759
0.35737133026123047,-0.13814836740493774,-13.243249893188477,-0.8107792701611957,-0.40477172172059295,-0.10488743371873491,0.3867598384618759
0.35034453868865967,-0.21080470085144043,-13.241687774658203,-0.8107792701611957,-0.40477172172059295,-0.10488743371873491,0.3867598384618759
0.32315412163734436,-0.1390671581029892,-13.242319107055664,-0.8107792701611957,-0.40477172172059295,-0.10488743371873491,0.3867598384618759
0.07980811595916748,-0.15277117490768433,-13.23974895477295,-0.8107792701611957,-0.40477172172059295,-0.10488743371873491,0.3867598384618759
0.008971505798399448,-0.0964760035276413,-13.239267349243164,-0.8107792701611957,-0.40477172172059295,-0.10488743371873491,0.3867598384618759
-0.0029963937122374773,-0.10244199633598328,-13.240589141845703,-0.8107792701611957,-0.40477172172059295,-0.10488743371873491,0.3867598384618759
0.08814927935600281,-0.13539035618305206,-13.24098014831543,-0.8107792701611957,-0.40477172172059295,-0.10488743371873491,0.3867598384618759
0.19130370020866394,-0.13947127759456635,-13.241130828857422,-0.8107792701611957,-0.40477172172059295,-0.10488743371873491,0.3867598384618759
0.16183117032051086,-0.15010163187980652,-13.241002082824707,-0.8107792701611957,-0.40477172172059295,-0.10488743371873491,0.3867598384618759
0.09909256547689438,-0.12868210673332214,-13.240482330322266,-0.8107792701611957,-0.40477172172059295,-0.10488743371873491,0.3867598384618759
0,-0.13494645059108734,-13.240227699279785,-0.8125205126283498,-0.3983440319515981,-0.10406166233976079,0.38456293381750584
0.08760281652212143,-0.13093502819538116,-13.24058723449707,-0.8142487901384207,-0.39195311371288877,-0.10333163886874311,0.3823472548276186
0.13787762820720673,-0.15222518146038055,-13.240561485290527,-0.815955325755349,-0.38560032336921013,-0.10145263516266538,0.3799875864138206
0.5744784474372864,-0.13272947072982788,-13.246529579162598,-0.8175967338361404,-0.379286985446493,-0.0955163345322946,0.3776129643122355
2.1999263763427734,-0.45519155263900757,-13.147994995117188,-0.8189960057433606,-0.3730342638901341,-0.07239629433412745,0.37271362245082856
2.4119651317596436,0.5261607766151428,-12.867399215698242,-0.8198823404053112,-0.3668174417642886,-0.03396386509994064,0.3733050326506297
0.8117814064025879,-0.6183096766471863,-12.538545608520508,-0.8202245335362711,-0.3606020904492803,-0.007099310615255379,0.3725371251503627
0.4046310782432556,-0.6640946865081787,-12.30222225189209,-0.8202583822906472,-0.3544821942219934,0.0030374600901266497,0.361850422124068
1.1060422658920288,0.059498220682144165,-12.05638313293457,-0.8201028500846912,-0.3484933397189413,0.01562640462458735,0.35681211824218434
1.322365641593933,0.06409848481416702,-11.854721069335938,-0.8196737705695949,-0.3425378879770232,0.035863137186970366,0.35784209078798696
1.3093340396881104,-1.194087266921997,-11.636289596557617,-0.8188932946941675,-0.3366523245737587,0.05779396786432073,0.34842551760375506
2.154726028442383,-1.498441457748413,-11.729508399963379,-0.8176895021694753,-0.3310322137751316,0.0866611350987415,0.32598777823150166
1.8104008436203003,0.5065370798110962,-11.89751148223877,-0.8159697938850475,-0.32566796638640777,0.1197038590325972,0.31772190841535736
1.0850871801376343,-0.36485716700553894,-11.802298545837402,-0.8137736540106322,-0.3203627623633181,0.14383292589724667,0.31890257435540365
0.48955121636390686,-0.4154199957847595,-11.686586380004883,-0.8112670886903655,-0.31510190537147736,0.15695491253475952,0.3124002646654845
0.6798431873321533,-0.662789523601532,-11.784414291381836,-0.8085699655367516,-0.3099701099547878,0.16669986589889335,0.3034151853372654
1.471492886543274,-0.6724151372909546,-11.759126663208008,-0.8056422360999732,-0.305005912745062,0.18462766651452192,0.29228847982982803
2.097322463989258,0.6273710131645203,-11.681476593017578,-0.8023172739253887,-0.300137566145407,0.21436779443562634,0.2919131121287744
0.7368298768997192,0.5575393438339233,-11.74702262878418,-0.8023172739253887,-0.300137566145407,0.21436779443562634,0.2919131121287744
0.3527640104293823,-1.5755622386932373,-11.671408653259277,-0.7986688111092859,-0.29534304364429265,0.22344774349670218,0.2834295880049468
0.15356795489788055,0.06532149016857147,-11.680120468139648,-0.7949095201089709,-0.2907240950073022,0.22766717654109603,0.2708442484339079
0.25783398747444153,-0.3602831959724426,-11.720712661743164,-0.7910864975872879,-0.2862305076518623,0.2310955260608654,0.26838623421887564
-1.680008053779602,0.05468123033642769,-11.893645286560059,-0.7873336675742113,-0.2817786261069391,0.2192440755083224,0.26583955117190883
0.6357300281524658,0.24240659177303314,-12.053304672241211,-0.7837521189564078,-0.27732733582198305,0.21054175862809626,0.268315283022821
1.0787616968154907,-0.7738663554191589,-11.910932540893555,-0.7801240277205945,-0.2728923213663003,0.2248291896694959,0.2638864516591033
1.3309438228607178,0.27965325117111206,-11.90057373046875,-0.7762095338983477,-0.2685285341931103,0.24491006900013096,0.2597680091237029
0.14653125405311584,-0.726585865020752,-11.91676139831543,-0.7720250969791154,-0.2642301043614548,0.25722236130774623,0.2560435706749559
1.0040037631988525,0,-11.941664695739746,-0.7676581593588994,-0.26001316886860976,0.2668101531181793,0.24998868846644964
1.1510305404663086,-1.3503485918045044,-11.959033966064453,-0.7630616683136197,-0.25594046493526645,0.284768772315389,0.23873578353474545
0,1.421325922012329,-11.780673027038574,-0.7582355894319419,-0.2519566062284229,0.29436069348594157,0.23932726128647733
0.5591764450073242,-0.6967982053756714,-11.607065200805664,-0.7532907461762729,-0.24791750411554853,0.29902049719433593,0.2453649922584495
0.4150700569152832,-0.1860501915216446,-11.450774192810059,-0.748239415215956,-0.2438893964943589,0.307139218043691,0.2380079222843052
0.5764341354370117,-0.46293163299560547,-11.374374389648438,-0.7430515737907589,-0.23996766597187863,0.3154017529799601,0.23259974041332812
0.05328948795795441,-0.3603295385837555,-11.281282424926758,-0.7377511471005794,-0.2361481745463495,0.32064944984158483,0.22573923065016677
1.0972837209701538,-0.08825896680355072,-11.227530479431152,-0.732327088685933,-0.2324170060150542,0.33023755991598575,0.22200099310527255
1.6477223634719849,0.07996837794780731,-11.175141334533691,-0.7266325039314692,-0.22871756519863684,0.35311261061967025,0.22193190486480802
-0.09547567367553711,-0.12249027192592621,-11.212339401245117,-0.7266325039314692,-0.22871756519863684,0.35311261061967025,0.22193190486480802
1.1900638341903687,-0.0779961422085762,-11.195268630981445,-0.7206712806877722,-0.22503262278520494,0.3622341786239605,0.2202611847470205
0.1851678043603897,-0.20234547555446625,-11.172060012817383,-0.7145385421802513,-0.22138107120732148,0.37369444227855014,0.21792500459899514
-1.1792106628417969,0.14288736879825592,-11.170272827148438,-0.70837933222967,-0.21775311683252963,0.3654107517912051,0.21742952037602672
-1.2398334741592407,0,-11.276987075805664,-0.7024571422093305,-0.21411936875898485,0.3452520506495298,0.21862024844934552
-1.394279956817627,0.2644060254096985,-11.336820602416992,-0.6968858659089895,-0.2104573364219534,0.32330110539138923,0.22082363199442634
0.8688141703605652,0.4030110538005829,-11.515286445617676,-0.6915340048320814,-0.20673059414710115,0.3189222238375804,0.22638544098784535
0.5341671705245972,-1.6638849973678589,-11.620741844177246,-0.6861212051750046,-0.2030450641544959,0.33061373501162344,0.21587815812478472
1.941096305847168,-1.0715922117233276,-11.489858627319336,-0.680439082961174,-0.19963705854749195,0.35124093064805484,0.1930825147156915
1.0254467725753784,0.4164804220199585,-11.508599281311035,-0.6743790575143714,-0.1964645105098487,0.3759621229682427,0.18762324980149675
-0.4831269383430481,-0.2307690978050232,-11.592841148376465,-0.668075361031968,-0.19332455972675328,0.3804814549201788,0.18917084416995456
0.27207884192466736,0,-11.55362606048584,-0.6617486595677718,-0.19018773795571273,0.378722720783359,0.1872477683549127
-0.1830143928527832,0.5940864086151123,-11.424566268920898,-0.655430429190197,-0.1870256858158659,0.3794649245256247,0.19219848842670528
0.2997249662876129,-0.08702784031629562,-11.384614944458008,-0.6490979088805037,-0.1837871652748445,0.38043751263758163,0.1964239764958621
0,-1.2134013175964355,-11.522997856140137,-0.6427364694361073,-0.1806037399136574,0.38293522068997843,0.18558706684658935
-0.10997706651687622,-0.44078120589256287,-11.696701049804688,-0.6363618530542269,-0.17762549591923432,0.38201874513567113,0.17180221248418104
1.5927300453186035,0.34308919310569763,-11.795103073120117,-0.6363618530542269,-0.17762549591923432,0.38201874513567113,0.17180221248418104
0.10978469997644424,-0.6961639523506165,-11.70661735534668,-0.6298766437779869,-0.17478664479166775,0.39620636801312986,0.1688599228238067
-1.630926489830017,0.19625696539878845,-11.585065841674805,-0.623378839157619,-0.17200702850758706,0.3835301864310168,0.1646940312658748
-1.322222113609314,-0.2325436919927597,-11.53882884979248,-0.6171917491478965,-0.16926464789805817,0.35892061473568904,0.16439164187759173
-0.9407209753990173,1.237596035003662,-11.58057689666748,-0.6113668877279274,-0.16645499189850033,0.3400627556606196,0.17276707806934924
0.8951654434204102,0,-11.592827796936035,-0.6057023387121934,-0.16348959642824704,0.33968312622746455,0.18308037836104643
0.8492496609687805,-0.49386048316955566,-11.566001892089844,-0.5999198133372642,-0.16047255265578303,0.35421991876404113,0.17896487433463346
1.0906610488891602,0.1469918191432953,-11.368876457214355,-0.5938814320030122,-0.15751389285187428,0.3703858413461906,0.1760743021344146
0.07624419778585434,-0.6500808000564575,-11.275690078735352,-0.5876272995606677,-0.15461425788441968,0.38011005173514906,0.17188189396013825
0.4616064429283142,-0.8581002950668335,-11.242147445678711,-0.58125478129281,-0.15185429445002316,0.3845921404077671,0.15931371816744416
0.5316791534423828,0.463743656873703,-11.202802658081055,-0.5747759341195993,-0.14922645169155138,0.39286952037752293,0.15602741284916807
1.2088762521743774,0.6340460777282715,-11.243712425231934,-0.5681072368768061,-0.14654975941249568,0.4073741487576626,0.16517566063751787
0.7473961710929871,-0.4765351116657257,-11.211557388305664,-0.5611818154792293,-0.1437858934736716,0.4236764189515573,0.16648825202137243
0.20570255815982819,0,-11.104555130004883,-0.554054354418283,-0.1410441819894033,0.4316189083619974,0.16251712609082472
-2.385085105895996,-1.133866786956787,-11.123469352722168,-0.5470120519558425,-0.13841430397031712,0.41345738713086266,0.15306823619951815
1.293967366218567,0.1518203318119049,-11.164271354675293,-0.5401968675689168,-0.13593136437082132,0.40436473930021744,0.14488451573997746
0.2825038433074951,0.7145035266876221,-11.18990421295166,-0.5401968675689168,-0.13593136437082132,0.40436473930021744,0.14488451573997746
0,-0.6408097743988037,-11.388683319091797,-0.5334378369247946,-0.13351150482013496,0.4067189379944466,0.14549863034238428
-0.5781187415122986,-1.2060898542404175,-11.575286865234375,-0.5266993350930478,-0.1312147845664174,0.4019012818151774,0.1301078001037241
-2.3331496715545654,0.7061606049537659,-11.68410873413086,-0.5202031518137022,-0.12908103854033356,0.3776407117062869,0.12594172302633536
-1.106947898864746,0,-11.78474235534668,-0.5141480356165432,-0.1269329708923284,0.3489732319527926,0.1318263947342834
0.13746993243694305,-0.4372442960739136,-11.823893547058105,-0.5083991399427764,-0.12476622850065104,0.3408942488992276,0.1281826922670008
1.1449848413467407,-0.32532113790512085,-11.75798225402832,-0.5026285097684987,-0.12268280622911625,0.3515813720140916,0.12182798031717551
2.116793632507324,0.47025102376937866,-11.769031524658203,-0.49654230784091286,-0.12064227531508942,0.37876285929620884,0.12303572936604433
-0.5603001117706299,-1.1731873750686646,-11.897173881530762,-0.49012150369148044,-0.11864049485005113,0.3917336386356813,0.11717792643855028
0,-0.3066360652446747,-11.997115135192871,-0.4836315194442032,-0.11679029492609705,0.3870644710375927,0.10484606443593912
0.5782467722892761,0.7164420485496521,-12.084224700927734,-0.47714028890105653,-0.11501440176999077,0.39188319414000333,0.10826111429681393
-0.19345183670520782,-0.24050720036029816,-12.123109817504883,-0.4705821804615298,-0.11317699883391961,0.3950898186032039,0.11222723803172521
-0.2305075079202652,-0.9826973676681519,-12.018362998962402,-0.4640267917726309,-0.11139148962839283,0.3915568240646583,0.10203386663148813
0.9171913266181946,-0.12573011219501495,-11.831603050231934,-0.4574531583285881,-0.10976789931508076,0.3972791892204744,0.09279697096596173
-0.2375638782978058,1.2754498720169067,-11.647432327270508,-0.45078464215766906,-0.1081414414823271,0.40294275128981094,0.1023779689644775
1.0947577953338623,-0.3290863335132599,-11.56760311126709,-0.4440094022808225,-0.10636942230941195,0.41008603393177806,0.11026433178534122
0.0661662220954895,-0.7313323020935059,-11.467520713806152,-0.4440094022808225,-0.10636942230941195,0.41008603393177806,0.11026433178534122
-0.5978168249130249,0.7093633413314819,-11.307516098022461,-0.4440094022808225,-0.10636942230941195,0.41008603393177806,0.11026433178534122
-0.7176943421363831,-0.3489055633544922,-11.135805130004883,-0.4440094022808225,-0.10636942230941195,0.41008603393177806,0.11026433178534122
-2.236067056655884,-0.6388010382652283,-11.173490524291992,-0.4440094022808225,-0.10636942230941195,0.41008603393177806,0.11026433178534122
-2.036510467529297,0.8916722536087036,-11.435776710510254,-0.4440094022808225,-0.10636942230941195,0.41008603393177806,0.11026433178534122
-2.8756916522979736,0.05099928751587868,-12.033464431762695,-0.4440094022808225,-0.10636942230941195,0.41008603393177806,0.11026433178534122
-0.743391752243042,-1.0564699172973633,-12.839604377746582,-0.4440094022808225,-0.10636942230941195,0.41008603393177806,0.11026433178534122
-1.5736716985702515,0.2662205398082733,-13.938267707824707,-0.4440094022808225,-0.10636942230941195,0.41008603393177806,0.11026433178534122
-0.990230917930603,-0.5638281106948853,-15.175025939941406,-0.4440094022808225,-0.10636942230941195,0.41008603393177806,0.11026433178534122
-1.9203547239303589,-0.04173929989337921,-16.443471908569336,-0.4440094022808225,-0.10636942230941195,0.41008603393177806,0.11026433178534122
-0.9694779515266418,0.19164180755615234,-17.811534881591797,-0.4440094022808225,-0.10636942230941195,0.41008603393177806,0.11026433178534122
-1.1630929708480835,0.31554296612739563,-19.239595413208008,-0.4440094022808225,-0.10636942230941195,0.41008603393177806,0.11026433178534122
-1.0836743116378784,-0.08423417061567307,-20.74007797241211,-0.4440094022808225,-0.10636942230941195,0.41008603393177806,0.11026433178534122
-0.6353570818901062,0.07223264873027802,-22.377695083618164,-0.4440094022808225,-0.10636942230941195,0.41008603393177806,0.11026433178534122
-0.9701399803161621,-1.188362717628479,-24.044851303100586,-0.4440094022808225,-0.10636942230941195,0.41008603393177806,0.11026433178534122
-0.426766961812973,1.4754745960235596,-25.71636199951172,-0.4440094022808225,-0.10636942230941195,0.41008603393177806,0.11026433178534122
-1.5762104988098145,-0.28320515155792236,-27.36117935180664,-0.4440094022808225,-0.10636942230941195,0.41008603393177806,0.11026433178534122
-1.0101089477539062,-1.0445550680160522,-29.088586807250977,-0.4440094022808225,-0.10636942230941195,0.41008603393177806,0.11026433178534122
-1.4568785429000854,-0.08340442180633545,-30.86200523376465,-0.4440094022808225,-0.10636942230941195,0.41008603393177806,0.11026433178534122
-0.061028335243463516,-0.25755858421325684,-32.71092987060547,-0.4440094022808225,-0.10636942230941195,0.41008603393177806,0.11026433178534122
-0.25891730189323425,-0.6513179540634155,-34.579402923583984,-0.4440094022808225,-0.10636942230941195,0.41008603393177806,0.11026433178534122
-1.4187730550765991,-0.340698778629303,-36.557254791259766,-0.4440094022808225,-0.10636942230941195,0.41008603393177806,0.11026433178534122
-0.979098379611969,0.47990891337394714,-38.623512268066406,-0.4440094022808225,-0.10636942230941195,0.41008603393177806,0.11026433178534122
-0.6098417043685913,0.6495301723480225,-40.71611022949219,-0.4440094022808225,-0.10636942230941195,0.41008603393177806,0.11026433178534122
-0.09791412949562073,0.15710902214050293,-42.922298431396484,-0.4440094022808225,-0.10636942230941195,0.41008603393177806,0.11026433178534122
-0.5127711892127991,0.022834306582808495,-45.18113327026367,-0.4440094022808225,-0.10636942230941195,0.41008603393177806,0.11026433178534122
-0.5249611139297485,-0.596962571144104,-47.493064880371094,-0.4440094022808225,-0.10636942230941195,0.41008603393177806,0.11026433178534122
-0.42525726556777954,0.9912025332450867,-49.862457275390625,-0.4440094022808225,-0.10636942230941195,0.41008603393177806,0.11026433178534122
-1.2466373443603516,-0.08370120078325272,-52.2553596496582,-0.4440094022808225,-0.10636942230941195,0.41008603393177806,0.11026433178534122
-0.27686548233032227,-0.16659489274024963,-54.69438552856445,-0.4440094022808225,-0.10636942230941195,0.41008603393177806,0.11026433178534122
-0.7189444303512573,-0.7744957804679871,-57.196876525878906,-0.4440094022808225,-0.10636942230941195,0.41008603393177806,0.11026433178534122
-0.3469840884208679,0.49391859769821167,-59.70824432373047,-0.4440094022808225,-0.10636942230941195,0.41008603393177806,0.11026433178534122
-0.6137347221374512,-0.5384175777435303,-62.25806427001953,-0.4440094022808225,-0.10636942230941195,0.41008603393177806,0.11026433178534122
-0.6582001447677612,0.08190038055181503,-64.82349395751953,-0.4440094022808225,-0.10636942230941195,0.41008603393177806,0.11026433178534122
-1.4573736190795898,0.018557505682110786,-67.36468505859375,-0.4440094022808225,-0.10636942230941195,0.41008603393177806,0.11026433178534122
0.29385673999786377,-0.04380098730325699,-69.8326644897461,-0.4440094022808225,-0.10636942230941195,0.41008603393177806,0.11026433178534122
-0.7595267295837402,0.4284377992153168,-72.37080383300781,-0.4440094022808225,-0.10636942230941195,0.41008603393177806,0.11026433178534122
-0.3360268771648407,0.13844524323940277,-74.9038314819336,-0.4440094022808225,-0.10636942230941195,0.41008603393177806,0.11026433178534122
-1.6210176944732666,-0.2742171585559845,-77.44922637939453,-0.4440094022808225,-0.10636942230941195,0.41008603393177806,0.11026433178534122
0.7901527881622314,1.2521882057189941,-80.08824157714844,-0.4440094022808225,-0.10636942230941195,0.41008603393177806,0.11026433178534122
-1.3478118181228638,-0.049141544848680496,-82.68742370605469,-0.4440094022808225,-0.10636942230941195,0.41008603393177806,0.11026433178534122
1.180762529373169,0.5238677263259888,-85.3252182006836,-0.4440094022808225,-0.10636942230941195,0.41008603393177806,0.11026433178534122
-0.8981375098228455,0.1702660471200943,-87.98863220214844,-0.4440094022808225,-0.10636942230941195,0.41008603393177806,0.11026433178534122
0.5153520703315735,-0.01393749937415123,-90.63605499267578,-0.4440094022808225,-0.10636942230941195,0.41008603393177806,0.11026433178534122
0.18978913128376007,0.600233256816864,-93.27809143066406,-0.4440094022808225,-0.10636942230941195,0.41008603393177806,0.11026433178534122
0.3751327097415924,0.6868422627449036,-95.88003540039062,-0.4440094022808225,-0.10636942230941195,0.41008603393177806,0.11026433178534122
-1.000788927078247,-0.17004406452178955,-98.09619903564453,-0.4440094022808225,-0.10636942230941195,0.41008603393177806,0.11026433178534122
1.1343262195587158,0.10352184623479843,-99.86729431152344,-0.4440094022808225,-0.10636942230941195,0.41008603393177806,0.11026433178534122
1.4340099096298218,-0.1135113313794136,-101.30950927734375,-0.4440094022808225,-0.10636942230941195,0.41008603393177806,0.11026433178534122
0.46122658252716064,-1.0220450162887573,-102.40338134765625,-0.4440094022808225,-0.10636942230941195,0.41008603393177806,0.11026433178534122
1.318595290184021,-0.11268100142478943,-103.25597381591797,-0.4440094022808225,-0.10636942230941195,0.41008603393177806,0.11026433178534122
0.32557839155197144,-0.3687278628349304,-103.81745910644531,-0.4440094022808225,-0.10636942230941195,0.41008603393177806,0.11026433178534122
0.7213815450668335,-0.9386641383171082,-104.1341323852539,-0.4440094022808225,-0.10636942230941195,0.41008603393177806,0.11026433178534122
0.8261788487434387,-0.2781050503253937,-104.25847625732422,-0.4440094022808225,-0.10636942230941195,0.41008603393177806,0.11026433178534122
-0.20500202476978302,-0.2246861308813095,-104.19660186767578,-0.4440094022808225,-0.10636942230941195,0.41008603393177806,0.11026433178534122
-0.16977068781852722,-0.184248685836792,-104.13225555419922,-0.4440094022808225,-0.10636942230941195,0.41008603393177806,0.11026433178534122
-0.22089500725269318,-0.18466922640800476,-104.14353942871094,-0.4440094022808225,-0.10636942230941195,0.41008603393177806,0.11026433178534122
-0.15193474292755127,-0.26267707347869873,-104.1591567993164,-0.4440094022808225,-0.10636942230941195,0.41008603393177806,0.11026433178534122
-0.16106970608234406,-0.15570209920406342,-104.14208984375,-0.4440094022808225,-0.10636942230941195,0.41008603393177806,0.11026433178534122
-0.07143636047840118,-0.04376143217086792,-104.14892578125,-0.4440094022808225,-0.10636942230941195,0.41008603393177806,0.11026433178534122
-0.11947236955165863,0.011561696417629719,-104.15457153320312,-0.4440094022808225,-0.10636942230941195,0.41008603393177806,0.11026433178534122
-0.11113988608121872,-0.03228405863046646,-104.14851379394531,-0.4440094022808225,-0.10636942230941195,0.41008603393177806,0.11026433178534122
-0.09855283051729202,-0.102869413793087,-104.15152740478516,-0.4440094022808225,-0.10636942230941195,0.41008603393177806,0.11026433178534122
-0.16890940070152283,-0.12374434620141983,-104.15194702148438,-0.4440094022808225,-0.10636942230941195,0.41008603393177806,0.11026433178534122
-0.12091442942619324,-0.13669125735759735,-104.14990234375,-0.4440094022808225,-0.10636942230941195,0.41008603393177806,0.11026433178534122
-0.1066054254770279,-0.09264564514160156,-104.1512222290039,-0.4440094022808225,-0.10636942230941195,0.41008603393177806,0.11026433178534122
-0.1470845490694046,-0.05832439288496971,-104.14967346191406,-0.4440094022808225,-0.10636942230941195,0.41008603393177806,0.11026433178534122
-0.11137470602989197,-0.08239100873470306,-104.14945983886719,-0.4440094022808225,-0.10636942230941195,0.41008603393177806,0.11026433178534122
-0.12406467646360397,-0.0918605700135231,-104.14994812011719,-0.4440094022808225,-0.10636942230941195,0.41008603393177806,0.11026433178534122
-0.13356176018714905,-0.11455909162759781,-104.14939880371094,-0.4440094022808225,-0.10636942230941195,0.41008603393177806,0.11026433178534122
-0.11243272572755814,-0.08187022805213928,-104.14971923828125,-0.4440094022808225,-0.10636942230941195,0.41008603393177806,0.11026433178534122
-0.13451717793941498,-0.07645796984434128,-104.15016174316406,-0.4440094022808225,-0.10636942230941195,0.41008603393177806,0.11026433178534122
-0.13436569273471832,-0.08715634047985077,-104.14987182617188,-0.4440094022808225,-0.10636942230941195,0.41008603393177806,0.11026433178534122
-0.11816878616809845,-0.1056036502122879,-104.15115356445312,-0.43719217216521666,-0.10454506955678766,0.40798157994092127,0.10865799852957339
-0.14191649854183197,-0.09932775795459747,-104.150390625,-0.43041054064430617,-0.10274833426241747,0.4058142025683385,0.10695023679484934
0,-0.4968000054359436,-104.13224029541016,-0.42365682591389925,-0.10100722807718322,0.4046315650804899,0.1019825054332615
-0.2420736700296402,-1.7162905931472778,-104.03417205810547,-0.4169297771674209,-0.09946120650041937,0.40261428449690956,0.08354008377840132
-0.5667548179626465,-2.275726556777954,-103.84748077392578,-0.4102757077374719,-0.0983460951839686,0.3958740470969738,0.05027327419569105
-1.1596157550811768,-2.133354425430298,-103.82263946533203,-0.4037976937978726,-0.0978143934600271,0.381487625654942,0.013530932677288957
-0.45662516355514526,-1.4145019054412842,-103.80355834960938,-0.39755180565630666,-0.0978352568272717,0.36801895133297263,-0.016034536746640893
0.17571690678596497,-1.2594573497772217,-103.66397857666016,-0.391437663985255,-0.09828819072132812,0.36567804919322944,-0.038317530540128444
0.16631679236888885,-1.675572156906128,-103.63594055175781,-0.3853192774918154,-0.09913063772384993,0.3685283300195199,-0.06277610976248969
-1.32004714012146,-1.7891048192977905,-103.5403060913086,-0.3792572588211951,-0.10041750878768337,0.35891391045491516,-0.09164841789752234
-0.8795612454414368,-1.5811643600463867,-103.42347717285156,-0.3734281108959439,-0.10217902889009653,0.34058384057522434,-0.11973399439205715
0.17316661775112152,-0.5391191244125366,-103.5235595703125,-0.367800768735502,-0.10432183737194047,0.33469721867780505,-0.13740302342921484
-1.1860623359680176,-1.3842637538909912,-103.60750579833984,-0.3622928217379703,-0.10674545601786513,0.3262564210259976,-0.15343121408174423
0.5529847145080566,-1.4401559829711914,-103.49710845947266,-0.3568991784445828,-0.10949878317873185,0.3209807741804979,-0.17696804522226242
-0.6523103713989258,-0.7656087279319763,-103.53487396240234,-0.3515563964899697,-0.11260142870402673,0.320153060373074,-0.19534941781312215
0.2094755321741104,-0.5845012068748474,-103.69245910644531,-0.3462512645698091,-0.11595100996860702,0.31646277004620055,-0.20660033393651234
-0.21952833235263824,-2.369635820388794,-103.876953125,-0.3409775831801626,-0.11959949727221998,0.3163789967113795,-0.23121814249704267
-0.8541429042816162,0.13203491270542145,-103.9570541381836,-0.3409775831801626,-0.11959949727221998,0.3163789967113795,-0.23121814249704267
-0.5220750570297241,-1.6280994415283203,-103.95178985595703,-0.33580017059339734,-0.12355702635056118,0.30491051370045164,-0.24368534690390017
0,0.9018433094024658,-103.82745361328125,-0.3307545839106835,-0.12766888325257936,0.3005598882252039,-0.2497374813382823
-0.109697125852108,1.0458017587661743,-103.7562026977539,-0.3257528702962254,-0.13169592147848347,0.2996457455097697,-0.2335071057702103
-0.9224768877029419,1.690802812576294,-103.8192138671875,-0.32083045328867055,-0.13539766459053262,0.2910442953968109,-0.21070206767568975
0.6850646138191223,0.2703306972980499,-103.85819244384766,-0.3159962019955212,-0.13877317589138619,0.28906585978111243,-0.1943592884267369
-0.5807896852493286,-2.2492401599884033,-103.8202896118164,-0.311171196351352,-0.1421499216334075,0.28993481751919403,-0.21085020061582316
0.6269182562828064,-2.021045446395874,-103.87684631347656,-0.3063357460197103,-0.14596063925522568,0.2903192222778063,-0.2464359140023588
0.3256017863750458,-1.634832501411438,-103.94721221923828,-0.30143094508989565,-0.1503217849016405,0.2982568892999551,-0.27690156356741974
-1.3596323728561401,-0.7660022377967834,-103.87440490722656,-0.2965318046145131,-0.15510353559576473,0.28963996774594597,-0.2969085197274883
-0.08162515610456467,-0.2022198885679245,-103.799072265625,-0.2918045591471474,-0.16011924857222043,0.2776294883379401,-0.3049770374471942
1.055528163909912,0.39706093072891235,-103.79242706298828,-0.28710976885486195,-0.1651886685684125,0.285745346736318,-0.3033533620958526
-1.0693737268447876,-0.5889891386032104,-103.74818420410156,-0.2823483079066827,-0.17025788628444574,0.28562996704519406,-0.30495276382813846
-0.6903172135353088,-0.33811503648757935,-103.63809204101562,-0.27771000921567807,-0.17540481458262935,0.2709658758753599,-0.31267863195389506
0.2802051901817322,-1.5750924348831177,-103.60608673095703,-0.27322239128604386,-0.18074898674515058,0.2675482756807468,-0.3286220275486509
-0.5989786982536316,-0.33996057510375977,-103.52296447753906,-0.26878539040720306,-0.1863590103299883,0.26489182978014764,-0.34458080263187485
-0.5049382448196411,-0.33266645669937134,-103.48985290527344,-0.2644471874763585,-0.1921487339177281,0.2556925219212037,-0.35018602789690095
-0.6998404264450073,0.19443875551223755,-103.41650390625,-0.2644471874763585,-0.1921487339177281,0.2556925219212037,-0.35018602789690095
0.16510000824928284,-0.1384291797876358,-103.40096282958984,-0.260222780195602,-0.19798127816214003,0.25123635176957265,-0.3497192814325293
0,-0.9372059106826782,-103.41503143310547,-0.2560240423877585,-0.20388462973396485,0.25261218517165,-0.3586829071864486
-0.34059077501296997,0.5063374042510986,-103.43778228759766,-0.25183749143871803,-0.20989259961113008,0.2497739287132086,-0.3622734780733784
0.30502599477767944,1.3619256019592285,-103.48409271240234,-0.24767706240323645,-0.21580075042581068,0.24947755554458118,-0.34670461968829236
0.669365406036377,0.44830358028411865,-103.43594360351562,-0.2434514370746591,-0.22145345039407088,0.25759748388469833,-0.3316193765029311
-0.5605514645576477,-0.40161311626434326,-103.47225952148438,-0.239150589152867,-0.22697719760911836,0.2585042667303544,-0.3312302893027663
-0.5645685195922852,-1.5643949508666992,-103.45687103271484,-0.23492031803959373,-0.23263423076882633,0.24912826686243833,-0.34761368986219165
-0.8220792412757874,-1.0009276866912842,-103.48898315429688,-0.2308644752419467,-0.2386059396719155,0.2375728688552044,-0.36899137850850816
0.318652480840683,-0.7863482236862183,-103.61366271972656,-0.22693988761939018,-0.24487991236305576,0.23337764585157852,-0.3838853444283207
-0.4406644105911255,0.34893685579299927,-103.7137451171875,-0.22305873323920766,-0.2513083772262981,0.23236087977032482,-0.3875304391607642
0.5409114956855774,-0.42131662368774414,-103.77662658691406,-0.21917909030657068,-0.257772244251748,0.2331962721461119,-0.3881336038932204
1.0367043018341064,-1.0690627098083496,-103.92776489257812,-0.21518292911819661,-0.2643446362147944,0.24634307045877593,-0.4005534316723545
-1.4900243282318115,0,-103.98308563232422,-0.21110869183460573,-0.2710947672086259,0.24256540357212839,-0.4094622875874241
-1.2905913591384888,-0.7085019946098328,-103.83415222167969,-0.20725903342002652,-0.2779683401958198,0.21939360617737588,-0.4153664708758394
-0.3345119059085846,1.6249700784683228,-103.765869140625,-0.20725903342002652,-0.2779683401958198,0.21939360617737588,-0.4153664708758394
0.4599127471446991,-0.09633675962686539,-103.83824920654297,-0.20359376492531775,-0.2847849596188309,0.22043861318767682,-0.40262785988549393
0.8570103049278259,-0.47901591658592224,-103.80707550048828,-0.19982833504912922,-0.291535378997215,0.23141297195494787,-0.4074224655206005
1.0458253622055054,-0.6758083701133728,-103.72998809814453,-0.19583931081744027,-0.29840594955357913,0.24726993584772564,-0.41704600124309466
-1.01059091091156,2.8216352462768555,-103.68621063232422,-0.19171569838308278,-0.3052077004856749,0.24756355627517518,-0.39916411060839896
0.24580027163028717,-0.9156578183174133,-103.68408203125,-0.18764274957289107,-0.31172807611887327,0.24119030094783123,-0.3832809653754036
-0.1207384467124939,0.4285716712474823,-103.63677215576172,-0.18361422637480793,-0.31814991763534317,0.24223248282214618,-0.3873400166009864
-0.7410522699356079,-1.5164375305175781,-103.54326629638672,-0.17963686490531716,-0.32468113081892,0.23505089351674532,-0.3964055654282372
0.21213030815124512,-0.24192318320274353,-103.45539093017578,-0.175756080705162,-0.3314099986256212,0.23064321050187564,-0.4110585713759065
-1.1773548126220703,-0.9889677166938782,-103.44561004638672,-0.17197905667627453,-0.3383464533499347,0.22259967296461877,-0.4213159955417117
0.07586444914340973,-0.1759720891714096,-103.40727233886719,-0.1683455545132169,-0.34544928520659274,0.2134205866022966,-0.43102382725725574
-0.218438521027565,0.27317267656326294,-103.39923858642578,-0.16479844571372612,-0.35262626562008925,0.21223246933659531,-0.43021382236232364
-0.5920712351799011,0.36527374386787415,-103.29135131835938,-0.16131752329118615,-0.3597521594358203,0.20547822136819976,-0.4248934355253975
0.9272282719612122,-0.9203276038169861,-103.28948974609375,-0.1578696114741619,-0.3668722621015178,0.2082711966747107,-0.42951888435830676
0.15744993090629578,-0.16072939336299896,-103.31439971923828,-0.1578696114741619,-0.3668722621015178,0.2082711966747107,-0.42951888435830676
-1.0945518016815186,-0.24514921009540558,-103.19369506835938,-0.15446350138172055,-0.3740590961882853,0.2004620144182505,-0.43290120605379345
0.11031977832317352,0.6143531799316406,-103.12324523925781,-0.1511908172541496,-0.3812484771246099,0.1922600808902643,-0.42982450630515817
0.13348841667175293,-0.17538605630397797,-103.20436096191406,-0.14796955144799276,-0.38838173506833285,0.19429181584855537,-0.42616644694159433
-0.7642629742622375,0.9845094084739685,-103.45069885253906,-0.14477515830590507,-0.3954283200623476,0.189035361201968,-0.41942375234017776
0.06508343666791916,0.10098236054182053,-103.6208724975586,-0.1416731230870941,-0.40234333456183563,0.1832088650553487,-0.4103779875983795
-0.32704198360443115,-0.32171395421028137,-103.68253326416016,-0.13863783356859777,-0.40919829627136894,0.1810258771642111,-0.4122174175456167
0.2667393088340759,-0.28302231431007385,-103.7264404296875,-0.13562492330160886,-0.4161105821379987,0.18052335487445814,-0.417256886449953
1.5829250812530518,-1.8251452445983887,-103.85368347167969,-0.13248775180438963,-0.4232112641037554,0.19593722479185088,-0.43482494944085687
-1.1634423732757568,0.601506769657135,-104.049560546875,-0.12919300064758257,-0.43054332148852953,0.199432914024995,-0.445021936732034
-1.7464723587036133,-0.877829909324646,-104.04085540771484,-0.126071196159109,-0.4379795428743181,0.17518362459183356,-0.4473246295625966
-0.10782381892204285,1.2045592069625854,-103.96602630615234,-0.12328023965046911,-0.44541226383246985,0.1597311564449531,-0.4446018854156138
0,0.6846988797187805,-104.0089340209961,-0.12062554147492281,-0.45269109677782166,0.15883262462060274,-0.4288580680266024
1.1169238090515137,-0.7858865857124329,-103.98180389404297,-0.11790076691117307,-0.459845758168959,0.16814032302936535,-0.42970129890988285
0.6649248600006104,-1.7107553482055664,-103.96163177490234,-0.11790076691117307,-0.459845758168959,0.16814032302936535,-0.42970129890988285
-1.7739912271499634,0.6574648022651672,-103.88992309570312,-0.11790076691117307,-0.459845758168959,0.16814032302936535,-0.42970129890988285
1.057381272315979,-0.19639359414577484,-103.81889343261719,-0.11790076691117307,-0.459845758168959,0.16814032302936535,-0.42970129890988285
-0.4899930953979492,0.3403380811214447,-103.7772445678711,-0.11790076691117307,-0.459845758168959,0.16814032302936535,-0.42970129890988285
-1.1492335796356201,1.5321989059448242,-103.86853790283203,-0.11790076691117307,-0.459845758168959,0.16814032302936535,-0.42970129890988285
0.8370909094810486,1.878190040588379,-104.19871520996094,-0.11790076691117307,-0.459845758168959,0.16814032302936535,-0.42970129890988285
0.9668006896972656,3.8842389583587646,-104.77589416503906,-0.11790076691117307,-0.459845758168959,0.16814032302936535,-0.42970129890988285
-0.6188371777534485,1.6112174987792969,-105.6182632446289,-0.11790076691117307,-0.459845758168959,0.16814032302936535,-0.42970129890988285
-0.8627983331680298,1.7480062246322632,-106.69888305664062,-0.11790076691117307,-0.459845758168959,0.16814032302936535,-0.42970129890988285
0.09068596363067627,1.2728407382965088,-108.00274658203125,-0.11790076691117307,-0.459845758168959,0.16814032302936535,-0.42970129890988285
0.34168505668640137,1.9154787063598633,-109.3614273071289,-0.11790076691117307,-0.459845758168959,0.16814032302936535,-0.42970129890988285
0.7609566450119019,1.1574387550354004,-110.82025909423828,-0.11790076691117307,-0.459845758168959,0.16814032302936535,-0.42970129890988285
-0.702814519405365,1.2742395401000977,-112.31256866455078,-0.11790076691117307,-0.459845758168959,0.16814032302936535,-0.42970129890988285
0.4386967718601227,0.9672626852989197,-113.89437866210938,-0.11790076691117307,-0.459845758168959,0.16814032302936535,-0.42970129890988285
0.4371921718120575,1.7695609331130981,-115.52928924560547,-0.11790076691117307,-0.459845758168959,0.16814032302936535,-0.42970129890988285
1.1328327655792236,0.719002366065979,-117.16488647460938,-0.11790076691117307,-0.459845758168959,0.16814032302936535,-0.42970129890988285
-0.5023818612098694,0.1948610544204712,-118.767578125,-0.11790076691117307,-0.459845758168959,0.16814032302936535,-0.42970129890988285
-1.449043869972229,0.7289003729820251,-120.24825286865234,-0.11790076691117307,-0.459845758168959,0.16814032302936535,-0.42970129890988285
2.305316209793091,1.3278942108154297,-121.77599334716797,-0.11790076691117307,-0.459845758168959,0.16814032302936535,-0.42970129890988285
0.10901667922735214,-1.1736680269241333,-123.2867431640625,-0.11790076691117307,-0.459845758168959,0.16814032302936535,-0.42970129890988285
-2.000483989715576,1.9692203998565674,-124.83940124511719,-0.11790076691117307,-0.459845758168959,0.16814032302936535,-0.42970129890988285
1.740344524383545,1.8288944959640503,-126.36504364013672,-0.11790076691117307,-0.459845758168959,0.16814032302936535,-0.42970129890988285
-0.0003863303572870791,-1.8425947427749634,-127.906005859375,-0.11790076691117307,-0.459845758168959,0.16814032302936535,-0.42970129890988285
0.21201889216899872,1.7532057762145996,-129.52333068847656,-0.11790076691117307,-0.459845758168959,0.16814032302936535,-0.42970129890988285
0.5549837946891785,1.003486156463623,-131.38943481445312,-0.11790076691117307,-0.459845758168959,0.16814032302936535,-0.42970129890988285
0.38820207118988037,1.0129693746566772,-133.351318359375,-0.11790076691117307,-0.459845758168959,0.16814032302936535,-0.42970129890988285
-2.1781933307647705,0.5270717740058899,-135.3423309326172,-0.11790076691117307,-0.459845758168959,0.16814032302936535,-0.42970129890988285
3.0765445232391357,-0.44140464067459106,-137.3608856201172,-0.11790076691117307,-0.459845758168959,0.16814032302936535,-0.42970129890988285
-1.5848454236984253,0.7052507400512695,-139.1970977783203,-0.11790076691117307,-0.459845758168959,0.16814032302936535,-0.42970129890988285
0.9996554255485535,1.2114272117614746,-140.9842071533203,-0.11790076691117307,-0.459845758168959,0.16814032302936535,-0.42970129890988285
-1.607216477394104,-1.26693594455719,-142.76824951171875,-0.11790076691117307,-0.459845758168959,0.16814032302936535,-0.42970129890988285
1.2231652736663818,0.9722416996955872,-144.62744140625,-0.11790076691117307,-0.459845758168959,0.16814032302936535,-0.42970129890988285
-1.3775362968444824,1.8026307821273804,-146.61416625976562,-0.11790076691117307,-0.459845758168959,0.16814032302936535,-0.42970129890988285
1.493417739868164,-0.1257861852645874,-148.6468505859375,-0.11790076691117307,-0.459845758168959,0.16814032302936535,-0.42970129890988285
-1.8606206178665161,1.5810848474502563,-150.6984100341797,-0.11790076691117307,-0.459845758168959,0.16814032302936535,-0.42970129890988285
-0.0056393761187791824,0.08479377627372742,-152.8406982421875,-0.11790076691117307,-0.459845758168959,0.16814032302936535,-0.42970129890988285
0.10295265167951584,1.2994763851165771,-155.02835083007812,-0.11790076691117307,-0.459845758168959,0.16814032302936535,-0.42970129890988285
0.08824188262224197,-0.2431020438671112,-157.19760131835938,-0.11790076691117307,-0.459845758168959,0.16814032302936535,-0.42970129890988285
0.5197548866271973,0.14282648265361786,-159.39569091796875,-0.11790076691117307,-0.459845758168959,0.16814032302936535,-0.42970129890988285
0.8228500485420227,-0.4966450035572052,-161.623779296875,-0.11790076691117307,-0.459845758168959,0.16814032302936535,-0.42970129890988285
0.7261970043182373,0.35563984513282776,-163.84701538085938,-0.11790076691117307,-0.459845758168959,0.16814032302936535,-0.42970129890988285
1.5347620248794556,-0.4479518532752991,-166.02293395996094,-0.11790076691117307,-0.459845758168959,0.16814032302936535,-0.42970129890988285
-1.7661516666412354,-0.3459819257259369,-168.1644744873047,-0.11790076691117307,-0.459845758168959,0.16814032302936535,-0.42970129890988285
0.33706870675086975,0.22495801746845245,-170.22279357910156,-0.11790076691117307,-0.459845758168959,0.16814032302936535,-0.42970129890988285
0.4850199222564697,0.2604212760925293,-172.32020568847656,-0.11790076691117307,-0.459845758168959,0.16814032302936535,-0.42970129890988285
-0.05896158516407013,-0.4760693609714508,-174.39137268066406,-0.11790076691117307,-0.459845758168959,0.16814032302936535,-0.42970129890988285
0.642844021320343,-0.017057809978723526,-176.48655700683594,-0.11790076691117307,-0.459845758168959,0.16814032302936535,-0.42970129890988285
-0.8960090279579163,1.8200347423553467,-178.54818725585938,-0.11790076691117307,-0.459845758168959,0.16814032302936535,-0.42970129890988285
-0.5420039892196655,0.4610942006111145,179.468994140625,-0.11790076691117307,-0.459845758168959,0.16814032302936535,-0.42970129890988285
-0.8141720294952393,0.5988414883613586,178.00892639160156,-0.11790076691117307,-0.459845758168959,0.16814032302936535,-0.42970129890988285
0.1754593849182129,-0.8192814588546753,176.94406127929688,-0.11790076691117307,-0.459845758168959,0.16814032302936535,-0.42970129890988285
-1.3018603324890137,-1.5770443677902222,176.17462158203125,-0.11790076691117307,-0.459845758168959,0.16814032302936535,-0.42970129890988285
-0.6282049417495728,-0.2391975373029709,175.60694885253906,-0.11790076691117307,-0.459845758168959,0.16814032302936535,-0.42970129890988285
-0.37444397807121277,-1.2758387327194214,175.42543029785156,-0.11790076691117307,-0.459845758168959,0.16814032302936535,-0.42970129890988285
-0.8529136776924133,-0.46761924028396606,175.48806762695312,-0.11790076691117307,-0.459845758168959,0.16814032302936535,-0.42970129890988285
-0.19806379079818726,0.6314558386802673,175.51382446289062,-0.11790076691117307,-0.459845758168959,0.16814032302936535,-0.42970129890988285
-0.3913297653198242,-0.11719147115945816,175.50477600097656,-0.11790076691117307,-0.459845758168959,0.16814032302936535,-0.42970129890988285
0.2570858299732208,0.2860431373119354,175.52212524414062,-0.11790076691117307,-0.459845758168959,0.16814032302936535,-0.42970129890988285
0.14803464710712433,-0.030106915161013603,175.517822265625,-0.11790076691117307,-0.459845758168959,0.16814032302936535,-0.42970129890988285
0.1414102464914322,0.15612807869911194,175.5195770263672,-0.11790076691117307,-0.459845758168959,0.16814032302936535,-0.42970129890988285
-0.19092558324337006,0.10447187721729279,175.5186767578125,-0.11790076691117307,-0.459845758168959,0.16814032302936535,-0.42970129890988285
-0.21764668822288513,0.07026733458042145,175.5179443359375,-0.11790076691117307,-0.459845758168959,0.16814032302936535,-0.42970129890988285
-0.24579046666622162,0.13540208339691162,175.5187225341797,-0.11790076691117307,-0.459845758168959,0.16814032302936535,-0.42970129890988285
-0.05527595803141594,0.07364842295646667,175.5225372314453,-0.11790076691117307,-0.459845758168959,0.16814032302936535,-0.42970129890988285
0.0019459174945950508,0.099429190158844,175.52125549316406,-0.11790076691117307,-0.459845758168959,0.16814032302936535,-0.42970129890988285
-0.005156358238309622,0.08535271137952805,175.5225372314453,-0.11790076691117307,-0.459845758168959,0.16814032302936535,-0.42970129890988285
-0.11041155457496643,0.09283991903066635,175.5226287841797,-0.11790076691117307,-0.459845758168959,0.16814032302936535,-0.42970129890988285
-0.13649865984916687,0.10421553999185562,175.52183532714844,-0.11790076691117307,-0.459845758168959,0.16814032302936535,-0.42970129890988285
-0.11056000739336014,0.10344091057777405,175.52330017089844,-0.11790076691117307,-0.459845758168959,0.16814032302936535,-0.42970129890988285
-0.06035338714718819,0.11908666789531708,175.52352905273438,-0.11790076691117307,-0.459845758168959,0.16814032302936535,-0.42970129890988285
-0.057997919619083405,0.11358019709587097,175.52352905273438,-0.11790076691117307,-0.459845758168959,0.16814032302936535,-0.42970129890988285
-0.07067884504795074,0.09049956500530243,175.52340698242188,-0.11790076691117307,-0.459845758168959,0.16814032302936535,-0.42970129890988285
-0.09899871051311493,0.10780098289251328,175.52365112304688,-0.11790076691117307,-0.459845758168959,0.16814032302936535,-0.42970129890988285
-0.0902804583311081,0.11391836404800415,175.52432250976562,-0.11790076691117307,-0.459845758168959,0.16814032302936535,-0.42970129890988285
-0.09197380393743515,0.10649149864912033,175.5247039794922,-0.11790076691117307,-0.459845758168959,0.16814032302936535,-0.42970129890988285
-0.058334577828645706,0.10397832095623016,175.52503967285156,-0.11790076691117307,-0.459845758168959,0.16814032302936535,-0.42970129890988285
-0.091054767370224,0.09307499974966049,175.52566528320312,-0.11510880245410024,-0.46699376222574135,0.16689541181937478,-0.42805918790400044
-0.10505594313144684,0.10323301702737808,175.5253143310547,-0.11234083105645105,-0.47411444952297627,0.16526115589852752,-0.4264232877641918
-0.30257096886634827,0.08671776205301285,175.51829528808594,-0.10961478588258655,-0.4812083132927211,0.16186426496521256,-0.42484036460518854
-0.5231510996818542,0.16845937073230743,175.531005859375,-0.10697438994348218,-0.48827126540191973,0.15498324772731087,-0.4227138884986442
-2.268735647201538,-0.2653331160545349,175.5901336669922,-0.10458521683878279,-0.49532322422032227,0.13171752483661592,-0.4235211697096628
-3.5730702877044678,-0.32656458020210266,175.7658233642578,-0.10279560572587433,-0.5024230143888345,0.08303580871239921,-0.42845365051180145
-2.624974489212036,0.8880464434623718,175.91580200195312,-0.10184209535684244,-0.5095249167679715,0.031385435571428345,-0.4237746349846325
-0.22256577014923096,0.6103827953338623,176.06320190429688,-0.10151675061532983,-0.5164837697650212,0.007655933410084453,-0.41128772466133057
-1.5305320024490356,-0.41691073775291443,176.2266845703125,-0.10151089462603664,-0.5233251296164891,-0.006953214694901103,-0.40967545751482265
-1.1604667901992798,-0.090777687728405,176.3995819091797,-0.10181365645377446,-0.5301883100490613,-0.029378204633637064,-0.41390619439383364
-2.7390849590301514,0.6394582986831665,176.60519409179688,-0.10257409540247601,-0.5370486438020867,-0.06187446921054899,-0.4093338559692106
-1.9269561767578125,-0.5660629868507385,176.7612762451172,-0.10392936719041489,-0.5438657778382519,-0.10075814534211536,-0.40872222837060707
0.3281613886356354,1.5059326887130737,176.60311889648438,-0.1057196970286253,-0.550612546248466,-0.1140814352431335,-0.4008899808550876
-1.3113476037979126,0.7100305557250977,176.36817932128906,-0.1076893311031749,-0.5571401595929648,-0.12227465370281913,-0.3824236204847695
-0.8889781832695007,-0.7931957840919495,176.28802490234375,-0.10988004240010156,-0.5635196619641253,-0.1406107019283809,-0.3831166640544933
-0.7749439477920532,-0.3032827377319336,176.19725036621094,-0.10988004240010156,-0.5635196619641253,-0.1406107019283809,-0.3831166640544933
-0.4914495646953583,0.8776736259460449,176.14854431152344,-0.11231149809283064,-0.5698650514422409,-0.15116398119910934,-0.3783300733193757
-1.5250765085220337,-0.4069007337093353,176.20570373535156,-0.11497093431234479,-0.5761378601022695,-0.16796836514258762,-0.37440696588406974
0.6402394771575928,-0.4709320664405823,176.35841369628906,-0.11783185408078822,-0.5824389368114589,-0.1753420070706246,-0.3817222392186524
1.5852235555648804,0.7453960180282593,176.42864990234375,-0.12059967482135957,-0.5887819141351317,-0.15679648179793734,-0.3794350396220884
-1.1960716247558594,-0.3250458240509033,176.34588623046875,-0.12318592507835234,-0.5950766404764737,-0.1535535490411955,-0.37593212133894377
-0.2178545445203781,0.5603289604187012,176.43426513671875,-0.12584334021301644,-0.6013258367254305,-0.16533626711849747,-0.3739714285358788
-2.808147430419922,0.41407716274261475,176.61436462402344,-0.12880908369102892,-0.6074910267758089,-0.19055295024299998,-0.3658513775095345
-0.4866776764392853,-0.5596082210540771,176.8226776123047,-0.13221377349416635,-0.613598656057795,-0.21800982613349337,-0.3670641363287967
-0.3535172939300537,-0.3857461214065552,176.88392639160156,-0.13590561746933355,-0.6197820412703903,-0.2250114508865712,-0.3749420891826353
-0.5933816432952881,-0.3129633665084839,176.8734130859375,-0.1397215651880837,-0.6260795975823172,-0.23290227536344904,-0.38076466824859395
-1.1578752994537354,0.21737979352474213,176.82542419433594,-0.1437248848429432,-0.6324323131345844,-0.2474960832196909,-0.38156119802345845
-0.29609188437461853,1.195081353187561,176.7878875732422,-0.1479507895065928,-0.6386935788553425,-0.2596124764182605,-0.3697906884675226
-0.28618139028549194,0.5258128643035889,176.7685089111328,-0.1523180997576374,-0.6447372504535865,-0.26446475370709477,-0.355449903321763
-1.2657121419906616,-0.3293289542198181,176.84381103515625,-0.1568336160369415,-0.6506477707929712,-0.27739719980939603,-0.3538125374043983
0.4449358284473419,0.06847359240055084,177.0048828125,-0.1615139010555386,-0.6565627613720597,-0.284237002422257,-0.3559863320862255
-1.3375881910324097,-1.1283646821975708,177.08888244628906,-0.1615139010555386,-0.6565627613720597,-0.284237002422257,-0.3559863320862255
-0.49440357089042664,0.7676988244056702,177.0909423828125,-0.1663784060793764,-0.6625209131469546,-0.29950360043828067,-0.35899188090115797
0.5305114984512329,0.22388464212417603,177.15762329101562,-0.17136762525837823,-0.6684352511990205,-0.29920270104194063,-0.35072868534674256
1.0812528133392334,0.3307896852493286,177.1072235107422,-0.1762424088652029,-0.6742422102376208,-0.2857713317770201,-0.3461063992852967
1.4701611995697021,0.7759643793106079,176.9242401123047,-0.18082808286614566,-0.6799337923045591,-0.2645095483361123,-0.3368834487472972
0.814221203327179,-0.5477935671806335,176.7925567626953,-0.18507793767154634,-0.6855326712550606,-0.2454730283119716,-0.33498202531288074
-0.41329002380371094,0,176.7215576171875,-0.18914131236705675,-0.6911537462302183,-0.24213193514927603,-0.3395469717060527
-2.280404567718506,0,176.6720428466797,-0.19336390674395595,-0.6968128624253191,-0.26457939007862785,-0.3395469717060527
-1.179911732673645,0.6845521330833435,176.67672729492188,-0.19801386298834922,-0.7024244402778448,-0.29341535924856244,-0.3338423705970248
-1.0047528743743896,-0.20791447162628174,176.72119140625,-0.20305583179575915,-0.707955379950194,-0.3116208976406294,-0.3298703900848826
0.16245444118976593,0.500580370426178,176.9080047607422,-0.2083080063698519,-0.713432895764192,-0.31864005125050127,-0.3274315075948835
-1.0171300172805786,-0.47231969237327576,177.1709442138672,-0.21367802636125544,-0.718888125010353,-0.3257623477179247,-0.32719600194444265
0.3501402735710144,0.6738923788070679,177.29745483398438,-0.2191537175554229,-0.7243273936062025,-0.3313205955821711,-0.3255162295574944
0.7796643376350403,0.506005048751831,177.14096069335938,-0.22459726882823644,-0.7296707267774691,-0.32190555715545394,-0.3156837509945036
-0.8844649791717529,-0.8777568340301514,176.89744567871094,-0.22996963926982295,-0.7349579387235774,-0.3227788958349265,-0.3187816825384896
-0.4836013913154602,0.651936411857605,176.6879119873047,-0.22996963926982295,-0.7349579387235774,-0.3227788958349265,-0.3187816825384896
-1.8728978633880615,-0.1507505476474762,176.79031372070312,-0.23551293331531503,-0.7402361621919821,-0.3424163896241225,-0.31460513367007187
1.4615739583969116,-0.2632748484611511,176.9777069091797,-0.24124843730245257,-0.7455083328501019,-0.3458440888323821,-0.31805534530431046
1.0881855487823486,0.2961086928844452,177.04685974121094,-0.24683543881721592,-0.7508069751437554,-0.3245960929392216,-0.31778172993411635
1.3649787902832031,0.19431279599666595,176.99717712402344,-0.25207501506487895,-0.756069280261485,-0.304153056780342,-0.31369488419344044
-0.4811899662017822,0.056205201894044876,176.93765258789062,-0.2570828584539901,-0.7612801312481888,-0.2967881499129968,-0.3116072342110178
-0.7070631980895996,-0.8356242775917053,176.8369140625,-0.26211184520006026,-0.766527711476407,-0.30669025961542495,-0.318102393175165
-0.19775357842445374,0.1387929767370224,176.66366577148438,-0.26728618402535304,-0.7718778090918857,-0.3142303994197087,-0.32390932068228734
-1.5818458795547485,1.1406097412109375,176.60643005371094,-0.27264694064470785,-0.7771874503589553,-0.3290603949028687,-0.3132476313660543
-0.7423933744430542,0.5751955509185791,176.58937072753906,-0.2782926860635055,-0.7822890910697694,-0.3484290553528504,-0.2989492539316417
0.6530975699424744,-0.16654124855995178,176.62062072753906,-0.28410603808358775,-0.7872431998642997,-0.3491731870570219,-0.29554380141198644
-0.9151943325996399,-0.09978188574314117,176.76402282714844,-0.2899437923652782,-0.7921874245499372,-0.3513573267458316,-0.2977631608645122
-0.33865994215011597,-0.4982032775878906,176.9066925048828,-0.2958868210245663,-0.7971916706451326,-0.3618061123687462,-0.3027463705589375
-0.20390307903289795,0.8186855912208557,176.93519592285156,-0.3019546008849609,-0.8022151877715571,-0.3663274708786047,-0.30007568461199613
-0.2664734125137329,0.29351919889450073,176.91336059570312,-0.3080927237670728,-0.807139212737999,-0.3702472749748266,-0.2908073113610348
-0.09945078194141388,0.2693805396556854,176.8643035888672,-0.3080927237670728,-0.807139212737999,-0.3702472749748266,-0.2908073113610348
-0.1574111431837082,-0.33040788769721985,176.7804718017578,-0.3142813493170092,-0.8119902392709636,-0.372387791017536,-0.29131587259471425
-0.1920386254787445,0,176.632568359375,-0.3205120798456808,-0.8168684488064101,-0.37529987242305646,-0.29406927165885777
0.31128817796707153,0.8242199420928955,176.4613037109375,-0.3267587965004756,-0.821712365838079,-0.3743061261523204,-0.287200772141417
1.5306438207626343,0,176.36338806152344,-0.3328693199919914,-0.8264418078777906,-0.3589566928295728,-0.2803322726239762
0.18395598232746124,-0.05692325904965401,176.41062927246094,-0.3387328621083808,-0.8311179654256242,-0.3446683611371554,-0.28080663311605664
-0.08451768755912781,0.5355408787727356,176.54153442382812,-0.34447042935686334,-0.8357648386428556,-0.3438397086807526,-0.27681815295169765
-1.3764721155166626,0.12542252242565155,176.59474182128906,-0.3503025487934228,-0.8403325742891895,-0.35601462370638415,-0.2713101246083778
0.36367106437683105,0.16782847046852112,176.4627227783203,-0.35630645926152504,-0.8448340450470448,-0.3644546324658827,-0.2688663663342597
-1.4093650579452515,-0.7855294942855835,176.3056640625,-0.3624533207743987,-0.8493580470570475,-0.37316874907895287,-0.27401387486606854
0.7387955784797668,-0.14860133826732635,176.20877075195312,-0.36871936725067744,-0.8539898151681871,-0.37875682807449856,-0.2817982984706761
-0.4187569320201874,1.0107451677322388,176.23806762695312,-0.375009756145915,-0.8586265823767633,-0.3760898393540021,-0.27461376655846853
-0.9578282237052917,-0.8004686832427979,176.4141387939453,-0.38137351632651817,-0.863188875952426,-0.38756138231838105,-0.27286146252105653
-0.09174616634845734,0,176.5671844482422,-0.38790575980891157,-0.8677921550974466,-0.396307835568829,-0.2795320348814132
0.708125114440918,0.6065521836280823,176.63577270507812,-0.38790575980891157,-0.8677921550974466,-0.396307835568829,-0.2795320348814132
