faccX,faccY,yaw,posX,posY,velX,velY
0,0,-88.67024230957031,0.0,0.0,0.0,0.0
0,0,-88.67098999023438,0.0,0.0,0.0,0.0
0,0,-88.67161560058594,0.0,0.0,0.0,0.0
0.05208000913262367,-0.2882443964481354,-88.67949676513672,3.616667300876644e-06,-2.0016971975564958e-05,0.00043400007610519726,-0.002402036637067795
-0.19541139900684357,-1.3496230840682983,-88.69631958007812,8.964331613646616e-07,-0.00017379171318478054,-0.0007604281728466352,-0.016050932308038075
0.4232039451599121,-1.781468152999878,-88.65988159179688,4.0415570967727225e-06,-0.0006587441431151496,0.0011378430450956025,-0.04214335928360621
-0.0707152709364891,-1.9867557287216187,-88.46253204345703,4.748398800277047e-05,-0.0016228156785170237,0.004075248663624128,-0.07354522496461868
0.9355875253677368,-2.590846300125122,-88.25993347167969,0.0001754653722875648,-0.0031664584577083587,0.011282517450551192,-0.11169190853834152
-0.864668071269989,-0.12137270718812943,-88.17002868652344,0.00036843229188687266,-0.0052163388088552485,0.011873512901365757,-0.1342937335992853
-0.1567872315645218,-1.103549838066101,-88.11994934082031,0.0004953897775461276,-0.007539631767819325,0.0033613853777448334,-0.14450142147640388
-0.2729109525680542,-1.5192188024520874,-88.0546875,0.0005215727154993348,-0.010130125503573152,-0.00021943282335996645,-0.16635782681405545
0.22214199602603912,-1.0423587560653687,-87.97879791259766,0.0005143898797945843,-0.013080643280926677,-0.0006425074612100921,-0.18770430646836758
0.11579906940460205,-1.7010269165039062,-87.8475112915039,0.000527149551651544,-0.016399561282661224,0.002173668084045251,-0.2105658537397782
0.6332377195358276,-1.0455317497253418,-87.8358154296875,0.0006153937967287168,-0.02009972541903456,0.008415641325215498,-0.23345384262502195
-0.9618674516677856,-0.810497522354126,-87.83616638183594,0.000732832976306478,-0.024119513717790444,0.0056770602241158485,-0.2489207532256842
0.49397218227386475,-1.2353988885879517,-87.7347412109375,0.0007949579196671644,-0.02841026907786727,0.0017779329791665077,-0.2659698899835348
-0.5391092896461487,-1.097783088684082,-87.61103057861328,0.0008214556146413087,-0.033005127103792296,0.0014017904177308083,-0.28541307312746844
-0.5058078765869141,-0.7581897974014282,-87.55167388916016,0.0007722550961706372,-0.037890898661894934,-0.007305852634211381,-0.3008795138448477
0.6049031019210815,-0.8492361903190613,-87.58362579345703,0.0006573724984708758,-0.04301718403067854,-0.006480059089759986,-0.3142747304091851
0.5393052101135254,-0.7288102507591248,-87.58330535888672,0.0006288304241995015,-0.04836468276257317,0.0030550101771950715,-0.32742511741817
-0.42687052488327026,-1.1487376689910889,-87.63777160644531,0.0006875552247381871,-0.05395215332508088,0.003991965887447197,-0.3430713500827551
0.08904838562011719,-0.5854031443595886,-87.65532684326172,0.0007306281187468103,-0.05979043560516504,0.0011767813935875883,-0.35752252352734404
1.2736539840698242,-0.6457966566085815,-87.67379760742188,0.000844873250979516,-0.06583464431679911,0.0125326344743371,-0.36778252186874544
-0.9514137506484985,-0.64051753282547,-87.68609619140625,0.0010761282862060597,-0.07205368038887779,0.015217969752848146,-0.3785018067806959
-0.7241073250770569,-0.5331422090530396,-87.66353607177734,0.0012134054851614764,-0.07844354798396427,0.0012552941218018521,-0.3882823046296835
0.7263019680976868,-0.24363389611244202,-87.6568832397461,0.0012344794596234954,-0.08496886251287326,0.0012735828136404344,-0.39475543883939584
-0.2867368459701538,-0.6850651502609253,-87.67695617675781,0.001286231195554137,-0.09161261281619468,0.004936625498036543,-0.4024945975591739
-0.328031986951828,-0.1915058195590973,-87.68994140625,0.001325816007124053,-0.09838172909286286,-0.0001864481096466395,-0.4097993556410074
1.0608197450637817,-0.43236783146858215,-87.7497329711914,0.0013735965773877168,-0.10525504291264545,0.005920116541286308,-0.4149983027329047
1.1182739734649658,-0.5675891637802124,-87.88043212890625,0.0013735965773877168,-0.10525504291264545,0.005920116541286308,-0.4149983027329047
-2.0535314083099365,-0.2694241404533386,-87.98336029052734,0.0013735965773877168,-0.10525504291264545,0.005920116541286308,-0.4149983027329047
-0.1249779537320137,-0.5187352895736694,-87.96080017089844,0.0013735965773877168,-0.10525504291264545,0.005920116541286308,-0.4149983027329047
1.1870020627975464,0.01008596457540989,-87.96453094482422,0.0013735965773877168,-0.10525504291264545,0.005920116541286308,-0.4149983027329047
-0.8358296751976013,0.5400555729866028,-87.89651489257812,0.0013735965773877168,-0.10525504291264545,0.005920116541286308,-0.4149983027329047
-0.42785388231277466,0.19241313636302948,-87.80706787109375,0.0013735965773877168,-0.10525504291264545,0.005920116541286308,-0.4149983027329047
0.33168545365333557,1.9240171909332275,-87.86337280273438,0.0013735965773877168,-0.10525504291264545,0.005920116541286308,-0.4149983027329047
0.026570916175842285,3.177241086959839,-87.8651351928711,0.0013735965773877168,-0.10525504291264545,0.005920116541286308,-0.4149983027329047
0.5821206569671631,1.686332106590271,-87.57408905029297,0.0013735965773877168,-0.10525504291264545,0.005920116541286308,-0.4149983027329047
1.6570615768432617,-0.16375039517879486,-86.94569396972656,0.0013735965773877168,-0.10525504291264545,0.005920116541286308,-0.4149983027329047
-0.2588401436805725,-0.07025911659002304,-85.90580749511719,0.0013735965773877168,-0.10525504291264545,0.005920116541286308,-0.4149983027329047
0.742836594581604,1.429926872253418,-84.7093734741211,0.0013735965773877168,-0.10525504291264545,0.005920116541286308,-0.4149983027329047
-0.028066234663128853,1.4601926803588867,-83.40363311767578,0.0013735965773877168,-0.10525504291264545,0.005920116541286308,-0.4149983027329047
2.0087637901306152,0.3367755115032196,-82.11652374267578,0.0013735965773877168,-0.10525504291264545,0.005920116541286308,-0.4149983027329047
0.25147804617881775,0.9694990515708923,-80.6301498413086,0.0013735965773877168,-0.10525504291264545,0.005920116541286308,-0.4149983027329047
0.66838139295578,0.9046968221664429,-78.99907684326172,0.0013735965773877168,-0.10525504291264545,0.005920116541286308,-0.4149983027329047
0.03047635406255722,0.7624523639678955,-77.31828308105469,0.0013735965773877168,-0.10525504291264545,0.005920116541286308,-0.4149983027329047
0.6256040334701538,0.7875359058380127,-75.4917221069336,0.0013735965773877168,-0.10525504291264545,0.005920116541286308,-0.4149983027329047
-0.48974671959877014,0.878508985042572,-73.5259017944336,0.0013735965773877168,-0.10525504291264545,0.005920116541286308,-0.4149983027329047
0.5986239314079285,1.3864158391952515,-71.41998291015625,0.0013735965773877168,-0.10525504291264545,0.005920116541286308,-0.4149983027329047
0.7261079549789429,0.1854177564382553,-69.24150085449219,0.0013735965773877168,-0.10525504291264545,0.005920116541286308,-0.4149983027329047
0.8388754725456238,0.6226323843002319,-67.00037384033203,0.0013735965773877168,-0.10525504291264545,0.005920116541286308,-0.4149983027329047
-0.07061252743005753,0.8494794964790344,-64.72378540039062,0.0013735965773877168,-0.10525504291264545,0.005920116541286308,-0.4149983027329047
0.7718256711959839,0.5942988991737366,-62.42766189575195,0.0013735965773877168,-0.10525504291264545,0.005920116541286308,-0.4149983027329047
-0.7258651256561279,0.975338339805603,-60.108917236328125,0.0013735965773877168,-0.10525504291264545,0.005920116541286308,-0.4149983027329047
1.6895321607589722,0.7195335030555725,-57.74329376220703,0.0013735965773877168,-0.10525504291264545,0.005920116541286308,-0.4149983027329047
-0.16963069140911102,1.188393473625183,-55.376800537109375,0.0013735965773877168,-0.10525504291264545,0.005920116541286308,-0.4149983027329047
0.009179670363664627,0.8251024484634399,-52.96162414550781,0.0013735965773877168,-0.10525504291264545,0.005920116541286308,-0.4149983027329047
-0.3747366666793823,0.6098751425743103,-50.580047607421875,0.0013735965773877168,-0.10525504291264545,0.005920116541286308,-0.4149983027329047
1.1641427278518677,0.172446146607399,-48.15612030029297,0.0013735965773877168,-0.10525504291264545,0.005920116541286308,-0.4149983027329047
0.6914599537849426,1.1749134063720703,-45.65769577026367,0.0013735965773877168,-0.10525504291264545,0.005920116541286308,-0.4149983027329047
-1.3302710056304932,0.9583556056022644,-43.162391662597656,0.0013735965773877168,-0.10525504291264545,0.005920116541286308,-0.4149983027329047
1.678066372871399,0.7012503743171692,-40.70943832397461,0.0013735965773877168,-0.10525504291264545,0.005920116541286308,-0.4149983027329047
-0.025311818346381187,0.6222227215766907,-38.218055725097656,0.0013735965773877168,-0.10525504291264545,0.005920116541286308,-0.4149983027329047
-0.01294240914285183,0.5997217297554016,-35.64646911621094,0.0013735965773877168,-0.10525504291264545,0.005920116541286308,-0.4149983027329047
0.28428658843040466,0.9760161638259888,-33.05792999267578,0.0013735965773877168,-0.10525504291264545,0.005920116541286308,-0.4149983027329047
-0.18922501802444458,-0.001642890041694045,-30.45919418334961,0.0013735965773877168,-0.10525504291264545,0.005920116541286308,-0.4149983027329047
0.29300880432128906,0.7826487421989441,-27.83357048034668,0.0013735965773877168,-0.10525504291264545,0.005920116541286308,-0.4149983027329047
-1.315142035484314,0.1895943582057953,-25.229732513427734,0.0013735965773877168,-0.10525504291264545,0.005920116541286308,-0.4149983027329047
-0.30193305015563965,1.0551214218139648,-22.61441421508789,0.0013735965773877168,-0.10525504291264545,0.005920116541286308,-0.4149983027329047
0.9169775247573853,0.1555241346359253,-20.036813735961914,0.0013735965773877168,-0.10525504291264545,0.005920116541286308,-0.4149983027329047
-0.6514033079147339,0.15386460721492767,-17.378963470458984,0.0013735965773877168,-0.10525504291264545,0.005920116541286308,-0.4149983027329047
0.20772187411785126,1.830992341041565,-14.820343017578125,0.0013735965773877168,-0.10525504291264545,0.005920116541286308,-0.4149983027329047
-0.3440183103084564,0.2928914725780487,-12.205717086791992,0.0013735965773877168,-0.10525504291264545,0.005920116541286308,-0.4149983027329047
1.0537279844284058,0.6908679008483887,-9.493973731994629,0.0013735965773877168,-0.10525504291264545,0.005920116541286308,-0.4149983027329047
-0.6818487048149109,1.100925326347351,-6.7932562828063965,0.0013735965773877168,-0.10525504291264545,0.005920116541286308,-0.4149983027329047
-0.6400871872901917,-0.5541077256202698,-4.062649726867676,0.0013735965773877168,-0.10525504291264545,0.005920116541286308,-0.4149983027329047
0.055764053016901016,0.9824362397193909,-1.2776217460632324,0.0013735965773877168,-0.10525504291264545,0.005920116541286308,-0.4149983027329047
-0.08128850162029266,0.4417305290699005,1.519850254058838,0.0013735965773877168,-0.10525504291264545,0.005920116541286308,-0.4149983027329047
-1.071390986442566,-0.13942119479179382,4.355896949768066,0.0013735965773877168,-0.10525504291264545,0.005920116541286308,-0.4149983027329047
-0.3953632116317749,0.5604333281517029,7.15875244140625,0.0013735965773877168,-0.10525504291264545,0.005920116541286308,-0.4149983027329047
0.11936147511005402,0.22618985176086426,9.979921340942383,0.0013735965773877168,-0.10525504291264545,0.005920116541286308,-0.4149983027329047
-1.8434525728225708,-1.6182564496994019,12.562076568603516,0.0013735965773877168,-0.10525504291264545,0.005920116541286308,-0.4149983027329047
0.0009402806172147393,0.8986943364143372,14.720144271850586,0.0013735965773877168,-0.10525504291264545,0.005920116541286308,-0.4149983027329047
0.14670751988887787,-1.9750196933746338,16.441675186157227,0.0013735965773877168,-0.10525504291264545,0.005920116541286308,-0.4149983027329047
-0.3944246470928192,-2.0243074893951416,17.709163665771484,0.0013735965773877168,-0.10525504291264545,0.005920116541286308,-0.4149983027329047
0.9969547390937805,-0.5833334922790527,18.549274444580078,0.0013735965773877168,-0.10525504291264545,0.005920116541286308,-0.4149983027329047
0.4275420606136322,-1.341101050376892,19.122770309448242,0.0013735965773877168,-0.10525504291264545,0.005920116541286308,-0.4149983027329047
-0.48638391494750977,-1.0103577375411987,19.419090270996094,0.0013735965773877168,-0.10525504291264545,0.005920116541286308,-0.4149983027329047
-0.9524308443069458,-0.8076263666152954,19.562557220458984,0.0013735965773877168,-0.10525504291264545,0.005920116541286308,-0.4149983027329047
-1.1583452224731445,-0.2759843170642853,19.6861629486084,0.0013735965773877168,-0.10525504291264545,0.005920116541286308,-0.4149983027329047
-0.9082974195480347,-0.1662554293870926,19.686565399169922,0.0013735965773877168,-0.10525504291264545,0.005920116541286308,-0.4149983027329047
-0.2537011504173279,-0.1522456258535385,19.62238121032715,0.0013735965773877168,-0.10525504291264545,0.005920116541286308,-0.4149983027329047
1.0423599481582642,0.1967519074678421,19.62993049621582,0.0013735965773877168,-0.10525504291264545,0.005920116541286308,-0.4149983027329047
0.948590874671936,0.5629042983055115,19.63323211669922,0.0013735965773877168,-0.10525504291264545,0.005920116541286308,-0.4149983027329047
0.17092037200927734,-0.07168528437614441,19.629318237304688,0.0013735965773877168,-0.10525504291264545,0.005920116541286308,-0.4149983027329047
-0.5391117334365845,-0.2050025910139084,19.639904022216797,0.0013735965773877168,-0.10525504291264545,0.005920116541286308,-0.4149983027329047
-0.016872817650437355,0.03883760794997215,19.633344650268555,0.0013735965773877168,-0.10525504291264545,0.005920116541286308,-0.4149983027329047
0.5528368949890137,0.1556057333946228,19.621173858642578,0.0013735965773877168,-0.10525504291264545,0.005920116541286308,-0.4149983027329047
0.5136605501174927,0.155608668923378,19.631261825561523,0.0013735965773877168,-0.10525504291264545,0.005920116541286308,-0.4149983027329047
0.01584017090499401,0.04273831099271774,19.631555557250977,0.0013735965773877168,-0.10525504291264545,0.005920116541286308,-0.4149983027329047
-0.10023029893636703,-0.09839600324630737,19.630287170410156,0.0013735965773877168,-0.10525504291264545,0.005920116541286308,-0.4149983027329047
0.20521628856658936,0.11090940237045288,19.62643814086914,0.0013735965773877168,-0.10525504291264545,0.005920116541286308,-0.4149983027329047
0.4186381995677948,0.1274174004793167,19.62411880493164,0.0013735965773877168,-0.10525504291264545,0.005920116541286308,-0.4149983027329047
0.23391683399677277,0.06659283488988876,19.626705169677734,0.0013735965773877168,-0.10525504291264545,0.005920116541286308,-0.4149983027329047
0.0335310660302639,0.013293283060193062,19.628334045410156,0.0013735965773877168,-0.10525504291264545,0.005920116541286308,-0.4149983027329047
0.09826067090034485,0.03298286348581314,19.6256160736084,0.0013735965773877168,-0.10525504291264545,0.005920116541286308,-0.4149983027329047
0.27333810925483704,0.08300290256738663,19.62574577331543,0.0013735965773877168,-0.10525504291264545,0.005920116541286308,-0.4149983027329047
0.26700064539909363,0.08574512600898743,19.62742042541504,0.0013735965773877168,-0.10525504291264545,0.005920116541286308,-0.4149983027329047
0.12766800820827484,0,19.62809181213379,0.0014996727317985559,-0.11216572676888768,0.009209021988014378,-0.4142837600161632
0.353927344083786,0.14262479543685913,19.624141693115234,0.0016866005532857442,-0.11906055160280729,0.01322231659044822,-0.41309522005418936
1.024753212928772,0.3521438241004944,19.615713119506836,0.0020027142018079753,-0.12591111300513147,0.024711321232219537,-0.4089721482247114
1.626644253730774,0.834168016910553,19.718612670898438,0.0025986943797518805,-0.13264493270880645,0.04680630012104908,-0.399086216216286
2.472726821899414,0.7474367618560791,19.815792083740234,0.003663477928688128,-0.13918653598055242,0.08096772575130065,-0.3859061763932307
3.017230987548828,0.5731984376907349,19.836427688598633,0.005394187094643711,-0.14552659480935995,0.12671737416336934,-0.3749008830636739
1.3907593488693237,1.1483864784240723,19.867483139038086,0.007812253770728905,-0.15165538835235765,0.16345062696685395,-0.36055434209605053
1.0260732173919678,0.5577939748764038,19.998178482055664,0.010704266481722393,-0.1575461426335904,0.1835908983523647,-0.3463361716518799
1.213739275932312,0.1466480940580368,20.201906204223633,0.013919657321853768,-0.16326949257300127,0.20225600246340036,-0.34046582107742623
1.7670115232467651,0.8403148055076599,20.414005279541016,0.017497587279520097,-0.1688753838340441,0.22709559245655933,-0.33224113024771207
1.1562919616699219,0.5071646571159363,20.58390998840332,0.0214855210069153,-0.1743191610421571,0.25145645483086504,-0.3210121347258488
1.4028762578964233,-0.22380174696445465,20.550018310546875,0.02585418193601071,-0.1796496853077163,0.2727828566605846,-0.3186507771412531
0.31720247864723206,0,20.547054290771484,0.030520012792613762,-0.1849760733813875,0.28711684613178173,-0.32051579169929023
1.4745635986328125,0.8339924216270447,20.516826629638672,0.035429721761287905,-0.19026008710265158,0.3020482301091154,-0.3135658548523982
0.6127052307128906,0.34349581599235535,20.538232803344727,0.04060880815403328,-0.19540441466702352,0.3194421370203296,-0.30375345287223654
1.8052695989608765,0.5067175626754761,20.528215408325195,0.046100758689766125,-0.2004079296191533,0.339591927267611,-0.2966683413833379
1.2416601181030273,0.16440187394618988,20.58694839477539,0.046100758689766125,-0.2004079296191533,0.339591927267611,-0.2966683413833379
0.8020354509353638,0.17448033392429352,20.512235641479492,0.05190254744763175,-0.2053288684888846,0.35662272367626424,-0.2938443229844172
0.6033264398574829,-0.25718459486961365,20.43800926208496,0.05794385408465232,-0.21023201722341275,0.3683340727662046,-0.29453352515896153
1.3530625104904175,-0.4648384749889374,20.475059509277344,0.06421861564119656,-0.21519104980035786,0.3846373140191038,-0.30055038407444945
-1.6131917238235474,1.5626384019851685,20.565227508544922,0.07061117301281127,-0.22012398676222394,0.382469570574661,-0.2914020513494809
-1.5446312427520752,-1.0707331895828247,20.422767639160156,0.07676637259415453,-0.22494652753385402,0.3561543791865308,-0.28730284124612804
0.15985992550849915,-0.05908595025539398,20.213176727294922,0.08260611423912147,-0.22981336788377826,0.344614618209501,-0.2967180007447799
2.0003864765167236,-0.7281115651130676,20.251216888427734,0.08849970832053157,-0.23481333439031407,0.3626166715597112,-0.30327798003951706
1.4179794788360596,1.8301734924316406,20.27144432067871,0.0947807060378707,-0.23979143531268668,0.39110305452098443,-0.29409413064519563
0.4763346016407013,0.6898356676101685,20.225107192993164,0.1014306398688091,-0.24451800352065925,0.4068890051916241,-0.2730940543115139
0.2413063794374466,-1.1479589939117432,20.139114379882812,0.10826195946791103,-0.24910138521239986,0.41286934670060865,-0.27691174869736035
1.512233018875122,-0.43570005893707275,20.13191032409668,0.11526488881558178,-0.25382655734713705,0.42748217501988006,-0.29010890747110046
0.37565165758132935,2.14577317237854,20.084800720214844,0.12252069483511148,-0.2585429507276664,0.4432145473236838,-0.2758582981924216
0.15173232555389404,0.8642884492874146,19.9405460357666,0.1299442278448906,-0.2629315569738133,0.4476094138498107,-0.2507744513452053
1.1232887506484985,-1.0256927013397217,19.902259826660156,0.1299442278448906,-0.2629315569738133,0.4476094138498107,-0.2507744513452053
0.3744300603866577,-0.04655776172876358,19.904373168945312,0.1299442278448906,-0.2629315569738133,0.4476094138498107,-0.2507744513452053
1.00888192653656,-0.2092042714357376,20.063783645629883,0.1299442278448906,-0.2629315569738133,0.4476094138498107,-0.2507744513452053
-2.031998634338379,-0.445372074842453,20.244304656982422,0.1299442278448906,-0.2629315569738133,0.4476094138498107,-0.2507744513452053
-1.0830721855163574,-0.19407957792282104,20.134056091308594,0.1299442278448906,-0.2629315569738133,0.4476094138498107,-0.2507744513452053
-3.1512837409973145,-0.6056388020515442,19.711381912231445,0.1299442278448906,-0.2629315569738133,0.4476094138498107,-0.2507744513452053
-1.0950983762741089,-0.6940093636512756,18.966567993164062,0.1299442278448906,-0.2629315569738133,0.4476094138498107,-0.2507744513452053
-0.9280481338500977,-1.268700122833252,17.936250686645508,0.1299442278448906,-0.2629315569738133,0.4476094138498107,-0.2507744513452053
-1.3105854988098145,-0.6416046023368835,16.651287078857422,0.1299442278448906,-0.2629315569738133,0.4476094138498107,-0.2507744513452053
-1.7035913467407227,-0.9192270636558533,15.154928207397461,0.1299442278448906,-0.2629315569738133,0.4476094138498107,-0.2507744513452053
-0.08426549285650253,-0.5525404810905457,13.574919700622559,0.1299442278448906,-0.2629315569738133,0.4476094138498107,-0.2507744513452053
-0.5953855514526367,-0.5856010913848877,11.921598434448242,0.1299442278448906,-0.2629315569738133,0.4476094138498107,-0.2507744513452053
-0.6873500943183899,-0.8448922038078308,10.169917106628418,0.1299442278448906,-0.2629315569738133,0.4476094138498107,-0.2507744513452053
-1.2801964282989502,-0.796569287776947,8.329340934753418,0.1299442278448906,-0.2629315569738133,0.4476094138498107,-0.2507744513452053
-1.098176121711731,-1.397402286529541,6.442684173583984,0.1299442278448906,-0.2629315569738133,0.4476094138498107,-0.2507744513452053
-0.5888866782188416,-0.7885386943817139,4.447958946228027,0.1299442278448906,-0.2629315569738133,0.4476094138498107,-0.2507744513452053
-0.9090113639831543,-0.09833375364542007,2.4426722526550293,0.1299442278448906,-0.2629315569738133,0.4476094138498107,-0.2507744513452053
-0.16903717815876007,-0.720000684261322,0.4092479944229126,0.1299442278448906,-0.2629315569738133,0.4476094138498107,-0.2507744513452053
-0.9713988304138184,0.20032259821891785,-1.7002649307250977,0.1299442278448906,-0.2629315569738133,0.4476094138498107,-0.2507744513452053
-1.0105700492858887,-1.2721457481384277,-3.7941129207611084,0.1299442278448906,-0.2629315569738133,0.4476094138498107,-0.2507744513452053
-0.502255380153656,0.4923003613948822,-5.946987152099609,0.1299442278448906,-0.2629315569738133,0.4476094138498107,-0.2507744513452053
0.11798589676618576,-1.7906521558761597,-8.2059965133667,0.1299442278448906,-0.2629315569738133,0.4476094138498107,-0.2507744513452053
-1.5720932483673096,1.1650328636169434,-10.494402885437012,0.1299442278448906,-0.2629315569738133,0.4476094138498107,-0.2507744513452053
-0.29185643792152405,-1.357224941253662,-12.830951690673828,0.1299442278448906,-0.2629315569738133,0.4476094138498107,-0.2507744513452053
-0.21723531186580658,0.5696903467178345,-15.227551460266113,0.1299442278448906,-0.2629315569738133,0.4476094138498107,-0.2507744513452053
-1.0082579851150513,-1.2980358600616455,-17.643205642700195,0.1299442278448906,-0.2629315569738133,0.4476094138498107,-0.2507744513452053
-0.9150816798210144,0.5133203864097595,-20.131938934326172,0.1299442278448906,-0.2629315569738133,0.4476094138498107,-0.2507744513452053
-0.30989933013916016,-0.9375073313713074,-22.63589859008789,0.1299442278448906,-0.2629315569738133,0.4476094138498107,-0.2507744513452053
-0.5227010250091553,-0.01089654304087162,-25.134658813476562,0.1299442278448906,-0.2629315569738133,0.4476094138498107,-0.2507744513452053
-0.6290624737739563,0.5066036581993103,-27.67963218688965,0.1299442278448906,-0.2629315569738133,0.4476094138498107,-0.2507744513452053
-0.1661529690027237,-0.23219920694828033,-30.224027633666992,0.1299442278448906,-0.2629315569738133,0.4476094138498107,-0.2507744513452053
-1.1831804513931274,-0.40947139263153076,-32.826847076416016,0.1299442278448906,-0.2629315569738133,0.4476094138498107,-0.2507744513452053
-0.6010532379150391,2.0739362239837646,-35.48591995239258,0.1299442278448906,-0.2629315569738133,0.4476094138498107,-0.2507744513452053
-0.12136723846197128,0.3358702063560486,-38.20066833496094,0.1299442278448906,-0.2629315569738133,0.4476094138498107,-0.2507744513452053
-0.9918853640556335,-0.7781383395195007,-40.837982177734375,0.1299442278448906,-0.2629315569738133,0.4476094138498107,-0.2507744513452053
-0.43059927225112915,0.5575118660926819,-43.542381286621094,0.1299442278448906,-0.2629315569738133,0.4476094138498107,-0.2507744513452053
-0.3300577700138092,0.4257851541042328,-46.33429718017578,0.1299442278448906,-0.2629315569738133,0.4476094138498107,-0.2507744513452053
0.6776594519615173,1.4835801124572754,-49.17457962036133,0.1299442278448906,-0.2629315569738133,0.4476094138498107,-0.2507744513452053
0.08402112871408463,0.5611042380332947,-52.104373931884766,0.1299442278448906,-0.2629315569738133,0.4476094138498107,-0.2507744513452053
-1.7444993257522583,-1.5245437622070312,-54.96305465698242,0.1299442278448906,-0.2629315569738133,0.4476094138498107,-0.2507744513452053
0.8867905735969543,0.9964940547943115,-57.89209747314453,0.1299442278448906,-0.2629315569738133,0.4476094138498107,-0.2507744513452053
-0.6370111703872681,1.4224265813827515,-60.74465560913086,0.1299442278448906,-0.2629315569738133,0.4476094138498107,-0.2507744513452053
-0.7364767789840698,0.5689879059791565,-63.662254333496094,0.1299442278448906,-0.2629315569738133,0.4476094138498107,-0.2507744513452053
0.2878921329975128,-0.7189836502075195,-66.56708526611328,0.1299442278448906,-0.2629315569738133,0.4476094138498107,-0.2507744513452053
-0.3327319324016571,0.7468527555465698,-69.58085632324219,0.1299442278448906,-0.2629315569738133,0.4476094138498107,-0.2507744513452053
-0.5908643007278442,0.9502759575843811,-72.58348846435547,0.1299442278448906,-0.2629315569738133,0.4476094138498107,-0.2507744513452053
-0.2574136555194855,-0.11563557386398315,-75.63960266113281,0.1299442278448906,-0.2629315569738133,0.4476094138498107,-0.2507744513452053
-0.40272200107574463,0.32352256774902344,-78.61582946777344,0.1299442278448906,-0.2629315569738133,0.4476094138498107,-0.2507744513452053
0.6680366396903992,0.7433856129646301,-81.55484008789062,0.1299442278448906,-0.2629315569738133,0.4476094138498107,-0.2507744513452053
-0.6751155257225037,0.32407259941101074,-84.5381851196289,0.1299442278448906,-0.2629315569738133,0.4476094138498107,-0.2507744513452053
-0.36100226640701294,0.8291696906089783,-87.63846588134766,0.1299442278448906,-0.2629315569738133,0.4476094138498107,-0.2507744513452053
0.029402650892734528,0.4782453179359436,-90.73237609863281,0.1299442278448906,-0.2629315569738133,0.4476094138498107,-0.2507744513452053
0.13476215302944183,1.0604028701782227,-93.80115509033203,0.1299442278448906,-0.2629315569738133,0.4476094138498107,-0.2507744513452053
0.2914676070213318,-0.31265053153038025,-96.91869354248047,0.1299442278448906,-0.2629315569738133,0.4476094138498107,-0.2507744513452053
0.6066370606422424,0.03731381148099899,-100.1316909790039,0.1299442278448906,-0.2629315569738133,0.4476094138498107,-0.2507744513452053
0.20071488618850708,1.2424427270889282,-103.26676177978516,0.1299442278448906,-0.2629315569738133,0.4476094138498107,-0.2507744513452053
-0.5355413556098938,0.6764758825302124,-106.3778076171875,0.1299442278448906,-0.2629315569738133,0.4476094138498107,-0.2507744513452053
0.5217129588127136,0.1409587860107422,-109.5869369506836,0.1299442278448906,-0.2629315569738133,0.4476094138498107,-0.2507744513452053
-6.81400197208859e-05,0.21047981083393097,-112.6991195678711,0.1299442278448906,-0.2629315569738133,0.4476094138498107,-0.2507744513452053
0.2076389193534851,0.5328765511512756,-115.83871459960938,0.1299442278448906,-0.2629315569738133,0.4476094138498107,-0.2507744513452053
1.216161847114563,0.6089596152305603,-118.9277572631836,0.1299442278448906,-0.2629315569738133,0.4476094138498107,-0.2507744513452053
0.3461257815361023,0.8749951720237732,-121.9599380493164,0.1299442278448906,-0.2629315569738133,0.4476094138498107,-0.2507744513452053
0.6271551251411438,0.1639515608549118,-124.99213409423828,0.1299442278448906,-0.2629315569738133,0.4476094138498107,-0.2507744513452053
-0.3031253218650818,0.0013631373876705766,-128.0787811279297,0.1299442278448906,-0.2629315569738133,0.4476094138498107,-0.2507744513452053
0.3788052499294281,-0.05018192157149315,-131.16578674316406,0.1299442278448906,-0.2629315569738133,0.4476094138498107,-0.2507744513452053
0.10297492146492004,0.30834248661994934,-134.22573852539062,0.1299442278448906,-0.2629315569738133,0.4476094138498107,-0.2507744513452053
-0.15069697797298431,1.539913535118103,-137.12779235839844,0.1299442278448906,-0.2629315569738133,0.4476094138498107,-0.2507744513452053
0.7598815560340881,-0.3768225908279419,-139.94973754882812,0.1299442278448906,-0.2629315569738133,0.4476094138498107,-0.2507744513452053
0.7769162654876709,-0.3702429234981537,-142.78265380859375,0.1299442278448906,-0.2629315569738133,0.4476094138498107,-0.2507744513452053
2.3565690517425537,0.11261028051376343,-145.59519958496094,0.1299442278448906,-0.2629315569738133,0.4476094138498107,-0.2507744513452053
-0.5979412198066711,0.7817232608795166,-148.3902130126953,0.1299442278448906,-0.2629315569738133,0.4476094138498107,-0.2507744513452053
-0.36666640639305115,0.3357556462287903,-151.23641967773438,0.1299442278448906,-0.2629315569738133,0.4476094138498107,-0.2507744513452053
0.9046412706375122,-0.32503819465637207,-154.1346893310547,0.1299442278448906,-0.2629315569738133,0.4476094138498107,-0.2507744513452053
-0.25565633177757263,0.7971438765525818,-157.00424194335938,0.1299442278448906,-0.2629315569738133,0.4476094138498107,-0.2507744513452053
0.6747132539749146,0.68292236328125,-159.89047241210938,0.1299442278448906,-0.2629315569738133,0.4476094138498107,-0.2507744513452053
0.20022015273571014,0.9193927645683289,-162.76402282714844,0.1299442278448906,-0.2629315569738133,0.4476094138498107,-0.2507744513452053
0.9724231958389282,-0.2825658917427063,-165.68191528320312,0.1299442278448906,-0.2629315569738133,0.4476094138498107,-0.2507744513452053
0.0909770280122757,-0.12536920607089996,-168.56869506835938,0.1299442278448906,-0.2629315569738133,0.4476094138498107,-0.2507744513452053
0.6288872957229614,0.48303893208503723,-171.48281860351562,0.1299442278448906,-0.2629315569738133,0.4476094138498107,-0.2507744513452053
-0.49960315227508545,1.274314522743225,-174.42185974121094,0.1299442278448906,-0.2629315569738133,0.4476094138498107,-0.2507744513452053
0.8642770051956177,-0.17155741155147552,-177.4515380859375,0.1299442278448906,-0.2629315569738133,0.4476094138498107,-0.2507744513452053
0.6500705480575562,-1.248172640800476,179.46473693847656,0.1299442278448906,-0.2629315569738133,0.4476094138498107,-0.2507744513452053
0.19526000320911407,0.3764791786670685,176.55697631835938,0.1299442278448906,-0.2629315569738133,0.4476094138498107,-0.2507744513452053
-0.1604282110929489,0.1847909390926361,173.63804626464844,0.1299442278448906,-0.2629315569738133,0.4476094138498107,-0.2507744513452053
0.0601549930870533,-0.09330842643976212,170.61236572265625,0.1299442278448906,-0.2629315569738133,0.4476094138498107,-0.2507744513452053
1.241195559501648,0.16600395739078522,167.56207275390625,0.1299442278448906,-0.2629315569738133,0.4476094138498107,-0.2507744513452053
0.4454713463783264,0.6678769588470459,164.59567260742188,0.1299442278448906,-0.2629315569738133,0.4476094138498107,-0.2507744513452053
0.9970853924751282,-1.0195283889770508,161.55960083007812,0.1299442278448906,-0.2629315569738133,0.4476094138498107,-0.2507744513452053
-0.42557331919670105,0.3927639424800873,158.52149963378906,0.1299442278448906,-0.2629315569738133,0.4476094138498107,-0.2507744513452053
0.2750109136104584,-0.9080069661140442,155.43467712402344,0.1299442278448906,-0.2629315569738133,0.4476094138498107,-0.2507744513452053
0.12155883759260178,0.5751840472221375,152.3389434814453,0.1299442278448906,-0.2629315569738133,0.4476094138498107,-0.2507744513452053
0.7130957245826721,-0.10748425871133804,149.30917358398438,0.1299442278448906,-0.2629315569738133,0.4476094138498107,-0.2507744513452053
0.33220481872558594,0.1291685849428177,146.34259033203125,0.1299442278448906,-0.2629315569738133,0.4476094138498107,-0.2507744513452053
-0.14443838596343994,-1.151982307434082,143.3099822998047,0.1299442278448906,-0.2629315569738133,0.4476094138498107,-0.2507744513452053
1.2345143556594849,0.275351345539093,140.3974609375,0.1299442278448906,-0.2629315569738133,0.4476094138498107,-0.2507744513452053
-0.3948493003845215,-1.4190869331359863,137.49127197265625,0.1299442278448906,-0.2629315569738133,0.4476094138498107,-0.2507744513452053
0.2970053255558014,0.3638598918914795,134.50914001464844,0.1299442278448906,-0.2629315569738133,0.4476094138498107,-0.2507744513452053
1.0914689302444458,0.7068094611167908,131.60812377929688,0.1299442278448906,-0.2629315569738133,0.4476094138498107,-0.2507744513452053
0.1561768651008606,-0.923090934753418,128.74168395996094,0.1299442278448906,-0.2629315569738133,0.4476094138498107,-0.2507744513452053
0.12581513822078705,-1.7063270807266235,125.85952758789062,0.1299442278448906,-0.2629315569738133,0.4476094138498107,-0.2507744513452053
0.25050896406173706,1.001452088356018,122.94542694091797,0.1299442278448906,-0.2629315569738133,0.4476094138498107,-0.2507744513452053
-0.843830943107605,-0.7120969295501709,119.99913024902344,0.1299442278448906,-0.2629315569738133,0.4476094138498107,-0.2507744513452053
0.9477869272232056,0.3608662486076355,117.03377532958984,0.1299442278448906,-0.2629315569738133,0.4476094138498107,-0.2507744513452053
0.7722688317298889,-0.8794858455657959,114.10783386230469,0.1299442278448906,-0.2629315569738133,0.4476094138498107,-0.2507744513452053
-0.19449573755264282,-0.0935819149017334,111.16681671142578,0.1299442278448906,-0.2629315569738133,0.4476094138498107,-0.2507744513452053
0.9159740805625916,-0.3343897759914398,108.26074981689453,0.1299442278448906,-0.2629315569738133,0.4476094138498107,-0.2507744513452053
-0.7698383331298828,-0.2013022005558014,105.35552978515625,0.1299442278448906,-0.2629315569738133,0.4476094138498107,-0.2507744513452053
0.3241933584213257,0.2879393994808197,102.4375,0.1299442278448906,-0.2629315569738133,0.4476094138498107,-0.2507744513452053
-0.3079290986061096,-0.9380332231521606,99.51372528076172,0.1299442278448906,-0.2629315569738133,0.4476094138498107,-0.2507744513452053
1.7643805742263794,0.6268360614776611,96.62623596191406,0.1299442278448906,-0.2629315569738133,0.4476094138498107,-0.2507744513452053
-0.2040034383535385,-1.5734001398086548,93.699462890625,0.1299442278448906,-0.2629315569738133,0.4476094138498107,-0.2507744513452053
0.630809485912323,0.7208465933799744,90.78884887695312,0.1299442278448906,-0.2629315569738133,0.4476094138498107,-0.2507744513452053
-1.0317429304122925,-0.48434633016586304,87.7812728881836,0.1299442278448906,-0.2629315569738133,0.4476094138498107,-0.2507744513452053
0.4570479393005371,-0.7381435036659241,84.8665542602539,0.1299442278448906,-0.2629315569738133,0.4476094138498107,-0.2507744513452053
-0.038442183285951614,-0.6605541706085205,81.9946060180664,0.1299442278448906,-0.2629315569738133,0.4476094138498107,-0.2507744513452053
0.2514837682247162,0.20287467539310455,79.08280181884766,0.1299442278448906,-0.2629315569738133,0.4476094138498107,-0.2507744513452053
-1.0625011920928955,-0.9086995720863342,76.07891845703125,0.1299442278448906,-0.2629315569738133,0.4476094138498107,-0.2507744513452053
0.007698442786931992,-0.3887479603290558,73.11505889892578,0.1299442278448906,-0.2629315569738133,0.4476094138498107,-0.2507744513452053
-0.6349601149559021,0.019091781228780746,70.11042022705078,0.1299442278448906,-0.2629315569738133,0.4476094138498107,-0.2507744513452053
0.07946866005659103,-0.08210370689630508,67.15174865722656,0.1299442278448906,-0.2629315569738133,0.4476094138498107,-0.2507744513452053
-0.8665886521339417,-0.3433493673801422,64.30181121826172,0.1299442278448906,-0.2629315569738133,0.4476094138498107,-0.2507744513452053
1.3442890644073486,-0.07131606340408325,61.53272247314453,0.1299442278448906,-0.2629315569738133,0.4476094138498107,-0.2507744513452053
-0.45931899547576904,-0.3211638033390045,58.7546272277832,0.1299442278448906,-0.2629315569738133,0.4476094138498107,-0.2507744513452053
-0.6440469026565552,0.22909018397331238,56.05862808227539,0.1299442278448906,-0.2629315569738133,0.4476094138498107,-0.2507744513452053
-0.9296432733535767,0.42213666439056396,53.34623718261719,0.1299442278448906,-0.2629315569738133,0.4476094138498107,-0.2507744513452053
1.144546389579773,0.06202948838472366,50.7274055480957,0.1299442278448906,-0.2629315569738133,0.4476094138498107,-0.2507744513452053
0.11547289788722992,-1.6729778051376343,48.13604736328125,0.1299442278448906,-0.2629315569738133,0.4476094138498107,-0.2507744513452053
-0.20511062443256378,-0.24212856590747833,45.5120735168457,0.1299442278448906,-0.2629315569738133,0.4476094138498107,-0.2507744513452053
-1.6205310821533203,1.288166880607605,42.846702575683594,0.1299442278448906,-0.2629315569738133,0.4476094138498107,-0.2507744513452053
-0.2764572203159332,-1.4312697649002075,40.17385482788086,0.1299442278448906,-0.2629315569738133,0.4476094138498107,-0.2507744513452053
0.05021170526742935,-0.11933174729347229,37.524410247802734,0.1299442278448906,-0.2629315569738133,0.4476094138498107,-0.2507744513452053
-0.12676653265953064,-0.6103361248970032,34.75871658325195,0.1299442278448906,-0.2629315569738133,0.4476094138498107,-0.2507744513452053
-0.20042286813259125,0.49307942390441895,31.931230545043945,0.1299442278448906,-0.2629315569738133,0.4476094138498107,-0.2507744513452053
-0.9106854796409607,0.11417678743600845,29.070194244384766,0.1299442278448906,-0.2629315569738133,0.4476094138498107,-0.2507744513452053
-0.11935502290725708,-0.2784844934940338,26.185794830322266,0.1299442278448906,-0.2629315569738133,0.4476094138498107,-0.2507744513452053
0.05974933132529259,-0.9886701107025146,23.24878692626953,0.1299442278448906,-0.2629315569738133,0.4476094138498107,-0.2507744513452053
0.054747506976127625,-0.16164232790470123,20.3362979888916,0.1299442278448906,-0.2629315569738133,0.4476094138498107,-0.2507744513452053
-0.6208667159080505,0.6135329008102417,17.337987899780273,0.1299442278448906,-0.2629315569738133,0.4476094138498107,-0.2507744513452053
-0.565375030040741,-0.32507821917533875,14.332306861877441,0.1299442278448906,-0.2629315569738133,0.4476094138498107,-0.2507744513452053
-0.5013536214828491,0.7953874468803406,11.310945510864258,0.1299442278448906,-0.2629315569738133,0.4476094138498107,-0.2507744513452053
-0.7733909487724304,-0.5631067156791687,8.25043773651123,0.1299442278448906,-0.2629315569738133,0.4476094138498107,-0.2507744513452053
-0.7360665798187256,0.07921679317951202,5.178773403167725,0.1299442278448906,-0.2629315569738133,0.4476094138498107,-0.2507744513452053
0.1870148479938507,-0.17567071318626404,2.056182622909546,0.1299442278448906,-0.2629315569738133,0.4476094138498107,-0.2507744513452053
0.18299491703510284,0.33658769726753235,-1.0508227348327637,0.1299442278448906,-0.2629315569738133,0.4476094138498107,-0.2507744513452053
0.701781153678894,-1.2631124258041382,-4.142495632171631,0.1299442278448906,-0.2629315569738133,0.4476094138498107,-0.2507744513452053
-0.9082763195037842,1.1000704765319824,-7.322236061096191,0.1299442278448906,-0.2629315569738133,0.4476094138498107,-0.2507744513452053
-1.5203603506088257,-0.037768345326185226,-10.462410926818848,0.1299442278448906,-0.2629315569738133,0.4476094138498107,-0.2507744513452053
-0.2933529019355774,0.6899654865264893,-13.576290130615234,0.1299442278448906,-0.2629315569738133,0.4476094138498107,-0.2507744513452053
-0.6561142802238464,0.03382034972310066,-16.631685256958008,0.1299442278448906,-0.2629315569738133,0.4476094138498107,-0.2507744513452053
-0.7683408856391907,1.5024644136428833,-19.652042388916016,0.1299442278448906,-0.2629315569738133,0.4476094138498107,-0.2507744513452053
-0.32309842109680176,-0.5472226142883301,-22.597261428833008,0.1299442278448906,-0.2629315569738133,0.4476094138498107,-0.2507744513452053
-0.37300336360931396,1.7632020711898804,-25.59123420715332,0.1299442278448906,-0.2629315569738133,0.4476094138498107,-0.2507744513452053
0.17640233039855957,0.19776946306228638,-28.646957397460938,0.1299442278448906,-0.2629315569738133,0.4476094138498107,-0.2507744513452053
-0.782525897026062,-0.33836594223976135,-31.585739135742188,0.1299442278448906,-0.2629315569738133,0.4476094138498107,-0.2507744513452053
-0.6774791479110718,-0.23718951642513275,-34.554100036621094,0.1299442278448906,-0.2629315569738133,0.4476094138498107,-0.2507744513452053
0.40632954239845276,0.5361586213111877,-37.59566879272461,0.1299442278448906,-0.2629315569738133,0.4476094138498107,-0.2507744513452053
-0.7934194803237915,1.9571075439453125,-40.66345977783203,0.1299442278448906,-0.2629315569738133,0.4476094138498107,-0.2507744513452053
-0.6827633380889893,-0.07017936557531357,-43.707984924316406,0.1299442278448906,-0.2629315569738133,0.4476094138498107,-0.2507744513452053
0.010326480492949486,0.2701525390148163,-46.73353576660156,0.1299442278448906,-0.2629315569738133,0.4476094138498107,-0.2507744513452053
-0.07746680080890656,0.7812392711639404,-49.866432189941406,0.1299442278448906,-0.2629315569738133,0.4476094138498107,-0.2507744513452053
-0.7139655947685242,0.15639923512935638,-52.93800354003906,0.1299442278448906,-0.2629315569738133,0.4476094138498107,-0.2507744513452053
0.4293867349624634,0.43628638982772827,-56.041439056396484,0.1299442278448906,-0.2629315569738133,0.4476094138498107,-0.2507744513452053
0.049452368170022964,-0.27337026596069336,-59.102447509765625,0.1299442278448906,-0.2629315569738133,0.4476094138498107,-0.2507744513452053
-0.13039013743400574,-0.15849076211452484,-62.205867767333984,0.1299442278448906,-0.2629315569738133,0.4476094138498107,-0.2507744513452053
-0.04297547787427902,1.4081926345825195,-65.36749267578125,0.1299442278448906,-0.2629315569738133,0.4476094138498107,-0.2507744513452053
0.16882441937923431,0.2907879054546356,-68.44798278808594,0.1299442278448906,-0.2629315569738133,0.4476094138498107,-0.2507744513452053
-0.5086418390274048,0.40079087018966675,-71.57598114013672,0.1299442278448906,-0.2629315569738133,0.4476094138498107,-0.2507744513452053
-0.4630306363105774,-0.28793537616729736,-74.67726135253906,0.1299442278448906,-0.2629315569738133,0.4476094138498107,-0.2507744513452053
0.1139916330575943,1.744480848312378,-77.81629180908203,0.1299442278448906,-0.2629315569738133,0.4476094138498107,-0.2507744513452053
-0.41137152910232544,0.25120070576667786,-81.00834655761719,0.1299442278448906,-0.2629315569738133,0.4476094138498107,-0.2507744513452053
0.7104529142379761,-0.15995578467845917,-84.22761535644531,0.1299442278448906,-0.2629315569738133,0.4476094138498107,-0.2507744513452053
-0.5637308359146118,0.2267477661371231,-87.53805541992188,0.1299442278448906,-0.2629315569738133,0.4476094138498107,-0.2507744513452053
0.2844395041465759,0.540330171585083,-90.8974380493164,0.1299442278448906,-0.2629315569738133,0.4476094138498107,-0.2507744513452053
-0.09844104200601578,0.6902634501457214,-94.2039566040039,0.1299442278448906,-0.2629315569738133,0.4476094138498107,-0.2507744513452053
0.7567570209503174,-0.05396883934736252,-97.4677963256836,0.1299442278448906,-0.2629315569738133,0.4476094138498107,-0.2507744513452053
0.17590834200382233,1.9771379232406616,-100.69129180908203,0.1299442278448906,-0.2629315569738133,0.4476094138498107,-0.2507744513452053
-1.086175560951233,-0.243802011013031,-103.85260772705078,0.1299442278448906,-0.2629315569738133,0.4476094138498107,-0.2507744513452053
1.2008025646209717,0.9853941798210144,-107.00149536132812,0.1299442278448906,-0.2629315569738133,0.4476094138498107,-0.2507744513452053
0.4506523311138153,-0.20969745516777039,-110.11575317382812,0.1299442278448906,-0.2629315569738133,0.4476094138498107,-0.2507744513452053
0.36573687195777893,0.29452553391456604,-113.1489028930664,0.1299442278448906,-0.2629315569738133,0.4476094138498107,-0.2507744513452053
0.862409770488739,0.17871235311031342,-116.18144989013672,0.1299442278448906,-0.2629315569738133,0.4476094138498107,-0.2507744513452053
0.09371823072433472,0.14740438759326935,-119.10999298095703,0.1299442278448906,-0.2629315569738133,0.4476094138498107,-0.2507744513452053
-0.6159623861312866,0.8266003727912903,-122.01554107666016,0.1299442278448906,-0.2629315569738133,0.4476094138498107,-0.2507744513452053
0.7104061841964722,0.9298090934753418,-124.9866714477539,0.1299442278448906,-0.2629315569738133,0.4476094138498107,-0.2507744513452053
0.6435644030570984,0.530436635017395,-127.85409545898438,0.1299442278448906,-0.2629315569738133,0.4476094138498107,-0.2507744513452053
0.19409970939159393,0.5066851377487183,-130.70169067382812,0.1299442278448906,-0.2629315569738133,0.4476094138498107,-0.2507744513452053
-0.006655815988779068,-0.5073221325874329,-133.57919311523438,0.1299442278448906,-0.2629315569738133,0.4476094138498107,-0.2507744513452053
-0.2601480782032013,0.5142247080802917,-136.5711669921875,0.1299442278448906,-0.2629315569738133,0.4476094138498107,-0.2507744513452053
1.0835988521575928,0.577818751335144,-139.56675720214844,0.1299442278448906,-0.2629315569738133,0.4476094138498107,-0.2507744513452053
0.8383662104606628,0.28839004039764404,-142.5602264404297,0.1299442278448906,-0.2629315569738133,0.4476094138498107,-0.2507744513452053
0.01608990505337715,-0.01680728979408741,-145.51101684570312,0.1299442278448906,-0.2629315569738133,0.4476094138498107,-0.2507744513452053
1.5943644046783447,0.5303720831871033,-148.47462463378906,0.1299442278448906,-0.2629315569738133,0.4476094138498107,-0.2507744513452053
-0.006828885525465012,0.7358989715576172,-151.47958374023438,0.1299442278448906,-0.2629315569738133,0.4476094138498107,-0.2507744513452053
1.145952820777893,-0.4205974042415619,-154.5419921875,0.1299442278448906,-0.2629315569738133,0.4476094138498107,-0.2507744513452053
-0.6388174891471863,0.4307911992073059,-157.61854553222656,0.1299442278448906,-0.2629315569738133,0.4476094138498107,-0.2507744513452053
1.2758938074111938,-0.43093475699424744,-160.7610626220703,0.1299442278448906,-0.2629315569738133,0.4476094138498107,-0.2507744513452053
-0.6014347672462463,1.0455577373504639,-163.8562469482422,0.1299442278448906,-0.2629315569738133,0.4476094138498107,-0.2507744513452053
0.8248271942138672,0.2608092129230499,-166.8730010986328,0.1299442278448906,-0.2629315569738133,0.4476094138498107,-0.2507744513452053
0.1499233990907669,0.11664816737174988,-169.8628387451172,0.1299442278448906,-0.2629315569738133,0.4476094138498107,-0.2507744513452053
0.3390498161315918,0.3988223671913147,-172.82855224609375,0.1299442278448906,-0.2629315569738133,0.4476094138498107,-0.2507744513452053
0.798885703086853,0.6120657324790955,-175.75698852539062,0.1299442278448906,-0.2629315569738133,0.4476094138498107,-0.2507744513452053
0.8493790030479431,-0.5963547229766846,-178.759765625,0.1299442278448906,-0.2629315569738133,0.4476094138498107,-0.2507744513452053
0.16953440010547638,0.02419428713619709,178.16683959960938,0.1299442278448906,-0.2629315569738133,0.4476094138498107,-0.2507744513452053
0.7869968414306641,0.3388398587703705,175.0922393798828,0.1299442278448906,-0.2629315569738133,0.4476094138498107,-0.2507744513452053
0.18940797448158264,0.14232134819030762,172.03599548339844,0.1299442278448906,-0.2629315569738133,0.4476094138498107,-0.2507744513452053
0.7546073198318481,-0.7521393299102783,168.97227478027344,0.1299442278448906,-0.2629315569738133,0.4476094138498107,-0.2507744513452053
-0.21930667757987976,0.1567559540271759,165.87545776367188,0.1299442278448906,-0.2629315569738133,0.4476094138498107,-0.2507744513452053
0.74057936668396,0.5383020639419556,162.81939697265625,0.1299442278448906,-0.2629315569738133,0.4476094138498107,-0.2507744513452053
0.5357054471969604,-1.365119218826294,159.78836059570312,0.1299442278448906,-0.2629315569738133,0.4476094138498107,-0.2507744513452053
-0.3669206202030182,0.17847561836242676,156.68743896484375,0.1299442278448906,-0.2629315569738133,0.4476094138498107,-0.2507744513452053
-0.03176061436533928,0.3947513699531555,153.70242309570312,0.1299442278448906,-0.2629315569738133,0.4476094138498107,-0.2507744513452053
0.8292927145957947,-0.42344343662261963,150.6434783935547,0.1299442278448906,-0.2629315569738133,0.4476094138498107,-0.2507744513452053
0.07053910195827484,-0.008784802630543709,147.54794311523438,0.1299442278448906,-0.2629315569738133,0.4476094138498107,-0.2507744513452053
0.6070181131362915,-0.042902640998363495,144.5757598876953,0.1299442278448906,-0.2629315569738133,0.4476094138498107,-0.2507744513452053
0.44495970010757446,0.5558331608772278,141.57525634765625,0.1299442278448906,-0.2629315569738133,0.4476094138498107,-0.2507744513452053
-0.6990566849708557,-0.6065623760223389,138.58535766601562,0.1299442278448906,-0.2629315569738133,0.4476094138498107,-0.2507744513452053
0.0553639717400074,-0.7472113966941833,135.63804626464844,0.1299442278448906,-0.2629315569738133,0.4476094138498107,-0.2507744513452053
0.5004684329032898,-0.334293931722641,132.6859130859375,0.1299442278448906,-0.2629315569738133,0.4476094138498107,-0.2507744513452053
0.9055717587471008,-0.6910035014152527,129.6953887939453,0.1299442278448906,-0.2629315569738133,0.4476094138498107,-0.2507744513452053
0.486115038394928,-1.0758355855941772,126.74995422363281,0.1299442278448906,-0.2629315569738133,0.4476094138498107,-0.2507744513452053
-0.5453149080276489,0.44017472863197327,123.80070495605469,0.1299442278448906,-0.2629315569738133,0.4476094138498107,-0.2507744513452053
0.2693716585636139,-0.3665352463722229,120.8482437133789,0.1299442278448906,-0.2629315569738133,0.4476094138498107,-0.2507744513452053
0.23047590255737305,0.5125101804733276,117.90992736816406,0.1299442278448906,-0.2629315569738133,0.4476094138498107,-0.2507744513452053
0.2932877540588379,-0.743797779083252,114.92395782470703,0.1299442278448906,-0.2629315569738133,0.4476094138498107,-0.2507744513452053
1.120337963104248,1.2818564176559448,111.94808959960938,0.1299442278448906,-0.2629315569738133,0.4476094138498107,-0.2507744513452053
-0.09459371864795685,-1.232231855392456,108.99640655517578,0.1299442278448906,-0.2629315569738133,0.4476094138498107,-0.2507744513452053
0.7074325084686279,-0.2090442031621933,106.0862808227539,0.1299442278448906,-0.2629315569738133,0.4476094138498107,-0.2507744513452053
-0.5001039505004883,-0.48551273345947266,103.23511505126953,0.1299442278448906,-0.2629315569738133,0.4476094138498107,-0.2507744513452053
0.44540297985076904,0.07913822680711746,100.37820434570312,0.1299442278448906,-0.2629315569738133,0.4476094138498107,-0.2507744513452053
0.08005981892347336,-0.10791224241256714,97.4486312866211,0.1299442278448906,-0.2629315569738133,0.4476094138498107,-0.2507744513452053
-0.2578648030757904,-1.5337011814117432,94.45708465576172,0.1299442278448906,-0.2629315569738133,0.4476094138498107,-0.2507744513452053
-0.7229571342468262,-0.4942485988140106,91.5377426147461,0.1299442278448906,-0.2629315569738133,0.4476094138498107,-0.2507744513452053
-0.3945307731628418,0.46379947662353516,88.61326599121094,0.1299442278448906,-0.2629315569738133,0.4476094138498107,-0.2507744513452053
-1.3968416452407837,-1.7618876695632935,85.69483184814453,0.1299442278448906,-0.2629315569738133,0.4476094138498107,-0.2507744513452053
-0.16968122124671936,0.17046405375003815,82.86847686767578,0.1299442278448906,-0.2629315569738133,0.4476094138498107,-0.2507744513452053
-0.2327967882156372,-0.9606965780258179,80.0184326171875,0.1299442278448906,-0.2629315569738133,0.4476094138498107,-0.2507744513452053
0.027127526700496674,0.02988789789378643,77.26846313476562,0.1299442278448906,-0.2629315569738133,0.4476094138498107,-0.2507744513452053
-1.7524964809417725,-0.40107589960098267,74.49287414550781,0.1299442278448906,-0.2629315569738133,0.4476094138498107,-0.2507744513452053
-0.6158773899078369,0.07355640828609467,71.71159362792969,0.1299442278448906,-0.2629315569738133,0.4476094138498107,-0.2507744513452053
-0.29834118485450745,0.07687558978796005,68.96344757080078,0.1299442278448906,-0.2629315569738133,0.4476094138498107,-0.2507744513452053
1.3496626615524292,0.046774722635746,66.19923400878906,0.1299442278448906,-0.2629315569738133,0.4476094138498107,-0.2507744513452053
-0.7198594212532043,-0.9790329933166504,63.33596420288086,0.1299442278448906,-0.2629315569738133,0.4476094138498107,-0.2507744513452053
0.8336755037307739,-0.1584339141845703,60.58045196533203,0.1299442278448906,-0.2629315569738133,0.4476094138498107,-0.2507744513452053
0.3946121037006378,-0.7707817554473877,57.77655029296875,0.1299442278448906,-0.2629315569738133,0.4476094138498107,-0.2507744513452053
0.2784934639930725,-0.86137455701828,55.004756927490234,0.1299442278448906,-0.2629315569738133,0.4476094138498107,-0.2507744513452053
0.50905442237854,-0.28562840819358826,52.26564025878906,0.1299442278448906,-0.2629315569738133,0.4476094138498107,-0.2507744513452053
-1.1119765043258667,-0.546838104724884,49.55078125,0.1299442278448906,-0.2629315569738133,0.4476094138498107,-0.2507744513452053
1.1629058122634888,-0.15916208922863007,46.83915328979492,0.1299442278448906,-0.2629315569738133,0.4476094138498107,-0.2507744513452053
-0.7915521860122681,-0.32738450169563293,44.02635192871094,0.1299442278448906,-0.2629315569738133,0.4476094138498107,-0.2507744513452053
-0.19917114078998566,0.33400991559028625,41.25110626220703,0.1299442278448906,-0.2629315569738133,0.4476094138498107,-0.2507744513452053
-0.5598646402359009,-0.5034082531929016,38.51081466674805,0.1299442278448906,-0.2629315569738133,0.4476094138498107,-0.2507744513452053
0.4220915138721466,-0.9630269408226013,35.70051956176758,0.1299442278448906,-0.2629315569738133,0.4476094138498107,-0.2507744513452053
-0.37532418966293335,0.3387594521045685,32.854183197021484,0.1299442278448906,-0.2629315569738133,0.4476094138498107,-0.2507744513452053
-0.7824149131774902,-0.6853822469711304,30.06315040588379,0.1299442278448906,-0.2629315569738133,0.4476094138498107,-0.2507744513452053
-1.6024354696273804,1.0002597570419312,27.209115982055664,0.1299442278448906,-0.2629315569738133,0.4476094138498107,-0.2507744513452053
0.5599683523178101,-0.4951256811618805,24.37251853942871,0.1299442278448906,-0.2629315569738133,0.4476094138498107,-0.2507744513452053
-0.5545689463615417,0.36250248551368713,21.431177139282227,0.1299442278448906,-0.2629315569738133,0.4476094138498107,-0.2507744513452053
-0.11003562808036804,-0.8789610266685486,18.453710556030273,0.1299442278448906,-0.2629315569738133,0.4476094138498107,-0.2507744513452053
-0.0482073538005352,-0.5380129814147949,15.504758834838867,0.1299442278448906,-0.2629315569738133,0.4476094138498107,-0.2507744513452053
-0.7550292611122131,0.7394670844078064,12.474867820739746,0.1299442278448906,-0.2629315569738133,0.4476094138498107,-0.2507744513452053
-0.8071046471595764,-0.22317816317081451,9.392744064331055,0.1299442278448906,-0.2629315569738133,0.4476094138498107,-0.2507744513452053
-0.2352840155363083,0.3227464556694031,6.347141265869141,0.1299442278448906,-0.2629315569738133,0.4476094138498107,-0.2507744513452053
-1.382125735282898,0.4484337866306305,3.2866384983062744,0.1299442278448906,-0.2629315569738133,0.4476094138498107,-0.2507744513452053
-0.5691946148872375,-0.11281963437795639,0.28305473923683167,0.1299442278448906,-0.2629315569738133,0.4476094138498107,-0.2507744513452053
-0.5582957863807678,-0.4665185213088989,-2.660348892211914,0.1299442278448906,-0.2629315569738133,0.4476094138498107,-0.2507744513452053
-0.23568987846374512,0.8614087700843811,-5.598179340362549,0.1299442278448906,-0.2629315569738133,0.4476094138498107,-0.2507744513452053
-0.13654038310050964,0.4667842984199524,-8.650978088378906,0.1299442278448906,-0.2629315569738133,0.4476094138498107,-0.2507744513452053
-0.4314673840999603,-0.8535445928573608,-11.639375686645508,0.1299442278448906,-0.2629315569738133,0.4476094138498107,-0.2507744513452053
-0.4561164379119873,-0.5253142714500427,-14.509427070617676,0.1299442278448906,-0.2629315569738133,0.4476094138498107,-0.2507744513452053
-0.1911904364824295,1.1736925840377808,-17.46563148498535,0.1299442278448906,-0.2629315569738133,0.4476094138498107,-0.2507744513452053
-0.8548609614372253,0.6588775515556335,-20.436342239379883,0.1299442278448906,-0.2629315569738133,0.4476094138498107,-0.2507744513452053
-0.5706387162208557,0.39421576261520386,-23.443023681640625,0.1299442278448906,-0.2629315569738133,0.4476094138498107,-0.2507744513452053
0.3319717347621918,-0.4840088188648224,-26.400320053100586,0.1299442278448906,-0.2629315569738133,0.4476094138498107,-0.2507744513452053
-1.431021809577942,0.8575223088264465,-29.42650032043457,0.1299442278448906,-0.2629315569738133,0.4476094138498107,-0.2507744513452053
-0.051044903695583344,0.4937850534915924,-32.41263961791992,0.1299442278448906,-0.2629315569738133,0.4476094138498107,-0.2507744513452053
0.03075656294822693,0.7852468490600586,-35.472312927246094,0.1299442278448906,-0.2629315569738133,0.4476094138498107,-0.2507744513452053
0.5062685012817383,-1.3875998258590698,-38.5765495300293,0.1299442278448906,-0.2629315569738133,0.4476094138498107,-0.2507744513452053
0.15264269709587097,1.5659383535385132,-41.800350189208984,0.1299442278448906,-0.2629315569738133,0.4476094138498107,-0.2507744513452053
-0.2882671058177948,-0.5370547771453857,-44.92527770996094,0.1299442278448906,-0.2629315569738133,0.4476094138498107,-0.2507744513452053
-0.6286612153053284,0.13054309785366058,-48.03680419921875,0.1299442278448906,-0.2629315569738133,0.4476094138498107,-0.2507744513452053
-0.6520588994026184,0.24103544652462006,-51.13413619995117,0.1299442278448906,-0.2629315569738133,0.4476094138498107,-0.2507744513452053
-0.464736670255661,-0.3462704122066498,-54.28797912597656,0.1299442278448906,-0.2629315569738133,0.4476094138498107,-0.2507744513452053
0.45644089579582214,1.2271052598953247,-57.467681884765625,0.1299442278448906,-0.2629315569738133,0.4476094138498107,-0.2507744513452053
-0.6309508085250854,0.4110143482685089,-60.65098190307617,0.1299442278448906,-0.2629315569738133,0.4476094138498107,-0.2507744513452053
-0.3927554190158844,0.9916130900382996,-63.827728271484375,0.1299442278448906,-0.2629315569738133,0.4476094138498107,-0.2507744513452053
-0.5133287310600281,-0.5042518377304077,-67.00729370117188,0.1299442278448906,-0.2629315569738133,0.4476094138498107,-0.2507744513452053
0.20633944869041443,0.9610772132873535,-70.32284545898438,0.1299442278448906,-0.2629315569738133,0.4476094138498107,-0.2507744513452053
-0.12658019363880157,-0.8714050650596619,-73.60110473632812,0.1299442278448906,-0.2629315569738133,0.4476094138498107,-0.2507744513452053
0.5388579368591309,1.962388038635254,-76.82848358154297,0.1299442278448906,-0.2629315569738133,0.4476094138498107,-0.2507744513452053
-0.1703486442565918,0.12180399894714355,-80.00598907470703,0.1299442278448906,-0.2629315569738133,0.4476094138498107,-0.2507744513452053
0.36075788736343384,1.2844794988632202,-83.22074890136719,0.1299442278448906,-0.2629315569738133,0.4476094138498107,-0.2507744513452053
-0.3650004267692566,0.01943281665444374,-86.34062194824219,0.1299442278448906,-0.2629315569738133,0.4476094138498107,-0.2507744513452053
1.0140033960342407,0.8752782344818115,-89.57384490966797,0.1299442278448906,-0.2629315569738133,0.4476094138498107,-0.2507744513452053
-1.1258974075317383,0.07527762651443481,-92.7240219116211,0.1299442278448906,-0.2629315569738133,0.4476094138498107,-0.2507744513452053
0.8997820019721985,0.9430219531059265,-95.88115692138672,0.1299442278448906,-0.2629315569738133,0.4476094138498107,-0.2507744513452053
0.8464239835739136,0.27148741483688354,-99.08277893066406,0.1299442278448906,-0.2629315569738133,0.4476094138498107,-0.2507744513452053
-0.9143621325492859,-0.507557213306427,-102.28927612304688,0.1299442278448906,-0.2629315569738133,0.4476094138498107,-0.2507744513452053
1.4249444007873535,1.8946106433868408,-105.5441665649414,0.1299442278448906,-0.2629315569738133,0.4476094138498107,-0.2507744513452053
-0.39200395345687866,0.34875550866127014,-108.72332000732422,0.1299442278448906,-0.2629315569738133,0.4476094138498107,-0.2507744513452053
0.020368972793221474,0.5459321737289429,-111.90325927734375,0.1299442278448906,-0.2629315569738133,0.4476094138498107,-0.2507744513452053
-0.2577034831047058,0.3825266361236572,-115.08248901367188,0.1299442278448906,-0.2629315569738133,0.4476094138498107,-0.2507744513452053
-0.030881663784384727,-0.003250802168622613,-118.27417755126953,0.1299442278448906,-0.2629315569738133,0.4476094138498107,-0.2507744513452053
0.396834135055542,0.44582024216651917,-121.43778991699219,0.1299442278448906,-0.2629315569738133,0.4476094138498107,-0.2507744513452053
0.6602004170417786,0.5792564153671265,-124.45929718017578,0.1299442278448906,-0.2629315569738133,0.4476094138498107,-0.2507744513452053
0.5115594863891602,0.5303561091423035,-127.46479034423828,0.1299442278448906,-0.2629315569738133,0.4476094138498107,-0.2507744513452053
-0.3529387414455414,-0.2932088375091553,-130.43821716308594,0.1299442278448906,-0.2629315569738133,0.4476094138498107,-0.2507744513452053
0.9780036211013794,1.029403805732727,-133.40264892578125,0.1299442278448906,-0.2629315569738133,0.4476094138498107,-0.2507744513452053
1.1608766317367554,-0.11999370902776718,-136.29644775390625,0.1299442278448906,-0.2629315569738133,0.4476094138498107,-0.2507744513452053
0.25214409828186035,-0.27723944187164307,-139.19032287597656,0.1299442278448906,-0.2629315569738133,0.4476094138498107,-0.2507744513452053
0.6025451421737671,0.627208411693573,-142.10133361816406,0.1299442278448906,-0.2629315569738133,0.4476094138498107,-0.2507744513452053
-0.09421133249998093,0.420165479183197,-144.9518585205078,0.1299442278448906,-0.2629315569738133,0.4476094138498107,-0.2507744513452053
-0.25741949677467346,-0.11744792759418488,-147.7370147705078,0.1299442278448906,-0.2629315569738133,0.4476094138498107,-0.2507744513452053
0.23732033371925354,-0.49414920806884766,-150.59642028808594,0.1299442278448906,-0.2629315569738133,0.4476094138498107,-0.2507744513452053
0.4417125880718231,0.8144863247871399,-153.4393768310547,0.1299442278448906,-0.2629315569738133,0.4476094138498107,-0.2507744513452053
0.20631520450115204,-0.12820173799991608,-156.2425537109375,0.1299442278448906,-0.2629315569738133,0.4476094138498107,-0.2507744513452053
0.1497310847043991,-0.049077194184064865,-159.13050842285156,0.1299442278448906,-0.2629315569738133,0.4476094138498107,-0.2507744513452053
0.5722549557685852,0.27853119373321533,-162.09820556640625,0.1299442278448906,-0.2629315569738133,0.4476094138498107,-0.2507744513452053
0.5358858704566956,0.28433579206466675,-165.0703125,0.1299442278448906,-0.2629315569738133,0.4476094138498107,-0.2507744513452053
0.11734095960855484,0.327044814825058,-168.013427734375,0.1299442278448906,-0.2629315569738133,0.4476094138498107,-0.2507744513452053
0.8168668746948242,-0.17266516387462616,-170.97671508789062,0.1299442278448906,-0.2629315569738133,0.4476094138498107,-0.2507744513452053
-0.14598719775676727,-0.16976027190685272,-173.92892456054688,0.1299442278448906,-0.2629315569738133,0.4476094138498107,-0.2507744513452053
0.5111560225486755,-0.3479076027870178,-176.90408325195312,0.1299442278448906,-0.2629315569738133,0.4476094138498107,-0.2507744513452053
0.5314866900444031,0.6256209015846252,-179.81089782714844,0.1299442278448906,-0.2629315569738133,0.4476094138498107,-0.2507744513452053
0.34561392664909363,-0.9685898423194885,177.1981201171875,0.1299442278448906,-0.2629315569738133,0.4476094138498107,-0.2507744513452053
-0.3771415650844574,1.0088589191436768,174.2241973876953,0.1299442278448906,-0.2629315569738133,0.4476094138498107,-0.2507744513452053
0.769074022769928,0.2624625265598297,171.20472717285156,0.1299442278448906,-0.2629315569738133,0.4476094138498107,-0.2507744513452053
-0.45208123326301575,-0.10822798311710358,168.0469512939453,0.1299442278448906,-0.2629315569738133,0.4476094138498107,-0.2507744513452053
0.5159309506416321,-0.8296332955360413,164.97103881835938,0.1299442278448906,-0.2629315569738133,0.4476094138498107,-0.2507744513452053
0.5191688537597656,0.8836304545402527,161.93252563476562,0.1299442278448906,-0.2629315569738133,0.4476094138498107,-0.2507744513452053
-0.6411235928535461,0.7451399564743042,158.92166137695312,0.1299442278448906,-0.2629315569738133,0.4476094138498107,-0.2507744513452053
1.0553783178329468,-1.7840653657913208,155.87794494628906,0.1299442278448906,-0.2629315569738133,0.4476094138498107,-0.2507744513452053
0.6756324768066406,0.8941566348075867,152.94773864746094,0.1299442278448906,-0.2629315569738133,0.4476094138498107,-0.2507744513452053
0.3636154532432556,-0.6850326657295227,149.9364013671875,0.1299442278448906,-0.2629315569738133,0.4476094138498107,-0.2507744513452053
0.6170052289962769,-1.1036176681518555,146.89016723632812,0.1299442278448906,-0.2629315569738133,0.4476094138498107,-0.2507744513452053
-0.08683416247367859,-0.1886976808309555,143.80943298339844,0.1299442278448906,-0.2629315569738133,0.4476094138498107,-0.2507744513452053
0.07555843144655228,0.47655749320983887,140.80364990234375,0.1299442278448906,-0.2629315569738133,0.4476094138498107,-0.2507744513452053
0.16207267343997955,-0.5723102688789368,137.79287719726562,0.1299442278448906,-0.2629315569738133,0.4476094138498107,-0.2507744513452053
-0.2767546474933624,-0.5237564444541931,134.8677978515625,0.1299442278448906,-0.2629315569738133,0.4476094138498107,-0.2507744513452053
0.5965073108673096,-0.0456615649163723,131.90611267089844,0.1299442278448906,-0.2629315569738133,0.4476094138498107,-0.2507744513452053
1.0010114908218384,-0.48714420199394226,128.9498291015625,0.1299442278448906,-0.2629315569738133,0.4476094138498107,-0.2507744513452053
0.13691078126430511,-0.5330392718315125,126.04558563232422,0.1299442278448906,-0.2629315569738133,0.4476094138498107,-0.2507744513452053
-0.19987131655216217,-0.4355446994304657,123.14261627197266,0.1299442278448906,-0.2629315569738133,0.4476094138498107,-0.2507744513452053
0.45039644837379456,-0.3665485978126526,120.21470642089844,0.1299442278448906,-0.2629315569738133,0.4476094138498107,-0.2507744513452053
0.7984001636505127,-0.9254266619682312,117.25447082519531,0.1299442278448906,-0.2629315569738133,0.4476094138498107,-0.2507744513452053
-0.43068256974220276,-0.6829153895378113,114.22891235351562,0.1299442278448906,-0.2629315569738133,0.4476094138498107,-0.2507744513452053
-0.029419103637337685,-0.8308086395263672,111.20915222167969,0.1299442278448906,-0.2629315569738133,0.4476094138498107,-0.2507744513452053
1.2394225597381592,0.808958113193512,108.27193450927734,0.1299442278448906,-0.2629315569738133,0.4476094138498107,-0.2507744513452053
-0.3185235261917114,-0.7678620219230652,105.31696319580078,0.1299442278448906,-0.2629315569738133,0.4476094138498107,-0.2507744513452053
0.06926151365041733,-0.5065743923187256,102.35784149169922,0.1299442278448906,-0.2629315569738133,0.4476094138498107,-0.2507744513452053
0.2039206475019455,-0.22548578679561615,99.41857147216797,0.1299442278448906,-0.2629315569738133,0.4476094138498107,-0.2507744513452053
0.11972097307443619,-1.1180802583694458,96.47186279296875,0.1299442278448906,-0.2629315569738133,0.4476094138498107,-0.2507744513452053
-0.992200493812561,-1.717176914215088,93.65111541748047,0.1299442278448906,-0.2629315569738133,0.4476094138498107,-0.2507744513452053
-0.27257975935935974,0.19120915234088898,90.96902465820312,0.1299442278448906,-0.2629315569738133,0.4476094138498107,-0.2507744513452053
0.6149351000785828,0.774247407913208,88.18663787841797,0.1299442278448906,-0.2629315569738133,0.4476094138498107,-0.2507744513452053
0.1688385009765625,-0.1857798993587494,85.25502014160156,0.1299442278448906,-0.2629315569738133,0.4476094138498107,-0.2507744513452053
-0.8980433940887451,-1.6006466150283813,82.3616714477539,0.1299442278448906,-0.2629315569738133,0.4476094138498107,-0.2507744513452053
0.09738847613334656,0.026840699836611748,79.54853057861328,0.1299442278448906,-0.2629315569738133,0.4476094138498107,-0.2507744513452053
-1.004049301147461,-0.041139472275972366,76.76077270507812,0.1299442278448906,-0.2629315569738133,0.4476094138498107,-0.2507744513452053
0.8987487554550171,0.37405675649642944,73.92266082763672,0.1299442278448906,-0.2629315569738133,0.4476094138498107,-0.2507744513452053
-1.0293604135513306,-1.0568372011184692,71.128173828125,0.1299442278448906,-0.2629315569738133,0.4476094138498107,-0.2507744513452053
0.19012205302715302,-0.6909828782081604,68.38249206542969,0.1299442278448906,-0.2629315569738133,0.4476094138498107,-0.2507744513452053
-0.9591956734657288,0.08488205075263977,65.61568450927734,0.1299442278448906,-0.2629315569738133,0.4476094138498107,-0.2507744513452053
0.866479218006134,-1.0262203216552734,62.89741134643555,0.1299442278448906,-0.2629315569738133,0.4476094138498107,-0.2507744513452053
-0.8518403172492981,-0.20043273270130157,60.15483474731445,0.1299442278448906,-0.2629315569738133,0.4476094138498107,-0.2507744513452053
0.05224405601620674,-0.3303665816783905,57.42441940307617,0.1299442278448906,-0.2629315569738133,0.4476094138498107,-0.2507744513452053
-0.8166667819023132,0.21034736931324005,54.63558578491211,0.1299442278448906,-0.2629315569738133,0.4476094138498107,-0.2507744513452053
0.74165278673172,-0.9451079964637756,51.856773376464844,0.1299442278448906,-0.2629315569738133,0.4476094138498107,-0.2507744513452053
-0.35276874899864197,-0.8127557039260864,49.141239166259766,0.1299442278448906,-0.2629315569738133,0.4476094138498107,-0.2507744513452053
-0.904464602470398,0.1135052815079689,46.35224533081055,0.1299442278448906,-0.2629315569738133,0.4476094138498107,-0.2507744513452053
0.3167817294597626,-0.40408408641815186,43.61779022216797,0.1299442278448906,-0.2629315569738133,0.4476094138498107,-0.2507744513452053
-1.0125398635864258,-0.33502331376075745,40.80864715576172,0.1299442278448906,-0.2629315569738133,0.4476094138498107,-0.2507744513452053
0.05533086881041527,0.10128425061702728,38.0242919921875,0.1299442278448906,-0.2629315569738133,0.4476094138498107,-0.2507744513452053
0.349130243062973,-0.004654124844819307,35.187171936035156,0.1299442278448906,-0.2629315569738133,0.4476094138498107,-0.2507744513452053
-1.2331697940826416,-0.49806588888168335,32.21263122558594,0.1299442278448906,-0.2629315569738133,0.4476094138498107,-0.2507744513452053
-0.03782167658209801,-0.12294483929872513,29.26314926147461,0.1299442278448906,-0.2629315569738133,0.4476094138498107,-0.2507744513452053
-0.8145971298217773,-0.11118680983781815,26.231348037719727,0.1299442278448906,-0.2629315569738133,0.4476094138498107,-0.2507744513452053
-0.48513972759246826,-0.5397217273712158,23.17459487915039,0.1299442278448906,-0.2629315569738133,0.4476094138498107,-0.2507744513452053
-0.7616109848022461,0.3019166886806488,20.135957717895508,0.1299442278448906,-0.2629315569738133,0.4476094138498107,-0.2507744513452053
-0.3559425175189972,-0.7316298484802246,17.046541213989258,0.1299442278448906,-0.2629315569738133,0.4476094138498107,-0.2507744513452053
1.201941967010498,-0.8203833103179932,13.952825546264648,0.1299442278448906,-0.2629315569738133,0.4476094138498107,-0.2507744513452053
-0.8978858590126038,0.20909003913402557,10.775125503540039,0.1299442278448906,-0.2629315569738133,0.4476094138498107,-0.2507744513452053
-0.6090924739837646,-0.7195171117782593,7.706687927246094,0.1299442278448906,-0.2629315569738133,0.4476094138498107,-0.2507744513452053
-0.7576509118080139,0.9534624814987183,4.635737419128418,0.1299442278448906,-0.2629315569738133,0.4476094138498107,-0.2507744513452053
0.6312897205352783,-0.5770930647850037,1.515883207321167,0.1299442278448906,-0.2629315569738133,0.4476094138498107,-0.2507744513452053
-2.2240071296691895,1.949083924293518,-1.5517910718917847,0.1299442278448906,-0.2629315569738133,0.4476094138498107,-0.2507744513452053
-1.0772759914398193,-0.9009032249450684,-4.554285049438477,0.1299442278448906,-0.2629315569738133,0.4476094138498107,-0.2507744513452053
-0.9450473189353943,0.4095620810985565,-7.50807523727417,0.1299442278448906,-0.2629315569738133,0.4476094138498107,-0.2507744513452053
0.42502471804618835,0.12833864986896515,-10.548346519470215,0.1299442278448906,-0.2629315569738133,0.4476094138498107,-0.2507744513452053
-0.18602833151817322,0.44274574518203735,-13.631589889526367,0.1299442278448906,-0.2629315569738133,0.4476094138498107,-0.2507744513452053
-0.16408906877040863,-0.2502918541431427,-16.616945266723633,0.1299442278448906,-0.2629315569738133,0.4476094138498107,-0.2507744513452053
-0.3263939619064331,0.6129934787750244,-19.533119201660156,0.1299442278448906,-0.2629315569738133,0.4476094138498107,-0.2507744513452053
-0.06979267299175262,-0.22383101284503937,-22.557846069335938,0.1299442278448906,-0.2629315569738133,0.4476094138498107,-0.2507744513452053
-1.1953192949295044,-0.6299863457679749,-25.641611099243164,0.1299442278448906,-0.2629315569738133,0.4476094138498107,-0.2507744513452053
-0.46953484416007996,1.116279125213623,-28.6614933013916,0.1299442278448906,-0.2629315569738133,0.4476094138498107,-0.2507744513452053
0.09823181480169296,0.3101394772529602,-31.807388305664062,0.1299442278448906,-0.2629315569738133,0.4476094138498107,-0.2507744513452053
-0.371778666973114,0.5755181312561035,-35.001827239990234,0.1299442278448906,-0.2629315569738133,0.4476094138498107,-0.2507744513452053
0.006247973069548607,-0.017833467572927475,-38.16801452636719,0.1299442278448906,-0.2629315569738133,0.4476094138498107,-0.2507744513452053
-1.0375914573669434,-0.07616683840751648,-41.30491638183594,0.1299442278448906,-0.2629315569738133,0.4476094138498107,-0.2507744513452053
-0.15507261455059052,0.15213832259178162,-44.434814453125,0.1299442278448906,-0.2629315569738133,0.4476094138498107,-0.2507744513452053
-0.4238753914833069,-0.9850443005561829,-47.58546447753906,0.1299442278448906,-0.2629315569738133,0.4476094138498107,-0.2507744513452053
-0.19928905367851257,-0.032547686249017715,-50.750701904296875,0.1299442278448906,-0.2629315569738133,0.4476094138498107,-0.2507744513452053
0.4315134584903717,0.8069307208061218,-53.970436096191406,0.1299442278448906,-0.2629315569738133,0.4476094138498107,-0.2507744513452053
-0.5747711062431335,0.7213742733001709,-57.063743591308594,0.1299442278448906,-0.2629315569738133,0.4476094138498107,-0.2507744513452053
0.39261889457702637,1.5451568365097046,-60.278114318847656,0.1299442278448906,-0.2629315569738133,0.4476094138498107,-0.2507744513452053
-1.1325470209121704,-0.20365597307682037,-63.432472229003906,0.1299442278448906,-0.2629315569738133,0.4476094138498107,-0.2507744513452053
0.33413639664649963,0.691508412361145,-66.50749206542969,0.1299442278448906,-0.2629315569738133,0.4476094138498107,-0.2507744513452053
-0.08200498670339584,0.07917749881744385,-69.55249786376953,0.1299442278448906,-0.2629315569738133,0.4476094138498107,-0.2507744513452053
0.15208452939987183,0.1720416098833084,-72.72724914550781,0.1299442278448906,-0.2629315569738133,0.4476094138498107,-0.2507744513452053
-0.6594592928886414,0.26998454332351685,-75.85104370117188,0.1299442278448906,-0.2629315569738133,0.4476094138498107,-0.2507744513452053
-0.5723520517349243,0.14713332056999207,-78.97649383544922,0.1299442278448906,-0.2629315569738133,0.4476094138498107,-0.2507744513452053
0.3938570022583008,1.1579076051712036,-82.15209197998047,0.1299442278448906,-0.2629315569738133,0.4476094138498107,-0.2507744513452053
-0.18992014229297638,0.8035657405853271,-85.26313781738281,0.1299442278448906,-0.2629315569738133,0.4476094138498107,-0.2507744513452053
0.1585002988576889,0.49507930874824524,-88.4098892211914,0.1299442278448906,-0.2629315569738133,0.4476094138498107,-0.2507744513452053
0.6584326028823853,-0.07808516174554825,-91.57003021240234,0.1299442278448906,-0.2629315569738133,0.4476094138498107,-0.2507744513452053
-0.4137878715991974,0.1589008867740631,-94.79737854003906,0.1299442278448906,-0.2629315569738133,0.4476094138498107,-0.2507744513452053
0.24301348626613617,1.2750500440597534,-98.52535247802734,0.1299442278448906,-0.2629315569738133,0.4476094138498107,-0.2507744513452053
-0.4089798927307129,0.7516542673110962,-101.63546752929688,0.1299442278448906,-0.2629315569738133,0.4476094138498107,-0.2507744513452053
-0.055717986077070236,0.3157922923564911,-104.73438262939453,0.1299442278448906,-0.2629315569738133,0.4476094138498107,-0.2507744513452053
0.5795471668243408,0.6981519460678101,-107.81114196777344,0.1299442278448906,-0.2629315569738133,0.4476094138498107,-0.2507744513452053
0.13662445545196533,0.09835966676473618,-110.84113311767578,0.1299442278448906,-0.2629315569738133,0.4476094138498107,-0.2507744513452053
0.13813219964504242,0.5728722214698792,-113.82190704345703,0.1299442278448906,-0.2629315569738133,0.4476094138498107,-0.2507744513452053
-0.17358873784542084,0.46981915831565857,-116.74958801269531,0.1299442278448906,-0.2629315569738133,0.4476094138498107,-0.2507744513452053
0.2317526787519455,-0.04862162843346596,-119.73824310302734,0.1299442278448906,-0.2629315569738133,0.4476094138498107,-0.2507744513452053
0.7457643151283264,-0.009622281417250633,-122.76173400878906,0.1299442278448906,-0.2629315569738133,0.4476094138498107,-0.2507744513452053
0.38377076387405396,1.1780353784561157,-125.73027038574219,0.1299442278448906,-0.2629315569738133,0.4476094138498107,-0.2507744513452053
-0.3841201663017273,0.08995471894741058,-128.5953826904297,0.1299442278448906,-0.2629315569738133,0.4476094138498107,-0.2507744513452053
1.2339318990707397,-0.06328027695417404,-131.4772491455078,0.1299442278448906,-0.2629315569738133,0.4476094138498107,-0.2507744513452053
-1.3303265571594238,0.19844679534435272,-134.34408569335938,0.1299442278448906,-0.2629315569738133,0.4476094138498107,-0.2507744513452053
1.6918997764587402,0.9418069124221802,-137.3448944091797,0.1299442278448906,-0.2629315569738133,0.4476094138498107,-0.2507744513452053
-0.7930226922035217,-0.11013855785131454,-140.24349975585938,0.1299442278448906,-0.2629315569738133,0.4476094138498107,-0.2507744513452053
0.3508399426937103,0.12452852725982666,-143.21047973632812,0.1299442278448906,-0.2629315569738133,0.4476094138498107,-0.2507744513452053
0.25557297468185425,-0.33130279183387756,-146.2318878173828,0.1299442278448906,-0.2629315569738133,0.4476094138498107,-0.2507744513452053
-0.25518327951431274,0.115268774330616,-149.39076232910156,0.1299442278448906,-0.2629315569738133,0.4476094138498107,-0.2507744513452053
1.31194269657135,0.07901198416948318,-152.53330993652344,0.1299442278448906,-0.2629315569738133,0.4476094138498107,-0.2507744513452053
0.8571153283119202,0.3391127586364746,-155.51327514648438,0.1299442278448906,-0.2629315569738133,0.4476094138498107,-0.2507744513452053
1.0423598289489746,-0.3583165109157562,-158.40451049804688,0.1299442278448906,-0.2629315569738133,0.4476094138498107,-0.2507744513452053
-0.31809189915657043,0.18064604699611664,-161.37159729003906,0.1299442278448906,-0.2629315569738133,0.4476094138498107,-0.2507744513452053
-1.1201667785644531,0.8575852513313293,-164.2332000732422,0.1299442278448906,-0.2629315569738133,0.4476094138498107,-0.2507744513452053
0.9662390351295471,-0.6139072775840759,-167.07810974121094,0.1299442278448906,-0.2629315569738133,0.4476094138498107,-0.2507744513452053
-0.16817845404148102,-0.09925898909568787,-170.02822875976562,0.1299442278448906,-0.2629315569738133,0.4476094138498107,-0.2507744513452053
1.8043879270553589,0.028302572667598724,-173.0561981201172,0.1299442278448906,-0.2629315569738133,0.4476094138498107,-0.2507744513452053
0.5417243838310242,0.8064462542533875,-176.01895141601562,0.1299442278448906,-0.2629315569738133,0.4476094138498107,-0.2507744513452053
-0.2758798897266388,0.11760605126619339,-179.03369140625,0.1299442278448906,-0.2629315569738133,0.4476094138498107,-0.2507744513452053
0.027657929807901382,-0.027981329709291458,177.92947387695312,0.1299442278448906,-0.2629315569738133,0.4476094138498107,-0.2507744513452053
1.3730534315109253,-1.4216399192810059,174.83213806152344,0.1299442278448906,-0.2629315569738133,0.4476094138498107,-0.2507744513452053
0.40314435958862305,0.926092803478241,171.72608947753906,0.1299442278448906,-0.2629315569738133,0.4476094138498107,-0.2507744513452053
0.17400895059108734,-0.3222757577896118,168.63363647460938,0.1299442278448906,-0.2629315569738133,0.4476094138498107,-0.2507744513452053
0.41001811623573303,0.10226502269506454,165.56898498535156,0.1299442278448906,-0.2629315569738133,0.4476094138498107,-0.2507744513452053
-0.17879341542720795,0.3460996150970459,162.5152130126953,0.1299442278448906,-0.2629315569738133,0.4476094138498107,-0.2507744513452053
0.879818856716156,0.05358738452196121,159.46778869628906,0.1299442278448906,-0.2629315569738133,0.4476094138498107,-0.2507744513452053
-0.05130578950047493,0.43829622864723206,156.496337890625,0.1299442278448906,-0.2629315569738133,0.4476094138498107,-0.2507744513452053
0.0006571398698724806,-0.3318767845630646,153.52491760253906,0.1299442278448906,-0.2629315569738133,0.4476094138498107,-0.2507744513452053
0.5885494351387024,-1.6133426427841187,150.5608673095703,0.1299442278448906,-0.2629315569738133,0.4476094138498107,-0.2507744513452053
0.4666917622089386,0.2624363899230957,147.69175720214844,0.1299442278448906,-0.2629315569738133,0.4476094138498107,-0.2507744513452053
0.5547371506690979,-0.36994045972824097,144.79110717773438,0.1299442278448906,-0.2629315569738133,0.4476094138498107,-0.2507744513452053
0.8369492888450623,0.5831071734428406,141.87803649902344,0.1299442278448906,-0.2629315569738133,0.4476094138498107,-0.2507744513452053
-0.03999689593911171,-1.037753939628601,138.88641357421875,0.1299442278448906,-0.2629315569738133,0.4476094138498107,-0.2507744513452053
0.3099110424518585,0.809813916683197,135.8920440673828,0.1299442278448906,-0.2629315569738133,0.4476094138498107,-0.2507744513452053
0.2256249636411667,-2.568253993988037,132.83547973632812,0.1299442278448906,-0.2629315569738133,0.4476094138498107,-0.2507744513452053
0.448099285364151,1.1515440940856934,129.8350372314453,0.1299442278448906,-0.2629315569738133,0.4476094138498107,-0.2507744513452053
-0.5636427402496338,-1.335922122001648,126.80429077148438,0.1299442278448906,-0.2629315569738133,0.4476094138498107,-0.2507744513452053
1.321415901184082,0.5527940988540649,123.80888366699219,0.1299442278448906,-0.2629315569738133,0.4476094138498107,-0.2507744513452053
-0.0037898351438343525,-0.4346223771572113,120.76460266113281,0.1299442278448906,-0.2629315569738133,0.4476094138498107,-0.2507744513452053
1.0593456029891968,-0.20138899981975555,117.80695343017578,0.1299442278448906,-0.2629315569738133,0.4476094138498107,-0.2507744513452053
-1.4494644403457642,-2.1795589923858643,114.85340118408203,0.1299442278448906,-0.2629315569738133,0.4476094138498107,-0.2507744513452053
0.40393126010894775,1.446276307106018,112.02106475830078,0.1299442278448906,-0.2629315569738133,0.4476094138498107,-0.2507744513452053
1.627689003944397,-0.12934698164463043,109.13341522216797,0.1299442278448906,-0.2629315569738133,0.4476094138498107,-0.2507744513452053
-0.6978663802146912,-0.5070501565933228,106.35079193115234,0.1299442278448906,-0.2629315569738133,0.4476094138498107,-0.2507744513452053
-0.8638278841972351,-1.8646044731140137,103.58179473876953,0.1299442278448906,-0.2629315569738133,0.4476094138498107,-0.2507744513452053
-0.021591156721115112,0.25517719984054565,100.92375946044922,0.1299442278448906,-0.2629315569738133,0.4476094138498107,-0.2507744513452053
-0.4938581883907318,-0.2945060431957245,98.16621398925781,0.1299442278448906,-0.2629315569738133,0.4476094138498107,-0.2507744513452053
0.3731286823749542,-0.16609996557235718,95.4827880859375,0.1299442278448906,-0.2629315569738133,0.4476094138498107,-0.2507744513452053
-0.6906457543373108,-0.57820725440979,92.79443359375,0.1299442278448906,-0.2629315569738133,0.4476094138498107,-0.2507744513452053
-0.20395956933498383,-0.9704957008361816,90.01113891601562,0.1299442278448906,-0.2629315569738133,0.4476094138498107,-0.2507744513452053
0.11835534870624542,0.9608768224716187,87.26351928710938,0.1299442278448906,-0.2629315569738133,0.4476094138498107,-0.2507744513452053
-0.06927477568387985,-1.9196984767913818,84.44329071044922,0.1299442278448906,-0.2629315569738133,0.4476094138498107,-0.2507744513452053
1.1927237510681152,0.46838438510894775,81.61306762695312,0.1299442278448906,-0.2629315569738133,0.4476094138498107,-0.2507744513452053
-0.47463881969451904,-0.5801706314086914,78.6804428100586,0.1299442278448906,-0.2629315569738133,0.4476094138498107,-0.2507744513452053
0.5003806948661804,-0.8464815020561218,75.83297729492188,0.1299442278448906,-0.2629315569738133,0.4476094138498107,-0.2507744513452053
0.06829631328582764,-0.2968040406703949,73.00553131103516,0.1299442278448906,-0.2629315569738133,0.4476094138498107,-0.2507744513452053
-0.5754685401916504,-0.17241241037845612,70.17484283447266,0.1299442278448906,-0.2629315569738133,0.4476094138498107,-0.2507744513452053
-0.36034125089645386,-0.6645105481147766,67.3596420288086,0.1299442278448906,-0.2629315569738133,0.4476094138498107,-0.2507744513452053
-0.3587416410446167,-0.5526925921440125,64.57230377197266,0.1299442278448906,-0.2629315569738133,0.4476094138498107,-0.2507744513452053
-0.5068351030349731,-0.00943762343376875,61.7320442199707,0.1299442278448906,-0.2629315569738133,0.4476094138498107,-0.2507744513452053
0.4349744915962219,0.4063856601715088,58.917327880859375,0.1299442278448906,-0.2629315569738133,0.4476094138498107,-0.2507744513452053
0.3820131719112396,-0.9593407511711121,56.05588150024414,0.1299442278448906,-0.2629315569738133,0.4476094138498107,-0.2507744513452053
0.4198385775089264,-0.4816199541091919,53.260128021240234,0.1299442278448906,-0.2629315569738133,0.4476094138498107,-0.2507744513452053
-0.7688462138175964,-0.017344897612929344,50.4825553894043,0.1299442278448906,-0.2629315569738133,0.4476094138498107,-0.2507744513452053
-1.0724263191223145,-0.47381970286369324,47.66398239135742,0.1299442278448906,-0.2629315569738133,0.4476094138498107,-0.2507744513452053
-1.455298662185669,0.01639581471681595,44.90040588378906,0.1299442278448906,-0.2629315569738133,0.4476094138498107,-0.2507744513452053
-1.3728934526443481,0.5870630741119385,42.100486755371094,0.1299442278448906,-0.2629315569738133,0.4476094138498107,-0.2507744513452053
0.9783593416213989,-1.3085463047027588,39.336204528808594,0.1299442278448906,-0.2629315569738133,0.4476094138498107,-0.2507744513452053
-1.253942608833313,-0.17139488458633423,36.59981155395508,0.1299442278448906,-0.2629315569738133,0.4476094138498107,-0.2507744513452053
0.8971258997917175,-0.3204490840435028,33.83744812011719,0.1299442278448906,-0.2629315569738133,0.4476094138498107,-0.2507744513452053
-2.095322608947754,0.4651224911212921,31.04029655456543,0.1299442278448906,-0.2629315569738133,0.4476094138498107,-0.2507744513452053
-0.5107120871543884,0.6165412068367004,28.271923065185547,0.1299442278448906,-0.2629315569738133,0.4476094138498107,-0.2507744513452053
1.1378179788589478,-1.0526341199874878,25.47802734375,0.1299442278448906,-0.2629315569738133,0.4476094138498107,-0.2507744513452053
-0.2115115374326706,-1.4570178985595703,22.72158432006836,0.1299442278448906,-0.2629315569738133,0.4476094138498107,-0.2507744513452053
-0.6020366549491882,-0.2760460674762726,19.83477210998535,0.1299442278448906,-0.2629315569738133,0.4476094138498107,-0.2507744513452053
-1.8383619785308838,0.5706446170806885,16.978097915649414,0.1299442278448906,-0.2629315569738133,0.4476094138498107,-0.2507744513452053
0.4018283188343048,-0.5950796008110046,13.985962867736816,0.1299442278448906,-0.2629315569738133,0.4476094138498107,-0.2507744513452053
-0.43358010053634644,0.3263075053691864,10.985864639282227,0.1299442278448906,-0.2629315569738133,0.4476094138498107,-0.2507744513452053
-0.5844998955726624,-0.8242801427841187,8.058144569396973,0.1299442278448906,-0.2629315569738133,0.4476094138498107,-0.2507744513452053
-0.353044331073761,0.6650213599205017,5.178069591522217,0.1299442278448906,-0.2629315569738133,0.4476094138498107,-0.2507744513452053
-0.21069197356700897,0.4968634247779846,2.2345449924468994,0.1299442278448906,-0.2629315569738133,0.4476094138498107,-0.2507744513452053
-0.03283770754933357,-0.6769317984580994,-0.747356653213501,0.1299442278448906,-0.2629315569738133,0.4476094138498107,-0.2507744513452053
-1.0794833898544312,0.3140166699886322,-3.769289016723633,0.1299442278448906,-0.2629315569738133,0.4476094138498107,-0.2507744513452053
-0.22695425152778625,-0.2976585030555725,-6.761589527130127,0.1299442278448906,-0.2629315569738133,0.4476094138498107,-0.2507744513452053
0.3123745620250702,0.4379478096961975,-9.79727554321289,0.1299442278448906,-0.2629315569738133,0.4476094138498107,-0.2507744513452053
-0.04518914967775345,-1.4972126483917236,-12.81274127960205,0.1299442278448906,-0.2629315569738133,0.4476094138498107,-0.2507744513452053
0.3786405026912689,0.04642585664987564,-15.836551666259766,0.1299442278448906,-0.2629315569738133,0.4476094138498107,-0.2507744513452053
-0.5690831542015076,-0.2812008261680603,-18.864667892456055,0.1299442278448906,-0.2629315569738133,0.4476094138498107,-0.2507744513452053
-0.25239044427871704,0.40049153566360474,-21.97304916381836,0.1299442278448906,-0.2629315569738133,0.4476094138498107,-0.2507744513452053
-1.0864284038543701,-0.0009074320551007986,-25.030607223510742,0.1299442278448906,-0.2629315569738133,0.4476094138498107,-0.2507744513452053
-0.5921807289123535,0.9183756113052368,-28.099519729614258,0.1299442278448906,-0.2629315569738133,0.4476094138498107,-0.2507744513452053
-0.6386538743972778,0.07761441171169281,-31.228790283203125,0.1299442278448906,-0.2629315569738133,0.4476094138498107,-0.2507744513452053
-0.26256686449050903,-0.015947362408041954,-34.37110900878906,0.1299442278448906,-0.2629315569738133,0.4476094138498107,-0.2507744513452053
-0.32787835597991943,-0.32142841815948486,-37.54838180541992,0.1299442278448906,-0.2629315569738133,0.4476094138498107,-0.2507744513452053
-0.9216054677963257,1.3104851245880127,-40.7568473815918,0.1299442278448906,-0.2629315569738133,0.4476094138498107,-0.2507744513452053
0.2691371440887451,-0.210942342877388,-43.964149475097656,0.1299442278448906,-0.2629315569738133,0.4476094138498107,-0.2507744513452053
-0.14719228446483612,0.4387699365615845,-46.99946212768555,0.1299442278448906,-0.2629315569738133,0.4476094138498107,-0.2507744513452053
-0.26760992407798767,0.8180781006813049,-50.122982025146484,0.1299442278448906,-0.2629315569738133,0.4476094138498107,-0.2507744513452053
0.8223273158073425,0.37080109119415283,-53.18307876586914,0.1299442278448906,-0.2629315569738133,0.4476094138498107,-0.2507744513452053
-1.1239553689956665,1.4161893129348755,-56.36750411987305,0.1299442278448906,-0.2629315569738133,0.4476094138498107,-0.2507744513452053
-0.7189604640007019,-0.810935914516449,-59.462520599365234,0.1299442278448906,-0.2629315569738133,0.4476094138498107,-0.2507744513452053
0.5062091946601868,1.1317460536956787,-62.60657501220703,0.1299442278448906,-0.2629315569738133,0.4476094138498107,-0.2507744513452053
-0.5061123371124268,0.29819273948669434,-65.82941436767578,0.1299442278448906,-0.2629315569738133,0.4476094138498107,-0.2507744513452053
-0.2069784700870514,0.01242076139897108,-69.0856704711914,0.1299442278448906,-0.2629315569738133,0.4476094138498107,-0.2507744513452053
-1.6340436935424805,0.5801408886909485,-72.39520263671875,0.1299442278448906,-0.2629315569738133,0.4476094138498107,-0.2507744513452053
0.09637092053890228,0.041877295821905136,-75.72329711914062,0.1299442278448906,-0.2629315569738133,0.4476094138498107,-0.2507744513452053
-0.229515939950943,0.24910616874694824,-79.0217514038086,0.1299442278448906,-0.2629315569738133,0.4476094138498107,-0.2507744513452053
-0.3160373866558075,0.08171572536230087,-82.26156616210938,0.1299442278448906,-0.2629315569738133,0.4476094138498107,-0.2507744513452053
0.7155101299285889,1.2144756317138672,-85.54194641113281,0.1299442278448906,-0.2629315569738133,0.4476094138498107,-0.2507744513452053
-0.19188794493675232,0.4550630450248718,-88.75,0.1299442278448906,-0.2629315569738133,0.4476094138498107,-0.2507744513452053
0.6893158555030823,1.3452574014663696,-91.94103240966797,0.1299442278448906,-0.2629315569738133,0.4476094138498107,-0.2507744513452053
-0.47290486097335815,0.6322615742683411,-95.18461608886719,0.1299442278448906,-0.2629315569738133,0.4476094138498107,-0.2507744513452053
-0.1717635542154312,-0.17177794873714447,-98.50179290771484,0.1299442278448906,-0.2629315569738133,0.4476094138498107,-0.2507744513452053
0.12853732705116272,0.50916588306427,-101.8541030883789,0.1299442278448906,-0.2629315569738133,0.4476094138498107,-0.2507744513452053
0.5708193182945251,0.1050179973244667,-105.18960571289062,0.1299442278448906,-0.2629315569738133,0.4476094138498107,-0.2507744513452053
0.5367279648780823,1.247519850730896,-108.39606475830078,0.1299442278448906,-0.2629315569738133,0.4476094138498107,-0.2507744513452053
0.6924248337745667,0.16359688341617584,-111.5858154296875,0.1299442278448906,-0.2629315569738133,0.4476094138498107,-0.2507744513452053
-1.1925718784332275,-0.08482975512742996,-114.7852783203125,0.1299442278448906,-0.2629315569738133,0.4476094138498107,-0.2507744513452053
1.1854113340377808,1.1943273544311523,-117.95762634277344,0.1299442278448906,-0.2629315569738133,0.4476094138498107,-0.2507744513452053
0.9949712753295898,0.8877358436584473,-121.13507080078125,0.1299442278448906,-0.2629315569738133,0.4476094138498107,-0.2507744513452053
-0.5005958080291748,-0.40368443727493286,-124.31724548339844,0.1299442278448906,-0.2629315569738133,0.4476094138498107,-0.2507744513452053
1.456734299659729,-0.010304221883416176,-127.53644561767578,0.1299442278448906,-0.2629315569738133,0.4476094138498107,-0.2507744513452053
0.25820428133010864,0.3657786250114441,-130.7611541748047,0.1299442278448906,-0.2629315569738133,0.4476094138498107,-0.2507744513452053
-0.1894126534461975,0.3700621724128723,-133.97731018066406,0.1299442278448906,-0.2629315569738133,0.4476094138498107,-0.2507744513452053
0.5351287722587585,0.1285773068666458,-137.1757049560547,0.1299442278448906,-0.2629315569738133,0.4476094138498107,-0.2507744513452053
0.1747463345527649,0.09927578270435333,-140.42819213867188,0.1299442278448906,-0.2629315569738133,0.4476094138498107,-0.2507744513452053
-0.3451693654060364,0.9668950438499451,-143.4698944091797,0.1299442278448906,-0.2629315569738133,0.4476094138498107,-0.2507744513452053
0.550639271736145,0.5672544240951538,-146.5299835205078,0.1299442278448906,-0.2629315569738133,0.4476094138498107,-0.2507744513452053
-0.47714847326278687,-0.9047669768333435,-149.61045837402344,0.1299442278448906,-0.2629315569738133,0.4476094138498107,-0.2507744513452053
2.211703300476074,1.1222295761108398,-152.7977294921875,0.1299442278448906,-0.2629315569738133,0.4476094138498107,-0.2507744513452053
0.09582364559173584,0.2926274538040161,-155.95851135253906,0.1299442278448906,-0.2629315569738133,0.4476094138498107,-0.2507744513452053
0.5944125056266785,-0.4626586437225342,-159.10675048828125,0.1299442278448906,-0.2629315569738133,0.4476094138498107,-0.2507744513452053
-0.42113566398620605,0.32890206575393677,-162.32736206054688,0.1299442278448906,-0.2629315569738133,0.4476094138498107,-0.2507744513452053
0.610907793045044,-0.03679768741130829,-165.5335693359375,0.1299442278448906,-0.2629315569738133,0.4476094138498107,-0.2507744513452053
0.5012141466140747,0.26359885931015015,-168.65626525878906,0.1299442278448906,-0.2629315569738133,0.4476094138498107,-0.2507744513452053
-0.27295735478401184,0.5665343403816223,-171.81301879882812,0.1299442278448906,-0.2629315569738133,0.4476094138498107,-0.2507744513452053
1.6551848649978638,0.3581249415874481,-174.96063232421875,0.1299442278448906,-0.2629315569738133,0.4476094138498107,-0.2507744513452053
0.8265502452850342,-1.0102510452270508,-178.06883239746094,0.1299442278448906,-0.2629315569738133,0.4476094138498107,-0.2507744513452053
-0.8916855454444885,0.14629460871219635,178.8019256591797,0.1299442278448906,-0.2629315569738133,0.4476094138498107,-0.2507744513452053
0.5005950927734375,-0.2951783835887909,175.61094665527344,0.1299442278448906,-0.2629315569738133,0.4476094138498107,-0.2507744513452053
0.6152061223983765,-0.4043702483177185,172.48069763183594,0.1299442278448906,-0.2629315569738133,0.4476094138498107,-0.2507744513452053
-0.3158966302871704,0.929233193397522,169.38218688964844,0.1299442278448906,-0.2629315569738133,0.4476094138498107,-0.2507744513452053
1.1494196653366089,-0.5151267647743225,166.28453063964844,0.1299442278448906,-0.2629315569738133,0.4476094138498107,-0.2507744513452053
0.512063205242157,-0.2856895327568054,163.27969360351562,0.1299442278448906,-0.2629315569738133,0.4476094138498107,-0.2507744513452053
0.30317676067352295,-0.6127951145172119,160.26971435546875,0.1299442278448906,-0.2629315569738133,0.4476094138498107,-0.2507744513452053
0.4396686553955078,0.26693204045295715,157.20858764648438,0.1299442278448906,-0.2629315569738133,0.4476094138498107,-0.2507744513452053
0.3121134042739868,0.0015581821789965034,154.1592254638672,0.1299442278448906,-0.2629315569738133,0.4476094138498107,-0.2507744513452053
0.409511536359787,-0.33300530910491943,151.12449645996094,0.1299442278448906,-0.2629315569738133,0.4476094138498107,-0.2507744513452053
0.35046863555908203,0.09986564517021179,148.13343811035156,0.1299442278448906,-0.2629315569738133,0.4476094138498107,-0.2507744513452053
0.6892133355140686,-1.8433806896209717,145.1531524658203,0.1299442278448906,-0.2629315569738133,0.4476094138498107,-0.2507744513452053
-0.13274213671684265,1.3711248636245728,142.21705627441406,0.1299442278448906,-0.2629315569738133,0.4476094138498107,-0.2507744513452053
0.12110892683267593,0.6923055052757263,139.19883728027344,0.1299442278448906,-0.2629315569738133,0.4476094138498107,-0.2507744513452053
0.7026987671852112,-1.3032954931259155,136.2269744873047,0.1299442278448906,-0.2629315569738133,0.4476094138498107,-0.2507744513452053
0.7270032167434692,-0.972569465637207,133.34555053710938,0.1299442278448906,-0.2629315569738133,0.4476094138498107,-0.2507744513452053
-0.5912237167358398,-1.0824788808822632,130.5388641357422,0.1299442278448906,-0.2629315569738133,0.4476094138498107,-0.2507744513452053
0.022595111280679703,0.2340034395456314,127.67456817626953,0.1299442278448906,-0.2629315569738133,0.4476094138498107,-0.2507744513452053
0.47325605154037476,-0.1556093543767929,124.73260498046875,0.1299442278448906,-0.2629315569738133,0.4476094138498107,-0.2507744513452053
0.114463672041893,-1.1007014513015747,121.77667236328125,0.1299442278448906,-0.2629315569738133,0.4476094138498107,-0.2507744513452053
0.5518827438354492,0.04425906389951706,118.89501953125,0.1299442278448906,-0.2629315569738133,0.4476094138498107,-0.2507744513452053
-0.34219127893447876,-0.9780733585357666,115.97538757324219,0.1299442278448906,-0.2629315569738133,0.4476094138498107,-0.2507744513452053
0.8515856862068176,0.35440927743911743,113.1092758178711,0.1299442278448906,-0.2629315569738133,0.4476094138498107,-0.2507744513452053
-0.5041844844818115,-1.4948854446411133,110.22289276123047,0.1299442278448906,-0.2629315569738133,0.4476094138498107,-0.2507744513452053
-0.09039666503667831,0.5661343932151794,107.36662292480469,0.1299442278448906,-0.2629315569738133,0.4476094138498107,-0.2507744513452053
-0.07785337418317795,-0.06483996659517288,104.40264129638672,0.1299442278448906,-0.2629315569738133,0.4476094138498107,-0.2507744513452053
0.16448722779750824,-0.4711820185184479,101.44893646240234,0.1299442278448906,-0.2629315569738133,0.4476094138498107,-0.2507744513452053
-0.7222737073898315,-0.6999924778938293,98.45541381835938,0.1299442278448906,-0.2629315569738133,0.4476094138498107,-0.2507744513452053
0.38196849822998047,-0.18096520006656647,95.51160430908203,0.1299442278448906,-0.2629315569738133,0.4476094138498107,-0.2507744513452053
1.1159133911132812,-0.1545340120792389,92.56950378417969,0.1299442278448906,-0.2629315569738133,0.4476094138498107,-0.2507744513452053
-0.29471874237060547,-0.960095226764679,89.61280059814453,0.1299442278448906,-0.2629315569738133,0.4476094138498107,-0.2507744513452053
-0.3164082467556,-0.5168846845626831,86.67569732666016,0.1299442278448906,-0.2629315569738133,0.4476094138498107,-0.2507744513452053
0.24368657171726227,0.34662777185440063,83.79563903808594,0.1299442278448906,-0.2629315569738133,0.4476094138498107,-0.2507744513452053
0.03141766041517258,-0.6950129866600037,80.83653259277344,0.1299442278448906,-0.2629315569738133,0.4476094138498107,-0.2507744513452053
0.04072738066315651,-0.8269292712211609,77.9650650024414,0.1299442278448906,-0.2629315569738133,0.4476094138498107,-0.2507744513452053
-1.0629972219467163,-0.517916202545166,75.23050689697266,0.1299442278448906,-0.2629315569738133,0.4476094138498107,-0.2507744513452053
0.2825111746788025,-0.7387121915817261,72.57664489746094,0.1299442278448906,-0.2629315569738133,0.4476094138498107,-0.2507744513452053
-0.33959901332855225,0.5115848183631897,69.90389251708984,0.1299442278448906,-0.2629315569738133,0.4476094138498107,-0.2507744513452053
0.5237380266189575,-0.24227985739707947,67.14464569091797,0.1299442278448906,-0.2629315569738133,0.4476094138498107,-0.2507744513452053
-1.7571905851364136,-1.5863182544708252,64.45996856689453,0.1299442278448906,-0.2629315569738133,0.4476094138498107,-0.2507744513452053
0.33961546421051025,0.5577296614646912,61.8272819519043,0.1299442278448906,-0.2629315569738133,0.4476094138498107,-0.2507744513452053
-1.4651622772216797,0.13910090923309326,59.11008834838867,0.1299442278448906,-0.2629315569738133,0.4476094138498107,-0.2507744513452053
0.9735994338989258,-0.9621484875679016,56.355247497558594,0.1299442278448906,-0.2629315569738133,0.4476094138498107,-0.2507744513452053
-0.7109370231628418,-0.816406786441803,53.61343765258789,0.1299442278448906,-0.2629315569738133,0.4476094138498107,-0.2507744513452053
0.8074745535850525,-0.10788848996162415,50.85710525512695,0.1299442278448906,-0.2629315569738133,0.4476094138498107,-0.2507744513452053
-2.3042171001434326,-0.09850822389125824,48.079681396484375,0.1299442278448906,-0.2629315569738133,0.4476094138498107,-0.2507744513452053
-1.42724609375,0.41455769538879395,45.37537384033203,0.1299442278448906,-0.2629315569738133,0.4476094138498107,-0.2507744513452053
1.188573956489563,-1.1129041910171509,42.83732986450195,0.1299442278448906,-0.2629315569738133,0.4476094138498107,-0.2507744513452053
1.7672199010849,0.40123459696769714,40.30957794189453,0.1299442278448906,-0.2629315569738133,0.4476094138498107,-0.2507744513452053
-0.6846378445625305,-0.3791862726211548,37.58391189575195,0.1299442278448906,-0.2629315569738133,0.4476094138498107,-0.2507744513452053
-2.3595848083496094,-0.0014614006504416466,34.88895034790039,0.1299442278448906,-0.2629315569738133,0.4476094138498107,-0.2507744513452053
0.45687517523765564,-0.6744269728660583,32.19518280029297,0.1299442278448906,-0.2629315569738133,0.4476094138498107,-0.2507744513452053
0.23871885240077972,-0.1258612722158432,29.49189567565918,0.1299442278448906,-0.2629315569738133,0.4476094138498107,-0.2507744513452053
-0.4185255765914917,-0.5633341073989868,26.751258850097656,0.1299442278448906,-0.2629315569738133,0.4476094138498107,-0.2507744513452053
-0.5317246317863464,0.09372604638338089,24.13636589050293,0.1299442278448906,-0.2629315569738133,0.4476094138498107,-0.2507744513452053
-1.157660722732544,0.3007902204990387,21.580331802368164,0.1299442278448906,-0.2629315569738133,0.4476094138498107,-0.2507744513452053
-0.02835601381957531,-0.025626206770539284,19.08568572998047,0.1299442278448906,-0.2629315569738133,0.4476094138498107,-0.2507744513452053
-0.028267361223697662,-0.6443073749542236,16.581928253173828,0.1299442278448906,-0.2629315569738133,0.4476094138498107,-0.2507744513452053
0.027059439569711685,0.37917324900627136,14.00969123840332,0.1299442278448906,-0.2629315569738133,0.4476094138498107,-0.2507744513452053
-1.145976185798645,0.34110087156295776,11.38225269317627,0.1299442278448906,-0.2629315569738133,0.4476094138498107,-0.2507744513452053
0.40978747606277466,-0.4401503801345825,8.791482925415039,0.1299442278448906,-0.2629315569738133,0.4476094138498107,-0.2507744513452053
0.3384930491447449,-0.46124476194381714,6.027553558349609,0.1299442278448906,-0.2629315569738133,0.4476094138498107,-0.2507744513452053
-0.4330389201641083,-0.1633293628692627,3.2136740684509277,0.1299442278448906,-0.2629315569738133,0.4476094138498107,-0.2507744513452053
-0.6425204277038574,-0.09525622427463531,0.38801631331443787,0.1299442278448906,-0.2629315569738133,0.4476094138498107,-0.2507744513452053
-0.9940585494041443,0.881476104259491,-2.4958837032318115,0.1299442278448906,-0.2629315569738133,0.4476094138498107,-0.2507744513452053
0.29075655341148376,-1.2335662841796875,-5.377110481262207,0.1299442278448906,-0.2629315569738133,0.4476094138498107,-0.2507744513452053
-0.030420273542404175,-0.3601173162460327,-8.339940071105957,0.1299442278448906,-0.2629315569738133,0.4476094138498107,-0.2507744513452053
-0.5474914908409119,-0.20353882014751434,-11.377036094665527,0.1299442278448906,-0.2629315569738133,0.4476094138498107,-0.2507744513452053
-0.21146231889724731,-0.14696933329105377,-14.460174560546875,0.1299442278448906,-0.2629315569738133,0.4476094138498107,-0.2507744513452053
-0.5721011161804199,-0.3464410901069641,-17.57616424560547,0.1299442278448906,-0.2629315569738133,0.4476094138498107,-0.2507744513452053
-0.5581979155540466,0.24068215489387512,-20.685380935668945,0.1299442278448906,-0.2629315569738133,0.4476094138498107,-0.2507744513452053
-0.07508919388055801,0.5291029214859009,-23.7589168548584,0.1299442278448906,-0.2629315569738133,0.4476094138498107,-0.2507744513452053
-0.004523724317550659,0.830441415309906,-26.898273468017578,0.1299442278448906,-0.2629315569738133,0.4476094138498107,-0.2507744513452053
-0.4810030162334442,0.18434958159923553,-30.006832122802734,0.1299442278448906,-0.2629315569738133,0.4476094138498107,-0.2507744513452053
-1.221631407737732,-1.1793097257614136,-33.11255645751953,0.1299442278448906,-0.2629315569738133,0.4476094138498107,-0.2507744513452053
-0.6186238527297974,2.510338544845581,-36.148929595947266,0.1299442278448906,-0.2629315569738133,0.4476094138498107,-0.2507744513452053
0.5224848389625549,-0.5773926377296448,-39.233280181884766,0.1299442278448906,-0.2629315569738133,0.4476094138498107,-0.2507744513452053
0.691346287727356,-0.43103525042533875,-42.45804977416992,0.1299442278448906,-0.2629315569738133,0.4476094138498107,-0.2507744513452053
-1.643208384513855,1.3786555528640747,-45.53563690185547,0.1299442278448906,-0.2629315569738133,0.4476094138498107,-0.2507744513452053
0.8018427491188049,-0.2893867790699005,-48.595489501953125,0.1299442278448906,-0.2629315569738133,0.4476094138498107,-0.2507744513452053
-0.8571609258651733,-0.5734164118766785,-51.72974395751953,0.1299442278448906,-0.2629315569738133,0.4476094138498107,-0.2507744513452053
-0.19357341527938843,1.4945653676986694,-54.94728088378906,0.1299442278448906,-0.2629315569738133,0.4476094138498107,-0.2507744513452053
-0.5180051922798157,1.466948390007019,-58.1001091003418,0.1299442278448906,-0.2629315569738133,0.4476094138498107,-0.2507744513452053
0.5612294673919678,0.17558319866657257,-61.225337982177734,0.1299442278448906,-0.2629315569738133,0.4476094138498107,-0.2507744513452053
-0.5376350283622742,0.24165725708007812,-64.44503021240234,0.1299442278448906,-0.2629315569738133,0.4476094138498107,-0.2507744513452053
-0.30084511637687683,0.06078982353210449,-67.61719512939453,0.1299442278448906,-0.2629315569738133,0.4476094138498107,-0.2507744513452053
-0.690394937992096,0.7972705364227295,-70.81378936767578,0.1299442278448906,-0.2629315569738133,0.4476094138498107,-0.2507744513452053
-0.034779176115989685,0.2737402021884918,-73.93761444091797,0.1299442278448906,-0.2629315569738133,0.4476094138498107,-0.2507744513452053
0.14424332976341248,1.1242284774780273,-77.1369400024414,0.1299442278448906,-0.2629315569738133,0.4476094138498107,-0.2507744513452053
0.06224450841546059,0.2566066384315491,-80.3564453125,0.1299442278448906,-0.2629315569738133,0.4476094138498107,-0.2507744513452053
0.19621656835079193,0.4800574481487274,-83.5169448852539,0.1299442278448906,-0.2629315569738133,0.4476094138498107,-0.2507744513452053
-0.05744523927569389,1.1148782968521118,-86.56331634521484,0.1299442278448906,-0.2629315569738133,0.4476094138498107,-0.2507744513452053
-0.34126535058021545,0.12019310146570206,-89.53804779052734,0.1299442278448906,-0.2629315569738133,0.4476094138498107,-0.2507744513452053
0.34889981150627136,-0.004474444780498743,-92.62097930908203,0.1299442278448906,-0.2629315569738133,0.4476094138498107,-0.2507744513452053
0.7838748693466187,1.51370370388031,-95.66022491455078,0.1299442278448906,-0.2629315569738133,0.4476094138498107,-0.2507744513452053
0.09041496366262436,0.4533747434616089,-98.67328643798828,0.1299442278448906,-0.2629315569738133,0.4476094138498107,-0.2507744513452053
0.31441470980644226,-0.20750193297863007,-101.74212646484375,0.1299442278448906,-0.2629315569738133,0.4476094138498107,-0.2507744513452053
0.2561388611793518,0.2603108882904053,-104.8389892578125,0.1299442278448906,-0.2629315569738133,0.4476094138498107,-0.2507744513452053
-0.03888221085071564,0.7663126587867737,-107.93379974365234,0.1299442278448906,-0.2629315569738133,0.4476094138498107,-0.2507744513452053
-0.5331301689147949,0.27128133177757263,-110.94486999511719,0.1299442278448906,-0.2629315569738133,0.4476094138498107,-0.2507744513452053
0.4995136260986328,-0.5464070439338684,-114.00332641601562,0.1299442278448906,-0.2629315569738133,0.4476094138498107,-0.2507744513452053
0.21481478214263916,1.455207347869873,-117.07809448242188,0.1299442278448906,-0.2629315569738133,0.4476094138498107,-0.2507744513452053
1.7412053346633911,0.21932585537433624,-120.13357543945312,0.1299442278448906,-0.2629315569738133,0.4476094138498107,-0.2507744513452053
-1.7223594188690186,-0.35103553533554077,-123.22257232666016,0.1299442278448906,-0.2629315569738133,0.4476094138498107,-0.2507744513452053
-1.349441647529602,0.9504444599151611,-126.33443450927734,0.1299442278448906,-0.2629315569738133,0.4476094138498107,-0.2507744513452053
1.5392754077911377,0.5343797206878662,-129.50636291503906,0.1299442278448906,-0.2629315569738133,0.4476094138498107,-0.2507744513452053
0.45356109738349915,0.20419980585575104,-132.66143798828125,0.1299442278448906,-0.2629315569738133,0.4476094138498107,-0.2507744513452053
0.39167076349258423,1.1107242107391357,-135.7408905029297,0.1299442278448906,-0.2629315569738133,0.4476094138498107,-0.2507744513452053
0.5063705444335938,-0.49422743916511536,-138.88241577148438,0.1299442278448906,-0.2629315569738133,0.4476094138498107,-0.2507744513452053
0.15687698125839233,-0.2018025815486908,-142.07228088378906,0.1299442278448906,-0.2629315569738133,0.4476094138498107,-0.2507744513452053
0.9697203636169434,0.14349471032619476,-145.24600219726562,0.1299442278448906,-0.2629315569738133,0.4476094138498107,-0.2507744513452053
-1.0004453659057617,0.8903005719184875,-148.38536071777344,0.1299442278448906,-0.2629315569738133,0.4476094138498107,-0.2507744513452053
1.511330008506775,-0.4787346422672272,-151.5402069091797,0.1299442278448906,-0.2629315569738133,0.4476094138498107,-0.2507744513452053
-0.520662784576416,1.0297362804412842,-154.7310333251953,0.1299442278448906,-0.2629315569738133,0.4476094138498107,-0.2507744513452053
1.6158263683319092,-0.41209277510643005,-157.9635772705078,0.1299442278448906,-0.2629315569738133,0.4476094138498107,-0.2507744513452053
0.37140241265296936,0.11993884295225143,-161.1560821533203,0.1299442278448906,-0.2629315569738133,0.4476094138498107,-0.2507744513452053
-0.5518954396247864,0.7955638766288757,-164.3512725830078,0.1299442278448906,-0.2629315569738133,0.4476094138498107,-0.2507744513452053
1.1190226078033447,-0.5734609365463257,-167.6063690185547,0.1299442278448906,-0.2629315569738133,0.4476094138498107,-0.2507744513452053
-0.27445363998413086,0.7935346364974976,-170.79287719726562,0.1299442278448906,-0.2629315569738133,0.4476094138498107,-0.2507744513452053
1.161590576171875,-0.5048177242279053,-173.99501037597656,0.1299442278448906,-0.2629315569738133,0.4476094138498107,-0.2507744513452053
0.42804715037345886,0.3737257122993469,-177.1708526611328,0.1299442278448906,-0.2629315569738133,0.4476094138498107,-0.2507744513452053
-0.031097926199436188,0.03909384086728096,179.65911865234375,0.1299442278448906,-0.2629315569738133,0.4476094138498107,-0.2507744513452053
0.5986670851707458,0.19598250091075897,176.41854858398438,0.1299442278448906,-0.2629315569738133,0.4476094138498107,-0.2507744513452053
0.9066115617752075,-0.5739595890045166,173.19789123535156,0.1299442278448906,-0.2629315569738133,0.4476094138498107,-0.2507744513452053
0.36741337180137634,0.16151896119117737,170.01742553710938,0.1299442278448906,-0.2629315569738133,0.4476094138498107,-0.2507744513452053
0.26900166273117065,-1.4364631175994873,166.8059844970703,0.1299442278448906,-0.2629315569738133,0.4476094138498107,-0.2507744513452053
0.7348718643188477,0.9034135937690735,163.6788787841797,0.1299442278448906,-0.2629315569738133,0.4476094138498107,-0.2507744513452053
0.4627598524093628,-0.5675446391105652,160.5521240234375,0.1299442278448906,-0.2629315569738133,0.4476094138498107,-0.2507744513452053
0.14170682430267334,0.8326172232627869,157.34901428222656,0.1299442278448906,-0.2629315569738133,0.4476094138498107,-0.2507744513452053
0.6114771962165833,-0.9556438326835632,154.0970916748047,0.1299442278448906,-0.2629315569738133,0.4476094138498107,-0.2507744513452053
0.7846387624740601,-1.2185434103012085,150.86744689941406,0.1299442278448906,-0.2629315569738133,0.4476094138498107,-0.2507744513452053
0.029425637796521187,0.12781871855258942,147.57176208496094,0.1299442278448906,-0.2629315569738133,0.4476094138498107,-0.2507744513452053
0.4020690619945526,0.3862512707710266,144.2938690185547,0.1299442278448906,-0.2629315569738133,0.4476094138498107,-0.2507744513452053
0.3812577426433563,-1.739219307899475,141.066650390625,0.1299442278448906,-0.2629315569738133,0.4476094138498107,-0.2507744513452053
0.21645958721637726,0.6115145087242126,137.9742431640625,0.1299442278448906,-0.2629315569738133,0.4476094138498107,-0.2507744513452053
0.8429503440856934,-1.6055411100387573,134.91896057128906,0.1299442278448906,-0.2629315569738133,0.4476094138498107,-0.2507744513452053
-0.16753385961055756,0.5277522206306458,131.9569549560547,0.1299442278448906,-0.2629315569738133,0.4476094138498107,-0.2507744513452053
-0.07422681152820587,-0.0839400589466095,128.9066925048828,0.1299442278448906,-0.2629315569738133,0.4476094138498107,-0.2507744513452053
0.07386010885238647,-0.9489665031433105,125.96001434326172,0.1299442278448906,-0.2629315569738133,0.4476094138498107,-0.2507744513452053
-0.06245861575007439,-0.5537475347518921,123.1286849975586,0.1299442278448906,-0.2629315569738133,0.4476094138498107,-0.2507744513452053
0.17265181243419647,-0.09142167121171951,120.1492691040039,0.1299442278448906,-0.2629315569738133,0.4476094138498107,-0.2507744513452053
0.05271467566490173,0.5030590891838074,117.2318115234375,0.1299442278448906,-0.2629315569738133,0.4476094138498107,-0.2507744513452053
0.615719199180603,-1.815301775932312,114.21563720703125,0.1299442278448906,-0.2629315569738133,0.4476094138498107,-0.2507744513452053
0.07426110655069351,0.5574159026145935,111.23216247558594,0.1299442278448906,-0.2629315569738133,0.4476094138498107,-0.2507744513452053
-0.03156709671020508,-1.1884675025939941,108.21183013916016,0.1299442278448906,-0.2629315569738133,0.4476094138498107,-0.2507744513452053
-0.12416977435350418,0.2684374749660492,105.22537231445312,0.1299442278448906,-0.2629315569738133,0.4476094138498107,-0.2507744513452053
0.7727770209312439,-0.43022242188453674,102.27046966552734,0.1299442278448906,-0.2629315569738133,0.4476094138498107,-0.2507744513452053
0.01128321886062622,-0.49682682752609253,99.25692749023438,0.1299442278448906,-0.2629315569738133,0.4476094138498107,-0.2507744513452053
0.2763993442058563,-0.17890097200870514,96.27509307861328,0.1299442278448906,-0.2629315569738133,0.4476094138498107,-0.2507744513452053
0.3759234845638275,0.03082631342113018,93.31713104248047,0.1299442278448906,-0.2629315569738133,0.4476094138498107,-0.2507744513452053
-0.1767064779996872,-0.19464708864688873,90.30104064941406,0.1299442278448906,-0.2629315569738133,0.4476094138498107,-0.2507744513452053
-0.08480437844991684,-0.8841923475265503,87.3210678100586,0.1299442278448906,-0.2629315569738133,0.4476094138498107,-0.2507744513452053
0.35954663157463074,-0.19540753960609436,84.41912078857422,0.1299442278448906,-0.2629315569738133,0.4476094138498107,-0.2507744513452053
-0.884375810623169,-1.860957145690918,81.52496337890625,0.1299442278448906,-0.2629315569738133,0.4476094138498107,-0.2507744513452053
-0.7942144274711609,0.08010317385196686,78.70438385009766,0.1299442278448906,-0.2629315569738133,0.4476094138498107,-0.2507744513452053
0.1496080458164215,-0.6126115918159485,75.84840393066406,0.1299442278448906,-0.2629315569738133,0.4476094138498107,-0.2507744513452053
0.2686885893344879,0.9929947257041931,73.06095123291016,0.1299442278448906,-0.2629315569738133,0.4476094138498107,-0.2507744513452053
-0.4745998680591583,-0.179796501994133,70.18157196044922,0.1299442278448906,-0.2629315569738133,0.4476094138498107,-0.2507744513452053
-0.806919515132904,-0.5574179887771606,67.39557647705078,0.1299442278448906,-0.2629315569738133,0.4476094138498107,-0.2507744513452053
0.3969285190105438,-0.16252672672271729,64.68791961669922,0.1299442278448906,-0.2629315569738133,0.4476094138498107,-0.2507744513452053
-0.7364623546600342,-0.8639358282089233,62.044654846191406,0.1299442278448906,-0.2629315569738133,0.4476094138498107,-0.2507744513452053
0.4981037676334381,0.4203077554702759,59.458736419677734,0.1299442278448906,-0.2629315569738133,0.4476094138498107,-0.2507744513452053
-1.5875405073165894,-0.8590402603149414,56.74272537231445,0.1299442278448906,-0.2629315569738133,0.4476094138498107,-0.2507744513452053
1.1440049409866333,-0.014785557985305786,54.06388473510742,0.1299442278448906,-0.2629315569738133,0.4476094138498107,-0.2507744513452053
-0.7859745025634766,-0.3472205698490143,51.28219985961914,0.1299442278448906,-0.2629315569738133,0.4476094138498107,-0.2507744513452053
0.7776716351509094,-0.8525504469871521,48.64387893676758,0.1299442278448906,-0.2629315569738133,0.4476094138498107,-0.2507744513452053
-1.4777438640594482,-0.668504536151886,45.96833038330078,0.1299442278448906,-0.2629315569738133,0.4476094138498107,-0.2507744513452053
0.4099190831184387,0.3989216685295105,43.38636779785156,0.1299442278448906,-0.2629315569738133,0.4476094138498107,-0.2507744513452053
-1.6189711093902588,-0.29642364382743835,40.729393005371094,0.1299442278448906,-0.2629315569738133,0.4476094138498107,-0.2507744513452053
0.029956907033920288,-0.17531196773052216,38.20092010498047,0.1299442278448906,-0.2629315569738133,0.4476094138498107,-0.2507744513452053
