faccX,faccY,yaw,posX,posY,velX,velY
0,0,-85.9888687133789,0.0,0.0,0.0,0.0
0,0,-85.99011993408203,0.0,0.0,0.0,0.0
0,0,-85.98976135253906,0.0,0.0,0.0,0.0
-0.11797332018613815,-0.2816814184188843,-85.99658203125,-8.192591679592927e-06,-1.9561209612422517e-05,-0.0009831110015511512,-0.002347345153490702
0.6455631852149963,-3.0299160480499268,-86.00614929199219,1.2060410032669706e-05,-0.00028865567511982384,0.003413471207022667,-0.02994399070739746
-0.08634742349386215,-1.5007884502410889,-85.83341217041016,0.00010778602471368183,-0.0011023544437355464,0.008073602554698786,-0.06769986152648926
0.7475802302360535,-1.6034832000732422,-85.7709732055664,0.00028826501220464713,-0.002446259889337751,0.013583875944217047,-0.09356879194577535
-0.10354747623205185,-2.0608713626861572,-85.88435363769531,0.0005593874414140979,-0.004260208821958965,0.01895081556091706,-0.12410507996877033
-0.7325975298881531,-1.9916126728057861,-86.02572631835938,0.000817168742004368,-0.006610049323903189,0.01198294050991535,-0.15787578026453652
0.6646799445152283,-1.2124180793762207,-86.01873779296875,0.001012167918185393,-0.009463814463880326,0.011416960631807645,-0.18457603653271992
0.28944483399391174,-1.7854639291763306,-86.02220153808594,0.001268709260556433,-0.012748267990019584,0.019368000452717145,-0.20955838660399118
-1.2393066883087158,-1.0254875421524048,-85.92691802978516,0.0015255466393298573,-0.01643611273003949,0.011452485000093778,-0.2329829821983973
1.6600843667984009,-1.3087321519851685,-85.99205780029297,0.0017456420614487594,-0.020481261023216776,0.014958965654174487,-0.25243481298287707
-1.2251055240631104,-0.6330398917198181,-86.11354064941406,0.0020251650197638405,-0.024823353187077575,0.01858378934363524,-0.2686162466804186
1.1315542459487915,-1.5006686449050903,-86.0357666015625,0.0023283982256220447,-0.029448464835683502,0.01780419535934925,-0.28639715115229286
-0.0904388576745987,-0.7921239733695984,-85.96016693115234,0.0026974344946857957,-0.034380972397824124,0.026480156928300858,-0.30550375630458193
0.6805592775344849,-0.7122067809104919,-85.8444595336914,0.003179751028203302,-0.039577169083058826,0.03139782709379991,-0.3180398459235827
0.2965034544467926,-2.1220273971557617,-85.90390014648438,0.0037708997250431114,-0.04507465499970647,0.03954001652697722,-0.3416584640741348
-1.5229289531707764,0.43837037682533264,-85.97053527832031,0.004344731563081344,-0.050885883360687216,0.02931980403761069,-0.35568893924355505
1.0702049732208252,-0.7822158932685852,-86.10999298095703,0.004801955798433887,-0.05683791050894391,0.02554710420469443,-0.35855431854724884
-1.0289963483810425,-0.41432908177375793,-86.27356719970703,0.005230602578570446,-0.06289690921910933,0.02589050941169262,-0.3685255266726017
-0.1458146721124649,-0.9559995532035828,-86.38204193115234,0.005580526970119941,-0.06913416304108168,0.016100417574246725,-0.3799449319640795
1.0777459144592285,-0.8496518135070801,-86.43399047851562,0.005913584710409245,-0.07559197102983792,0.023866511260469757,-0.3949920266866684
0.11363206058740616,-0.7634280920028687,-86.36119842529297,0.0063940944796842016,-0.08228719091249836,0.033794661052525043,-0.40843435923258464
0.40298157930374146,-0.8578084111213684,-86.17884826660156,0.006993214777774282,-0.08920701610131396,0.03809977471828461,-0.42194466342528664
-0.3012867271900177,0,-86.12199401855469,0.007635273165586922,-0.09629899718695216,0.038947231819232306,-0.42909306685129806
-0.6610156297683716,-0.188853919506073,-86.04884338378906,0.008217567143340905,-0.10346366315666171,0.030928045511245728,-0.43066684951384865
0.5244545340538025,-0.7439470291137695,-86.00471496582031,0.00872355115910371,-0.11070622182554668,0.029790036380290985,-0.43844019075234736
-0.2241760939359665,-0.5394424796104431,-85.9912338256836,0.009240904434894521,-0.11810268260952499,0.032292356714606285,-0.44913510332504913
0.27097150683403015,-0.29702362418174744,-85.96967315673828,0.009782360061589213,-0.12564635558881693,0.032682318488756815,-0.45610565418998406
0.5557542443275452,-0.37507176399230957,-85.9374771118164,0.010384476880232491,-0.13329478978282874,0.039571699748436606,-0.46170644909143455
-0.8197126984596252,-0.30230259895324707,-85.93081665039062,0.011025674761169484,-0.14103693715400165,0.037372045964002606,-0.4673512354493142
0.7972556948661804,0.23672369122505188,-85.87127685546875,0.011646982679764427,-0.14883067850230466,0.037184904267390566,-0.4678977263470491
0,-0.5971875190734863,-85.77410888671875,0.012322096063031088,-0.1566540061516894,0.04382870172460874,-0.4709015915791194
-0.4980159103870392,-0.06935960799455643,-85.65816497802734,0.013017989986886578,-0.16454865400627666,0.03967856913805008,-0.47645615097135313
-0.6375364065170288,-0.2305809110403061,-85.50859832763672,0.013600441672735742,-0.17251041905850997,0.030215633163849516,-0.47895565529664363
0.2724866271018982,-0.6424773335456848,-85.50252532958984,0.014078684879673849,-0.18055364235821694,0.027173551668723428,-0.48623114066819356
2.208325147628784,1.3785386085510254,-85.6535415649414,0.014703856002953314,-0.188606379336367,0.04784698312481245,-0.4800972967098157
-1.39700448513031,-1.1270273923873901,-85.79755401611328,0.015557647434373694,-0.19659053489151923,0.054607988645633064,-0.4780013699084521
0.05101434513926506,-1.4462047815322876,-85.91272735595703,0.0163743090409682,-0.20473592106873786,0.04339140414570769,-0.49944497135778276
-0.5582467317581177,-0.43758660554885864,-86.10768127441406,0.017062274638770355,-0.213190822771026,0.03916446759055059,-0.5151432329167923
-0.359389066696167,-0.48528480529785156,-86.19283294677734,0.01765129105705354,-0.2218406316120591,0.03151750260343155,-0.5228338280071816
0.7709344029426575,0.8781487941741943,-86.09658813476562,0.01820516230435007,-0.2305272465240624,0.03494704707215231,-0.519559961433212
0.16197873651981354,-0.5450273752212524,-86.06580352783203,0.018852398723570835,-0.2391634457827442,0.04272132323433957,-0.5167839496086042
0,0.9253912568092346,-86.20890045166016,0.019575669300845925,-0.24775009745111065,0.04407114603867135,-0.513614250595371
-0.24103419482707977,0.44899168610572815,-86.41979217529297,0.020293449915738566,-0.25621489170110884,0.04206252774844568,-0.502161059404413
-0.6826832890510559,-1.4150121212005615,-86.63319396972656,0.02093034499738779,-0.2646513274436195,0.03436488204946122,-0.5102112296968699
0.8446973562240601,-0.3407067358493805,-86.68207550048828,0.021514344008432492,-0.2732767728591958,0.03571499927590292,-0.5248422201722861
-0.7891017198562622,-0.5502415299415588,-86.64492797851562,0.022113454804445303,-0.2820860146027472,0.036178296245634574,-0.5322667890538773
0.3952614963054657,-0.11794009059667587,-86.48075103759766,0.022689076393014852,-0.2910035292550714,0.03289629438271127,-0.5378349692250292
-0.26946938037872314,0.3813881278038025,-86.44380187988281,0.023246083529666065,-0.29994915040623804,0.033944562015434124,-0.5356395689149698
0.3549903333187103,-0.4950348138809204,-86.55144500732422,0.023817765184988578,-0.30888436868579844,0.03465723662326735,-0.5365866246322791
-0.05267598107457161,1.3496456146240234,-86.65015411376953,0.024416379847615542,-0.3177681311240626,0.0371765228919685,-0.5294648679594199
0.4183393716812134,-0.4032840132713318,-86.67011260986328,0.025061381853496035,-0.3265268260344034,0.04022371781369052,-0.5215785212814809
-0.6826519966125488,-0.4411695599555969,-86.71900939941406,0.02571342210699287,-0.3352784439983466,0.038021112605929386,-0.5286156343917052
-0.690487802028656,0.23772485554218292,-86.69994354248047,0.026251750386630496,-0.3441028326760148,0.026578280950586012,-0.5303110069284837
1.1720430850982666,0.5023618340492249,-86.57275390625,0.026728163074908984,-0.35288995454915684,0.030591241642832768,-0.5241436178485552
-0.5336763858795166,-0.294878214597702,-86.4783935546875,0.02728234812306861,-0.3616112729286153,0.03591096413632235,-0.5224145876864592
-0.7410786151885986,-0.13114909827709198,-86.35110473632812,0.027792339539155362,-0.37034776795345037,0.02528800579408806,-0.5259648152937492
0.5940773487091064,-0.4611406922340393,-86.30411529541016,0.028203597881106865,-0.37915497944379833,0.024062995240092293,-0.5309005635480086
0.8092101812362671,0.5560389757156372,-86.43317413330078,0.028702098324687942,-0.38799673201102336,0.035757057989637075,-0.5301097445189953
-0.22055968642234802,-0.26801300048828125,-86.63949584960938,0.029338927797766194,-0.39681189261583805,0.04066247877975307,-0.5277095280587674
0.17604991793632507,-0.43889325857162476,-86.91959381103516,0.030013544821283884,-0.4056561421292522,0.04029156404236955,-0.5336004135509332
-1.0336374044418335,-1.0124763250350952,-87.09501647949219,0.030013544821283884,-0.4056561421292522,0.04029156404236955,-0.5336004135509332
0.42256325483322144,0.16647495329380035,-87.04511260986328,0.030013544821283884,-0.4056561421292522,0.04029156404236955,-0.5336004135509332
0.16709987819194794,1.6219903230667114,-86.96562957763672,0.030013544821283884,-0.4056561421292522,0.04029156404236955,-0.5336004135509332
-0.9483807682991028,2.3670737743377686,-87.19676971435547,0.030013544821283884,-0.4056561421292522,0.04029156404236955,-0.5336004135509332
0.376956582069397,4.347485542297363,-87.91963958740234,0.030013544821283884,-0.4056561421292522,0.04029156404236955,-0.5336004135509332
-1.4783636331558228,0.9492644667625427,-88.91278076171875,0.030013544821283884,-0.4056561421292522,0.04029156404236955,-0.5336004135509332
0.15032443404197693,2.917604923248291,-90.17557525634766,0.030013544821283884,-0.4056561421292522,0.04029156404236955,-0.5336004135509332
0.42075270414352417,1.8930554389953613,-91.73721313476562,0.030013544821283884,-0.4056561421292522,0.04029156404236955,-0.5336004135509332
-1.3460992574691772,2.8894307613372803,-93.5408935546875,0.030013544821283884,-0.4056561421292522,0.04029156404236955,-0.5336004135509332
0.1093730628490448,1.6001819372177124,-95.4913558959961,0.030013544821283884,-0.4056561421292522,0.04029156404236955,-0.5336004135509332
-1.0489565134048462,0.7754954099655151,-97.50122833251953,0.030013544821283884,-0.4056561421292522,0.04029156404236955,-0.5336004135509332
-0.12846159934997559,1.5918208360671997,-99.59772491455078,0.030013544821283884,-0.4056561421292522,0.04029156404236955,-0.5336004135509332
-0.30911189317703247,1.1664308309555054,-101.75778198242188,0.030013544821283884,-0.4056561421292522,0.04029156404236955,-0.5336004135509332
0.2915376126766205,2.0549371242523193,-103.9906997680664,0.030013544821283884,-0.4056561421292522,0.04029156404236955,-0.5336004135509332
0.41232937574386597,1.5926367044448853,-106.32215881347656,0.030013544821283884,-0.4056561421292522,0.04029156404236955,-0.5336004135509332
-1.0085577964782715,0.7010139226913452,-108.71930694580078,0.030013544821283884,-0.4056561421292522,0.04029156404236955,-0.5336004135509332
0.6100644469261169,0.6600121259689331,-111.18476104736328,0.030013544821283884,-0.4056561421292522,0.04029156404236955,-0.5336004135509332
-0.9469050168991089,1.2408621311187744,-113.64693450927734,0.030013544821283884,-0.4056561421292522,0.04029156404236955,-0.5336004135509332
-0.7785700559616089,0.9037396907806396,-116.13558197021484,0.030013544821283884,-0.4056561421292522,0.04029156404236955,-0.5336004135509332
0.9512701630592346,1.4658437967300415,-118.65788269042969,0.030013544821283884,-0.4056561421292522,0.04029156404236955,-0.5336004135509332
-0.9666340947151184,0.9875362515449524,-121.10221862792969,0.030013544821283884,-0.4056561421292522,0.04029156404236955,-0.5336004135509332
0.31329548358917236,0.7148231267929077,-123.46289825439453,0.030013544821283884,-0.4056561421292522,0.04029156404236955,-0.5336004135509332
-0.760140061378479,0.5008522868156433,-125.82833862304688,0.030013544821283884,-0.4056561421292522,0.04029156404236955,-0.5336004135509332
-0.1468258500099182,-0.12376419454813004,-128.14625549316406,0.030013544821283884,-0.4056561421292522,0.04029156404236955,-0.5336004135509332
0.06879207491874695,1.4718799591064453,-130.55679321289062,0.030013544821283884,-0.4056561421292522,0.04029156404236955,-0.5336004135509332
-0.8153659701347351,0.3724941611289978,-133.02444458007812,0.030013544821283884,-0.4056561421292522,0.04029156404236955,-0.5336004135509332
1.5358684062957764,0.7691818475723267,-135.52761840820312,0.030013544821283884,-0.4056561421292522,0.04029156404236955,-0.5336004135509332
-1.708823323249817,1.1582443714141846,-138.08233642578125,0.030013544821283884,-0.4056561421292522,0.04029156404236955,-0.5336004135509332
1.0384364128112793,0.03353884816169739,-140.69970703125,0.030013544821283884,-0.4056561421292522,0.04029156404236955,-0.5336004135509332
-0.3116461932659149,1.6963138580322266,-143.408935546875,0.030013544821283884,-0.4056561421292522,0.04029156404236955,-0.5336004135509332
-0.38503333926200867,0.857878565788269,-146.10455322265625,0.030013544821283884,-0.4056561421292522,0.04029156404236955,-0.5336004135509332
-0.6424676775932312,0.86884605884552,-148.87948608398438,0.030013544821283884,-0.4056561421292522,0.04029156404236955,-0.5336004135509332
3.209862232208252,-0.9892732501029968,-151.527099609375,0.030013544821283884,-0.4056561421292522,0.04029156404236955,-0.5336004135509332
-1.4662166833877563,1.764851689338684,-154.22483825683594,0.030013544821283884,-0.4056561421292522,0.04029156404236955,-0.5336004135509332
0.8281660079956055,-0.9563092589378357,-156.8911895751953,0.030013544821283884,-0.4056561421292522,0.04029156404236955,-0.5336004135509332
0.5896036028862,1.3477771282196045,-159.57281494140625,0.030013544821283884,-0.4056561421292522,0.04029156404236955,-0.5336004135509332
0.190652534365654,0.4091370701789856,-162.24705505371094,0.030013544821283884,-0.4056561421292522,0.04029156404236955,-0.5336004135509332
1.573142170906067,0.19525480270385742,-164.90013122558594,0.030013544821283884,-0.4056561421292522,0.04029156404236955,-0.5336004135509332
-1.4879850149154663,2.171483039855957,-167.53836059570312,0.030013544821283884,-0.4056561421292522,0.04029156404236955,-0.5336004135509332
0.9102268815040588,-1.1196560859680176,-170.16432189941406,0.030013544821283884,-0.4056561421292522,0.04029156404236955,-0.5336004135509332
0.15435276925563812,0.9515289664268494,-172.91754150390625,0.030013544821283884,-0.4056561421292522,0.04029156404236955,-0.5336004135509332
-0.02014554664492607,0.2758699953556061,-175.6964569091797,0.030013544821283884,-0.4056561421292522,0.04029156404236955,-0.5336004135509332
1.5441254377365112,0.08673640340566635,-178.54173278808594,0.030013544821283884,-0.4056561421292522,0.04029156404236955,-0.5336004135509332
-0.40005090832710266,1.8206651210784912,178.61509704589844,0.030013544821283884,-0.4056561421292522,0.04029156404236955,-0.5336004135509332
0.16696499288082123,-0.04243200272321701,175.75662231445312,0.030013544821283884,-0.4056561421292522,0.04029156404236955,-0.5336004135509332
1.0818042755126953,-0.5664361715316772,173.00770568847656,0.030013544821283884,-0.4056561421292522,0.04029156404236955,-0.5336004135509332
-0.42466816306114197,1.3048039674758911,170.83583068847656,0.030013544821283884,-0.4056561421292522,0.04029156404236955,-0.5336004135509332
-0.7229310870170593,-2.9374587535858154,169.1064910888672,0.030013544821283884,-0.4056561421292522,0.04029156404236955,-0.5336004135509332
-0.4302152693271637,-1.0887172222137451,167.7066650390625,0.030013544821283884,-0.4056561421292522,0.04029156404236955,-0.5336004135509332
-0.15826359391212463,-1.1140899658203125,166.83779907226562,0.030013544821283884,-0.4056561421292522,0.04029156404236955,-0.5336004135509332
-0.5953760147094727,-1.8674288988113403,166.39718627929688,0.030013544821283884,-0.4056561421292522,0.04029156404236955,-0.5336004135509332
-0.7383143901824951,-0.7852685451507568,166.28977966308594,0.030013544821283884,-0.4056561421292522,0.04029156404236955,-0.5336004135509332
0.16950803995132446,0.4535573124885559,166.4312286376953,0.030013544821283884,-0.4056561421292522,0.04029156404236955,-0.5336004135509332
0.714387834072113,0.0004082398663740605,166.41786193847656,0.030013544821283884,-0.4056561421292522,0.04029156404236955,-0.5336004135509332
0.32053032517433167,0.3197627067565918,166.35906982421875,0.030013544821283884,-0.4056561421292522,0.04029156404236955,-0.5336004135509332
0.06630704551935196,-0.06951981782913208,166.4198760986328,0.030013544821283884,-0.4056561421292522,0.04029156404236955,-0.5336004135509332
-0.07144807279109955,0.2999902367591858,166.4121551513672,0.030013544821283884,-0.4056561421292522,0.04029156404236955,-0.5336004135509332
-0.3299477994441986,0.26616594195365906,166.39598083496094,0.030013544821283884,-0.4056561421292522,0.04029156404236955,-0.5336004135509332
-0.20756599307060242,0.20156291127204895,166.41407775878906,0.030013544821283884,-0.4056561421292522,0.04029156404236955,-0.5336004135509332
0.060138292610645294,0.20469532907009125,166.40228271484375,0.030013544821283884,-0.4056561421292522,0.04029156404236955,-0.5336004135509332
0.19653765857219696,0.09029518812894821,166.4016876220703,0.030013544821283884,-0.4056561421292522,0.04029156404236955,-0.5336004135509332
0.2246585190296173,0.18373596668243408,166.40414428710938,0.030013544821283884,-0.4056561421292522,0.04029156404236955,-0.5336004135509332
0.017931977286934853,0.15464213490486145,166.40272521972656,0.030013544821283884,-0.4056561421292522,0.04029156404236955,-0.5336004135509332
-0.10912458598613739,0.21902741491794586,166.40658569335938,0.030013544821283884,-0.4056561421292522,0.04029156404236955,-0.5336004135509332
-0.11556825041770935,0.18545158207416534,166.40586853027344,0.030013544821283884,-0.4056561421292522,0.04029156404236955,-0.5336004135509332
0.0384703055024147,0.18565085530281067,166.4068603515625,0.030013544821283884,-0.4056561421292522,0.04029156404236955,-0.5336004135509332
0.12727069854736328,0.1461670696735382,166.40628051757812,0.030013544821283884,-0.4056561421292522,0.04029156404236955,-0.5336004135509332
0.0909079909324646,0.16680721938610077,166.40708923339844,0.030013544821283884,-0.4056561421292522,0.04029156404236955,-0.5336004135509332
-0.012725228443741798,0.18171574175357819,166.40802001953125,0.030013544821283884,-0.4056561421292522,0.04029156404236955,-0.5336004135509332
-0.0507565476000309,0.19787199795246124,166.40611267089844,0.030013544821283884,-0.4056561421292522,0.04029156404236955,-0.5336004135509332
-0.001976392464712262,0.19191262125968933,166.40670776367188,0.030013544821283884,-0.4056561421292522,0.04029156404236955,-0.5336004135509332
0.06909322738647461,0.171298548579216,166.40536499023438,0.030013544821283884,-0.4056561421292522,0.04029156404236955,-0.5336004135509332
0.06624308228492737,0.17101186513900757,166.40357971191406,0.030013544821283884,-0.4056561421292522,0.04029156404236955,-0.5336004135509332
0.020746612921357155,0.18623746931552887,166.40408325195312,0.030013544821283884,-0.4056561421292522,0.04029156404236955,-0.5336004135509332
-0.016725387424230576,0.18395854532718658,166.40452575683594,0.030013544821283884,-0.4056561421292522,0.04029156404236955,-0.5336004135509332
0.003577563678845763,0.1890542060136795,166.40505981445312,0.030013544821283884,-0.4056561421292522,0.04029156404236955,-0.5336004135509332
0.04449616000056267,0.17676270008087158,166.40487670898438,0.030013544821283884,-0.4056561421292522,0.04029156404236955,-0.5336004135509332
0.05293244868516922,0.17871913313865662,166.40603637695312,0.030013544821283884,-0.4056561421292522,0.04029156404236955,-0.5336004135509332
0.03086695447564125,0.18065553903579712,166.4056854248047,0.030013544821283884,-0.4056561421292522,0.04029156404236955,-0.5336004135509332
0.004654490854591131,0.17233452200889587,166.40660095214844,0.030013544821283884,-0.4056561421292522,0.04029156404236955,-0.5336004135509332
0.0056034717708826065,0.16526858508586884,166.4059295654297,0.030013544821283884,-0.4056561421292522,0.04029156404236955,-0.5336004135509332
0.029893921688199043,0.16761712729930878,166.40496826171875,0.030013544821283884,-0.4056561421292522,0.04029156404236955,-0.5336004135509332
0.02986312285065651,0.16826710104942322,166.40475463867188,0.030013544821283884,-0.4056561421292522,0.04029156404236955,-0.5336004135509332
0.0181552916765213,0.17116990685462952,166.40440368652344,0.030013544821283884,-0.4056561421292522,0.04029156404236955,-0.5336004135509332
0.013424355536699295,0.19081629812717438,166.4049072265625,0.030013544821283884,-0.4056561421292522,0.04029156404236955,-0.5336004135509332
0.010285230353474617,0.17493166029453278,166.4049835205078,0.030013544821283884,-0.4056561421292522,0.04029156404236955,-0.5336004135509332
0.02160414680838585,0.16753609478473663,166.40550231933594,0.030013544821283884,-0.4056561421292522,0.04029156404236955,-0.5336004135509332
0.037841130048036575,0.17443552613258362,166.40640258789062,0.030013544821283884,-0.4056561421292522,0.04029156404236955,-0.5336004135509332
0.018246378749608994,0.16898779571056366,166.40673828125,0.030013544821283884,-0.4056561421292522,0.04029156404236955,-0.5336004135509332
0.02243698015809059,0.160769522190094,166.40670776367188,0.030013544821283884,-0.4056561421292522,0.04029156404236955,-0.5336004135509332
0.018223043531179428,0.1791926622390747,166.40672302246094,0.030013544821283884,-0.4056561421292522,0.04029156404236955,-0.5336004135509332
0.030056945979595184,0.17255395650863647,166.40621948242188,0.030013544821283884,-0.4056561421292522,0.04029156404236955,-0.5336004135509332
0.023387793451547623,0.17578154802322388,166.40621948242188,0.030013544821283884,-0.4056561421292522,0.04029156404236955,-0.5336004135509332
0.007299527991563082,0.17541435360908508,166.40567016601562,0.030013544821283884,-0.4056561421292522,0.04029156404236955,-0.5336004135509332
0.022136740386486053,0.16996291279792786,166.40478515625,0.030013544821283884,-0.4056561421292522,0.04029156404236955,-0.5336004135509332
0.02737182192504406,0.16639314591884613,166.4046630859375,0.030013544821283884,-0.4056561421292522,0.04029156404236955,-0.5336004135509332
0.039332520216703415,0.1737598478794098,166.40357971191406,0.030013544821283884,-0.4056561421292522,0.04029156404236955,-0.5336004135509332
0.029904838651418686,0.16797536611557007,166.40347290039062,0.030013544821283884,-0.4056561421292522,0.04029156404236955,-0.5336004135509332
0.013244408182799816,0.18624339997768402,166.40240478515625,0.030013544821283884,-0.4056561421292522,0.04029156404236955,-0.5336004135509332
0.010858006775379181,0.1878429651260376,166.40243530273438,0.030013544821283884,-0.4056561421292522,0.04029156404236955,-0.5336004135509332
0.012788655236363411,0.16209496557712555,166.40232849121094,0.030013544821283884,-0.4056561421292522,0.04029156404236955,-0.5336004135509332
0.031123442575335503,0.175582155585289,166.40255737304688,0.030013544821283884,-0.4056561421292522,0.04029156404236955,-0.5336004135509332
0.01732785254716873,0.181747704744339,166.40171813964844,0.030013544821283884,-0.4056561421292522,0.04029156404236955,-0.5336004135509332
0.007604054640978575,0.17530137300491333,166.40037536621094,0.030013544821283884,-0.4056561421292522,0.04029156404236955,-0.5336004135509332
0.022019635885953903,0.1611277312040329,166.4005889892578,0.030013544821283884,-0.4056561421292522,0.04029156404236955,-0.5336004135509332
0.009100477211177349,0.19060519337654114,166.4002227783203,0.030013544821283884,-0.4056561421292522,0.04029156404236955,-0.5336004135509332
0.015942858532071114,0.17633146047592163,166.40188598632812,0.030013544821283884,-0.4056561421292522,0.04029156404236955,-0.5336004135509332
0.006494209170341492,0.17260657250881195,166.4012908935547,0.030013544821283884,-0.4056561421292522,0.04029156404236955,-0.5336004135509332
0.013603816740214825,0.16829311847686768,166.40084838867188,0.030013544821283884,-0.4056561421292522,0.04029156404236955,-0.5336004135509332
0.02292974479496479,0.17332100868225098,166.40005493164062,0.030013544821283884,-0.4056561421292522,0.04029156404236955,-0.5336004135509332
0.022179992869496346,0.1582421213388443,166.4009552001953,0.030013544821283884,-0.4056561421292522,0.04029156404236955,-0.5336004135509332
0.031773801892995834,0.17460602521896362,166.4014892578125,0.030013544821283884,-0.4056561421292522,0.04029156404236955,-0.5336004135509332
0.03903886303305626,0.1600148230791092,166.4011688232422,0.030013544821283884,-0.4056561421292522,0.04029156404236955,-0.5336004135509332
0.023164846003055573,0.16902104020118713,166.40118408203125,0.030013544821283884,-0.4056561421292522,0.04029156404236955,-0.5336004135509332
0.011658541858196259,0.17040377855300903,166.40074157714844,0.030013544821283884,-0.4056561421292522,0.04029156404236955,-0.5336004135509332
0.025065617635846138,0.1618718057870865,166.3997039794922,0.030013544821283884,-0.4056561421292522,0.04029156404236955,-0.5336004135509332
0.014799579046666622,0.15773186087608337,166.3999481201172,0.030013544821283884,-0.4056561421292522,0.04029156404236955,-0.5336004135509332
0.035540685057640076,0.16737781465053558,166.40078735351562,0.030013544821283884,-0.4056561421292522,0.04029156404236955,-0.5336004135509332
0.009781972505152225,0.17836271226406097,166.4000701904297,0.030013544821283884,-0.4056561421292522,0.04029156404236955,-0.5336004135509332
0.022252226248383522,0.15656450390815735,166.3995361328125,0.030013544821283884,-0.4056561421292522,0.04029156404236955,-0.5336004135509332
0.0320117250084877,0.16736523807048798,166.40084838867188,0.030013544821283884,-0.4056561421292522,0.04029156404236955,-0.5336004135509332
0.022877728566527367,0.17121733725070953,166.40139770507812,0.030013544821283884,-0.4056561421292522,0.04029156404236955,-0.5336004135509332
0.01867532543838024,0.16311649978160858,166.4014434814453,0.030013544821283884,-0.4056561421292522,0.04029156404236955,-0.5336004135509332
0.03105401061475277,0.18018123507499695,166.40228271484375,0.030013544821283884,-0.4056561421292522,0.04029156404236955,-0.5336004135509332
0.007443352602422237,0.16878198087215424,166.40345764160156,0.030013544821283884,-0.4056561421292522,0.04029156404236955,-0.5336004135509332
0.013764122501015663,0.16673949360847473,166.4030303955078,0.030013544821283884,-0.4056561421292522,0.04029156404236955,-0.5336004135509332
0.030357586219906807,0.16784024238586426,166.40423583984375,0.030013544821283884,-0.4056561421292522,0.04029156404236955,-0.5336004135509332
0.023290395736694336,0.1629665195941925,166.4044189453125,0.030013544821283884,-0.4056561421292522,0.04029156404236955,-0.5336004135509332
0.02368873357772827,0.15940308570861816,166.40396118164062,0.030013544821283884,-0.4056561421292522,0.04029156404236955,-0.5336004135509332
0.011599401943385601,0.17376108467578888,166.4042510986328,0.030013544821283884,-0.4056561421292522,0.04029156404236955,-0.5336004135509332
0.005187870003283024,0.1703060120344162,166.40451049804688,0.030013544821283884,-0.4056561421292522,0.04029156404236955,-0.5336004135509332
0.008462280035018921,0.17351675033569336,166.40472412109375,0.030013544821283884,-0.4056561421292522,0.04029156404236955,-0.5336004135509332
0,0.16882364451885223,166.4044189453125,0.030685658546992477,-0.4145257087165695,0.040362083042661374,-0.5307475769271454
0,0.15479756891727448,166.40550231933594,0.03135835993103683,-0.42334902796997775,0.040362083042661374,-0.5280507334818443
-0.13037100434303284,0.106183722615242,166.40658569335938,0.032022007773112926,-0.43213174982720765,0.039275658006469434,-0.5258758893857399
-1.3026363849639893,0.5446919202804565,166.4285430908203,0.03257708767118554,-0.44085114828621336,0.02733392976224425,-0.5204519256949425
-2.910240650177002,0.46559271216392517,166.52679443359375,0.03274009226200482,-0.4494551883927649,-0.007773378863930678,-0.5120328870912393
-2.42915678024292,0,166.66835021972656,0.032239744459382366,-0.4579567370170519,-0.05226835745076336,-0.5081529478232065
-1.0271142721176147,1.2588375806808472,166.6636962890625,0.03112858634545572,-0.4663385335376692,-0.08107061622043449,-0.49766263465086613
-1.2805837392807007,1.0266770124435425,166.72015380859375,0.029617152602101373,-0.4744741944906611,-0.10030143298208712,-0.4786166797081629
-2.265928030014038,0.28231626749038696,166.7841796875,0.027699176512865565,-0.48236023684135726,-0.12985569772620995,-0.46770840237538014
-0.9373664259910583,0.413947731256485,166.7904510498047,0.02531246388020616,-0.4901070252143673,-0.15654981819291908,-0.46190620238582286
-1.3360058069229126,0.9553048610687256,166.72222900390625,0.02254542717192737,-0.4977103749352195,-0.1754945868005355,-0.4504957641164461
-0.5747865438461304,-0.2819509506225586,166.6678466796875,0.019487823478670598,-0.5051718769822682,-0.19141785639027753,-0.4448844815293947
-2.341623067855835,0.768989086151123,166.6489715576172,0.01609499742690889,-0.5125527962483464,-0.21572126982112724,-0.44082583039999
1.064916968345642,0.8979700207710266,166.65655517578125,0.012410982784090783,-0.5197841323725877,-0.22636048731704553,-0.4269345045089721
-2.2120208740234375,0,166.6772003173828,0.00855864800202351,-0.526837348418517,-0.23591968653102716,-0.41945142100254684
-0.9990225434303284,-0.37421914935112,166.7139892578125,0.004403664100294323,-0.5338541928761533,-0.2626783816764752,-0.42256991391380616
-0.7321774959564209,1.1699090003967285,166.73255920410156,-9.453115260434422e-05,-0.5408417685350608,-0.2771050486713648,-0.41593916515509277
-1.1919220685958862,-0.26987770199775696,166.72772216796875,-0.004846566655776556,-0.5477115857808125,-0.2931392117093007,-0.4084389043351013
-0.9123198986053467,0.6172484159469604,166.80230712890625,-0.009878348098653875,-0.5544947778868177,-0.3106745614359776,-0.4055441483855246
-1.0191771984100342,0.19586114585399628,166.87164306640625,-0.015190389198768459,-0.5611973810847847,-0.3267703705777724,-0.39876823537051664
-0.6125954985618591,-0.3086054027080536,167.01242065429688,-0.020749879590132157,-0.5678513478032415,-0.34036847638587153,-0.3997077708443005
-0.5657768845558167,1.2317910194396973,167.07711791992188,-0.026504518945390965,-0.5744490338717069,-0.3501882462451855,-0.3920145573715368
-0.3931078016757965,1.176298975944519,167.00918579101562,-0.0324075789304657,-0.5808153813559974,-0.3581789519637823,-0.371947140743335
-0.5233927965164185,-1.270465612411499,166.9402618408203,-0.03844087400473653,-0.587021039718141,-0.36581645694871745,-0.3727318627138932
0.5788920521736145,0.8485860824584961,166.91355895996094,-0.04453396083890562,-0.5932625346196193,-0.36535396315157415,-0.37624752546350154
-1.2103157043457031,-0.40735793113708496,166.8268280029297,-0.050667042422832695,-0.5995026858668359,-0.3706158269196749,-0.37257062420248976
-0.6913405060768127,0.17049072682857513,166.78785705566406,-0.05697603233055106,-0.605728645381621,-0.3864629620065292,-0.37454451757172735
-0.9231433868408203,2.126936674118042,166.92880249023438,-0.06352919863433472,-0.6118115104383063,-0.39991699444750944,-0.35539928923050557
-0.18615250289440155,-0.7888031005859375,167.14993286132812,-0.07027151631191371,-0.6176419059828749,-0.40916112686196965,-0.344248176117738
-0.5791430473327637,-0.23975667357444763,167.25650024414062,-0.0771440139506012,-0.6234508033469317,-0.4155385897805294,-0.35281950756907454
0.3695501983165741,0.46720969676971436,167.19529724121094,-0.08408421217256949,-0.6293153331242499,-0.4172851968556643,-0.350924065709114
-0.6949631571769714,0.342460960149765,167.05284118652344,-0.09106156357564031,-0.6351078404237824,-0.41999697151283427,-0.344176810234785
-0.7610780596733093,-0.9732167720794678,166.92910766601562,-0.0981626270742466,-0.6408879230813017,-0.43213064831991993,-0.3494331086675325
-0.20380213856697083,0.7034128904342651,166.92213439941406,-0.1054318101155675,-0.6467305446064304,-0.44017131663858894,-0.3516814743479092
-0.06518812477588654,0.6809619069099426,166.9370574951172,-0.11278667860560945,-0.6524957653735245,-0.4424129021664461,-0.34014501770337413
0.7758748531341553,0.17973004281520844,166.85569763183594,-0.12011087373002534,-0.6581050787276276,-0.4364905127634605,-0.3329725847889979
-1.5545506477355957,0.5031089782714844,166.8687286376953,-0.1274397903173748,-0.6636072024309798,-0.4429794777184725,-0.32728225961327545
0.21206961572170258,0.5141993165016174,166.8330841064453,-0.13491600946212806,-0.6689912603485085,-0.4541668196519216,-0.31880469049016624
0.37706220149993896,0,166.7555389404297,-0.14244454452457525,-0.6742689635708098,-0.4492573878417413,-0.3145196961859861
-1.0963308811187744,1.1224708557128906,166.7853240966797,-0.14998211686913335,-0.6794330091422628,-0.4552512935052316,-0.30516577238837866
1.2126193046569824,0,166.857666015625,-0.15756156284258593,-0.6844411559837557,-0.45428222330907986,-0.29581184859077125
-0.5371460914611816,-0.21919551491737366,166.89181518554688,-0.1650860253690431,-0.6893865753710267,-0.4486532798657815,-0.29763847788174935
-0.4914684593677521,-0.08494972437620163,166.93539428710938,-0.1726350115995026,-0.694368337866229,-0.45722506778935595,-0.3001730215425292
0.5009702444076538,-0.13170082867145538,166.94052124023438,-0.18025476954980854,-0.6993862667358994,-0.45714588624735675,-0.3019784428179263
-0.9235314726829529,-0.6436236500740051,166.98544311523438,-0.1879032121836725,-0.7044730827605555,-0.4606672298163176,-0.30843948014080513
0.1082264855504036,1.118457317352295,167.0396728515625,-0.195637617749162,-0.7095807662026746,-0.4674614380424222,-0.30448253291348604
0.27887970209121704,0.4193494915962219,167.03712463378906,-0.2034017593423939,-0.7145486829450558,-0.46423555314540865,-0.2916674761722484
0,-1.165609359741211,166.9549102783203,-0.2111196519155055,-0.7194616311498812,-0.46191155562798186,-0.29788630840679
0.6415217518806458,1.1172559261322021,166.8136749267578,-0.21877362772098016,-0.7244297608339949,-0.4565655410289765,-0.29828925368686504
-1.571495771408081,-0.8797969222068787,166.7466278076172,-0.21877362772098016,-0.7244297608339949,-0.4565655410289765,-0.29828925368686504
0.18710602819919586,1.2353161573410034,166.700927734375,-0.21877362772098016,-0.7244297608339949,-0.4565655410289765,-0.29828925368686504
0.24305468797683716,0.9604568481445312,166.86807250976562,-0.21877362772098016,-0.7244297608339949,-0.4565655410289765,-0.29828925368686504
1.7572717666625977,-0.6660946607589722,166.9334716796875,-0.21877362772098016,-0.7244297608339949,-0.4565655410289765,-0.29828925368686504
4.461579322814941,-1.033006191253662,166.3397674560547,-0.21877362772098016,-0.7244297608339949,-0.4565655410289765,-0.29828925368686504
2.344905376434326,0.7543798089027405,165.36497497558594,-0.21877362772098016,-0.7244297608339949,-0.4565655410289765,-0.29828925368686504
2.7794113159179688,-0.2358325719833374,164.2398681640625,-0.21877362772098016,-0.7244297608339949,-0.4565655410289765,-0.29828925368686504
1.8706369400024414,2.595357656478882,162.9507598876953,-0.21877362772098016,-0.7244297608339949,-0.4565655410289765,-0.29828925368686504
1.528184413909912,-0.5285799503326416,161.64089965820312,-0.21877362772098016,-0.7244297608339949,-0.4565655410289765,-0.29828925368686504
0.6260188817977905,0.856586754322052,160.20028686523438,-0.21877362772098016,-0.7244297608339949,-0.4565655410289765,-0.29828925368686504
0.8190175890922546,0.04991215467453003,158.69485473632812,-0.21877362772098016,-0.7244297608339949,-0.4565655410289765,-0.29828925368686504
2.812492609024048,1.158785104751587,157.10047912597656,-0.21877362772098016,-0.7244297608339949,-0.4565655410289765,-0.29828925368686504
1.2836109399795532,-0.6788674592971802,155.45712280273438,-0.21877362772098016,-0.7244297608339949,-0.4565655410289765,-0.29828925368686504
3.0190696716308594,-0.821855902671814,153.713623046875,-0.21877362772098016,-0.7244297608339949,-0.4565655410289765,-0.29828925368686504
0.5003852844238281,2.254075527191162,152.1781005859375,-0.21877362772098016,-0.7244297608339949,-0.4565655410289765,-0.29828925368686504
1.5173356533050537,-1.3343948125839233,150.6905975341797,-0.21877362772098016,-0.7244297608339949,-0.4565655410289765,-0.29828925368686504
0.500549852848053,1.2491847276687622,149.03916931152344,-0.21877362772098016,-0.7244297608339949,-0.4565655410289765,-0.29828925368686504
1.4140444993972778,-1.7855862379074097,147.26718139648438,-0.21877362772098016,-0.7244297608339949,-0.4565655410289765,-0.29828925368686504
1.553499698638916,-0.9431852102279663,145.2993621826172,-0.21877362772098016,-0.7244297608339949,-0.4565655410289765,-0.29828925368686504
0.6699601411819458,-0.0005979200941510499,143.2660675048828,-0.21877362772098016,-0.7244297608339949,-0.4565655410289765,-0.29828925368686504
0.09490811824798584,-0.4025753140449524,141.15821838378906,-0.21877362772098016,-0.7244297608339949,-0.4565655410289765,-0.29828925368686504
1.1633501052856445,0.5721853375434875,138.96578979492188,-0.21877362772098016,-0.7244297608339949,-0.4565655410289765,-0.29828925368686504
0.9505028128623962,-2.6834239959716797,136.69866943359375,-0.21877362772098016,-0.7244297608339949,-0.4565655410289765,-0.29828925368686504
1.161461591720581,1.7461081743240356,134.40565490722656,-0.21877362772098016,-0.7244297608339949,-0.4565655410289765,-0.29828925368686504
0.09392314404249191,-1.0843220949172974,132.03765869140625,-0.21877362772098016,-0.7244297608339949,-0.4565655410289765,-0.29828925368686504
0.665081262588501,0.7302323579788208,129.65382385253906,-0.21877362772098016,-0.7244297608339949,-0.4565655410289765,-0.29828925368686504
0.4765836000442505,0.381193071603775,127.25424194335938,-0.21877362772098016,-0.7244297608339949,-0.4565655410289765,-0.29828925368686504
-0.3116793632507324,-2.398470401763916,124.894287109375,-0.21877362772098016,-0.7244297608339949,-0.4565655410289765,-0.29828925368686504
0.8666508197784424,-0.5437440872192383,122.52388000488281,-0.21877362772098016,-0.7244297608339949,-0.4565655410289765,-0.29828925368686504
0.8257594704627991,1.1249563694000244,120.16992950439453,-0.21877362772098016,-0.7244297608339949,-0.4565655410289765,-0.29828925368686504
0.581734299659729,-0.830202043056488,117.74356842041016,-0.21877362772098016,-0.7244297608339949,-0.4565655410289765,-0.29828925368686504
1.9311870336532593,0.6622945070266724,115.23343658447266,-0.21877362772098016,-0.7244297608339949,-0.4565655410289765,-0.29828925368686504
-0.3632912039756775,-0.24334947764873505,112.68465423583984,-0.21877362772098016,-0.7244297608339949,-0.4565655410289765,-0.29828925368686504
0.6929767727851868,-0.40704354643821716,110.0521011352539,-0.21877362772098016,-0.7244297608339949,-0.4565655410289765,-0.29828925368686504
1.989023208618164,1.5011080503463745,107.42805480957031,-0.21877362772098016,-0.7244297608339949,-0.4565655410289765,-0.29828925368686504
-0.9556602835655212,-1.2068527936935425,104.76280975341797,-0.21877362772098016,-0.7244297608339949,-0.4565655410289765,-0.29828925368686504
1.553162693977356,-0.5507959723472595,102.18700408935547,-0.21877362772098016,-0.7244297608339949,-0.4565655410289765,-0.29828925368686504
-0.1468253880739212,-0.025294138118624687,99.56468200683594,-0.21877362772098016,-0.7244297608339949,-0.4565655410289765,-0.29828925368686504
-0.7552042603492737,-0.6876764297485352,96.92033386230469,-0.21877362772098016,-0.7244297608339949,-0.4565655410289765,-0.29828925368686504
0.5291145443916321,-0.013111956417560577,94.25772094726562,-0.21877362772098016,-0.7244297608339949,-0.4565655410289765,-0.29828925368686504
1.1979023218154907,-0.16759328544139862,91.64118194580078,-0.21877362772098016,-0.7244297608339949,-0.4565655410289765,-0.29828925368686504
-1.4570045471191406,-0.42115724086761475,89.37930297851562,-0.21877362772098016,-0.7244297608339949,-0.4565655410289765,-0.29828925368686504
-0.11004653573036194,0.05843764543533325,87.53997802734375,-0.21877362772098016,-0.7244297608339949,-0.4565655410289765,-0.29828925368686504
-0.12622769176959991,0.7395882606506348,86.24763488769531,-0.21877362772098016,-0.7244297608339949,-0.4565655410289765,-0.29828925368686504
-1.1122967004776,0.08445850014686584,85.49331665039062,-0.21877362772098016,-0.7244297608339949,-0.4565655410289765,-0.29828925368686504
-1.0208805799484253,0.9643131494522095,85.04197692871094,-0.21877362772098016,-0.7244297608339949,-0.4565655410289765,-0.29828925368686504
-1.8216626644134521,0.2556624412536621,84.8798828125,-0.21877362772098016,-0.7244297608339949,-0.4565655410289765,-0.29828925368686504
0.45069682598114014,1.0201863050460815,84.99422454833984,-0.21877362772098016,-0.7244297608339949,-0.4565655410289765,-0.29828925368686504
0.5061110258102417,-0.4749106466770172,85.0503158569336,-0.21877362772098016,-0.7244297608339949,-0.4565655410289765,-0.29828925368686504
-0.10307429730892181,-0.11462027579545975,85.00294494628906,-0.21877362772098016,-0.7244297608339949,-0.4565655410289765,-0.29828925368686504
0.40713173151016235,-0.18157467246055603,85.03682708740234,-0.21877362772098016,-0.7244297608339949,-0.4565655410289765,-0.29828925368686504
-0.06732330471277237,0.15490536391735077,85.03459167480469,-0.21877362772098016,-0.7244297608339949,-0.4565655410289765,-0.29828925368686504
0.36260032653808594,0.281486839056015,85.02578735351562,-0.21877362772098016,-0.7244297608339949,-0.4565655410289765,-0.29828925368686504
0.09050257503986359,0.28908276557922363,85.04044342041016,-0.21877362772098016,-0.7244297608339949,-0.4565655410289765,-0.29828925368686504
0.1626364141702652,0.14896918833255768,85.03482818603516,-0.21877362772098016,-0.7244297608339949,-0.4565655410289765,-0.29828925368686504
0.22571760416030884,-0.04103638604283333,85.03785705566406,-0.21877362772098016,-0.7244297608339949,-0.4565655410289765,-0.29828925368686504
0.10644889622926712,0.012619624845683575,85.04071807861328,-0.21877362772098016,-0.7244297608339949,-0.4565655410289765,-0.29828925368686504
0.19463948905467987,0.09881146997213364,85.03601837158203,-0.21877362772098016,-0.7244297608339949,-0.4565655410289765,-0.29828925368686504
0.17379878461360931,0.1818288266658783,85.04251098632812,-0.21877362772098016,-0.7244297608339949,-0.4565655410289765,-0.29828925368686504
0.15401294827461243,0.13729730248451233,85.03998565673828,-0.21877362772098016,-0.7244297608339949,-0.4565655410289765,-0.29828925368686504
0.20465044677257538,0.044763918966054916,85.0418701171875,-0.21877362772098016,-0.7244297608339949,-0.4565655410289765,-0.29828925368686504
0.14345894753932953,0.06071820110082626,85.04219055175781,-0.21877362772098016,-0.7244297608339949,-0.4565655410289765,-0.29828925368686504
0.19180862605571747,0.10151896625757217,85.04084777832031,-0.21877362772098016,-0.7244297608339949,-0.4565655410289765,-0.29828925368686504
0.16520223021507263,0.13678306341171265,85.04249572753906,-0.21877362772098016,-0.7244297608339949,-0.4565655410289765,-0.29828925368686504
0.15810351073741913,0.11469855904579163,85.04198455810547,-0.21877362772098016,-0.7244297608339949,-0.4565655410289765,-0.29828925368686504
0.16960255801677704,0.06196010857820511,85.04180145263672,-0.21877362772098016,-0.7244297608339949,-0.4565655410289765,-0.29828925368686504
0.173927441239357,0.07752563804388046,85.04241943359375,-0.21877362772098016,-0.7244297608339949,-0.4565655410289765,-0.29828925368686504
0.17602242529392242,0.0960538312792778,85.04170989990234,-0.21877362772098016,-0.7244297608339949,-0.4565655410289765,-0.29828925368686504
0.15139152109622955,0.1037387028336525,85.04199981689453,-0.21877362772098016,-0.7244297608339949,-0.4565655410289765,-0.29828925368686504
0.16957126557826996,0.07777069509029388,85.04166412353516,-0.21877362772098016,-0.7244297608339949,-0.4565655410289765,-0.29828925368686504
0.16542188823223114,0.07887356728315353,85.0412826538086,-0.21877362772098016,-0.7244297608339949,-0.4565655410289765,-0.29828925368686504
0.14816921949386597,0.09878512471914291,85.04161071777344,-0.21877362772098016,-0.7244297608339949,-0.4565655410289765,-0.29828925368686504
0.1827537715435028,0.11056146770715714,85.04100036621094,-0.21877362772098016,-0.7244297608339949,-0.4565655410289765,-0.29828925368686504
0.16545894742012024,0.10069601982831955,85.04082489013672,-0.21877362772098016,-0.7244297608339949,-0.4565655410289765,-0.29828925368686504
0.16823822259902954,0.08071360737085342,85.04045867919922,-0.21877362772098016,-0.7244297608339949,-0.4565655410289765,-0.29828925368686504
0.16878409683704376,0.08779172599315643,85.04093933105469,-0.21877362772098016,-0.7244297608339949,-0.4565655410289765,-0.29828925368686504
0.16137351095676422,0.09237228333950043,85.04158020019531,-0.21877362772098016,-0.7244297608339949,-0.4565655410289765,-0.29828925368686504
0.16837169229984283,0.101121686398983,85.04303741455078,-0.21877362772098016,-0.7244297608339949,-0.4565655410289765,-0.29828925368686504
0.1635989099740982,0.0887008011341095,85.04454040527344,-0.21877362772098016,-0.7244297608339949,-0.4565655410289765,-0.29828925368686504
0.17333638668060303,0.08295174688100815,85.0447998046875,-0.21877362772098016,-0.7244297608339949,-0.4565655410289765,-0.29828925368686504
0.1590007245540619,0.07767675071954727,85.04486083984375,-0.21877362772098016,-0.7244297608339949,-0.4565655410289765,-0.29828925368686504
0.1801740676164627,0.09067259728908539,85.04519653320312,-0.21877362772098016,-0.7244297608339949,-0.4565655410289765,-0.29828925368686504
0.15892422199249268,0.09446083009243011,85.04576873779297,-0.21877362772098016,-0.7244297608339949,-0.4565655410289765,-0.29828925368686504
0.14786101877689362,0.0873691663146019,85.0454330444336,-0.21877362772098016,-0.7244297608339949,-0.4565655410289765,-0.29828925368686504
0.1740659922361374,0.09368496388196945,85.04571533203125,-0.21877362772098016,-0.7244297608339949,-0.4565655410289765,-0.29828925368686504
0.16661232709884644,0.08785049617290497,85.0458755493164,-0.21877362772098016,-0.7244297608339949,-0.4565655410289765,-0.29828925368686504
0.1670103371143341,0.08632586151361465,85.04521942138672,-0.21877362772098016,-0.7244297608339949,-0.4565655410289765,-0.29828925368686504
0.1649981588125229,0.08932338654994965,85.0452880859375,-0.21877362772098016,-0.7244297608339949,-0.4565655410289765,-0.29828925368686504
0.15156523883342743,0.08931339532136917,85.04564666748047,-0.21877362772098016,-0.7244297608339949,-0.4565655410289765,-0.29828925368686504
0.15512003004550934,0.0771462544798851,85.04405212402344,-0.21877362772098016,-0.7244297608339949,-0.4565655410289765,-0.29828925368686504
0.16132086515426636,0.08964335918426514,85.04534149169922,-0.21877362772098016,-0.7244297608339949,-0.4565655410289765,-0.29828925368686504
0.15957611799240112,0.08525509387254715,85.04632568359375,-0.21877362772098016,-0.7244297608339949,-0.4565655410289765,-0.29828925368686504
0.16478122770786285,0.08265554159879684,85.04512023925781,-0.21877362772098016,-0.7244297608339949,-0.4565655410289765,-0.29828925368686504
0.16193044185638428,0.07989712804555893,85.04507446289062,-0.21877362772098016,-0.7244297608339949,-0.4565655410289765,-0.29828925368686504
0.16094829142093658,0.09517078101634979,85.04557800292969,-0.21877362772098016,-0.7244297608339949,-0.4565655410289765,-0.29828925368686504
0.17399895191192627,0.08369018137454987,85.0457534790039,-0.21877362772098016,-0.7244297608339949,-0.4565655410289765,-0.29828925368686504
0.15864862501621246,0.0833742544054985,85.04631805419922,-0.21877362772098016,-0.7244297608339949,-0.4565655410289765,-0.29828925368686504
0.15437841415405273,0.08565019071102142,85.0463638305664,-0.21877362772098016,-0.7244297608339949,-0.4565655410289765,-0.29828925368686504
0.15774042904376984,0.0888056680560112,85.04647064208984,-0.21877362772098016,-0.7244297608339949,-0.4565655410289765,-0.29828925368686504
0.15362799167633057,0.08694789558649063,85.04632568359375,-0.21877362772098016,-0.7244297608339949,-0.4565655410289765,-0.29828925368686504
0.16366030275821686,0.08450521528720856,85.04591369628906,-0.21877362772098016,-0.7244297608339949,-0.4565655410289765,-0.29828925368686504
0.1718292236328125,0.08586189150810242,85.04464721679688,-0.21877362772098016,-0.7244297608339949,-0.4565655410289765,-0.29828925368686504
0.1581701934337616,0.09174364805221558,85.04560089111328,-0.21877362772098016,-0.7244297608339949,-0.4565655410289765,-0.29828925368686504
0.1467113047838211,0.08456837385892868,85.04421997070312,-0.21877362772098016,-0.7244297608339949,-0.4565655410289765,-0.29828925368686504
0.16469529271125793,0.08573578298091888,85.04452514648438,-0.21877362772098016,-0.7244297608339949,-0.4565655410289765,-0.29828925368686504
0.15641263127326965,0.07583452016115189,85.04411315917969,-0.21877362772098016,-0.7244297608339949,-0.4565655410289765,-0.29828925368686504
0.1464090496301651,0.09067559987306595,85.04373931884766,-0.21877362772098016,-0.7244297608339949,-0.4565655410289765,-0.29828925368686504
0.15114730596542358,0.07767226547002792,85.04415130615234,-0.21877362772098016,-0.7244297608339949,-0.4565655410289765,-0.29828925368686504
0.14630815386772156,0.07228901237249374,85.04373931884766,-0.21877362772098016,-0.7244297608339949,-0.4565655410289765,-0.29828925368686504
0.1604982316493988,0.08137216418981552,85.04529571533203,-0.21877362772098016,-0.7244297608339949,-0.4565655410289765,-0.29828925368686504
0.15984293818473816,0.08502572774887085,85.04483032226562,-0.21877362772098016,-0.7244297608339949,-0.4565655410289765,-0.29828925368686504
0.15731845796108246,0.0833354964852333,85.0440673828125,-0.21877362772098016,-0.7244297608339949,-0.4565655410289765,-0.29828925368686504
0.16433067619800568,0.07642140984535217,85.0445785522461,-0.21877362772098016,-0.7244297608339949,-0.4565655410289765,-0.29828925368686504
0.150765523314476,0.08560553193092346,85.04531860351562,-0.21877362772098016,-0.7244297608339949,-0.4565655410289765,-0.29828925368686504
0.14592291414737701,0.08505021035671234,85.04419708251953,-0.21877362772098016,-0.7244297608339949,-0.4565655410289765,-0.29828925368686504
0.150272399187088,0.08724057674407959,85.04441833496094,-0.21877362772098016,-0.7244297608339949,-0.4565655410289765,-0.29828925368686504
0.15760892629623413,0.08457569777965546,85.04583740234375,-0.21877362772098016,-0.7244297608339949,-0.4565655410289765,-0.29828925368686504
0.14371728897094727,0.0776861235499382,85.04658508300781,-0.21877362772098016,-0.7244297608339949,-0.4565655410289765,-0.29828925368686504
0.15712100267410278,0.0721764788031578,85.04708099365234,-0.21877362772098016,-0.7244297608339949,-0.4565655410289765,-0.29828925368686504
0.1530499905347824,0.08325827866792679,85.04615783691406,-0.21877362772098016,-0.7244297608339949,-0.4565655410289765,-0.29828925368686504
0.1569298356771469,0.08478531986474991,85.04635620117188,-0.21877362772098016,-0.7244297608339949,-0.4565655410289765,-0.29828925368686504
0.14386004209518433,0.07812617719173431,85.04673767089844,-0.21877362772098016,-0.7244297608339949,-0.4565655410289765,-0.29828925368686504
0.15297263860702515,0.08570536226034164,85.0469741821289,-0.21877362772098016,-0.7244297608339949,-0.4565655410289765,-0.29828925368686504
0.14815795421600342,0.0816035121679306,85.04810333251953,-0.21877362772098016,-0.7244297608339949,-0.4565655410289765,-0.29828925368686504
0.14348700642585754,0.08929313719272614,85.0488510131836,-0.21877362772098016,-0.7244297608339949,-0.4565655410289765,-0.29828925368686504
0.14023342728614807,0.0839352011680603,85.04905700683594,-0.21877362772098016,-0.7244297608339949,-0.4565655410289765,-0.29828925368686504
0.16097360849380493,0.08338107913732529,85.04904174804688,-0.21877362772098016,-0.7244297608339949,-0.4565655410289765,-0.29828925368686504
0.1513599008321762,0.0713290199637413,85.04823303222656,-0.21877362772098016,-0.7244297608339949,-0.4565655410289765,-0.29828925368686504
0.1631067991256714,0.08087065070867538,85.04792022705078,-0.21877362772098016,-0.7244297608339949,-0.4565655410289765,-0.29828925368686504
0.1491435468196869,0.07137734442949295,85.04792022705078,-0.22636136935299467,-0.7293906756180025,-0.4539634548127652,-0.29702052039404697
0.33856073021888733,1.0555808544158936,85.01958465576172,-0.2338935585806353,-0.734262756638539,-0.4498992525041104,-0.28762920207033543
1.0128425359725952,2.321531295776367,84.92604064941406,-0.24129803200666272,-0.7388220549959479,-0.43863755861918136,-0.25948660081873326
-0.8417007923126221,2.521031618118286,84.94221496582031,-0.24859677314033934,-0.7428105425850174,-0.43721137742201494,-0.21913190986961115
0.909913182258606,2.497007131576538,85.10346984863281,-0.2558788924591822,-0.746114266169671,-0.43664294083913174,-0.17731492028882095
-0.957084059715271,2.1546270847320557,85.14247131347656,-0.26315955056188,-0.748746484687241,-0.43703603148460396,-0.13855130181958267
1.6446037292480469,1.165332555770874,85.07524108886719,-0.2703957399984614,-0.750825120298088,-0.43130670090516415,-0.11088497148205825
0.2411303073167801,1.3059628009796143,85.03741455078125,-0.27745323126100824,-0.7525015854230146,-0.41559225060045724,-0.09029084350913752
-0.6379898190498352,1.776261329650879,84.89057159423828,-0.28440732845933064,-0.7537923894724287,-0.4188994131982327,-0.06460564242055007
1.4270256757736206,1.243753433227539,84.85403442382812,-0.2913341911892509,-0.7546594269320157,-0.4123241143922012,-0.039438852729896584
-1.2611080408096313,1.5237585306167603,84.90446472167969,-0.29819473770447064,-0.7551245528133581,-0.41094146743416793,-0.01637625303119409
1.0250338315963745,-0.1537347435951233,84.78877258300781,-0.3050601562040132,-0.7553023498231126,-0.41290875251094505,-0.004959388139347114
0.6054088473320007,2.0759012699127197,84.78459930419922,-0.3118287435598256,-0.7552515225055519,-0.39932173018654193,0.011058666246632856
-0.17889165878295898,0.9784907698631287,84.90132904052734,-0.3184544864803965,-0.7548551008431236,-0.3957674202819666,0.03651193324476493
-0.28114551305770874,0,84.95616149902344,-0.3250825571775849,-0.7541786178744704,-0.39960106338063883,0.044666022993624335
0.3398343324661255,1.6735131740570068,84.99671173095703,-0.3317384992881366,-0.7533179679652672,-0.3991119898855687,0.05861196611076606
0.8532841801643372,-0.4386836588382721,84.9888916015625,-0.3383075103339634,-0.7522553498137531,-0.38916933561364814,0.06890221207092218
-0.2298230528831482,2.0961391925811768,84.89066314697266,-0.34475037001590747,-0.7509918785338389,-0.3839738262196382,0.08271434151877971
0.4277750849723816,0.47131484746932983,84.7761001586914,-0.3511361871173397,-0.7494350107557446,-0.3823242259522279,0.10410979185253394
-0.2212783694267273,0.8828500509262085,84.78822326660156,-0.35749391750018616,-0.7476058083291471,-0.3806034199893475,0.11539449933916343
0,0,84.92919158935547,-0.3638526743867744,-0.7456212576421801,-0.38244740640123687,0.12275158309688183
1.0919795036315918,0.667950451374054,85.05013275146484,-0.37015096591682056,-0.7435290124758867,-0.37334757720430695,0.12831783685833228
-0.1576240062713623,1.0235352516174316,85.19906616210938,-0.37630853973846456,-0.7412729175766511,-0.3655612813929717,0.142413551049928
-0.14540426433086395,1.1073493957519531,85.27580261230469,-0.3824222713915837,-0.738751380291974,-0.3680865169813236,0.16017092311133954
1.5229249000549316,0.11859322339296341,85.3389892578125,-0.3884613855193471,-0.7359967300026777,-0.3566071783502897,0.17038711160421385
-0.3933323919773102,0.5398392081260681,85.36192321777344,-0.39432639456767987,-0.7331112203348631,-0.34719390744964285,0.1758740485335391
0,0.8171327710151672,85.29722595214844,-0.40014027444128347,-0.7300857520274193,-0.3504716773827871,0.18718214835971606
0.8939082026481628,0.3943990170955658,85.19448852539062,-0.4059193921058127,-0.7268819154028052,-0.3430224423607191,0.19727824659397217
-0.7667340636253357,0.15274375677108765,85.11929321289062,-0.4116276012743925,-0.723555948600276,-0.3419626578688622,0.2018377697095276
0.6497621536254883,0.3372408449649811,85.11922454833984,-0.41733510195484574,-0.72015795906333,-0.3429374237855276,0.20592097472399484
-0.5086389183998108,0.656497597694397,85.11750030517578,-0.4230409254599361,-0.7166569332038566,-0.34176139682531365,0.214202128412823
-0.2043789178133011,0.67427659034729,85.03421020507812,-0.4287864638678728,-0.71299448285614,-0.3477032121270896,0.2252919133131704
2.756159543991089,-0.3135364353656769,84.97456359863281,-0.43440431041539523,-0.7092145662346023,-0.326438373575608,0.2282980812713505
-1.061887264251709,0,84.91482543945312,-0.43972729217778456,-0.7054313715769802,-0.31231943791111316,0.2256852776433032
-0.4741726219654083,0.3869098424911499,84.79495239257812,-0.4450392869684015,-0.7016430815438632,-0.32511993696292246,0.22890952633072945
0.6089902520179749,0.5359665751457214,84.68887329101562,-0.4504485902490299,-0.6977638341315707,-0.3239964567124844,0.23660016314437005
-0.7635439038276672,0.9103613495826721,84.61050415039062,-0.4558592640867247,-0.6937200586399473,-0.3252844038108985,0.24865289585043998
-0.18973368406295776,0.763401448726654,84.54405975341797,-0.4613468706493988,-0.6894596101814463,-0.33322838370998703,0.26260091916968437
1.2975651025772095,0.16233351826667786,84.46623229980469,-0.4668237443071684,-0.6850186410447993,-0.32399645522236825,0.2703153772279621
-0.6374894976615906,-0.2287536859512329,84.39779663085938,-0.4721778466438665,-0.6805179972693113,-0.31849582518140473,0.2697618758305908
0.9521670937538147,-0.4496116042137146,84.4327392578125,-0.4774642577860502,-0.676069074706174,-0.3158735118806362,0.2641088317458829
0.07387188076972961,0,84.48248291015625,-0.48265756361082995,-0.671698483871813,-0.30732318709294004,0.26036206837743525
0.4369701147079468,0,84.3775634765625,-0.4877441415904708,-0.6673591160655223,-0.3030661704639594,0.26036206837743525
-0.1858934611082077,1.2355648279190063,84.25474548339844,-0.4927778085528146,-0.6629339451461819,-0.3009738650172949,0.270658441943427
-1.3131059408187866,1.0331653356552124,84.369384765625,-0.4978981368171256,-0.6582654204079876,-0.31346552670001987,0.2895645266398788
1.5939464569091797,-0.9177864193916321,84.58074951171875,-0.5031030594485085,-0.6534313325392491,-0.3111251890659333,0.29052601760874197
0.6107633709907532,0.5711205005645752,84.74891662597656,-0.5081353744171143,-0.6486133062679108,-0.29275260716676715,0.28763713495184984
-0.7173527479171753,0.13335785269737244,84.80482482910156,-0.5130219865766248,-0.6437704319108479,-0.29364085197448736,0.2935077878956994
1.5538911819458008,-1.067145586013794,84.72530364990234,-0.517857907829392,-0.6389434818162888,-0.28666969835758216,0.2857262234513959
-0.10466474294662476,0.8741884231567383,84.69473266601562,-0.5225350954104212,-0.6341947778950751,-0.27459281136592234,0.2841182470942538
-0.39047712087631226,0.07983291894197464,84.62226104736328,-0.5271460271181743,-0.6293932222947473,-0.2787189935644468,0.2920684249450764
0.2679715156555176,0.16626664996147156,84.57242584228516,-0.5317998510112776,-0.6245083249644888,-0.27973987360795344,0.29411925468593847
-0.43179959058761597,-0.3067350685596466,84.49041748046875,-0.5364735591877249,-0.6196160921376814,-0.28110510756572094,0.2929486845309537
0.21332046389579773,0.6706767082214355,84.40164947509766,-0.5411738164753961,-0.614708340337189,-0.2829257669548194,0.2959815315281353
0.48191365599632263,-0.5333729386329651,84.30679321289062,-0.5458409657774284,-0.6097657798277208,-0.2771321492890517,0.2971257296080392
2.5744340419769287,0,84.26345825195312,-0.5502475885643311,-0.6048507241216586,-0.25166258513927464,0.29268095511943115
-1.7228121757507324,0.3979496955871582,84.26726531982422,-0.5543828245759422,-0.5999450728074746,-0.24456573625405634,0.2959972025826575
-0.08945143222808838,0.2583313286304474,84.27210998535156,-0.5585847718196195,-0.5949662110266374,-0.2596679329872132,0.3014662111178042
-0.08874426037073135,-0.12206794321537018,84.15264892578125,-0.5629249454036147,-0.5899323114395757,-0.26115289709220335,0.3026017393295965
-0.11045315116643906,0.9546374678611755,84.04542541503906,-0.5672913268420637,-0.5848311317893153,-0.26281287552167976,0.3095398187016449
0.3932299315929413,0.2472662627696991,83.95967864990234,-0.5716519041576732,-0.5795886692741052,-0.2604564023514589,0.31955568312356886
-0.11122273653745651,-0.253546804189682,83.93712615966797,-0.5759732603638742,-0.5742631773707555,-0.25810634239266317,0.31950334527840235
0.894317626953125,-0.6486483812332153,83.95050811767578,-0.580220651147473,-0.5690007740595476,-0.2515805516391993,0.31198505206654487
0,-0.26463887095451355,84.0150375366211,-0.584351554950699,-0.5638644459176183,-0.24412790474792326,0.30437432496498046
0.4331909120082855,0.6344581842422485,83.84457397460938,-0.5883902706609416,-0.5587658586047792,-0.24051798048118755,0.30745615257571157
-1.2078522443771362,-0.22938552498817444,83.69512939453125,-0.5883902706609416,-0.5587658586047792,-0.24051798048118755,0.30745615257571157
0.31503036618232727,1.8186324834823608,83.73294830322266,-0.5883902706609416,-0.5587658586047792,-0.24051798048118755,0.30745615257571157
0.5846943855285645,-1.3130031824111938,83.87040710449219,-0.5883902706609416,-0.5587658586047792,-0.24051798048118755,0.30745615257571157
0.6291874647140503,-0.9166887402534485,84.02399444580078,-0.5883902706609416,-0.5587658586047792,-0.24051798048118755,0.30745615257571157
0.08823171257972717,-3.466728687286377,83.7579574584961,-0.5883902706609416,-0.5587658586047792,-0.24051798048118755,0.30745615257571157
-0.5147911310195923,-3.8589255809783936,83.05693817138672,-0.5883902706609416,-0.5587658586047792,-0.24051798048118755,0.30745615257571157
1.6384750604629517,-1.4327945709228516,82.09284973144531,-0.5883902706609416,-0.5587658586047792,-0.24051798048118755,0.30745615257571157
0.006734305527061224,-1.5458614826202393,80.8385238647461,-0.5883902706609416,-0.5587658586047792,-0.24051798048118755,0.30745615257571157
0.15658923983573914,-2.2578516006469727,79.33220672607422,-0.5883902706609416,-0.5587658586047792,-0.24051798048118755,0.30745615257571157
-0.5029743313789368,-1.4990861415863037,77.68461608886719,-0.5883902706609416,-0.5587658586047792,-0.24051798048118755,0.30745615257571157
-1.5396279096603394,-2.0669972896575928,75.9102554321289,-0.5883902706609416,-0.5587658586047792,-0.24051798048118755,0.30745615257571157
3.2000045776367188,-0.4822281301021576,74.11869049072266,-0.5883902706609416,-0.5587658586047792,-0.24051798048118755,0.30745615257571157
-1.7644190788269043,-2.2914304733276367,72.2267837524414,-0.5883902706609416,-0.5587658586047792,-0.24051798048118755,0.30745615257571157
1.9889094829559326,-0.2537151873111725,70.30927276611328,-0.5883902706609416,-0.5587658586047792,-0.24051798048118755,0.30745615257571157
-0.5111547112464905,-1.8070095777511597,68.26457214355469,-0.5883902706609416,-0.5587658586047792,-0.24051798048118755,0.30745615257571157
0.2638179361820221,-1.352827548980713,66.10047912597656,-0.5883902706609416,-0.5587658586047792,-0.24051798048118755,0.30745615257571157
-0.3541165590286255,-1.6958949565887451,63.919090270996094,-0.5883902706609416,-0.5587658586047792,-0.24051798048118755,0.30745615257571157
1.4904133081436157,-0.9334420561790466,61.72209930419922,-0.5883902706609416,-0.5587658586047792,-0.24051798048118755,0.30745615257571157
-0.5677292943000793,-1.767640471458435,59.454490661621094,-0.5883902706609416,-0.5587658586047792,-0.24051798048118755,0.30745615257571157
1.5332472324371338,-0.1354791522026062,57.18849182128906,-0.5883902706609416,-0.5587658586047792,-0.24051798048118755,0.30745615257571157
-2.742717742919922,-1.2343974113464355,54.92240524291992,-0.5883902706609416,-0.5587658586047792,-0.24051798048118755,0.30745615257571157
0.9835711121559143,-1.2300556898117065,52.7186393737793,-0.5883902706609416,-0.5587658586047792,-0.24051798048118755,0.30745615257571157
-0.9572068452835083,-0.24770650267601013,50.370670318603516,-0.5883902706609416,-0.5587658586047792,-0.24051798048118755,0.30745615257571157
0.5219584703445435,-1.2295615673065186,47.911869049072266,-0.5883902706609416,-0.5587658586047792,-0.24051798048118755,0.30745615257571157
0.3175017535686493,-1.3016397953033447,45.41642761230469,-0.5883902706609416,-0.5587658586047792,-0.24051798048118755,0.30745615257571157
0.09516190737485886,-0.6902351379394531,42.87590408325195,-0.5883902706609416,-0.5587658586047792,-0.24051798048118755,0.30745615257571157
-0.3414900600910187,-0.8144626021385193,40.30368423461914,-0.5883902706609416,-0.5587658586047792,-0.24051798048118755,0.30745615257571157
1.0019221305847168,-0.761594831943512,37.743804931640625,-0.5883902706609416,-0.5587658586047792,-0.24051798048118755,0.30745615257571157
-0.6589763164520264,-0.37327954173088074,35.14508819580078,-0.5883902706609416,-0.5587658586047792,-0.24051798048118755,0.30745615257571157
-0.46832382678985596,-1.013439416885376,32.61708450317383,-0.5883902706609416,-0.5587658586047792,-0.24051798048118755,0.30745615257571157
0.15243452787399292,-0.6792332530021667,30.167156219482422,-0.5883902706609416,-0.5587658586047792,-0.24051798048118755,0.30745615257571157
-0.44036155939102173,-0.2622569799423218,27.719392776489258,-0.5883902706609416,-0.5587658586047792,-0.24051798048118755,0.30745615257571157
0.3008233308792114,-0.3584063649177551,25.25600814819336,-0.5883902706609416,-0.5587658586047792,-0.24051798048118755,0.30745615257571157
-1.2892942428588867,-0.1660463809967041,22.740827560424805,-0.5883902706609416,-0.5587658586047792,-0.24051798048118755,0.30745615257571157
-0.051085423678159714,-1.0184457302093506,20.21067237854004,-0.5883902706609416,-0.5587658586047792,-0.24051798048118755,0.30745615257571157
-0.4021965563297272,-0.5677562952041626,17.590965270996094,-0.5883902706609416,-0.5587658586047792,-0.24051798048118755,0.30745615257571157
0.6033035516738892,-1.5286388397216797,14.951909065246582,-0.5883902706609416,-0.5587658586047792,-0.24051798048118755,0.30745615257571157
-0.7847639918327332,0.8335183262825012,12.29422378540039,-0.5883902706609416,-0.5587658586047792,-0.24051798048118755,0.30745615257571157
0.42590805888175964,-1.087773084640503,9.546804428100586,-0.5883902706609416,-0.5587658586047792,-0.24051798048118755,0.30745615257571157
-0.06203581020236015,0.3949109613895416,6.851361274719238,-0.5883902706609416,-0.5587658586047792,-0.24051798048118755,0.30745615257571157
-0.3188532590866089,-1.4504128694534302,4.180502891540527,-0.5883902706609416,-0.5587658586047792,-0.24051798048118755,0.30745615257571157
-0.8114964962005615,0.809714138507843,1.8147629499435425,-0.5883902706609416,-0.5587658586047792,-0.24051798048118755,0.30745615257571157
-0.01566842943429947,0.907146155834198,-0.04048212245106697,-0.5883902706609416,-0.5587658586047792,-0.24051798048118755,0.30745615257571157
0.0627235546708107,1.0214459896087646,-1.485610842704773,-0.5883902706609416,-0.5587658586047792,-0.24051798048118755,0.30745615257571157
0.4630964398384094,2.007613182067871,-2.5609488487243652,-0.5883902706609416,-0.5587658586047792,-0.24051798048118755,0.30745615257571157
0.7215844392776489,1.1645244359970093,-3.279524087905884,-0.5883902706609416,-0.5587658586047792,-0.24051798048118755,0.30745615257571157
0.6559880971908569,1.2314592599868774,-3.5598580837249756,-0.5883902706609416,-0.5587658586047792,-0.24051798048118755,0.30745615257571157
0.7658255100250244,1.0628198385238647,-3.5381596088409424,-0.5883902706609416,-0.5587658586047792,-0.24051798048118755,0.30745615257571157
0.07291590422391891,-0.6549474596977234,-3.429224729537964,-0.5883902706609416,-0.5587658586047792,-0.24051798048118755,0.30745615257571157
0.5646075010299683,-0.24646304547786713,-3.4243228435516357,-0.5883902706609416,-0.5587658586047792,-0.24051798048118755,0.30745615257571157
0.2353391945362091,0.008267000317573547,-3.4339358806610107,-0.5883902706609416,-0.5587658586047792,-0.24051798048118755,0.30745615257571157
0.057202503085136414,-0.2714776396751404,-3.412400722503662,-0.5883902706609416,-0.5587658586047792,-0.24051798048118755,0.30745615257571157
-0.11322850733995438,0.010747062042355537,-3.4182322025299072,-0.5883902706609416,-0.5587658586047792,-0.24051798048118755,0.30745615257571157
0.113254114985466,-0.17730538547039032,-3.4070327281951904,-0.5883902706609416,-0.5587658586047792,-0.24051798048118755,0.30745615257571157
0.12784990668296814,-0.12282359600067139,-3.4001262187957764,-0.5883902706609416,-0.5587658586047792,-0.24051798048118755,0.30745615257571157
0.013418888673186302,-0.07641883939504623,-3.4071807861328125,-0.5883902706609416,-0.5587658586047792,-0.24051798048118755,0.30745615257571157
0.05586792528629303,-0.19676178693771362,-3.4016590118408203,-0.5883902706609416,-0.5587658586047792,-0.24051798048118755,0.30745615257571157
0.13121578097343445,-0.017480622977018356,-3.402270793914795,-0.5883902706609416,-0.5587658586047792,-0.24051798048118755,0.30745615257571157
0.13391226530075073,-0.1967485100030899,-3.40110445022583,-0.5883902706609416,-0.5587658586047792,-0.24051798048118755,0.30745615257571157
0.10237342864274979,-0.06970103085041046,-3.398918628692627,-0.5883902706609416,-0.5587658586047792,-0.24051798048118755,0.30745615257571157
0.06017671525478363,-0.13437652587890625,-3.3993515968322754,-0.5883902706609416,-0.5587658586047792,-0.24051798048118755,0.30745615257571157
0.08122009038925171,-0.11473847180604935,-3.397982120513916,-0.5883902706609416,-0.5587658586047792,-0.24051798048118755,0.30745615257571157
0.10390888154506683,-0.11324075609445572,-3.397343635559082,-0.5883902706609416,-0.5587658586047792,-0.24051798048118755,0.30745615257571157
0.1172257587313652,-0.13195177912712097,-3.3972055912017822,-0.5883902706609416,-0.5587658586047792,-0.24051798048118755,0.30745615257571157
0.08251755684614182,-0.11308488249778748,-3.39559006690979,-0.5883902706609416,-0.5587658586047792,-0.24051798048118755,0.30745615257571157
0.08336392790079117,-0.10932700335979462,-3.3966047763824463,-0.5883902706609416,-0.5587658586047792,-0.24051798048118755,0.30745615257571157
0.10508151352405548,-0.11717911064624786,-3.396073818206787,-0.5883902706609416,-0.5587658586047792,-0.24051798048118755,0.30745615257571157
0.1017409935593605,-0.10684491693973541,-3.3954005241394043,-0.5883902706609416,-0.5587658586047792,-0.24051798048118755,0.30745615257571157
0.08777675777673721,-0.12548856437206268,-3.396106719970703,-0.5883902706609416,-0.5587658586047792,-0.24051798048118755,0.30745615257571157
0.09564977884292603,-0.09861685335636139,-3.3955254554748535,-0.5883902706609416,-0.5587658586047792,-0.24051798048118755,0.30745615257571157
0.09806963056325912,-0.12194576114416122,-3.3946874141693115,-0.5883902706609416,-0.5587658586047792,-0.24051798048118755,0.30745615257571157
0.09676473587751389,-0.11656109988689423,-3.3948047161102295,-0.5883902706609416,-0.5587658586047792,-0.24051798048118755,0.30745615257571157
0.0889299288392067,-0.12093023210763931,-3.395310163497925,-0.5883902706609416,-0.5587658586047792,-0.24051798048118755,0.30745615257571157
0.09502310305833817,-0.11147719621658325,-3.3943984508514404,-0.5883902706609416,-0.5587658586047792,-0.24051798048118755,0.30745615257571157
0.0888412818312645,-0.12043467909097672,-3.3934361934661865,-0.5883902706609416,-0.5587658586047792,-0.24051798048118755,0.30745615257571157
0.09698789566755295,-0.1271495819091797,-3.393436908721924,-0.5883902706609416,-0.5587658586047792,-0.24051798048118755,0.30745615257571157
0.09046536684036255,-0.1324046403169632,-3.392308235168457,-0.5883902706609416,-0.5587658586047792,-0.24051798048118755,0.30745615257571157
0.1013118326663971,-0.10335015505552292,-3.392821788787842,-0.5883902706609416,-0.5587658586047792,-0.24051798048118755,0.30745615257571157
0.08733627200126648,-0.119352325797081,-3.392085075378418,-0.5883902706609416,-0.5587658586047792,-0.24051798048118755,0.30745615257571157
0.09605418145656586,-0.12326209992170334,-3.39218807220459,-0.5883902706609416,-0.5587658586047792,-0.24051798048118755,0.30745615257571157
0.09309292584657669,-0.11435005068778992,-3.391282558441162,-0.5883902706609416,-0.5587658586047792,-0.24051798048118755,0.30745615257571157
0.07474014908075333,-0.1253352016210556,-3.391083002090454,-0.5883902706609416,-0.5587658586047792,-0.24051798048118755,0.30745615257571157
0.08753238618373871,-0.10830887407064438,-3.391023874282837,-0.5883902706609416,-0.5587658586047792,-0.24051798048118755,0.30745615257571157
0.09920281171798706,-0.12178614735603333,-3.3918890953063965,-0.5883902706609416,-0.5587658586047792,-0.24051798048118755,0.30745615257571157
0.10022532939910889,-0.11991129070520401,-3.391660213470459,-0.5883902706609416,-0.5587658586047792,-0.24051798048118755,0.30745615257571157
0.08453432470560074,-0.1232186108827591,-3.391270399093628,-0.5883902706609416,-0.5587658586047792,-0.24051798048118755,0.30745615257571157
0.09191739559173584,-0.1120615303516388,-3.3895533084869385,-0.5883902706609416,-0.5587658586047792,-0.24051798048118755,0.30745615257571157
0.08998933434486389,-0.11604104191064835,-3.389381170272827,-0.5883902706609416,-0.5587658586047792,-0.24051798048118755,0.30745615257571157
0.09034256637096405,-0.11710090935230255,-3.3891525268554688,-0.5883902706609416,-0.5587658586047792,-0.24051798048118755,0.30745615257571157
0.08491189777851105,-0.11158745735883713,-3.388249158859253,-0.5883902706609416,-0.5587658586047792,-0.24051798048118755,0.30745615257571157
0.08174695819616318,-0.12636198103427887,-3.387918710708618,-0.5883902706609416,-0.5587658586047792,-0.24051798048118755,0.30745615257571157
0.08122511953115463,-0.10426001995801926,-3.387091636657715,-0.5883902706609416,-0.5587658586047792,-0.24051798048118755,0.30745615257571157
0.08534622192382812,-0.11981688439846039,-3.386873722076416,-0.5883902706609416,-0.5587658586047792,-0.24051798048118755,0.30745615257571157
0.08785109221935272,-0.12129588425159454,-3.387265920639038,-0.5883902706609416,-0.5587658586047792,-0.24051798048118755,0.30745615257571157
0.08626186847686768,-0.1253834366798401,-3.387021541595459,-0.5883902706609416,-0.5587658586047792,-0.24051798048118755,0.30745615257571157
0.0919613316655159,-0.11093422770500183,-3.3863964080810547,-0.5883902706609416,-0.5587658586047792,-0.24051798048118755,0.30745615257571157
0.0821201354265213,-0.11807627975940704,-3.386766195297241,-0.5883902706609416,-0.5587658586047792,-0.24051798048118755,0.30745615257571157
0.07562009990215302,-0.12307989597320557,-3.3866169452667236,-0.5883902706609416,-0.5587658586047792,-0.24051798048118755,0.30745615257571157
0.08684523403644562,-0.11944490671157837,-3.387052536010742,-0.5883902706609416,-0.5587658586047792,-0.24051798048118755,0.30745615257571157
0.09685640782117844,-0.11926617473363876,-3.387270927429199,-0.5883902706609416,-0.5587658586047792,-0.24051798048118755,0.30745615257571157
0.08868611603975296,-0.11496788263320923,-3.387474298477173,-0.5883902706609416,-0.5587658586047792,-0.24051798048118755,0.30745615257571157
0.07948033511638641,-0.11730960011482239,-3.386263132095337,-0.5883902706609416,-0.5587658586047792,-0.24051798048118755,0.30745615257571157
0.09706170856952667,-0.12440592795610428,-3.386932849884033,-0.5883902706609416,-0.5587658586047792,-0.24051798048118755,0.30745615257571157
0.09750514477491379,-0.12774072587490082,-3.386265754699707,-0.5883902706609416,-0.5587658586047792,-0.24051798048118755,0.30745615257571157
0.09473243355751038,-0.1130552589893341,-3.384997606277466,-0.5883902706609416,-0.5587658586047792,-0.24051798048118755,0.30745615257571157
0.08589520305395126,-0.11399058252573013,-3.3847897052764893,-0.5883902706609416,-0.5587658586047792,-0.24051798048118755,0.30745615257571157
0.07818012684583664,-0.11306902766227722,-3.3845183849334717,-0.5883902706609416,-0.5587658586047792,-0.24051798048118755,0.30745615257571157
0.07971051335334778,-0.12406478822231293,-3.3843226432800293,-0.5883902706609416,-0.5587658586047792,-0.24051798048118755,0.30745615257571157
0.08239622414112091,-0.12240033596754074,-3.3839778900146484,-0.5883902706609416,-0.5587658586047792,-0.24051798048118755,0.30745615257571157
0.08816415816545486,-0.1211806908249855,-3.3842508792877197,-0.5883902706609416,-0.5587658586047792,-0.24051798048118755,0.30745615257571157
0.08389535546302795,-0.10904965549707413,-3.384168863296509,-0.5883902706609416,-0.5587658586047792,-0.24051798048118755,0.30745615257571157
0.08334818482398987,-0.10596230626106262,-3.383549451828003,-0.5883902706609416,-0.5587658586047792,-0.24051798048118755,0.30745615257571157
0.07664863765239716,-0.12394855171442032,-3.3839099407196045,-0.5883902706609416,-0.5587658586047792,-0.24051798048118755,0.30745615257571157
0.07947314530611038,-0.11648387461900711,-3.3848111629486084,-0.5883902706609416,-0.5587658586047792,-0.24051798048118755,0.30745615257571157
0.08928028494119644,-0.12805037200450897,-3.3843820095062256,-0.5883902706609416,-0.5587658586047792,-0.24051798048118755,0.30745615257571157
0.08272669464349747,-0.1206873431801796,-3.3842499256134033,-0.5883902706609416,-0.5587658586047792,-0.24051798048118755,0.30745615257571157
0.07430124282836914,-0.12579476833343506,-3.383702516555786,-0.5883902706609416,-0.5587658586047792,-0.24051798048118755,0.30745615257571157
0.08511793613433838,-0.11632610112428665,-3.385615110397339,-0.5883902706609416,-0.5587658586047792,-0.24051798048118755,0.30745615257571157
0.06656690686941147,-0.1197938472032547,-3.386162042617798,-0.5883902706609416,-0.5587658586047792,-0.24051798048118755,0.30745615257571157
0.09025432914495468,-0.12409225851297379,-3.386441469192505,-0.5883902706609416,-0.5587658586047792,-0.24051798048118755,0.30745615257571157
0.0717099979519844,-0.12055299431085587,-3.3851685523986816,-0.5883902706609416,-0.5587658586047792,-0.24051798048118755,0.30745615257571157
0.07125555723905563,-0.12860962748527527,-3.3842570781707764,-0.5883902706609416,-0.5587658586047792,-0.24051798048118755,0.30745615257571157
0.08098126947879791,-0.1258290559053421,-3.3839070796966553,-0.5883902706609416,-0.5587658586047792,-0.24051798048118755,0.30745615257571157
0.08822858333587646,-0.11178596317768097,-3.383362054824829,-0.5883902706609416,-0.5587658586047792,-0.24051798048118755,0.30745615257571157
0.07770609855651855,-0.12373828142881393,-3.3825905323028564,-0.5883902706609416,-0.5587658586047792,-0.24051798048118755,0.30745615257571157
0.0651487335562706,-0.122783362865448,-3.381554365158081,-0.5883902706609416,-0.5587658586047792,-0.24051798048118755,0.30745615257571157
0.07887601852416992,-0.1327458918094635,-3.3807218074798584,-0.5883902706609416,-0.5587658586047792,-0.24051798048118755,0.30745615257571157
0.06991418451070786,-0.13219113647937775,-3.380666971206665,-0.5883902706609416,-0.5587658586047792,-0.24051798048118755,0.30745615257571157
0.0798424705862999,-0.12636467814445496,-3.381093978881836,-0.5883902706609416,-0.5587658586047792,-0.24051798048118755,0.30745615257571157
0.07870865613222122,-0.12373001128435135,-3.382110118865967,-0.5923878931740504,-0.5536589570819499,-0.23919672109186654,0.3053720301638049
0.40307196974754333,-0.05628587678074837,-3.385369062423706,-0.5963410482043399,-0.5485819243492244,-0.2351818825428685,0.3038718977632624
2.1487655639648438,-0.6100599765777588,-3.340289354324341,-0.6000835353068799,-0.543563666737431,-0.21391656976193196,0.2983190156519415
3.067349910736084,0.2964949607849121,-3.259887456893921,-0.60328658122828,-0.5386134584915508,-0.1704489408060909,0.2957059738536678
1.3752148151397705,-0.44052693247795105,-3.2757163047790527,-0.6058188854690846,-0.5336950278142462,-0.1334275680904588,0.2945057074228925
2.088111162185669,-0.25154757499694824,-3.2301671504974365,-0.6078021695221668,-0.5288346600868837,-0.10456651827941348,0.28873841986060167
1.2650595903396606,0,-3.134331464767456,-0.6093120857467872,-0.5240398216708041,-0.07662342867503573,0.2866421900689604
2.1961119174957275,0.1742658168077469,-3.121121406555176,-0.6103487837588826,-0.5192503500434875,-0.047780332776407496,0.28809440520902496
1.6809072494506836,-1.260980486869812,-3.013733148574829,-0.6108758851963403,-0.5145242429198692,-0.015471839718520737,0.27903844962517443
1.5810456275939941,1.0258525609970093,-3.0032455921173096,-0.6109072246862987,-0.5098899304209685,0.011711100923518243,0.2770790502429011
0.5327199697494507,-1.1450073719024658,-3.0761351585388184,-0.6105652503933134,-0.5052802208898998,0.029325814234713615,0.2760860934853556
1.5957036018371582,0.6580539345741272,-3.1059279441833496,-0.6099286796302635,-0.5007126022094027,0.04706267733126869,0.2720281481742861
1.2520153522491455,-1.0079882144927979,-3.1532998085021973,-0.608946543414042,-0.4962031007314923,0.07079366861532121,0.26911202917496385
1.32534921169281,-0.24641524255275726,-3.1671509742736816,-0.6075876652868462,-0.49180501159642664,0.09227170664817085,0.25865866703291757
0.10075295716524124,0,-3.2690012454986572,-0.6059507686365393,-0.4875111459821664,0.10415589138865461,0.25660520667831127
0.7293784618377686,0.6141734719276428,-3.3842215538024902,-0.6041571890981865,-0.4831917416019773,0.1110736532136797,0.26172331894437495
1.571379542350769,-1.3532832860946655,-3.2739789485931396,-0.6021461866832232,-0.478881013356666,0.1302466365819175,0.2555640704929831
0.46673592925071716,-0.4881533682346344,-3.133934259414673,-0.5998338736102189,-0.4747494897272225,0.14723093217859656,0.24021876504023892
1.113924264907837,0.06903796643018723,-3.1278319358825684,-0.5972702566715369,-0.4707749488794549,0.16040310046325118,0.23672613669186854
0.31400066614151,0.19350431859493256,-3.1641104221343994,-0.594497710210271,-0.46681128116479703,0.1723024748886624,0.23891398906707786
0.729092001914978,-0.07808709889650345,-3.178710460662842,-0.5915535653046227,-0.46282136626231113,0.18099491378913313,0.23987579923123145
2.145479202270508,1.1144133806228638,-3.1518471240997314,-0.5883373604078465,-0.45875146917222626,0.2049496738240122,0.24851185157895112
-0.5223858952522278,-0.36392825841903687,-3.101076364517212,-0.5848088176977922,-0.45455748795686846,0.21847545138249785,0.254765894263983
0.6399754881858826,-0.14157797396183014,-3.091559648513794,-0.5811593942307969,-0.4503464943186063,0.21945536465694498,0.2505533423274758
-0.19721560180187225,-0.22131194174289703,-3.131504535675049,-0.5774710576055155,-0.44619580596840563,0.22314503037681174,0.24752925969660305
1.3049572706222534,0.1371879279613495,-3.1077451705932617,-0.5736750472611228,-0.4420761602521971,0.2323762109503149,0.2468282262484235
0.23964644968509674,-2.036003351211548,-3.181941509246826,-0.5696948462647073,-0.4380942186635602,0.24524790861954282,0.23100476438800516
-0.25563904643058777,1.2697457075119019,-3.1424944400787354,-0.5656084917180445,-0.43429735159346144,0.24511463697999705,0.22461928402384143
1.1851123571395874,0.5151918530464172,-3.1279728412628174,-0.5614587010106897,-0.43042974286246977,0.25286024790257206,0.23949376369516076
-0.22928333282470703,-0.8567823767662048,-3.213182210922241,-0.5571779865300694,-0.4264619016983643,0.2608254897718627,0.23664717599749585
1.2510377168655396,-0.8166524767875671,-3.168630838394165,-0.5527599398683134,-0.42263399285212505,0.2693401096388696,0.22270188555121442
-0.6165220737457275,0.419922411441803,-3.0965540409088135,-0.5482268744546711,-0.41894984545858716,0.2746277399982014,0.21939580167333306
0.3069232404232025,-0.8129239678382874,-3.162513017654419,-0.5436712453736818,-0.41532054053878137,0.2720477497205137,0.21612078870336235
0.27118703722953796,-0.3770243227481842,-3.1057891845703125,-0.5390969696646141,-0.4118011626916827,0.27686533536761987,0.2062045529484751
0.5634437203407288,-0.49221664667129517,-3.057788848876953,-0.5344245869392114,-0.40842478409875116,0.28382059168070545,0.19896087820331276
0.052003465592861176,0.16983048617839813,-3.180649518966675,-0.5296515043566209,-0.4051311573898413,0.288949318230152,0.19627432686587196
0.28576818108558655,0.9366240501403809,-3.198079824447632,-0.5248122260217657,-0.4017830814881657,0.29176408195247244,0.2054947813351951
0.5386171340942383,0,-3.10935640335083,-0.519892242342337,-0.39829312512909715,0.298633959578971,0.2132999817530316
0.20780634880065918,-0.8456124067306519,-3.115394115447998,-0.5148631747185975,-0.394796848517014,0.3048541552697618,0.20625321169694286
0.2794284522533417,0.4056757986545563,-3.216403007507324,-0.509748436380695,-0.39138984614207023,0.3089144452785451,0.20258707329630873
0.6694640517234802,-0.7520233988761902,-3.474806547164917,-0.5045339669799431,-0.38803744683714714,0.3168218828116853,0.19970084329446178
-0.20620539784431458,0.5171207189559937,-3.617065906524658,-0.49922143152656234,-0.38472541213501166,0.32068237159401164,0.19774332096179348
-0.33833402395248413,-0.9756704568862915,-3.6608643531799316,-0.4939145405709536,-0.38146153385078246,0.31614454307903833,0.19392207314570767
-0.18300031125545502,-1.1704267263412476,-3.5667338371276855,-0.48868166862624796,-0.378378533824967,0.3118000902856388,0.17603792995214484
0.8148336410522461,0.6196542382240295,-3.508692502975464,-0.4834411231402514,-0.3754828164152172,0.3170653680339454,0.17144815921783468
0.6133137345314026,0.4133646786212921,-3.568225622177124,-0.4780575234386034,-0.372553609670139,0.32896659616380913,0.1800566501915457
0.7653784155845642,1.40614652633667,-3.634117841720581,-0.47247900432544854,-0.3694263105554912,0.34045569741477555,0.19521924356619538
-0.13112974166870117,-0.16383787989616394,-3.644575834274292,-0.4667606976550692,-0.36608638506227403,0.34574110303074107,0.20557181561986626
0.2639252245426178,-0.5067138075828552,-3.6548688411712646,-0.4609891240293573,-0.3627067542246845,0.3468477320546904,0.19998388489087443
0,-0.8665937781333923,-3.7065412998199463,-0.45519000035451923,-0.35946905805884466,0.34904710892587887,0.18853965500990572
0,-1.2019648551940918,-3.8311197757720947,-0.4493725485390879,-0.35647038038043843,0.34904710892587887,0.17130166639884334
-1.3130426406860352,1.2091456651687622,-3.867161273956299,-0.4436462802403709,-0.35361485393976505,0.3381050869201619,0.1713615064819656
1.43364679813385,0.46458229422569275,-3.8014583587646484,-0.4380028201696565,-0.35064259772344103,0.33911012156556036,0.1853092394769194
-0.44594547152519226,-0.3178919553756714,-3.871350049972534,-0.4322823944403271,-0.3475439235697389,0.34734096595396585,0.18653165896733626
0.892629861831665,-1.4477609395980835,-3.893226146697998,-0.4264623585917675,-0.34455767737132315,0.35106333587318644,0.17181788484255497
-0.88771653175354,0.4142025411128998,-3.866234064102173,-0.4206109617904034,-0.34176582084606427,0.35110428029050417,0.16320489818851178
0.6299097537994385,-0.7690667510032654,-3.850701093673706,-0.4147771270340307,-0.3390703825574981,0.34895589047422,0.1602476964394254
-0.44019708037376404,-0.6998336315155029,-3.790257692337036,-0.4089480210349169,-0.3365015945878493,0.3505368294194339,0.14800685991843568
0.6342145204544067,0.4741709530353546,-3.876006841659546,-0.40309226711125407,-0.3340504846085476,0.35215364142010597,0.14612633759776777
-0.5238527655601501,0.7275868654251099,-3.941861391067505,-0.39721537574349575,-0.33153159024452505,0.3530733227108914,0.15614098608493832
0.7515988349914551,-0.21347647905349731,-3.8523480892181396,-0.39131500466571484,-0.32889353836627805,0.35497120662281895,0.16042523930470176
0.09027635306119919,-0.35119056701660156,-3.8053464889526367,-0.385340354333942,-0.3262589973671768,0.3619868331899244,0.15571968058745095
0,0.1689484864473343,-3.854017972946167,-0.37930097125625845,-0.32367632505742544,0.36273913613210107,0.15420099658270706
0.10363840311765671,-1.3172463178634644,-4.061646461486816,-0.3732481218760625,-0.3211860513526731,0.3636027894914149,0.14463184798757264
-0.2543388605117798,1.1673076152801514,-4.169576644897461,-0.36719854069408014,-0.31878593296278185,0.36234695234646386,0.14338235879937836
0.25897303223609924,-2.1435298919677734,-4.218485355377197,-0.3611591030041582,-0.3164640201964511,0.3623855704441665,0.13524717316031484
-0.7215026021003723,-1.0455151796340942,-4.159373760223389,-0.35515146360577377,-0.3144313621070849,0.3585311573619642,0.10867179756363261
0.8215643167495728,2.2481229305267334,-4.107040882110596,-0.3491689955862237,-0.312536651053879,0.3593650049840409,0.11869352882107127
0.8012736439704895,0.45194554328918457,-4.160094261169434,-0.3430668817558841,-0.31037092081840173,0.37288865465670806,0.14119409943620392
0.06721935421228409,0.8170529007911682,-4.1761932373046875,-0.3367917588311763,-0.30792956093584833,0.3801260963082312,0.15176908647020687
0,-0.3390158712863922,-4.116255760192871,-0.3304516558819966,-0.30536687914540706,0.3806862575933336,0.15575272838274667
-0.13434386253356934,-1.0427589416503906,-4.156754493713379,-0.3241162143570059,-0.30286695692325966,0.3795667254055538,0.14423793827494016
-0.12739501893520355,-0.45848414301872253,-4.24100923538208,-0.31780827857812644,-0.3005672442773349,0.3773855680599807,0.1317275792360309
-0.8940041661262512,0.20075565576553345,-4.3358049392700195,-0.3115894496094227,-0.29838968243501585,0.3688739081844686,0.12957984184225432
0.38930830359458923,0.057240452617406845,-4.238776206970215,-0.3054765994634685,-0.2962121020078961,0.36466810933003807,0.13172980941211215
0.2688453495502472,0.26966819167137146,-4.246616840362549,-0.2993530925264995,-0.29399390319517416,0.37015272310624503,0.13445404811451864
0.6073976159095764,-1.07364821434021,-4.177181243896484,-0.29312303026879405,-0.2918088343392842,0.3774547478184102,0.12775421459227831
-0.10183931887149811,0.10447494685649872,-4.123232364654541,-0.2867970095900818,-0.2897469011285437,0.38166773362706086,0.11967777069658073
-0.3285271227359772,-0.7733983993530273,-4.113227367401123,-0.2867970095900818,-0.2897469011285437,0.38166773362706086,0.11967777069658073
0.0930890142917633,-0.869251549243927,-4.008078098297119,-0.2867970095900818,-0.2897469011285437,0.38166773362706086,0.11967777069658073
0.370628297328949,0.49132004380226135,-4.070394992828369,-0.2867970095900818,-0.2897469011285437,0.38166773362706086,0.11967777069658073
-1.5261409282684326,0.7790346741676331,-4.171123504638672,-0.2867970095900818,-0.2897469011285437,0.38166773362706086,0.11967777069658073
-0.7926281094551086,-0.5583875179290771,-4.2777886390686035,-0.2867970095900818,-0.2897469011285437,0.38166773362706086,0.11967777069658073
-3.4540393352508545,1.2715990543365479,-4.823171138763428,-0.2867970095900818,-0.2897469011285437,0.38166773362706086,0.11967777069658073
-2.126845598220825,-1.6906074285507202,-5.682854175567627,-0.2867970095900818,-0.2897469011285437,0.38166773362706086,0.11967777069658073
-2.229485511779785,-0.329314261674881,-6.817934036254883,-0.2867970095900818,-0.2897469011285437,0.38166773362706086,0.11967777069658073
-2.0854921340942383,-0.0886617973446846,-8.2252779006958,-0.2867970095900818,-0.2897469011285437,0.38166773362706086,0.11967777069658073
-1.8318349123001099,-0.7705150842666626,-9.769493103027344,-0.2867970095900818,-0.2897469011285437,0.38166773362706086,0.11967777069658073
-2.295088052749634,-0.5808893442153931,-11.410807609558105,-0.2867970095900818,-0.2897469011285437,0.38166773362706086,0.11967777069658073
-1.0333524942398071,0.06461367011070251,-13.190255165100098,-0.2867970095900818,-0.2897469011285437,0.38166773362706086,0.11967777069658073
-2.1854114532470703,1.0616179704666138,-15.190716743469238,-0.2867970095900818,-0.2897469011285437,0.38166773362706086,0.11967777069658073
-1.440391182899475,-0.2479846328496933,-17.24216079711914,-0.2867970095900818,-0.2897469011285437,0.38166773362706086,0.11967777069658073
-2.01792049407959,-0.6496862173080444,-19.392581939697266,-0.2867970095900818,-0.2897469011285437,0.38166773362706086,0.11967777069658073
-0.7489263415336609,0.09390342235565186,-21.551755905151367,-0.2867970095900818,-0.2897469011285437,0.38166773362706086,0.11967777069658073
-1.1191757917404175,-0.13464942574501038,-23.752925872802734,-0.2867970095900818,-0.2897469011285437,0.38166773362706086,0.11967777069658073
-1.5591974258422852,0.10656783729791641,-25.967832565307617,-0.2867970095900818,-0.2897469011285437,0.38166773362706086,0.11967777069658073
-1.1486787796020508,-0.7485863566398621,-28.251691818237305,-0.2867970095900818,-0.2897469011285437,0.38166773362706086,0.11967777069658073
-1.0043061971664429,1.6410833597183228,-30.598718643188477,-0.2867970095900818,-0.2897469011285437,0.38166773362706086,0.11967777069658073
-1.210715889930725,-2.4208781719207764,-32.94124984741211,-0.2867970095900818,-0.2897469011285437,0.38166773362706086,0.11967777069658073
-0.6304879188537598,1.00602388381958,-35.316810607910156,-0.2867970095900818,-0.2897469011285437,0.38166773362706086,0.11967777069658073
-1.0342133045196533,-0.955478310585022,-37.714237213134766,-0.2867970095900818,-0.2897469011285437,0.38166773362706086,0.11967777069658073
-0.8579980731010437,-0.2725123465061188,-40.14912033081055,-0.2867970095900818,-0.2897469011285437,0.38166773362706086,0.11967777069658073
-1.271733045578003,-0.2940234839916229,-42.62525177001953,-0.2867970095900818,-0.2897469011285437,0.38166773362706086,0.11967777069658073
-0.5405373573303223,0.3506501615047455,-45.103946685791016,-0.2867970095900818,-0.2897469011285437,0.38166773362706086,0.11967777069658073
-1.412646770477295,-0.5108794569969177,-47.542884826660156,-0.2867970095900818,-0.2897469011285437,0.38166773362706086,0.11967777069658073
-0.817886471748352,0.5805655717849731,-50.011802673339844,-0.2867970095900818,-0.2897469011285437,0.38166773362706086,0.11967777069658073
-0.43933454155921936,-0.10656093806028366,-52.508056640625,-0.2867970095900818,-0.2897469011285437,0.38166773362706086,0.11967777069658073
-0.6494240760803223,-0.1981772631406784,-55.08868408203125,-0.2867970095900818,-0.2897469011285437,0.38166773362706086,0.11967777069658073
-0.33087947964668274,0.8652709126472473,-57.72613525390625,-0.2867970095900818,-0.2897469011285437,0.38166773362706086,0.11967777069658073
-1.4612630605697632,-0.2700257897377014,-60.44830322265625,-0.2867970095900818,-0.2897469011285437,0.38166773362706086,0.11967777069658073
0.14507941901683807,0.8752457499504089,-63.13687515258789,-0.2867970095900818,-0.2897469011285437,0.38166773362706086,0.11967777069658073
-0.2739919424057007,0.46946394443511963,-65.88868713378906,-0.2867970095900818,-0.2897469011285437,0.38166773362706086,0.11967777069658073
-1.335277795791626,-0.7879015803337097,-68.65608215332031,-0.2867970095900818,-0.2897469011285437,0.38166773362706086,0.11967777069658073
-0.35627996921539307,-0.030292510986328125,-71.39413452148438,-0.2867970095900818,-0.2897469011285437,0.38166773362706086,0.11967777069658073
-0.10378067195415497,0.7332201600074768,-74.14862060546875,-0.2867970095900818,-0.2897469011285437,0.38166773362706086,0.11967777069658073
-1.6953988075256348,-0.5678274631500244,-76.80413055419922,-0.2867970095900818,-0.2897469011285437,0.38166773362706086,0.11967777069658073
0.531611979007721,0.9258350729942322,-79.56660461425781,-0.2867970095900818,-0.2897469011285437,0.38166773362706086,0.11967777069658073
-0.5449994802474976,0.12392636388540268,-82.3106689453125,-0.2867970095900818,-0.2897469011285437,0.38166773362706086,0.11967777069658073
0.19097185134887695,0.7353006601333618,-85.13362884521484,-0.2867970095900818,-0.2897469011285437,0.38166773362706086,0.11967777069658073
0.3039258122444153,0.2671119272708893,-87.76026153564453,-0.2867970095900818,-0.2897469011285437,0.38166773362706086,0.11967777069658073
0.3763047754764557,0.4555473327636719,-89.89405059814453,-0.2867970095900818,-0.2897469011285437,0.38166773362706086,0.11967777069658073
1.886107325553894,-1.093662142753601,-91.49581146240234,-0.2867970095900818,-0.2897469011285437,0.38166773362706086,0.11967777069658073
2.99247145652771,-0.605231761932373,-92.80358123779297,-0.2867970095900818,-0.2897469011285437,0.38166773362706086,0.11967777069658073
0.3306673765182495,-0.5468311309814453,-93.51554870605469,-0.2867970095900818,-0.2897469011285437,0.38166773362706086,0.11967777069658073
1.4889731407165527,-0.7345969080924988,-93.80078887939453,-0.2867970095900818,-0.2897469011285437,0.38166773362706086,0.11967777069658073
1.2189704179763794,-0.7895568609237671,-93.7591323852539,-0.2867970095900818,-0.2897469011285437,0.38166773362706086,0.11967777069658073
-1.03500497341156,-0.4070863127708435,-93.60374450683594,-0.2867970095900818,-0.2897469011285437,0.38166773362706086,0.11967777069658073
0.4296204745769501,0.8343116641044617,-93.5809555053711,-0.2867970095900818,-0.2897469011285437,0.38166773362706086,0.11967777069658073
-0.46271803975105286,0.7802397608757019,-93.55303192138672,-0.2867970095900818,-0.2897469011285437,0.38166773362706086,0.11967777069658073
0.08231503516435623,-0.04996251314878464,-93.48621368408203,-0.2867970095900818,-0.2897469011285437,0.38166773362706086,0.11967777069658073
-0.22027811408042908,-0.7170162200927734,-93.44644927978516,-0.2867970095900818,-0.2897469011285437,0.38166773362706086,0.11967777069658073
-0.14489229023456573,-0.5172132253646851,-93.40160369873047,-0.2867970095900818,-0.2897469011285437,0.38166773362706086,0.11967777069658073
-0.09311375021934509,0.12905490398406982,-93.35028076171875,-0.2867970095900818,-0.2897469011285437,0.38166773362706086,0.11967777069658073
-0.07670214027166367,0.3712106943130493,-93.31907653808594,-0.2867970095900818,-0.2897469011285437,0.38166773362706086,0.11967777069658073
-0.19563552737236023,-0.0717066302895546,-93.27460479736328,-0.2867970095900818,-0.2897469011285437,0.38166773362706086,0.11967777069658073
-0.05987448990345001,-0.42599430680274963,-93.23651123046875,-0.2867970095900818,-0.2897469011285437,0.38166773362706086,0.11967777069658073
-0.1509152203798294,-0.2708733379840851,-93.19824981689453,-0.2867970095900818,-0.2897469011285437,0.38166773362706086,0.11967777069658073
-0.08246409147977829,0.10005371272563934,-93.15914916992188,-0.2867970095900818,-0.2897469011285437,0.38166773362706086,0.11967777069658073
-0.11127175390720367,0.11812356859445572,-93.12503051757812,-0.2867970095900818,-0.2897469011285437,0.38166773362706086,0.11967777069658073
-0.11583903431892395,-0.1631537228822708,-93.08975982666016,-0.2867970095900818,-0.2897469011285437,0.38166773362706086,0.11967777069658073
-0.10813967138528824,-0.26555198431015015,-93.05442810058594,-0.2867970095900818,-0.2897469011285437,0.38166773362706086,0.11967777069658073
-0.12604588270187378,-0.10013826191425323,-93.01907348632812,-0.2867970095900818,-0.2897469011285437,0.38166773362706086,0.11967777069658073
-0.11450877785682678,0.041132811456918716,-92.98575592041016,-0.2867970095900818,-0.2897469011285437,0.38166773362706086,0.11967777069658073
-0.1108199879527092,-0.04732443392276764,-92.95545196533203,-0.2867970095900818,-0.2897469011285437,0.38166773362706086,0.11967777069658073
-0.12086278945207596,-0.19417324662208557,-92.92484283447266,-0.2867970095900818,-0.2897469011285437,0.38166773362706086,0.11967777069658073
-0.09327783435583115,-0.16682551801204681,-92.89287567138672,-0.2867970095900818,-0.2897469011285437,0.38166773362706086,0.11967777069658073
-0.11567158252000809,-0.023662038147449493,-92.86248779296875,-0.2867970095900818,-0.2897469011285437,0.38166773362706086,0.11967777069658073
-0.12331695854663849,-0.01592264324426651,-92.834716796875,-0.2867970095900818,-0.2897469011285437,0.38166773362706086,0.11967777069658073
-0.11541037261486053,-0.13514702022075653,-92.8105697631836,-0.2867970095900818,-0.2897469011285437,0.38166773362706086,0.11967777069658073
-0.11712541431188583,-0.15577347576618195,-92.78143310546875,-0.2867970095900818,-0.2897469011285437,0.38166773362706086,0.11967777069658073
-0.11093426495790482,-0.08643519133329391,-92.75411224365234,-0.2867970095900818,-0.2897469011285437,0.38166773362706086,0.11967777069658073
-0.11845271289348602,-0.05568385869264603,-92.7265625,-0.2867970095900818,-0.2897469011285437,0.38166773362706086,0.11967777069658073
-0.11285838484764099,-0.09465412050485611,-92.69951629638672,-0.2867970095900818,-0.2897469011285437,0.38166773362706086,0.11967777069658073
-0.11389520019292831,-0.1333463042974472,-92.67567443847656,-0.2867970095900818,-0.2897469011285437,0.38166773362706086,0.11967777069658073
-0.11205048114061356,-0.11673508584499359,-92.65068054199219,-0.2867970095900818,-0.2897469011285437,0.38166773362706086,0.11967777069658073
-0.11970735341310501,-0.056721754372119904,-92.6273193359375,-0.2867970095900818,-0.2897469011285437,0.38166773362706086,0.11967777069658073
-0.09661175310611725,-0.08308533579111099,-92.60446166992188,-0.2867970095900818,-0.2897469011285437,0.38166773362706086,0.11967777069658073
-0.1086437925696373,-0.11360057443380356,-92.58112335205078,-0.2867970095900818,-0.2897469011285437,0.38166773362706086,0.11967777069658073
-0.10797569900751114,-0.10399112105369568,-92.55851745605469,-0.2867970095900818,-0.2897469011285437,0.38166773362706086,0.11967777069658073
-0.11951678991317749,-0.08558579534292221,-92.5366439819336,-0.2867970095900818,-0.2897469011285437,0.38166773362706086,0.11967777069658073
-0.10672327131032944,-0.08542618155479431,-92.51419067382812,-0.2867970095900818,-0.2897469011285437,0.38166773362706086,0.11967777069658073
-0.12326923757791519,-0.10561919957399368,-92.49295043945312,-0.2867970095900818,-0.2897469011285437,0.38166773362706086,0.11967777069658073
-0.11322429776191711,-0.09281114488840103,-92.47247314453125,-0.2867970095900818,-0.2897469011285437,0.38166773362706086,0.11967777069658073
-0.11223974078893661,-0.07243089377880096,-92.45313262939453,-0.2867970095900818,-0.2897469011285437,0.38166773362706086,0.11967777069658073
-0.11575306206941605,-0.07260484993457794,-92.43195343017578,-0.2867970095900818,-0.2897469011285437,0.38166773362706086,0.11967777069658073
-0.10650186985731125,-0.09534512460231781,-92.41159057617188,-0.2867970095900818,-0.2897469011285437,0.38166773362706086,0.11967777069658073
-0.10586990416049957,-0.1112881600856781,-92.39199829101562,-0.2867970095900818,-0.2897469011285437,0.38166773362706086,0.11967777069658073
-0.11565999686717987,-0.08458330482244492,-92.37153625488281,-0.2867970095900818,-0.2897469011285437,0.38166773362706086,0.11967777069658073
-0.11138173937797546,-0.09066087752580643,-92.35456085205078,-0.2867970095900818,-0.2897469011285437,0.38166773362706086,0.11967777069658073
-0.1068013608455658,-0.0915236547589302,-92.33858489990234,-0.2867970095900818,-0.2897469011285437,0.38166773362706086,0.11967777069658073
-0.11384577304124832,-0.09692975878715515,-92.32147216796875,-0.2867970095900818,-0.2897469011285437,0.38166773362706086,0.11967777069658073
-0.1238379254937172,-0.1040106788277626,-92.30469512939453,-0.2867970095900818,-0.2897469011285437,0.38166773362706086,0.11967777069658073
-0.1135551854968071,-0.08711295574903488,-92.2859878540039,-0.2867970095900818,-0.2897469011285437,0.38166773362706086,0.11967777069658073
-0.10358088463544846,-0.08559607714414597,-92.27054595947266,-0.2867970095900818,-0.2897469011285437,0.38166773362706086,0.11967777069658073
-0.11883632093667984,-0.10636986047029495,-92.25438690185547,-0.2867970095900818,-0.2897469011285437,0.38166773362706086,0.11967777069658073
-0.10876638442277908,-0.09251981973648071,-92.23709869384766,-0.2867970095900818,-0.2897469011285437,0.38166773362706086,0.11967777069658073
-0.11663741618394852,-0.08719097822904587,-92.22077941894531,-0.2867970095900818,-0.2897469011285437,0.38166773362706086,0.11967777069658073
-0.11407366394996643,-0.0940014198422432,-92.20603942871094,-0.2867970095900818,-0.2897469011285437,0.38166773362706086,0.11967777069658073
-0.11414406448602676,-0.09848885238170624,-92.19093322753906,-0.2867970095900818,-0.2897469011285437,0.38166773362706086,0.11967777069658073
-0.10299728065729141,-0.09862984716892242,-92.17725372314453,-0.2867970095900818,-0.2897469011285437,0.38166773362706086,0.11967777069658073
-0.11822321265935898,-0.09280667454004288,-92.16483306884766,-0.2867970095900818,-0.2897469011285437,0.38166773362706086,0.11967777069658073
-0.10558005422353745,-0.09290280938148499,-92.15077209472656,-0.2867970095900818,-0.2897469011285437,0.38166773362706086,0.11967777069658073
-0.11840154230594635,-0.08415675163269043,-92.13870239257812,-0.2867970095900818,-0.2897469011285437,0.38166773362706086,0.11967777069658073
-0.1127096563577652,-0.08691960573196411,-92.12461853027344,-0.2867970095900818,-0.2897469011285437,0.38166773362706086,0.11967777069658073
-0.12828950583934784,-0.1046902984380722,-92.11124420166016,-0.2867970095900818,-0.2897469011285437,0.38166773362706086,0.11967777069658073
-0.11372701823711395,-0.0942816436290741,-92.09772491455078,-0.2867970095900818,-0.2897469011285437,0.38166773362706086,0.11967777069658073
-0.12717342376708984,-0.08652979880571365,-92.08572387695312,-0.2867970095900818,-0.2897469011285437,0.38166773362706086,0.11967777069658073
-0.11721879988908768,-0.09439326077699661,-92.07470703125,-0.2867970095900818,-0.2897469011285437,0.38166773362706086,0.11967777069658073
-0.11824192851781845,-0.08393736928701401,-92.06320190429688,-0.2867970095900818,-0.2897469011285437,0.38166773362706086,0.11967777069658073
-0.11448453366756439,-0.0845460370182991,-92.05086517333984,-0.2867970095900818,-0.2897469011285437,0.38166773362706086,0.11967777069658073
-0.11235250532627106,-0.09276910126209259,-92.0405502319336,-0.2867970095900818,-0.2897469011285437,0.38166773362706086,0.11967777069658073
-0.11678804457187653,-0.09486907720565796,-92.02950286865234,-0.2867970095900818,-0.2897469011285437,0.38166773362706086,0.11967777069658073
-0.1093764677643776,-0.09330078214406967,-92.01700592041016,-0.2867970095900818,-0.2897469011285437,0.38166773362706086,0.11967777069658073
-0.10787499696016312,-0.08404848724603653,-92.00567626953125,-0.2867970095900818,-0.2897469011285437,0.38166773362706086,0.11967777069658073
-0.11451797187328339,-0.08792582154273987,-91.99604797363281,-0.2867970095900818,-0.2897469011285437,0.38166773362706086,0.11967777069658073
-0.11876846849918365,-0.08410636335611343,-91.9876937866211,-0.2867970095900818,-0.2897469011285437,0.38166773362706086,0.11967777069658073
-0.11873787641525269,-0.09570422023534775,-91.97771453857422,-0.2867970095900818,-0.2897469011285437,0.38166773362706086,0.11967777069658073
-0.11777984350919724,-0.0857522264122963,-91.96977233886719,-0.2867970095900818,-0.2897469011285437,0.38166773362706086,0.11967777069658073
-0.11141091585159302,-0.09130579978227615,-91.95745849609375,-0.2867970095900818,-0.2897469011285437,0.38166773362706086,0.11967777069658073
-0.1127208024263382,-0.08972061425447464,-91.94934844970703,-0.2867970095900818,-0.2897469011285437,0.38166773362706086,0.11967777069658073
-0.10709552466869354,-0.09670110791921616,-91.93860626220703,-0.2867970095900818,-0.2897469011285437,0.38166773362706086,0.11967777069658073
-0.11082178354263306,-0.08440061658620834,-91.92974853515625,-0.2867970095900818,-0.2897469011285437,0.38166773362706086,0.11967777069658073
-0.10383666306734085,-0.08754771947860718,-91.92058563232422,-0.2867970095900818,-0.2897469011285437,0.38166773362706086,0.11967777069658073
-0.10618031024932861,-0.10526954382658005,-91.90972137451172,-0.2867970095900818,-0.2897469011285437,0.38166773362706086,0.11967777069658073
-0.1117074117064476,-0.08401662111282349,-91.90100860595703,-0.2867970095900818,-0.2897469011285437,0.38166773362706086,0.11967777069658073
-0.12147211283445358,-0.09294689446687698,-91.89080810546875,-0.2867970095900818,-0.2897469011285437,0.38166773362706086,0.11967777069658073
-0.12068672478199005,-0.0897299200296402,-91.88348388671875,-0.2867970095900818,-0.2897469011285437,0.38166773362706086,0.11967777069658073
-0.11768744885921478,-0.08521571010351181,-91.87542724609375,-0.2804524344583559,-0.2877644206190266,0.3796812821800508,0.11821989044547113
-0.11833769083023071,-0.29803404211997986,-91.87639617919922,-0.274140803723389,-0.28582070367772866,0.3777144060159721,0.11502614251027536
-0.1510183960199356,-0.8103338479995728,-91.872802734375,-0.2678642689069318,-0.2839805712949268,0.3754697719588874,0.10578974342594576
-0.16842927038669586,-2.185109853744507,-91.79292297363281,-0.2616286232400064,-0.2824254258282266,0.3728077080721655,0.08082771257807843
-0.5598557591438293,-3.236720323562622,-91.60530090332031,-0.2554657367880766,-0.2814548132697938,0.36673866615941114,0.03564579443385235
0.13251227140426636,-2.900270462036133,-91.61624908447266,-0.24938310231651278,-0.28128689661156286,0.3631774704282481,-0.015495795446137273
-0.21512731909751892,-1.252669334411621,-91.51490020751953,-0.2433358816321318,-0.281833558465974,0.362489011697471,-0.05010362708320189
0.922964334487915,-1.6481062173843384,-91.42735290527344,-0.23724524275554962,-0.28287006166401324,0.36838765349239094,-0.07427675668150155
-0.6069853901863098,-1.3851884603500366,-91.41117095947266,-0.23108350554843327,-0.2843186530724365,0.371020811361571,-0.099554212329288
-0.9119510650634766,-1.0142508745193481,-91.32835388183594,-0.225005307057355,-0.28614451767617943,0.3583630075678228,-0.11954954011986621
0.43298396468162537,-1.9332473278045654,-91.3573226928711,-0.21906585186875113,-0.2883416973866719,0.3543716150646407,-0.14411202513923216
-0.554165780544281,-1.532842755317688,-91.42391967773438,-0.2131680736882198,-0.2909842651725426,0.35336176659911855,-0.17299610916525093
-0.332328200340271,-1.71869957447052,-91.4101791381836,-0.2073402729935737,-0.29409333520930986,0.34597431675841395,-0.20009229524681932
-0.4643112123012543,-0.5650584101676941,-91.34535217285156,-0.20162935656236688,-0.29758680110124563,0.3393356549864012,-0.2191236117854711
1.138663411140442,-1.0383371114730835,-91.23841857910156,-0.19592693229878524,-0.3013502082088952,0.34495525664339444,-0.2324852411324776
-1.044219970703125,-0.6358138918876648,-91.24269104003906,-0.19017111944914275,-0.3053412227141143,0.34574228531370543,-0.24643649949381716
0.3339657783508301,-1.464422345161438,-91.28809356689453,-0.1844580712350499,-0.3095943474443619,0.3398235003774363,-0.263938468135893
0.26659753918647766,-1.2707663774490356,-91.37716674804688,-0.1787526404428192,-0.3141832655745858,0.3448281946902472,-0.28673170749098026
-0.2814271152019501,-0.9401997327804565,-91.4906234741211,-0.17300653369631613,-0.3191156666793125,0.3447046148901183,-0.30515642507622603
0.5006343126296997,0.9254156351089478,-91.52855682373047,-0.16724623405943723,-0.324202633770699,0.34653134153534954,-0.3052796258901553
-1.1464722156524658,-0.5604230165481567,-91.55457305908203,-0.16151556155489133,-0.32926528082591267,0.3411493590101598,-0.302238020735482
-0.1848505437374115,-0.8691269755363464,-91.62972259521484,-0.15592219187412407,-0.3344018554765099,0.33005500268191085,-0.3141509373361862
-0.1296437382698059,-0.9327701926231384,-91.70909118652344,-0.15044311504345384,-0.3397628361799019,0.3274342169985174,-0.3291667470708486
-0.5142457485198975,-0.7402970194816589,-91.7486801147461,-0.14503059264117227,-0.3453651338541455,0.32206847127526983,-0.34310897383838856
1.1119264364242554,-0.7155031561851501,-91.80200958251953,-0.13962127918325776,-0.3511847139858733,0.3270491436744728,-0.3552406419689453
-0.27590635418891907,-0.9877930283546448,-91.84629821777344,-0.13411240317186132,-0.3572236758092821,0.3340159776931006,-0.3694347768401102
-0.9061552882194519,-0.699255108833313,-91.78905487060547,-0.12862755782436577,-0.36349807821058866,0.32416546400636415,-0.3834935113166765
0.4110355079174042,-0.469149112701416,-91.85330200195312,-0.12325918340900291,-0.36997077591458427,0.3200394658371804,-0.39323021316279927
-0.6268614530563354,-0.35361912846565247,-91.89549255371094,-0.11794018022457343,-0.3765817494840453,0.31824091629435597,-0.40008661517252486
0.13200800120830536,0.2172991782426834,-91.76737213134766,-0.11267052977604584,-0.38325932640013066,0.3141171375289557,-0.40122261475771626
-0.1602259874343872,0.13856279850006104,-91.68385314941406,-0.10743720373294006,-0.3899216573421521,0.31388198764373837,-0.39825709828486006
-0.7786503434181213,0,-91.82804107666016,-0.10227103701740918,-0.3965496532303373,0.3060580182199675,-0.39710240829735954
-0.07232830673456192,-0.8456732630729675,-91.96395111083984,-0.09722916578667032,-0.40322675401189556,0.2989665294686951,-0.40414968548963426
0.2548110783100128,-2.018947124481201,-92.00666809082031,-0.09223371788083266,-0.4101615140747474,0.30048721923182387,-0.42802152205258565
0.5283268690109253,0.6611576080322266,-91.91249084472656,-0.0871712129806272,-0.4173894970475994,0.3070133687928317,-0.43933643468966044
0,-0.5069503784179688,-91.79042053222656,-0.08201763413484314,-0.4247010621237039,0.3114160927012561,-0.43805137444287495
-0.5096808671951294,0.24690482020378113,-91.76252746582031,-0.07686276042782186,-0.4320199770837389,0.3071687521412967,-0.4402184207613265
0,0.10746519267559052,-91.81884765625,-0.07177867573013325,-0.43933234173442215,0.3029214115813373,-0.4372653373206651
-0.06018839403986931,-0.41173696517944336,-91.92168426513672,-0.06673416528669707,-0.4466412273406349,0.30241984163100505,-0.43980093542486387
-0.7094838619232178,0,-92.01593017578125,-0.061747284055066645,-0.4539998357758534,0.296005906164646,-0.44323207680135923
-0.9594632387161255,-1.073943853378296,-91.93341064453125,-0.056929751389866945,-0.46146161649013845,0.28209801365931814,-0.45218160891284503
0.7589300870895386,0.3784487545490265,-91.77346801757812,-0.05224204374218571,-0.4690462749094379,0.2804269040624299,-0.45797740140308896
0.25473764538764954,-0.9773593544960022,-91.75720977783203,-0.04749786841527874,-0.47672082261337456,0.2888741351664065,-0.46296832306931374
0.32880091667175293,-0.14443807303905487,-91.93382263183594,-0.042642775984584505,-0.48451486393033083,0.2937369565169015,-0.4723166349654392
0.4975687265396118,0.18111251294612885,-91.97732543945312,-0.03768977326185758,-0.49238426101031685,0.30062337021032953,-0.47201101463288025
-1.4744199514389038,0.5798665881156921,-92.0311279296875,-0.03274722064897009,-0.5001982654832912,0.29248294333616875,-0.46566952212403173
-0.44794896245002747,0.05072011426091194,-92.10702514648438,-0.028006002767942902,-0.5079156334421377,0.2764632023870943,-0.46041463293756
0.6767836809158325,0.24050097167491913,-92.19123840332031,-0.023382391428264537,-0.5155689869712404,0.27837015837430934,-0.4579877905547614
0.16701164841651917,-1.6153755187988281,-92.19586181640625,-0.018684291890822415,-0.5232975942129257,0.2854017861187456,-0.46944507844746064
-0.9901118874549866,-0.462262898683548,-92.2384033203125,-0.013984755194332104,-0.5312659592993751,0.27854261746009173,-0.48675873192648045
-0.43127498030662537,-0.37165600061416626,-92.27559661865234,-0.009441085658036242,-0.5394365158661566,0.26669772689541166,-0.49370805608729473
0,0.37155163288116455,-92.38336181640625,-0.005026073194522896,-0.5476649907153708,0.2631037687261898,-0.4937089258184031
0.46795791387557983,0.12693744897842407,-92.25814056396484,-0.000608513305067262,-0.5558588555149928,0.2670034180084863,-0.48955485013623984
-0.9399253726005554,0.12332344055175781,-92.17930603027344,0.003808768143773831,-0.5640007237888239,0.26307035585244487,-0.4874693427234883
-0.11551439017057419,0.3957265317440033,-92.33842468261719,0.008119979646677695,-0.5720891676972504,0.2542750244960188,-0.48314392628769026
-0.5257529020309448,-0.34580668807029724,-92.42899322509766,0.008119979646677695,-0.5720891676972504,0.2542750244960188,-0.48314392628769026
1.2480584383010864,-1.6319799423217773,-92.40975952148438,0.008119979646677695,-0.5720891676972504,0.2542750244960188,-0.48314392628769026
0.9629393815994263,0.4733561873435974,-92.2979965209961,0.008119979646677695,-0.5720891676972504,0.2542750244960188,-0.48314392628769026
-1.8305366039276123,-1.1135368347167969,-92.1971206665039,0.008119979646677695,-0.5720891676972504,0.2542750244960188,-0.48314392628769026
0.2074839472770691,1.411476492881775,-92.27983093261719,0.008119979646677695,-0.5720891676972504,0.2542750244960188,-0.48314392628769026
0.1368790566921234,2.8331189155578613,-92.64205169677734,0.008119979646677695,-0.5720891676972504,0.2542750244960188,-0.48314392628769026
0.16184662282466888,3.0497326850891113,-93.35630798339844,0.008119979646677695,-0.5720891676972504,0.2542750244960188,-0.48314392628769026
-0.7798361778259277,2.395488977432251,-94.26896667480469,0.008119979646677695,-0.5720891676972504,0.2542750244960188,-0.48314392628769026
-1.1330878734588623,1.7735552787780762,-95.30897521972656,0.008119979646677695,-0.5720891676972504,0.2542750244960188,-0.48314392628769026
-0.48710983991622925,3.2177112102508545,-96.67692565917969,0.008119979646677695,-0.5720891676972504,0.2542750244960188,-0.48314392628769026
-0.005307873245328665,1.0475249290466309,-98.299072265625,0.008119979646677695,-0.5720891676972504,0.2542750244960188,-0.48314392628769026
-1.4796141386032104,1.59355628490448,-99.99828338623047,0.008119979646677695,-0.5720891676972504,0.2542750244960188,-0.48314392628769026
-0.18741819262504578,1.0431158542633057,-101.74066162109375,0.008119979646677695,-0.5720891676972504,0.2542750244960188,-0.48314392628769026
-0.41168293356895447,0.9355887770652771,-103.49409484863281,0.008119979646677695,-0.5720891676972504,0.2542750244960188,-0.48314392628769026
1.0410856008529663,2.5022170543670654,-105.266845703125,0.008119979646677695,-0.5720891676972504,0.2542750244960188,-0.48314392628769026
-0.6351150274276733,1.2470592260360718,-107.1484375,0.008119979646677695,-0.5720891676972504,0.2542750244960188,-0.48314392628769026
0.759445071220398,1.404916763305664,-109.16128540039062,0.008119979646677695,-0.5720891676972504,0.2542750244960188,-0.48314392628769026
-0.9622078537940979,0.9911625981330872,-111.25053405761719,0.008119979646677695,-0.5720891676972504,0.2542750244960188,-0.48314392628769026
0.9506489634513855,0.3895675241947174,-113.39707946777344,0.008119979646677695,-0.5720891676972504,0.2542750244960188,-0.48314392628769026
-0.5767924189567566,1.4759677648544312,-115.59381103515625,0.008119979646677695,-0.5720891676972504,0.2542750244960188,-0.48314392628769026
0.6782490015029907,1.1160712242126465,-117.8829574584961,0.008119979646677695,-0.5720891676972504,0.2542750244960188,-0.48314392628769026
0.2592315375804901,1.0229907035827637,-120.1805648803711,0.008119979646677695,-0.5720891676972504,0.2542750244960188,-0.48314392628769026
-0.2031465470790863,1.2148075103759766,-122.52719116210938,0.008119979646677695,-0.5720891676972504,0.2542750244960188,-0.48314392628769026
0.7335149645805359,0.1255967915058136,-124.81999969482422,0.008119979646677695,-0.5720891676972504,0.2542750244960188,-0.48314392628769026
-0.8891949653625488,0.6434724926948547,-127.13619995117188,0.008119979646677695,-0.5720891676972504,0.2542750244960188,-0.48314392628769026
0.520562469959259,1.1236798763275146,-129.5769805908203,0.008119979646677695,-0.5720891676972504,0.2542750244960188,-0.48314392628769026
-0.5974737405776978,0.9047674536705017,-132.05055236816406,0.008119979646677695,-0.5720891676972504,0.2542750244960188,-0.48314392628769026
-0.8043234348297119,0.11596981436014175,-134.470947265625,0.008119979646677695,-0.5720891676972504,0.2542750244960188,-0.48314392628769026
-1.0607773065567017,1.1167246103286743,-136.92916870117188,0.008119979646677695,-0.5720891676972504,0.2542750244960188,-0.48314392628769026
0.753127932548523,0.4289819598197937,-139.3831787109375,0.008119979646677695,-0.5720891676972504,0.2542750244960188,-0.48314392628769026
-1.7339396476745605,0.9087502360343933,-141.80421447753906,0.008119979646677695,-0.5720891676972504,0.2542750244960188,-0.48314392628769026
