faccX,faccY,yaw,posX,posY,velX,velY
0,0,67.45734405517578,0.0,0.0,0.0,0.0
0,0,67.46125793457031,0.0,0.0,0.0,0.0
0,0,67.46268463134766,0.0,0.0,0.0,0.0
0,0.19459816813468933,67.46248626708984,0.0,1.3513761676020093e-05,0.0,0.001621651401122411
0.6391910910606384,1.8467823266983032,67.50973510742188,4.438827021254433e-05,0.00018230381939146254,0.00532659242550532,0.01863315552473068
0.7013383507728577,2.627995491027832,67.56651306152344,0.00022625713298718135,0.0008036048710346222,0.016497671107451123,0.055922970672448474
1.360297679901123,1.7134605646133423,67.62348937988281,0.000644387486908171,0.002037144386106067,0.03367797136306763,0.09210177113612493
0.6675442457199097,1.2523382902145386,67.63677215576172,0.00134650936557187,0.0037781321588489744,0.05057665407657624,0.11681676159302394
0,1.480022668838501,67.65792846679688,0.0022358108394675788,0.005914825474222502,0.056139522790908815,0.13958643625179928
0.6503771543502808,0.6491838097572327,67.673828125,0.0032166346328126065,0.00838912763943275,0.06155933241049449,0.1573298235734304
1.1044378280639648,2.0446202754974365,67.6516342163086,0.004364485657877393,0.011198361093799274,0.07618279059727986,0.17977819095055264
-0.10234105587005615,1.2042019367218018,67.66814422607422,0.005703788888123301,0.014420276929934821,0.0845335970322291,0.20685170938571296
0.5047945380210876,0.7546290159225464,67.58300018310547,0.007140630330476497,0.018003835346963672,0.08788737605015436,0.22317530065774918
0.9365310668945312,0,67.60772705078125,0.00870551198720932,0.02177582848403189,0.09989842275778452,0.22946387579043706
-0.39484626054763794,2.3634183406829834,67.60161590576172,0.01040810270027982,0.02576435268753105,0.10441246281067529,0.24915902862946193
1.313696026802063,0.3331506848335266,67.71897888183594,0.01221211942533652,0.030104264902571842,0.11206954419612883,0.27163043717543284
-0.15913446247577667,1.7371394634246826,67.74320220947266,0.014160123048350215,0.03477520900468032,0.12169089056551455,0.2888828550775846
0,0.931213915348053,67.764892578125,0.01617725355343686,0.03977522557394372,0.12036477004488308,0.31111913323402407
1.0384149551391602,1.3226358890533447,67.81529998779297,0.018255445203847354,0.04511706180870533,0.12901822800437607,0.32990121493736907
-0.7625444531440735,0.5850750803947449,67.88055419921875,0.020424906677669948,0.050747895319428714,0.13131714885433513,0.3457988063494365
0.3978734016418457,0.8154376149177551,67.93761444091797,0.022588201446665658,0.05660846658464936,0.12827822342514988,0.35746974547704063
0.9708247184753418,-0.18247324228286743,67.91983032226562,0.024821220317648517,0.06261025153514413,0.13968404109279312,0.36274444858233135
0.7907572388648987,0.26830247044563293,67.84175872802734,0.02727161974956592,0.06866195270791652,0.15436389073729512,0.3634596921503544
-0.6775427460670471,0.2930625379085541,67.73466491699219,0.02985221337940958,0.07475859792489147,0.15530734484394387,0.3681377338866393
0.28839656710624695,1.1995091438293457,67.72203063964844,0.032413645086603035,0.08099787763423391,0.15206446001927054,0.3805758312344551
-0.8345676064491272,0.46591031551361084,67.73475646972656,0.03491012420919207,0.0874564622839292,0.14751303469141322,0.39445432672897973
0.627078115940094,0.5328537821769714,67.90579986572266,0.037354265794985825,0.09410005968064071,0.14578395560383794,0.40277736087640126
0.265866219997406,1.1465767621994019,68.04716491699219,0.03984600841171212,0.10092964281638464,0.1532251584033171,0.41677261541287103
0.4977428913116455,0.6953608989715576,68.04491424560547,0.04245278946227497,0.10800376541084714,0.15958856766422586,0.432122095922629
1.1316025257110596,0.14413006603717804,68.02389526367188,0.045225747910638645,0.11526409832657211,0.17316644613941506,0.4391178539643685
0.3484879434108734,-0.2504899501800537,67.95890808105469,0.04821463940665125,0.12257534312291278,0.18550053338209785,0.4382315215965112
0.38534170389175415,0,67.79456329345703,0.05135727535519334,0.1298618066807588,0.19161578044295308,0.43614410534501075
-0.3517649471759796,0.5039593577384949,67.67021942138672,0.054553203415125595,0.13716587228079638,0.19189558674891785,0.4403437666594982
-0.8859971165657043,0.44744041562080383,67.62139129638672,0.05766550749540328,0.1445710044871602,0.18158090288440382,0.448272098104159
-0.5480859279632568,0.10061491280794144,67.55986022949219,0.0605922667764955,0.15208026552003706,0.16963021084666247,0.45283922584106523
-0.24191506206989288,0,67.49329376220703,0.0633645757774098,0.15963457309744425,0.1630468692630529,0.4536776834477981
2.643019199371338,0.3647611141204834,67.51612854003906,0.06624876694132883,0.16722119845449926,0.1830560704072316,0.4567173593988021
-0.11041499674320221,0.3820720314979553,67.54145050048828,0.06947557673996521,0.17488501785736946,0.20416110542913274,0.4629409689456224
0.15908315777778625,-0.5693144202232361,67.44013977050781,0.07288164156385593,0.18258769772946834,0.20456667343775428,0.46138061570624506
0.10432126373052597,0.48213544487953186,67.18539428710938,0.0763093780948677,0.1902713205623958,0.2067617102836569,0.46065412424504754
-0.2725476324558258,-0.30467063188552856,67.01051330566406,0.07974372421287827,0.19796121324516006,0.20535982387761273,0.4621329976866642
-0.16835106909275055,0.4582307040691376,66.96577453613281,0.0831357699787865,0.20567409376717277,0.20168566803137458,0.46341266495486094
0.1992553323507309,-0.37015870213508606,66.98385620117188,0.08649934390870231,0.21340375429433253,0.2019432035585244,0.4641465983043114
-0.1725269854068756,0.2578124701976776,66.99915313720703,0.0898669201032155,0.2211317291110754,0.20216593978305653,0.463210379704833
-0.14595529437065125,0.4543386697769165,66.9342269897461,0.09321423560794856,0.22890135704643197,0.19951192078491048,0.4691449725379546
0.24826234579086304,0.1670568287372589,66.9364013671875,0.09654653894404569,0.23676359238723915,0.20036447954674558,0.4743232683589061
0.12081263959407806,0.2585428059101105,66.98236083984375,0.09991157714380985,0.24469853572340478,0.20344010442495342,0.4778699319809675
0.21944865584373474,-0.39655783772468567,66.89911651611328,0.10332587480752004,0.25265345021254487,0.20627561522026852,0.476719806715846
-1.7696731090545654,1.0017166137695312,66.79857635498047,0.10665614725194042,0.26064080523947875,0.19335707811017827,0.4817627965162197
0.5486677289009094,-0.08357656747102737,66.6800308227539,0.10979397318015494,0.26873394490685315,0.18318203327556448,0.48941396356870726
0.5361784100532532,-0.47329917550086975,66.7520751953125,0.11292234360550839,0.2768521723730697,0.19222241776684917,0.48477333237727477
-0.2721620500087738,0.8374117612838745,66.91739654541016,0.11614438503773675,0.2849570135089259,0.19442255410055317,0.48780760392546646
0.30747145414352417,-0.7425832152366638,66.91448974609375,0.11938721298136644,0.2930937255567147,0.19471679913500942,0.4885978418091932
0.7669423818588257,0.5332358479499817,66.84723663330078,0.12270710503889454,0.3012224849085841,0.20367024776836234,0.4868532804151375
0.3689415454864502,0,66.76387786865234,0.1261804899966551,0.30937373651605515,0.21313594716290632,0.49129691248138735
0.22449927031993866,-0.46266624331474304,66.63998413085938,0.12977396695046786,0.31752988879051475,0.21808128729462622,0.4874413604537645
-0.49433377385139465,-0.12591968476772308,66.5209732055664,0.13338991656485527,0.32561303744196063,0.21583266643186408,0.48253647771974395
-1.2657480239868164,0.6254491806030273,66.39873504638672,0.13686489976942534,0.3336900016189449,0.20116531811654564,0.48669922351837147
0.7980398535728455,-0.12236184626817703,66.29151916503906,0.14018517533731123,0.341836591964691,0.19726775002976255,0.4908916179711619
1.8217308521270752,0.4820007085800171,66.24507904052734,0.14365489969236978,0.35004309385187093,0.21909917257726189,0.4938886084904272
-0.7472637891769409,-1.493669867515564,66.19854736328125,0.1473811683369179,0.35820431585734086,0.228053064768513,0.48545803216596434
-0.1985614150762558,0.7287036776542664,66.13445281982422,0.15111637044387552,0.36624216040803326,0.22017118806640304,0.47908331391712017
-0.24779246747493744,0.22200196981430054,65.96530151367188,0.15475489344758284,0.3742929035321706,0.21645157237847643,0.4870058609793582
-0.3679424226284027,-0.19697481393814087,65.92069244384766,0.15475489344758284,0.3742929035321706,0.21645157237847643,0.4870058609793582
-0.2368587702512741,0.23333317041397095,65.9520263671875,0.15475489344758284,0.3742929035321706,0.21645157237847643,0.4870058609793582
0.5199923515319824,-1.6283620595932007,65.95191955566406,0.15475489344758284,0.3742929035321706,0.21645157237847643,0.4870058609793582
-1.542723298072815,-1.4377503395080566,65.69984436035156,0.15475489344758284,0.3742929035321706,0.21645157237847643,0.4870058609793582
-0.9085989594459534,-2.652780055999756,65.07475280761719,0.15475489344758284,0.3742929035321706,0.21645157237847643,0.4870058609793582
-0.6108538508415222,-3.1946635246276855,64.17881774902344,0.15475489344758284,0.3742929035321706,0.21645157237847643,0.4870058609793582
-1.3132126331329346,-2.949794292449951,62.95270538330078,0.15475489344758284,0.3742929035321706,0.21645157237847643,0.4870058609793582
0.44535917043685913,-1.2962446212768555,61.50090789794922,0.15475489344758284,0.3742929035321706,0.21645157237847643,0.4870058609793582
-1.2965145111083984,-1.195058822631836,59.88749694824219,0.15475489344758284,0.3742929035321706,0.21645157237847643,0.4870058609793582
-0.7962145805358887,-1.2174605131149292,58.07850646972656,0.15475489344758284,0.3742929035321706,0.21645157237847643,0.4870058609793582
-0.8202486634254456,-1.641152262687683,56.167903900146484,0.15475489344758284,0.3742929035321706,0.21645157237847643,0.4870058609793582
0.6488963961601257,-2.140540838241577,54.14945983886719,0.15475489344758284,0.3742929035321706,0.21645157237847643,0.4870058609793582
-0.8066098093986511,-1.5242445468902588,51.99897003173828,0.15475489344758284,0.3742929035321706,0.21645157237847643,0.4870058609793582
0.1553717404603958,-1.5496021509170532,49.74944305419922,0.15475489344758284,0.3742929035321706,0.21645157237847643,0.4870058609793582
-1.5626918077468872,-0.7782724499702454,47.39644241333008,0.15475489344758284,0.3742929035321706,0.21645157237847643,0.4870058609793582
-0.1229911595582962,-1.3700789213180542,44.98163604736328,0.15475489344758284,0.3742929035321706,0.21645157237847643,0.4870058609793582
-0.13493946194648743,-1.232452154159546,42.515655517578125,0.15475489344758284,0.3742929035321706,0.21645157237847643,0.4870058609793582
-0.21134434640407562,-1.2500462532043457,40.02287292480469,0.15475489344758284,0.3742929035321706,0.21645157237847643,0.4870058609793582
-0.2072722315788269,-1.3831837177276611,37.47755813598633,0.15475489344758284,0.3742929035321706,0.21645157237847643,0.4870058609793582
-0.884416401386261,-0.781722903251648,34.89961624145508,0.15475489344758284,0.3742929035321706,0.21645157237847643,0.4870058609793582
0.30248305201530457,-0.6981678009033203,32.26784133911133,0.15475489344758284,0.3742929035321706,0.21645157237847643,0.4870058609793582
-0.8623653054237366,-0.7619438767433167,29.64731788635254,0.15475489344758284,0.3742929035321706,0.21645157237847643,0.4870058609793582
0.21926547586917877,-1.1205741167068481,27.017610549926758,0.15475489344758284,0.3742929035321706,0.21645157237847643,0.4870058609793582
-0.7988139390945435,-0.25755926966667175,24.422828674316406,0.15475489344758284,0.3742929035321706,0.21645157237847643,0.4870058609793582
-0.8540927767753601,-0.5491990447044373,21.78702735900879,0.15475489344758284,0.3742929035321706,0.21645157237847643,0.4870058609793582
-0.8752939701080322,-0.8563922047615051,19.119373321533203,0.15475489344758284,0.3742929035321706,0.21645157237847643,0.4870058609793582
-0.4349648058414459,1.0833828449249268,16.4951229095459,0.15475489344758284,0.3742929035321706,0.21645157237847643,0.4870058609793582
-0.3301786482334137,-1.095603108406067,13.771854400634766,0.15475489344758284,0.3742929035321706,0.21645157237847643,0.4870058609793582
-0.21050743758678436,-0.5378870964050293,11.025259971618652,0.15475489344758284,0.3742929035321706,0.21645157237847643,0.4870058609793582
-0.7830091118812561,-0.23822398483753204,8.223393440246582,0.15475489344758284,0.3742929035321706,0.21645157237847643,0.4870058609793582
0.6664167046546936,-2.451030969619751,5.460252285003662,0.15475489344758284,0.3742929035321706,0.21645157237847643,0.4870058609793582
-0.7644268870353699,0.6054610013961792,2.6831483840942383,0.15475489344758284,0.3742929035321706,0.21645157237847643,0.4870058609793582
-1.3697364330291748,0.22994858026504517,-0.12111224979162216,0.15475489344758284,0.3742929035321706,0.21645157237847643,0.4870058609793582
-0.3343086242675781,-1.8947306871414185,-2.9446396827697754,0.15475489344758284,0.3742929035321706,0.21645157237847643,0.4870058609793582
-0.815593957901001,0.6677418351173401,-5.787191390991211,0.15475489344758284,0.3742929035321706,0.21645157237847643,0.4870058609793582
-0.5932328104972839,-0.4830910265445709,-8.648078918457031,0.15475489344758284,0.3742929035321706,0.21645157237847643,0.4870058609793582
-0.4547503590583801,-1.9895504713058472,-11.572948455810547,0.15475489344758284,0.3742929035321706,0.21645157237847643,0.4870058609793582
0.01575411483645439,0.1299416422843933,-14.50989055633545,0.15475489344758284,0.3742929035321706,0.21645157237847643,0.4870058609793582
-0.8597564697265625,-0.5708165764808655,-17.489137649536133,0.15475489344758284,0.3742929035321706,0.21645157237847643,0.4870058609793582
-0.5577806234359741,-0.10477447509765625,-20.45646095275879,0.15475489344758284,0.3742929035321706,0.21645157237847643,0.4870058609793582
0.04718286544084549,-0.4216998815536499,-23.23537826538086,0.15475489344758284,0.3742929035321706,0.21645157237847643,0.4870058609793582
-0.14625374972820282,1.4469082355499268,-25.941944122314453,0.15475489344758284,0.3742929035321706,0.21645157237847643,0.4870058609793582
-1.413672924041748,2.2892470359802246,-28.11186981201172,0.15475489344758284,0.3742929035321706,0.21645157237847643,0.4870058609793582
0.4031594693660736,1.9595367908477783,-29.864978790283203,0.15475489344758284,0.3742929035321706,0.21645157237847643,0.4870058609793582
0.46944504976272583,-0.1564105600118637,-30.907798767089844,0.15475489344758284,0.3742929035321706,0.21645157237847643,0.4870058609793582
1.6038352251052856,0.990507960319519,-31.50251579284668,0.15475489344758284,0.3742929035321706,0.21645157237847643,0.4870058609793582
1.3897253274917603,0.7478798031806946,-31.785972595214844,0.15475489344758284,0.3742929035321706,0.21645157237847643,0.4870058609793582
1.4819815158843994,-0.5018609762191772,-31.87741470336914,0.15475489344758284,0.3742929035321706,0.21645157237847643,0.4870058609793582
1.4868746995925903,-0.567143440246582,-31.732666015625,0.15475489344758284,0.3742929035321706,0.21645157237847643,0.4870058609793582
-0.008269588463008404,-0.874896764755249,-31.464902877807617,0.15475489344758284,0.3742929035321706,0.21645157237847643,0.4870058609793582
0.6793370246887207,-0.060651931911706924,-31.227296829223633,0.15475489344758284,0.3742929035321706,0.21645157237847643,0.4870058609793582
-1.2859447002410889,-0.579348623752594,-31.220388412475586,0.15475489344758284,0.3742929035321706,0.21645157237847643,0.4870058609793582
-0.802520215511322,0.12360988557338715,-31.277915954589844,0.15475489344758284,0.3742929035321706,0.21645157237847643,0.4870058609793582
-0.2264752835035324,0.595014750957489,-31.269948959350586,0.15475489344758284,0.3742929035321706,0.21645157237847643,0.4870058609793582
-0.07235480099916458,-0.5613037943840027,-31.24894142150879,0.15475489344758284,0.3742929035321706,0.21645157237847643,0.4870058609793582
0.3883739411830902,-0.256074994802475,-31.247121810913086,0.15475489344758284,0.3742929035321706,0.21645157237847643,0.4870058609793582
0.18303261697292328,-0.41620734333992004,-31.249666213989258,0.15475489344758284,0.3742929035321706,0.21645157237847643,0.4870058609793582
-0.27475669980049133,-0.041958801448345184,-31.2570743560791,0.15475489344758284,0.3742929035321706,0.21645157237847643,0.4870058609793582
-0.3165433406829834,0.016462406143546104,-31.259536743164062,0.15475489344758284,0.3742929035321706,0.21645157237847643,0.4870058609793582
-0.19973282516002655,-0.14198696613311768,-31.256486892700195,0.15475489344758284,0.3742929035321706,0.21645157237847643,0.4870058609793582
0.0733492374420166,-0.17631755769252777,-31.253368377685547,0.15475489344758284,0.3742929035321706,0.21645157237847643,0.4870058609793582
-0.007622168865054846,-0.2660905122756958,-31.253740310668945,0.15475489344758284,0.3742929035321706,0.21645157237847643,0.4870058609793582
-0.14514735341072083,-0.07027007639408112,-31.256694793701172,0.15475489344758284,0.3742929035321706,0.21645157237847643,0.4870058609793582
-0.20536121726036072,-0.10324229300022125,-31.257482528686523,0.15475489344758284,0.3742929035321706,0.21645157237847643,0.4870058609793582
-0.07956446707248688,-0.1439712792634964,-31.25661849975586,0.15475489344758284,0.3742929035321706,0.21645157237847643,0.4870058609793582
-0.02571687288582325,-0.2026766687631607,-31.255123138427734,0.15475489344758284,0.3742929035321706,0.21645157237847643,0.4870058609793582
-0.07163458317518234,-0.16017496585845947,-31.255369186401367,0.15475489344758284,0.3742929035321706,0.21645157237847643,0.4870058609793582
-0.16591840982437134,-0.12635250389575958,-31.25554084777832,0.15475489344758284,0.3742929035321706,0.21645157237847643,0.4870058609793582
-0.11468422412872314,-0.11883898824453354,-31.25513458251953,0.15475489344758284,0.3742929035321706,0.21645157237847643,0.4870058609793582
-0.054551947861909866,-0.17802655696868896,-31.255184173583984,0.15475489344758284,0.3742929035321706,0.21645157237847643,0.4870058609793582
-0.0728805884718895,-0.17393073439598083,-31.25588607788086,0.15475489344758284,0.3742929035321706,0.21645157237847643,0.4870058609793582
-0.1315491497516632,-0.14273104071617126,-31.255868911743164,0.15475489344758284,0.3742929035321706,0.21645157237847643,0.4870058609793582
-0.12625408172607422,-0.14046256244182587,-31.25558853149414,0.15475489344758284,0.3742929035321706,0.21645157237847643,0.4870058609793582
-0.08098521828651428,-0.1619482934474945,-31.254867553710938,0.15475489344758284,0.3742929035321706,0.21645157237847643,0.4870058609793582
-0.07615624368190765,-0.155925914645195,-31.254871368408203,0.15475489344758284,0.3742929035321706,0.21645157237847643,0.4870058609793582
-0.10632071644067764,-0.13726823031902313,-31.255346298217773,0.15475489344758284,0.3742929035321706,0.21645157237847643,0.4870058609793582
-0.12877051532268524,-0.1384814977645874,-31.255718231201172,0.15475489344758284,0.3742929035321706,0.21645157237847643,0.4870058609793582
-0.08574189990758896,-0.1445961445569992,-31.255550384521484,0.15475489344758284,0.3742929035321706,0.21645157237847643,0.4870058609793582
-0.0832999050617218,-0.15026220679283142,-31.256258010864258,0.15475489344758284,0.3742929035321706,0.21645157237847643,0.4870058609793582
-0.10283125936985016,-0.15774761140346527,-31.256147384643555,0.15475489344758284,0.3742929035321706,0.21645157237847643,0.4870058609793582
-0.09939700365066528,-0.13112404942512512,-31.25604248046875,0.15475489344758284,0.3742929035321706,0.21645157237847643,0.4870058609793582
-0.09237757325172424,-0.1620509773492813,-31.257028579711914,0.15475489344758284,0.3742929035321706,0.21645157237847643,0.4870058609793582
-0.07900162041187286,-0.14594680070877075,-31.25693702697754,0.15475489344758284,0.3742929035321706,0.21645157237847643,0.4870058609793582
-0.0920102521777153,-0.14722733199596405,-31.25548553466797,0.15475489344758284,0.3742929035321706,0.21645157237847643,0.4870058609793582
-0.10359667241573334,-0.12454061955213547,-31.254573822021484,0.15475489344758284,0.3742929035321706,0.21645157237847643,0.4870058609793582
-0.08508741855621338,-0.14396408200263977,-31.25476837158203,0.15475489344758284,0.3742929035321706,0.21645157237847643,0.4870058609793582
-0.0812351256608963,-0.13950617611408234,-31.255434036254883,0.15475489344758284,0.3742929035321706,0.21645157237847643,0.4870058609793582
-0.11074550449848175,-0.14390239119529724,-31.253908157348633,0.15475489344758284,0.3742929035321706,0.21645157237847643,0.4870058609793582
-0.09045446664094925,-0.1290545016527176,-31.253700256347656,0.15475489344758284,0.3742929035321706,0.21645157237847643,0.4870058609793582
-0.09145459532737732,-0.14957238733768463,-31.25229835510254,0.15475489344758284,0.3742929035321706,0.21645157237847643,0.4870058609793582
-0.0834827870130539,-0.1398811787366867,-31.252607345581055,0.15475489344758284,0.3742929035321706,0.21645157237847643,0.4870058609793582
-0.10043032467365265,-0.13053563237190247,-31.25174903869629,0.15475489344758284,0.3742929035321706,0.21645157237847643,0.4870058609793582
-0.09021449089050293,-0.14315539598464966,-31.251636505126953,0.15475489344758284,0.3742929035321706,0.21645157237847643,0.4870058609793582
-0.09849271178245544,-0.14178581535816193,-31.252084732055664,0.15475489344758284,0.3742929035321706,0.21645157237847643,0.4870058609793582
-0.08728919923305511,-0.14807355403900146,-31.25132942199707,0.15475489344758284,0.3742929035321706,0.21645157237847643,0.4870058609793582
-0.10609926283359528,-0.13247497379779816,-31.251272201538086,0.15475489344758284,0.3742929035321706,0.21645157237847643,0.4870058609793582
-0.0891965851187706,-0.14415033161640167,-31.24980926513672,0.15475489344758284,0.3742929035321706,0.21645157237847643,0.4870058609793582
-0.08277452737092972,-0.13799405097961426,-31.251134872436523,0.15475489344758284,0.3742929035321706,0.21645157237847643,0.4870058609793582
-0.09991223365068436,-0.13888394832611084,-31.251813888549805,0.15475489344758284,0.3742929035321706,0.21645157237847643,0.4870058609793582
-0.09142432361841202,-0.12660416960716248,-31.251420974731445,0.15475489344758284,0.3742929035321706,0.21645157237847643,0.4870058609793582
-0.10603999346494675,-0.14983409643173218,-31.250652313232422,0.15475489344758284,0.3742929035321706,0.21645157237847643,0.4870058609793582
-0.1044488176703453,-0.13869710266590118,-31.25071907043457,0.15475489344758284,0.3742929035321706,0.21645157237847643,0.4870058609793582
-0.09790899604558945,-0.1471022367477417,-31.250896453857422,0.15475489344758284,0.3742929035321706,0.21645157237847643,0.4870058609793582
-0.1002853661775589,-0.14373061060905457,-31.25079345703125,0.15475489344758284,0.3742929035321706,0.21645157237847643,0.4870058609793582
-0.09350719302892685,-0.14336341619491577,-31.250652313232422,0.15475489344758284,0.3742929035321706,0.21645157237847643,0.4870058609793582
-0.09069065749645233,-0.14541208744049072,-31.249364852905273,0.15475489344758284,0.3742929035321706,0.21645157237847643,0.4870058609793582
-0.10827919095754623,-0.13110573589801788,-31.248327255249023,0.15475489344758284,0.3742929035321706,0.21645157237847643,0.4870058609793582
-0.09933185577392578,-0.1357666552066803,-31.248289108276367,0.15475489344758284,0.3742929035321706,0.21645157237847643,0.4870058609793582
-0.09666422754526138,-0.13761137425899506,-31.24839973449707,0.15475489344758284,0.3742929035321706,0.21645157237847643,0.4870058609793582
-0.0922350361943245,-0.1475829780101776,-31.24746322631836,0.15475489344758284,0.3742929035321706,0.21645157237847643,0.4870058609793582
-0.10586756467819214,-0.1390579640865326,-31.247406005859375,0.15475489344758284,0.3742929035321706,0.21645157237847643,0.4870058609793582
-0.09731178730726242,-0.14387600123882294,-31.247535705566406,0.15475489344758284,0.3742929035321706,0.21645157237847643,0.4870058609793582
-0.09964309632778168,-0.1578894704580307,-31.248306274414062,0.15475489344758284,0.3742929035321706,0.21645157237847643,0.4870058609793582
-0.10342060774564743,-0.13617807626724243,-31.248733520507812,0.15475489344758284,0.3742929035321706,0.21645157237847643,0.4870058609793582
-0.10147243738174438,-0.13018402457237244,-31.247751235961914,0.15475489344758284,0.3742929035321706,0.21645157237847643,0.4870058609793582
-0.10060086101293564,-0.13871246576309204,-31.24740219116211,0.15475489344758284,0.3742929035321706,0.21645157237847643,0.4870058609793582
-0.10644979029893875,-0.1392316371202469,-31.247220993041992,0.15475489344758284,0.3742929035321706,0.21645157237847643,0.4870058609793582
-0.09813562780618668,-0.12662284076213837,-31.246610641479492,0.15475489344758284,0.3742929035321706,0.21645157237847643,0.4870058609793582
-0.10130564123392105,-0.1318710893392563,-31.24757957458496,0.15475489344758284,0.3742929035321706,0.21645157237847643,0.4870058609793582
-0.10489636659622192,-0.14062604308128357,-31.247610092163086,0.15475489344758284,0.3742929035321706,0.21645157237847643,0.4870058609793582
-0.08606947958469391,-0.1308734267950058,-31.2476749420166,0.15475489344758284,0.3742929035321706,0.21645157237847643,0.4870058609793582
-0.09545683860778809,-0.1282326579093933,-31.248003005981445,0.15475489344758284,0.3742929035321706,0.21645157237847643,0.4870058609793582
-0.10206762701272964,-0.12773776054382324,-31.247358322143555,0.15475489344758284,0.3742929035321706,0.21645157237847643,0.4870058609793582
-0.09255348145961761,-0.12792569398880005,-31.247350692749023,0.15475489344758284,0.3742929035321706,0.21645157237847643,0.4870058609793582
-0.10092034935951233,-0.13535505533218384,-31.246646881103516,0.15475489344758284,0.3742929035321706,0.21645157237847643,0.4870058609793582
-0.1056421548128128,-0.15490344166755676,-31.24701690673828,0.15475489344758284,0.3742929035321706,0.21645157237847643,0.4870058609793582
-0.09595627337694168,-0.13023169338703156,-31.24614906311035,0.15475489344758284,0.3742929035321706,0.21645157237847643,0.4870058609793582
-0.1005498468875885,-0.13998135924339294,-31.24699592590332,0.15475489344758284,0.3742929035321706,0.21645157237847643,0.4870058609793582
-0.09001697599887848,-0.11988655477762222,-31.246339797973633,0.15475489344758284,0.3742929035321706,0.21645157237847643,0.4870058609793582
-0.09421581774950027,-0.14098018407821655,-31.246313095092773,0.15475489344758284,0.3742929035321706,0.21645157237847643,0.4870058609793582
-0.08680875599384308,-0.13136261701583862,-31.24599838256836,0.15834984850293637,0.38239075518730614,0.21494303426394856,0.48473633763690777
-0.08767503499984741,-0.147006094455719,-31.24655532836914,0.1619201154774054,0.39045036298740243,0.21348900267233448,0.4824165983746448
0,-0.13538886606693268,-31.24697494506836,0.16547217697784708,0.39847102886583247,0.21275837738066908,0.48006330703695604
0,-0.26292234659194946,-31.24228286743164,0.16901814993419156,0.406444423482236,0.21275837738066908,0.4767440469314654
1.1852587461471558,-1.3036338090896606,-31.288909912109375,0.17264643252568515,0.41428136897583806,0.22263553359856203,0.4636894123007853
2.182194948196411,-2.1364586353302,-31.280887603759766,0.17659087570332394,0.42177063053887753,0.2506976477180918,0.43502197526395314
3.4309232234954834,-0.27016139030456543,-31.1827449798584,0.18115896970499296,0.4288538704026077,0.2974736324821909,0.41496680838366345
0.8823371529579163,-1.129554033279419,-31.0690860748291,0.1864163955502832,0.43567278141569765,0.3334174689526359,0.40330251318713023
0.643855631351471,-1.1951520442962646,-31.013282775878906,0.19207933897618196,0.4422330520467626,0.34613574215521414,0.3839299625406662
1.175262451171875,-0.7136430144309998,-31.07745933532715,0.19797459565672187,0.4484993295433621,0.36129505950957536,0.3680233370512723
1.5163295269012451,-0.8301732540130615,-31.152292251586914,0.20418309609146987,0.4545258423644636,0.38372499266018467,0.35515820148090516
1.1977921724319458,-0.16813665628433228,-31.15990447998047,0.2107669933093711,0.4603758186453747,0.40634267348796127,0.34683895222842687
-0.30360326170921326,-1.5645166635513306,-31.284086227416992,0.21760146765297064,0.46603614470197097,0.41379424774398404,0.3324001745631297
0.9757363200187683,-0.5033872723579407,-31.3237361907959,0.22454471435553075,0.47143254317136274,0.41939535656323035,0.3151676417638858
0.8381800055503845,-0.27483832836151123,-31.31111717224121,0.23166060337641578,0.47663129375626645,0.4345113259429733,0.308682428424557
1.897296667098999,-1.3082242012023926,-31.264497756958008,0.23909242246662155,0.48166606599878936,0.4573069648817182,0.29549024067819113
-0.329894095659256,-0.8428176641464233,-31.28087615966797,0.2468230526154446,0.48644152543610997,0.4703686529770494,0.2775648918002843
0.2572292387485504,-0.5034698843955994,-31.273799896240234,0.25465748399444327,0.4909741147752437,0.4697631125027935,0.26634582889576747
0.774910032749176,0.10198818892240524,-31.223793029785156,0.2625585455411216,0.4953853312502098,0.4783642730986079,0.26300014810015754
0.9085071086883545,-0.7074729204177856,-31.234790802001953,0.2706481873942538,0.49972661950108077,0.492392749277254,0.2579544420043627
1.4309165477752686,-0.5387968420982361,-31.28703498840332,0.27901719319168466,0.5039393136898677,0.5118879464144509,0.2475688606500625
-0.2597310543060303,-0.47572585940361023,-31.42319679260254,0.2876299912911942,0.5079950084019866,0.5216478255266945,0.23911450480421378
0.7145630121231079,-0.7159912586212158,-31.543121337890625,0.2963557072692653,0.5118974920155274,0.5254380918418369,0.22918352882067355
0,-0.068640798330307,-31.63958740234375,0.30516263123136,0.5156627291585836,0.5313927836095295,0.22264492834607752
-0.17452527582645416,0.10872656852006912,-31.61322784423828,0.3140070578140309,0.5193762616983925,0.5299384063109757,0.2229789764309922
-0.3003222644329071,-0.3602610230445862,-31.625272750854492,0.32280638906225134,0.5230751103017892,0.525981343475481,0.22088285597662125
0.5347491502761841,-1.4318395853042603,-31.655792236328125,0.3315890244316929,0.5266320398035975,0.5279349008575083,0.20594868424038085
1.1801146268844604,0.1862686574459076,-31.690780639648438,0.3405070272082875,0.5299780198931693,0.542225432333847,0.1955689265082279
0.5016098022460938,-0.6591997742652893,-31.78219985961914,0.3496609041658746,0.5332046595629717,0.5562398025766017,0.1916278338680664
1.123991847038269,0.40908530354499817,-31.764890670776367,0.3590444565455738,0.5363810877336395,0.5697864829873047,0.18954354661206396
-0.21440865099430084,-0.6450780034065247,-31.642566680908203,0.36860406342842084,0.5395237584619057,0.5773663429543378,0.18757694077988457
-0.36680951714515686,-0.6355290412902832,-31.595605850219727,0.37818647343820566,0.5425611097634665,0.5725228582198423,0.17690521540741116
-0.2552831768989563,-0.27832692861557007,-31.645889282226562,0.3876853201936722,0.5454460678001243,0.5673387524361413,0.16928974899152904
0.69569993019104,-0.33445754647254944,-31.70205307006836,0.39717155056436426,0.5482250091392131,0.5710088920469086,0.16418321169912806
0.13414931297302246,-0.32999277114868164,-31.744312286376953,0.4067459938514769,0.5509152536176971,0.5779243024066092,0.15864612571895112
-1.4030988216400146,-0.6870064735412598,-31.882469177246094,0.4162899440645963,0.553488730765465,0.5673497231677176,0.15017113201320162
0.433177649974823,-0.2647339403629303,-31.88675880432129,0.42567841714713706,0.5559254898813861,0.5592670467371743,0.14223996189733337
0,0.1254834234714508,-31.74498748779297,0.4350296163740049,0.5582864857382243,0.5628768604869645,0.1410795409232377
0.6583627462387085,0.878063976764679,-31.60976791381836,0.44445661701727646,0.5607075022119613,0.5683632167056204,0.14944243592520545
0.43428605794906616,-1.4355581998825073,-31.637224197387695,0.45400521568488317,0.563159494600776,0.5774686234071852,0.14479665073255688
-0.15958233177661896,1.5797741413116455,-31.694717407226562,0.4636487693893204,0.5655827871089179,0.579757821125289,0.14599845024446637
-0.2574934959411621,-1.7720997333526611,-31.7686824798584,0.4732824361422615,0.5680027386691006,0.5762821892276407,0.1443957369774579
-0.2266000509262085,0.11923123896121979,-31.885986328125,0.48285352168863416,0.5702945517510588,0.5722480763370793,0.1306218328575292
0.15148362517356873,0.21382774412631989,-31.918106079101562,0.49238577320913046,0.5724947113947321,0.571622106122474,0.13339732438325871
-0.07947305589914322,-0.6359319686889648,-31.842018127441406,0.501917809045149,0.5746886873410807,0.5722221941997608,0.12987978917857002
0.34857943654060364,-0.08667183667421341,-31.75037384033203,0.501917809045149,0.5746886873410807,0.5722221941997608,0.12987978917857002
0.5335862636566162,0.4599398076534271,-31.853994369506836,0.501917809045149,0.5746886873410807,0.5722221941997608,0.12987978917857002
-2.032102584838867,0.004608306102454662,-32.15944290161133,0.501917809045149,0.5746886873410807,0.5722221941997608,0.12987978917857002
-2.3119449615478516,1.6253446340560913,-32.765647888183594,0.501917809045149,0.5746886873410807,0.5722221941997608,0.12987978917857002
-2.7945244312286377,2.1528663635253906,-33.54776382446289,0.501917809045149,0.5746886873410807,0.5722221941997608,0.12987978917857002
-2.320441722869873,1.0150452852249146,-34.63700485229492,0.501917809045149,0.5746886873410807,0.5722221941997608,0.12987978917857002
-1.7785308361053467,0.517706573009491,-35.946224212646484,0.501917809045149,0.5746886873410807,0.5722221941997608,0.12987978917857002
-0.40814027190208435,-0.11570416390895844,-37.40517807006836,0.501917809045149,0.5746886873410807,0.5722221941997608,0.12987978917857002
-1.7244690656661987,1.5504754781723022,-39.13295364379883,0.501917809045149,0.5746886873410807,0.5722221941997608,0.12987978917857002
-1.6026500463485718,0.304735392332077,-40.99553298950195,0.501917809045149,0.5746886873410807,0.5722221941997608,0.12987978917857002
-1.9530682563781738,1.2021749019622803,-43.026268005371094,0.501917809045149,0.5746886873410807,0.5722221941997608,0.12987978917857002
-2.0088210105895996,0.6847646236419678,-45.019554138183594,0.501917809045149,0.5746886873410807,0.5722221941997608,0.12987978917857002
-1.7348610162734985,-0.7853893041610718,-47.002315521240234,0.501917809045149,0.5746886873410807,0.5722221941997608,0.12987978917857002
-0.27889060974121094,0.8403955698013306,-48.9346809387207,0.501917809045149,0.5746886873410807,0.5722221941997608,0.12987978917857002
-1.3275009393692017,0.04309661686420441,-50.98207473754883,0.501917809045149,0.5746886873410807,0.5722221941997608,0.12987978917857002
-1.5643982887268066,-0.01732148602604866,-53.09652328491211,0.501917809045149,0.5746886873410807,0.5722221941997608,0.12987978917857002
-1.050173282623291,0.23274730145931244,-55.302032470703125,0.501917809045149,0.5746886873410807,0.5722221941997608,0.12987978917857002
-1.2858397960662842,-0.4218825399875641,-57.52092361450195,0.501917809045149,0.5746886873410807,0.5722221941997608,0.12987978917857002
-1.2755337953567505,0.798326313495636,-59.80105209350586,0.501917809045149,0.5746886873410807,0.5722221941997608,0.12987978917857002
-0.8954287767410278,-0.5160716772079468,-61.97641372680664,0.501917809045149,0.5746886873410807,0.5722221941997608,0.12987978917857002
-0.16731028258800507,0.8524699211120605,-64.15730285644531,0.501917809045149,0.5746886873410807,0.5722221941997608,0.12987978917857002
-1.1562364101409912,-0.3966553807258606,-66.29930877685547,0.501917809045149,0.5746886873410807,0.5722221941997608,0.12987978917857002
-1.2864251136779785,0.31202441453933716,-68.4061508178711,0.501917809045149,0.5746886873410807,0.5722221941997608,0.12987978917857002
-1.8259576559066772,-0.786858856678009,-70.63397979736328,0.501917809045149,0.5746886873410807,0.5722221941997608,0.12987978917857002
-0.10385412722826004,1.3468348979949951,-72.9496078491211,0.501917809045149,0.5746886873410807,0.5722221941997608,0.12987978917857002
-1.794914722442627,0.26864227652549744,-75.44620513916016,0.501917809045149,0.5746886873410807,0.5722221941997608,0.12987978917857002
0.6969873309135437,1.3867456912994385,-77.96516418457031,0.501917809045149,0.5746886873410807,0.5722221941997608,0.12987978917857002
-0.9801898002624512,0.5674800276756287,-80.55943298339844,0.501917809045149,0.5746886873410807,0.5722221941997608,0.12987978917857002
-1.1329926252365112,0.2614808678627014,-83.12059783935547,0.501917809045149,0.5746886873410807,0.5722221941997608,0.12987978917857002
-0.4852600395679474,-0.4474499225616455,-85.65510559082031,0.501917809045149,0.5746886873410807,0.5722221941997608,0.12987978917857002
-0.5104730725288391,0.40877649188041687,-88.27364349365234,0.501917809045149,0.5746886873410807,0.5722221941997608,0.12987978917857002
-0.9667530059814453,0.7919854521751404,-90.90518951416016,0.501917809045149,0.5746886873410807,0.5722221941997608,0.12987978917857002
-0.333224356174469,-0.39277055859565735,-93.5578384399414,0.501917809045149,0.5746886873410807,0.5722221941997608,0.12987978917857002
-0.36035141348838806,1.0379027128219604,-96.27012634277344,0.501917809045149,0.5746886873410807,0.5722221941997608,0.12987978917857002
-0.9265651106834412,0.9333643317222595,-98.97875213623047,0.501917809045149,0.5746886873410807,0.5722221941997608,0.12987978917857002
0.2401304692029953,1.0625540018081665,-101.70789337158203,0.501917809045149,0.5746886873410807,0.5722221941997608,0.12987978917857002
-1.2164392471313477,0.3994233310222626,-104.44620513916016,0.501917809045149,0.5746886873410807,0.5722221941997608,0.12987978917857002
0.9587141275405884,-0.11741336435079575,-107.1989974975586,0.501917809045149,0.5746886873410807,0.5722221941997608,0.12987978917857002
-0.559659481048584,-0.16043657064437866,-109.98171997070312,0.501917809045149,0.5746886873410807,0.5722221941997608,0.12987978917857002
-0.7408466339111328,0.5698564052581787,-112.94451141357422,0.501917809045149,0.5746886873410807,0.5722221941997608,0.12987978917857002
1.4021021127700806,0.4676189422607422,-115.89199829101562,0.501917809045149,0.5746886873410807,0.5722221941997608,0.12987978917857002
-1.6638976335525513,0.007523355074226856,-118.64082336425781,0.501917809045149,0.5746886873410807,0.5722221941997608,0.12987978917857002
1.3030115365982056,-0.3705610930919647,-120.98931884765625,0.501917809045149,0.5746886873410807,0.5722221941997608,0.12987978917857002
1.2342528104782104,-0.7354756593704224,-123.01986694335938,0.501917809045149,0.5746886873410807,0.5722221941997608,0.12987978917857002
0.4055290222167969,-1.283492922782898,-124.83069610595703,0.501917809045149,0.5746886873410807,0.5722221941997608,0.12987978917857002
0.9562147855758667,-1.1188678741455078,-126.2070083618164,0.501917809045149,0.5746886873410807,0.5722221941997608,0.12987978917857002
1.3351688385009766,-1.5335742235183716,-127.01717376708984,0.501917809045149,0.5746886873410807,0.5722221941997608,0.12987978917857002
0.7326140999794006,-1.2796560525894165,-127.40409088134766,0.501917809045149,0.5746886873410807,0.5722221941997608,0.12987978917857002
0.18133896589279175,-1.0171667337417603,-127.4438705444336,0.501917809045149,0.5746886873410807,0.5722221941997608,0.12987978917857002
0.032759588211774826,1.005734920501709,-127.38666534423828,0.501917809045149,0.5746886873410807,0.5722221941997608,0.12987978917857002
0.6612463593482971,0.9953886866569519,-127.48335266113281,0.501917809045149,0.5746886873410807,0.5722221941997608,0.12987978917857002
0.2013314962387085,0.24646390974521637,-127.4741439819336,0.501917809045149,0.5746886873410807,0.5722221941997608,0.12987978917857002
-0.1313832551240921,0.07257527112960815,-127.42909240722656,0.501917809045149,0.5746886873410807,0.5722221941997608,0.12987978917857002
-0.4675481617450714,-0.373226135969162,-127.42625427246094,0.501917809045149,0.5746886873410807,0.5722221941997608,0.12987978917857002
-0.5669437050819397,-0.3116121292114258,-127.41146850585938,0.501917809045149,0.5746886873410807,0.5722221941997608,0.12987978917857002
-0.23364077508449554,-0.18994110822677612,-127.41570281982422,0.501917809045149,0.5746886873410807,0.5722221941997608,0.12987978917857002
-0.15544424951076508,0.18394583463668823,-127.42677307128906,0.501917809045149,0.5746886873410807,0.5722221941997608,0.12987978917857002
-0.009998197667300701,0.13822658360004425,-127.42731475830078,0.501917809045149,0.5746886873410807,0.5722221941997608,0.12987978917857002
-0.14999085664749146,0.09753380715847015,-127.42533874511719,0.501917809045149,0.5746886873410807,0.5722221941997608,0.12987978917857002
-0.27998116612434387,-0.08707806468009949,-127.42261505126953,0.501917809045149,0.5746886873410807,0.5722221941997608,0.12987978917857002
-0.2720354497432709,-0.08238214254379272,-127.42105865478516,0.501917809045149,0.5746886873410807,0.5722221941997608,0.12987978917857002
-0.18209077417850494,0.008922497741878033,-127.4232177734375,0.501917809045149,0.5746886873410807,0.5722221941997608,0.12987978917857002
-0.1420677900314331,0.08844634145498276,-127.42202758789062,0.501917809045149,0.5746886873410807,0.5722221941997608,0.12987978917857002
-0.15190020203590393,0.007740529719740152,-127.42204284667969,0.501917809045149,0.5746886873410807,0.5722221941997608,0.12987978917857002
-0.24439489841461182,-0.027178291231393814,-127.4213638305664,0.501917809045149,0.5746886873410807,0.5722221941997608,0.12987978917857002
-0.20810535550117493,-0.03857441619038582,-127.42204284667969,0.501917809045149,0.5746886873410807,0.5722221941997608,0.12987978917857002
-0.18287837505340576,0.01597587577998638,-127.4228515625,0.501917809045149,0.5746886873410807,0.5722221941997608,0.12987978917857002
-0.16719891130924225,0.025338245555758476,-127.42247772216797,0.501917809045149,0.5746886873410807,0.5722221941997608,0.12987978917857002
-0.1796201467514038,-0.010005963034927845,-127.42245483398438,0.501917809045149,0.5746886873410807,0.5722221941997608,0.12987978917857002
-0.21992585062980652,-0.029848618432879448,-127.42200469970703,0.501917809045149,0.5746886873410807,0.5722221941997608,0.12987978917857002
-0.20114262402057648,-0.003482492407783866,-127.42237091064453,0.501917809045149,0.5746886873410807,0.5722221941997608,0.12987978917857002
-0.18092939257621765,0.031896624714136124,-127.422607421875,0.501917809045149,0.5746886873410807,0.5722221941997608,0.12987978917857002
-0.18827161192893982,-0.008406276814639568,-127.42247772216797,0.501917809045149,0.5746886873410807,0.5722221941997608,0.12987978917857002
-0.20568278431892395,-3.284243575762957e-05,-127.42316436767578,0.501917809045149,0.5746886873410807,0.5722221941997608,0.12987978917857002
-0.18956398963928223,-0.008955140598118305,-127.42323303222656,0.501917809045149,0.5746886873410807,0.5722221941997608,0.12987978917857002
-0.17959852516651154,0.024663446471095085,-127.42337036132812,0.501917809045149,0.5746886873410807,0.5722221941997608,0.12987978917857002
-0.18723571300506592,0.01605595462024212,-127.42359924316406,0.501917809045149,0.5746886873410807,0.5722221941997608,0.12987978917857002
-0.20385859906673431,0.0003703749389387667,-127.42436218261719,0.501917809045149,0.5746886873410807,0.5722221941997608,0.12987978917857002
-0.18906556069850922,-0.0031796148978173733,-127.42361450195312,0.501917809045149,0.5746886873410807,0.5722221941997608,0.12987978917857002
-0.17636191844940186,0.012620421126484871,-127.42264556884766,0.501917809045149,0.5746886873410807,0.5722221941997608,0.12987978917857002
-0.18564847111701965,0.027623560279607773,-127.42362976074219,0.501917809045149,0.5746886873410807,0.5722221941997608,0.12987978917857002
-0.17602336406707764,0.008013222366571426,-127.42292785644531,0.501917809045149,0.5746886873410807,0.5722221941997608,0.12987978917857002
-0.18526849150657654,-0.0018569841049611568,-127.42283630371094,0.501917809045149,0.5746886873410807,0.5722221941997608,0.12987978917857002
-0.1899104118347168,0.007072976790368557,-127.42188262939453,0.501917809045149,0.5746886873410807,0.5722221941997608,0.12987978917857002
-0.2033020704984665,0.015381895937025547,-127.42183685302734,0.501917809045149,0.5746886873410807,0.5722221941997608,0.12987978917857002
-0.19227610528469086,0.014096682891249657,-127.42278289794922,0.501917809045149,0.5746886873410807,0.5722221941997608,0.12987978917857002
-0.18354158103466034,0.0026965965516865253,-127.42373657226562,0.501917809045149,0.5746886873410807,0.5722221941997608,0.12987978917857002
-0.1988917738199234,0.015015666373074055,-127.42436218261719,0.501917809045149,0.5746886873410807,0.5722221941997608,0.12987978917857002
-0.17677973210811615,0.015983879566192627,-127.42410278320312,0.501917809045149,0.5746886873410807,0.5722221941997608,0.12987978917857002
-0.17507411539554596,0.024547407403588295,-127.42442321777344,0.501917809045149,0.5746886873410807,0.5722221941997608,0.12987978917857002
-0.18850554525852203,0.021722959354519844,-127.42451477050781,0.501917809045149,0.5746886873410807,0.5722221941997608,0.12987978917857002
-0.17512071132659912,0.011654031462967396,-127.4243392944336,0.501917809045149,0.5746886873410807,0.5722221941997608,0.12987978917857002
-0.18627256155014038,0.0050924913957715034,-127.42424011230469,0.501917809045149,0.5746886873410807,0.5722221941997608,0.12987978917857002
-0.1742320954799652,0.006038750987499952,-127.4240951538086,0.501917809045149,0.5746886873410807,0.5722221941997608,0.12987978917857002
-0.1772439330816269,0.010435306467115879,-127.42364501953125,0.501917809045149,0.5746886873410807,0.5722221941997608,0.12987978917857002
-0.19380918145179749,-0.008951966650784016,-127.423583984375,0.501917809045149,0.5746886873410807,0.5722221941997608,0.12987978917857002
-0.19150061905384064,0.02442026697099209,-127.42353057861328,0.501917809045149,0.5746886873410807,0.5722221941997608,0.12987978917857002
-0.19410492479801178,0.010073257610201836,-127.42312622070312,0.501917809045149,0.5746886873410807,0.5722221941997608,0.12987978917857002
-0.17784687876701355,0.011210027150809765,-127.42328643798828,0.501917809045149,0.5746886873410807,0.5722221941997608,0.12987978917857002
-0.1898651272058487,0.011779925785958767,-127.42294311523438,0.501917809045149,0.5746886873410807,0.5722221941997608,0.12987978917857002
-0.1678951382637024,0.010435746982693672,-127.4234619140625,0.501917809045149,0.5746886873410807,0.5722221941997608,0.12987978917857002
-0.1796155720949173,0.019818009808659554,-127.42295837402344,0.501917809045149,0.5746886873410807,0.5722221941997608,0.12987978917857002
-0.18458296358585358,0.00962874572724104,-127.42266082763672,0.501917809045149,0.5746886873410807,0.5722221941997608,0.12987978917857002
-0.1795630007982254,0.015875447541475296,-127.42224884033203,0.501917809045149,0.5746886873410807,0.5722221941997608,0.12987978917857002
-0.1822446882724762,0.00568967591971159,-127.42171478271484,0.501917809045149,0.5746886873410807,0.5722221941997608,0.12987978917857002
-0.1906190663576126,0.011073659174144268,-127.42219543457031,0.501917809045149,0.5746886873410807,0.5722221941997608,0.12987978917857002
-0.1809043437242508,0.015270303934812546,-127.42254638671875,0.501917809045149,0.5746886873410807,0.5722221941997608,0.12987978917857002
-0.1697262078523636,0.01330848503857851,-127.42174530029297,0.501917809045149,0.5746886873410807,0.5722221941997608,0.12987978917857002
-0.17605754733085632,0.007253481075167656,-127.42162322998047,0.501917809045149,0.5746886873410807,0.5722221941997608,0.12987978917857002
-0.18145528435707092,0.011860226280987263,-127.42240905761719,0.501917809045149,0.5746886873410807,0.5722221941997608,0.12987978917857002
-0.17359659075737,0.022151939570903778,-127.4227294921875,0.501917809045149,0.5746886873410807,0.5722221941997608,0.12987978917857002
-0.1770344227552414,0.028529884293675423,-127.42280578613281,0.501917809045149,0.5746886873410807,0.5722221941997608,0.12987978917857002
-0.18215632438659668,0.00772453099489212,-127.42202758789062,0.501917809045149,0.5746886873410807,0.5722221941997608,0.12987978917857002
-0.17341037094593048,0.009752980433404446,-127.42264556884766,0.501917809045149,0.5746886873410807,0.5722221941997608,0.12987978917857002
-0.16718637943267822,0.016087543219327927,-127.42264556884766,0.501917809045149,0.5746886873410807,0.5722221941997608,0.12987978917857002
-0.17814935743808746,0.019431957975029945,-127.4223403930664,0.501917809045149,0.5746886873410807,0.5722221941997608,0.12987978917857002
-0.18226897716522217,0.015816600993275642,-127.42190551757812,0.501917809045149,0.5746886873410807,0.5722221941997608,0.12987978917857002
-0.18075507879257202,0.024393144994974136,-127.41981506347656,0.501917809045149,0.5746886873410807,0.5722221941997608,0.12987978917857002
-0.1815744787454605,0.02506670542061329,-127.41925811767578,0.501917809045149,0.5746886873410807,0.5722221941997608,0.12987978917857002
-0.17215929925441742,0.018253838643431664,-127.4190673828125,0.501917809045149,0.5746886873410807,0.5722221941997608,0.12987978917857002
-0.1633058339357376,0.027132879942655563,-127.4189453125,0.501917809045149,0.5746886873410807,0.5722221941997608,0.12987978917857002
-0.1795985847711563,0.011941005475819111,-127.41941833496094,0.501917809045149,0.5746886873410807,0.5722221941997608,0.12987978917857002
-0.1673475056886673,0.01852627657353878,-127.42181396484375,0.501917809045149,0.5746886873410807,0.5722221941997608,0.12987978917857002
-0.17137737572193146,0.017035983502864838,-127.4215087890625,0.501917809045149,0.5746886873410807,0.5722221941997608,0.12987978917857002
-0.16985955834388733,0.001486067776568234,-127.42074584960938,0.501917809045149,0.5746886873410807,0.5722221941997608,0.12987978917857002
-0.16238361597061157,0.003633196000009775,-127.41974639892578,0.501917809045149,0.5746886873410807,0.5722221941997608,0.12987978917857002
-0.1673939973115921,0.01787039451301098,-127.41857147216797,0.501917809045149,0.5746886873410807,0.5722221941997608,0.12987978917857002
-0.18431875109672546,0.03091052919626236,-127.41864013671875,0.501917809045149,0.5746886873410807,0.5722221941997608,0.12987978917857002
-0.16988162696361542,0.012342402711510658,-127.41934967041016,0.501917809045149,0.5746886873410807,0.5722221941997608,0.12987978917857002
-0.1751539409160614,0,-127.41934967041016,0.5114308848118201,0.5768542076053562,0.5693468978007635,0.12998264253449926
-0.1915246546268463,-0.07902210205793381,-127.41983032226562,0.520894535983809,0.5790150973349549,0.566291242837906,0.1293241250173498
-0.4074873626232147,-0.2958589494228363,-127.41039276123047,0.5302911253076873,0.5811444660122246,0.5612994760274889,0.12620011625501004
-1.990907907485962,-1.1603233814239502,-127.34201049804688,0.5394795613477212,0.5831466775101659,0.541312848776579,0.11406526349795348
-1.6432743072509766,-2.9599006175994873,-127.3215560913086,0.5482490683957519,0.5847616385685329,0.5110279969871045,0.0797300635060915
-1.0053507089614868,-1.2249469757080078,-127.18208312988281,0.5565822693860778,0.5857998585440992,0.4889561218520007,0.04485633356186238
-0.6182675361633301,-1.4432975053787231,-126.9901123046875,0.5646187868165886,0.5863621693478326,0.4754259698092939,0.022620962886139625
-0.7551584243774414,-1.7879968881607056,-126.74166107177734,0.5724471761772615,0.5865147899519391,0.4639807534714542,-0.004306490393355615
-1.4493175745010376,-0.7525503039360046,-126.59881591796875,0.5800271001240859,0.5862665882237098,0.44561012014746687,-0.025477716994161532
-1.489059567451477,-1.0494143962860107,-126.4389877319336,0.5872498814916859,0.585716823169625,0.4211236439645292,-0.04049408949601166
-0.4651423692703247,-0.5742447972297668,-126.48308563232422,0.5941329004232668,0.584929167567364,0.4048386278251809,-0.054024582775309804
-1.306321382522583,-0.49319976568222046,-126.6020278930664,0.6007571925709231,0.5839546297597955,0.39007642989357333,-0.0629199541329097
0.0852225124835968,-0.919679582118988,-126.59937286376953,0.6071736678698411,0.5828078472362053,0.37990060597658176,-0.07469394869791977
-1.5771749019622803,-0.8753538131713867,-126.65233612060547,0.6134017368312925,0.5814382929943448,0.36746766939759273,-0.08965256032533957
-0.39951783418655396,-0.9583165049552917,-126.69670104980469,0.6193889276590199,0.5798167454390526,0.3509952299296858,-0.10493314630972855
-1.0906920433044434,-0.5850782990455627,-126.78192138671875,0.6251353613608,0.5779606794725015,0.3385768142839275,-0.11779476967640234
0,-1.3428831100463867,-126.76720428466797,0.6307025657625248,0.5758635471022634,0.32948771392305715,-0.13386111475216858
-1.0030992031097412,0,-126.79951477050781,0.6361243679943598,0.5735392727515296,0.3211285538971426,-0.14505180733588846
-0.8502141237258911,-1.2258211374282837,-126.95342254638672,0.6413478082449485,0.5710366161613878,0.30568427617351235,-0.15526698348112417
-0.3925766348838806,0.29246288537979126,-127.00750732421875,0.6463562412673813,0.5683840165580879,0.29532768651843094,-0.16304496891486162
-0.6780008673667908,-1.3479218482971191,-127.08867645263672,0.6512040237161434,0.5655933046481931,0.2864062073330087,-0.17184046027250602
-1.2949241399765015,0.6780758500099182,-127.14518737792969,0.6558404518239613,0.5626827798937704,0.26996516560514794,-0.1774225102582327
-0.1924632340669632,-0.8811445832252502,-127.10713195800781,0.6602365804608497,0.559711636060771,0.2575702708214524,-0.1791147497016938
0,0,-127.06327819824219,0.6645160528055081,0.5566651996363522,0.25596641053756103,-0.1864576212285709
-0.32930997014045715,-0.832014799118042,-127.05838012695312,0.6687592908998743,0.5534997938103817,0.25322216078639054,-0.19339107788788792
-0.7580326795578003,-0.6143030524253845,-127.07122802734375,0.6729041503400851,0.5501761704392264,0.24416097203890505,-0.2054437266507498
0.24934805929660797,-1.2937335968017578,-127.12042236328125,0.6769381745532154,0.5466196057832954,0.23992193353672844,-0.221344032060976
0.5977664589881897,0.9384776949882507,-127.2215805053711,0.6809957008425973,0.542905868033542,0.24698122118910176,-0.2243044979094219
-1.5833826065063477,1.864442229270935,-127.36861419677734,0.6850436089632824,0.5393621069520141,0.2387677532931171,-0.20094683187392867
-0.1529642790555954,-1.7424499988555908,-127.46202850341797,0.688902491873337,0.5360214647701164,0.22429819591343425,-0.1999302299538008
-0.8784582018852234,-0.9692639112472534,-127.5316162109375,0.6925691685773844,0.5325009808049069,0.21570300857226077,-0.22252784587132451
-0.5855038166046143,-0.6612008810043335,-127.41790771484375,0.6960625546911936,0.528678956652034,0.20350332508484545,-0.23611505247342107
-0.34898361563682556,-0.2984493374824524,-127.28678131103516,0.6993893818153687,0.5246770634011932,0.19571592981616678,-0.24411213762747763
0,-1.0465419292449951,-127.31330871582031,0.7026270790056633,0.5205151256027681,0.19280773301919324,-0.2553203981835397
-1.102588415145874,0.46725285053253174,-127.65313720703125,0.7057639725827092,0.5162195572247985,0.18361949622631096,-0.2601478071728102
-0.41727280616760254,0.7446179986000061,-127.87972259521484,0.7087187516016676,0.5119679181364414,0.17095398604869866,-0.25004888343003906
0.9778566360473633,-0.21072858572006226,-128.02674865722656,0.7116069141351098,0.507837512399613,0.17562551796436332,-0.24559980498937287
0.7222487330436707,0.2544843256473541,-127.97884368896484,0.7146520689740361,0.5037472209095072,0.1897930627067886,-0.2452351738233121
-2.1475162506103516,-0.08135349303483963,-127.84963989257812,0.7177163097748738,0.499671990986939,0.17791583339373293,-0.2437924168848745
0.42604976892471313,-0.45312172174453735,-127.76708984375,0.7205620273813189,0.49557166770449806,0.16357027937968593,-0.24824637700803598
-0.8116631507873535,0.3088241517543793,-127.8807144165039,0.7232614199972399,0.4914242074231148,0.1603568345308306,-0.24944885675795397
-0.07316504418849945,-0.5098819732666016,-127.97221374511719,0.7258725875036582,0.48725276412843277,0.15298326623936517,-0.25112433860388916
-0.5860024690628052,0,-127.9621353149414,0.7283765330858941,0.48303195001466886,0.14749020362893764,-0.25537335504777753
-0.9369191527366638,0.3764600455760956,-127.85853576660156,0.7307289447004182,0.4788018704892598,0.13479919011394206,-0.2522361880013101
1.0265593528747559,-0.3322378098964691,-127.86253356933594,0.7329818228828824,0.4746010050111602,0.1355461917817595,-0.25186766937064653
-0.24928651750087738,-0.15238551795482635,-128.0048065185547,0.7352949033594793,0.470369556123882,0.14202346540987515,-0.25590619710274065
-0.6316204071044922,0.0654161125421524,-128.0780487060547,0.7376007870243241,0.46609841329679375,0.13468257437149708,-0.25663094214784626
-0.316374808549881,0.7031002044677734,-128.03407287597656,0.7397796635960953,0.46187460011634424,0.12678261424104398,-0.25022663950609686
-0.23443740606307983,0.35742560029029846,-127.85357666015625,0.7418544563185423,0.4577778037499064,0.12219251245260264,-0.24138892446644628
-0.08781468123197556,-1.7118674516677856,-127.74861907958984,0.743868619575579,0.4536605965468977,0.11950707839181052,-0.252675939894592
-0.23743857443332672,0,-127.7894287109375,0.7458378171837992,0.44933045119784426,0.11679663459459967,-0.2669415019918236
1.569171667098999,-0.5192973613739014,-127.84117126464844,0.7478769092251443,0.44484536384788514,0.1278944103668136,-0.27126898000327276
-0.95245361328125,0.9989652037620544,-128.0033721923828,0.7500513103738841,0.4403575244479964,0.1330337274819615,-0.2672717479833715
-0.4471646547317505,-0.29557567834854126,-128.10455322265625,0.7521713434521936,0.4359518418097606,0.12137024191518649,-0.26141016860492555
-0.6562393307685852,-0.902527928352356,-128.15184020996094,0.7541175555406758,0.43151180402699096,0.11217520870268369,-0.27139436532743305
0,0.5538733601570129,-128.1177978515625,0.7559415701766394,0.42696435248207576,0.10670654761294548,-0.27429982006239423
-0.5908083915710449,0.11153207719326019,-127.9906005859375,0.7576789842763294,0.4224388975252963,0.10178314434985344,-0.26875477475114196
0.5088105201721191,-0.6660162806510925,-128.17994689941406,0.7593696757188687,0.41792114543198156,0.1010998287548624,-0.2733754764466239
-1.0895262956619263,1.0502010583877563,-128.48590087890625,0.761014345380374,0.4133915669896584,0.09626053062578067,-0.2701739366321517
-0.18425357341766357,0.17734050750732422,-128.76182556152344,0.7625302306221177,0.40897391398786526,0.08564569838345076,-0.25994442358302605
0.5000289082527161,0,-128.94509887695312,0.7639795877712053,0.4046538222411695,0.0882771595070762,-0.258466586020465
-1.2308375835418701,0.5254349112510681,-129.04014587402344,0.7654001231605393,0.40038253434299864,0.08218708721299992,-0.25408796176003945
0.06339597702026367,-0.4619785249233246,-128.9939727783203,0.7666888356136364,0.3961521416738263,0.07245840715865319,-0.2535591585406416
-0.5324292778968811,-0.19340460002422333,-129.06480407714844,0.767863903975942,0.39188064298113867,0.06854979631801471,-0.25902068458187116
0.10469402372837067,-0.2901627719402313,-129.23500061035156,0.7689766967441471,0.3875300505039433,0.06498533586661046,-0.263050412681575
0.22535713016986847,1.4516360759735107,-129.38690185546875,0.7700827058942781,0.383226534827586,0.06773576214909578,-0.25337146848129766
-0.616926908493042,-0.32732072472572327,-129.51907348632812,0.7711844429177128,0.37908175447451214,0.06447268066306934,-0.2440021738875661
0.6475017070770264,-0.813599169254303,-129.62779235839844,0.7722611108453323,0.374935821028193,0.06472747065126921,-0.253509839670733
-0.820518434047699,0.7158383727073669,-129.68214416503906,0.7733278869723694,0.37070386808947614,0.06328566459318027,-0.2543245129752908
0.2923232614994049,-0.43325430154800415,-129.68971252441406,0.7743459678286065,0.3664847501003851,0.058884038155277825,-0.25196964571562946
-0.13160349428653717,0.8066978454589844,-129.6249237060547,0.7753385295594731,0.3623111895845629,0.06022336954871839,-0.24885761618303795
-0.7153375744819641,-0.8715637922286987,-129.43040466308594,0.7762834370332873,0.35815905806854215,0.05316552730898088,-0.24939816573945223
-0.31402018666267395,0,-129.3016815185547,0.7770980459772464,0.3539418967095354,0.044587545966108894,-0.25666119734135806
1.3033217191696167,0,-129.29782104492188,0.7779098732386612,0.34966421008717946,0.05283172540366675,-0.25666119734135806
-0.41308513283729553,0.558342695236206,-129.32733154296875,0.778852223980551,0.3454252972631038,0.06025036362310276,-0.252008341547723
-0.06254050135612488,-0.688550591468811,-129.36788940429688,0.7798233671496726,0.34121611602229224,0.05628681667149092,-0.2530934073496614
-0.816649317741394,-0.93073970079422,-129.3662567138672,0.7807004259123157,0.33688544185172403,0.04896023484567826,-0.26658749311852
-1.2037060260772705,1.2413806915283203,-129.2613525390625,0.7813761273719785,0.3324638892574386,0.032123940313856056,-0.2639988181957358
0.5835745334625244,0.46081480383872986,-129.22183227539062,0.7818684616902223,0.3281821169746879,0.026956177875399837,-0.2498138557343437
0.16854813694953918,-2.216329336166382,-129.2633056640625,0.7823699620624798,0.3238966419810372,0.033223866795500365,-0.2644431435037408
-0.13176020979881287,2.1645820140838623,-129.55955505371094,0.7829262478929013,0.31948566269194134,0.03353043285508975,-0.2648743711877618
-0.3804985284805298,-0.5206886529922485,-129.74440002441406,0.7834495149169945,0.3151852490999989,0.029261610036095224,-0.2511752598453317
0.9682348966598511,0.1671167016029358,-129.78358459472656,0.7839780234431641,0.310974441161508,0.034159413104256235,-0.25412169277357594
-1.0088202953338623,0.640586256980896,-129.74276733398438,0.7845445285644382,0.30679517009851676,0.033821201448639475,-0.24739083478537735
-0.598837673664093,-0.7698408961296082,-129.6830291748047,0.7849965723407352,0.3026630135021529,0.020424051706989847,-0.2484679567782833
-0.34571996331214905,0.7290316224098206,-129.76034545898438,0.7852713789221728,0.2985190469118399,0.012552738065521164,-0.2488080340592815
0.5442792177200317,0.09654572606086731,-129.87295532226562,0.7854943800603765,0.29442957810449566,0.014207398518920186,-0.24192822282202578
0,1.1083744764328003,-129.9994659423828,0.7857689672035891,0.29048111607152394,0.01874305866658712,-0.23188722113457855
-0.2290439009666443,-0.69928377866745,-130.0994415283203,0.7857689672035891,0.29048111607152394,0.01874305866658712,-0.23188722113457855
0.6324882507324219,-0.5834953188896179,-130.15582275390625,0.7857689672035891,0.29048111607152394,0.01874305866658712,-0.23188722113457855
-1.1559339761734009,0.8115839958190918,-130.0697479248047,0.7857689672035891,0.29048111607152394,0.01874305866658712,-0.23188722113457855
1.2499533891677856,1.2057396173477173,-130.1357421875,0.7857689672035891,0.29048111607152394,0.01874305866658712,-0.23188722113457855
2.0263304710388184,2.4405858516693115,-130.5861053466797,0.7857689672035891,0.29048111607152394,0.01874305866658712,-0.23188722113457855
0.3852132260799408,1.0786534547805786,-131.34730529785156,0.7857689672035891,0.29048111607152394,0.01874305866658712,-0.23188722113457855
1.3986177444458008,1.9414424896240234,-132.29652404785156,0.7857689672035891,0.29048111607152394,0.01874305866658712,-0.23188722113457855
1.3480980396270752,2.4241721630096436,-133.4850311279297,0.7857689672035891,0.29048111607152394,0.01874305866658712,-0.23188722113457855
1.4787269830703735,1.7925729751586914,-134.86813354492188,0.7857689672035891,0.29048111607152394,0.01874305866658712,-0.23188722113457855
1.1706424951553345,1.8907217979431152,-136.5380859375,0.7857689672035891,0.29048111607152394,0.01874305866658712,-0.23188722113457855
0.6456000208854675,0.8015326857566833,-138.38392639160156,0.7857689672035891,0.29048111607152394,0.01874305866658712,-0.23188722113457855
0.06141076982021332,1.3192496299743652,-140.3611297607422,0.7857689672035891,0.29048111607152394,0.01874305866658712,-0.23188722113457855
0.7015004754066467,1.9459941387176514,-142.49424743652344,0.7857689672035891,0.29048111607152394,0.01874305866658712,-0.23188722113457855
0.9087644219398499,1.0340805053710938,-144.7730712890625,0.7857689672035891,0.29048111607152394,0.01874305866658712,-0.23188722113457855
1.3393030166625977,0.9887417554855347,-147.06283569335938,0.7857689672035891,0.29048111607152394,0.01874305866658712,-0.23188722113457855
-0.5461483001708984,1.641044020652771,-149.3848876953125,0.7857689672035891,0.29048111607152394,0.01874305866658712,-0.23188722113457855
1.6762189865112305,1.3011540174484253,-151.7580108642578,0.7857689672035891,0.29048111607152394,0.01874305866658712,-0.23188722113457855
-1.380961298942566,1.7968826293945312,-154.21266174316406,0.7857689672035891,0.29048111607152394,0.01874305866658712,-0.23188722113457855
2.1782193183898926,-1.0061559677124023,-156.6671905517578,0.7857689672035891,0.29048111607152394,0.01874305866658712,-0.23188722113457855
-0.29823869466781616,1.3520501852035522,-159.15989685058594,0.7857689672035891,0.29048111607152394,0.01874305866658712,-0.23188722113457855
-0.238763689994812,2.0622498989105225,-161.71653747558594,0.7857689672035891,0.29048111607152394,0.01874305866658712,-0.23188722113457855
0.5476099252700806,0.3602800667285919,-164.33584594726562,0.7857689672035891,0.29048111607152394,0.01874305866658712,-0.23188722113457855
0.28022509813308716,2.022655725479126,-166.95797729492188,0.7857689672035891,0.29048111607152394,0.01874305866658712,-0.23188722113457855
0.9347711205482483,-0.0015582615742459893,-169.600341796875,0.7857689672035891,0.29048111607152394,0.01874305866658712,-0.23188722113457855
0.9884940981864929,0.17677494883537292,-172.28468322753906,0.7857689672035891,0.29048111607152394,0.01874305866658712,-0.23188722113457855
-0.9396811127662659,1.1114760637283325,-174.95697021484375,0.7857689672035891,0.29048111607152394,0.01874305866658712,-0.23188722113457855
                                                                                                                                                                                                                                                                                                                                                                                                                                                                                                                                                                                                                                                                                                                                                                                                                                                                                                                                                                                                                                                                                                                                                                                                                                                                                                                                                                                                                                                                                                                                                                                                                                                                                                                                                                                                                                                                                                                                                                                                                                                                                                                                                                                                                                                                                                                                                                                                                                                                                                                                                                                                                                                                                                                                                                                                                                                                                                                                                                                                                                                                                                                                                                                                                                                                                                                                                                                                                                                                                                                                                                                                                                                                                                                                                                                                                                                                                                                                                                                                                                          