faccX,faccY,yaw,posX,posY,velX,velY
0,0,-85.29334259033203,0.0,0.0,0.0,0.0
0,0,-85.29354858398438,0.0,0.0,0.0,0.0
0,0,-85.29308319091797,0.0,0.0,0.0,0.0
0,-0.3949632942676544,-85.30751037597656,0.0,-2.742800654636489e-05,0.0,-0.003291360785563787
0.8131091594696045,-2.2686703205108643,-85.22710418701172,5.6465913852055866e-05,-0.00026725857622093624,0.006775909662246704,-0.025488307575384776
0.4914412200450897,-1.9610923528671265,-85.12366485595703,0.0002599915179113547,-0.0009857972214619318,0.017647162824869153,-0.0607363298535347
-0.5887132287025452,-1.2959433794021606,-85.16120910644531,0.0005473558977246284,-0.002224252422650655,0.016836562752723692,-0.08787829428911209
0,-1.4918303489685059,-85.1910171508789,0.0007870824138323465,-0.0038824860586060416,0.011930619180202481,-0.11110974202553431
0.4521203637123108,-2.020582675933838,-85.28691101074219,0.0010173233143157428,-0.0059782326635387205,0.01569828887780507,-0.1403798505663872
0.2579406201839447,-1.706426978111267,-85.3422622680664,0.0013282712528275118,-0.008576716954509418,0.021615463743607198,-0.1714382643500964
-0.2756631672382355,-1.2476577758789062,-85.33926391601562,0.001687298249453306,-0.011639166134927008,0.021467775851488107,-0.19605563730001452
0.3643431067466736,-1.3399463891983032,-85.25717163085938,0.002051252842777305,-0.015086454823613166,0.02220677534739176,-0.2176190053423246
0.28320780396461487,-1.449511170387268,-85.1886215209961,0.002466334578477674,-0.01890715057651202,0.027603032936652498,-0.2408644850055377
-0.7101587653160095,-1.0413434505462646,-85.14662170410156,0.002896735755105813,-0.023094534675280255,0.02404510825872421,-0.2616216068466505
1.1185824871063232,-0.9485548734664917,-85.07798767089844,0.003325850317875544,-0.027593082173003092,0.027448639273643494,-0.2782040928800901
1.6716582775115967,-0.5325364470481873,-85.01800537109375,0.0039770943588680685,-0.03233267061826256,0.050700645645459494,-0.2905465205510458
-2.2712361812591553,-0.12322952598333359,-85.21563720703125,0.004780467765198813,-0.0372206519311294,0.04570416311422984,-0.29601123699297516
-0.42991572618484497,-1.42549729347229,-85.23421478271484,0.005354623823530144,-0.04226172302125229,0.02319456388552984,-0.308917293821772
1.2003835439682007,0.2060583531856537,-85.23623657226562,0.005794704597857263,-0.04749502784469062,0.029615129033724468,-0.3190792849908273
-0.6302201747894287,-1.2317619323730469,-85.38568115234375,0.006327884760167863,-0.05288424534309242,0.034366490443547566,-0.3276268148173889
0.17266686260700226,0.13568079471588135,-85.41606903076172,0.0068688850653254325,-0.058420809002386206,0.030553546175360678,-0.3367608242978653
0.6420741677284241,-1.6985461711883545,-85.36426544189453,0.007434690073132515,-0.06414202172516122,0.03734305476148923,-0.34978470243513593
0.20675575733184814,-1.4288239479064941,-85.25129699707031,0.008116020841730964,-0.07018894524623952,0.044416637470324837,-0.37584612009425966
0.053575851023197174,-0.3688846230506897,-85.0838623046875,0.00887437671681659,-0.07657788812079365,0.04658606753995021,-0.3908270248522362
-0.45297563076019287,0,-85.09371948242188,0.009623075080000692,-0.08311728885604278,0.04325773604214191,-0.3939010633776586
-0.6074322462081909,-0.4801713228225708,-85.16596984863281,0.010270397911469142,-0.08971565180975533,0.034421003734072045,-0.3979024910678467
0.8050148487091064,-0.40006890892982483,-85.09077453613281,0.010857802321099574,-0.09640848778809114,0.03606752542157968,-0.40523782633245
-0.22373975813388824,-0.16279694437980652,-85.00080871582031,0.011499294070526958,-0.10320153946677847,0.0409114845097065,-0.4099283751100302
0.07563399523496628,-0.4957515597343445,-85.06417846679688,0.012170867023265197,-0.11007941158695357,0.03967726981888215,-0.41541627931098146
0.6187118291854858,-0.951361894607544,-85.11602020263672,0.012880373313609098,-0.11710351023202145,0.04546348502238592,-0.42747555809716387
-0.21517692506313324,0,-85.21028900146484,0.013666121321212915,-0.12429416966521081,0.04882627589007219,-0.43540357388556006
-1.0922060012817383,0.08864432573318481,-85.3673324584961,0.014389102105051281,-0.13154474004068312,0.0379314181705316,-0.43466487117111685
1.4463105201721191,0.22654344141483307,-85.51227569580078,0.015045882999483083,-0.13876726652081645,0.04088228916128477,-0.4320383064448834
-1.8968971967697144,-1.3140418529510498,-85.52973175048828,0.015695963744074108,-0.14604342568458786,0.03712740018963814,-0.4411007932076852
0.8339106440544128,0,-85.44625091552734,0.016240935236629516,-0.15348635847783754,0.028269178917010633,-0.45205114198227725
0.40144088864326477,0.13377052545547485,-85.39795684814453,0.016797876519461477,-0.16101125455771886,0.03856377502282461,-0.45093638760348165
0.3314359486103058,-0.7670055627822876,-85.45587158203125,0.017491500327984497,-0.16857083567314682,0.0446710819999377,-0.45621334624787174
0,-0.17284445464611053,-85.53982543945312,0.018259034746636954,-0.1762396588062661,0.047433048238356916,-0.46404542972644175
0.42719578742980957,-0.8171446323394775,-85.71867370605469,0.01907925192473664,-0.18404249854385857,0.05099301313360533,-0.47229533878465496
0.08316554129123688,-0.3359141945838928,-85.87919616699219,0.019964577235902357,-0.19199416105325026,0.05524602420628072,-0.48190416234234973
-0.6974444389343262,0.16714797914028168,-85.97894287109375,0.020842686049226265,-0.2000376169683619,0.05012703339258831,-0.4833105474710465
0.05853438749909401,0.2638564109802246,-86.06183624267578,0.021633767852197512,-0.20806286189912096,0.044802782963961375,-0.4797188442200423
-0.3805908262729645,-0.4387236535549164,-86.06426239013672,0.02235811587112646,-0.21607031952796713,0.042118979307512454,-0.4811760712414981
1.3363854885101318,0.4866541922092438,-85.97105407714844,0.023126473488907028,-0.22408659220569666,0.050083934826155516,-0.48077665008604537
0.08530470728874207,-0.6139771938323975,-85.90274047851562,0.024059934221828987,-0.23210837824891012,0.06193135312447946,-0.48183767509957165
-1.2938123941421509,0.9051419496536255,-86.01776885986328,0.025008199295649937,-0.2401187863925265,0.05186045573403439,-0.47941130213439476
-0.16167323291301727,-0.524970293045044,-86.10882568359375,0.02577146483378279,-0.24808257395194638,0.039731408841907984,-0.47624320499598993
0.08018860220909119,-0.17315331101417542,-86.1900634765625,0.026427996326237928,-0.256068441507717,0.0390523702527086,-0.4820609016964834
0.7102174162864685,-0.6386309266090393,-86.19408416748047,0.02713375847062304,-0.2641591637747156,0.04563908707350493,-0.4888257703433435
-0.2519885301589966,-0.06003236770629883,-86.06140899658203,0.027926231372273642,-0.2723547782314321,0.0494576611245672,-0.494647964462638
0.450916051864624,-0.5304636359214783,-86.02082824707031,0.028764340135579318,-0.28063991763939466,0.051115390472114094,-0.49956876449286947
-1.351921558380127,0.25826436281204224,-86.11841583251953,0.029553693483273198,-0.28898496644157506,0.04360701125115157,-0.5018370917687814
0.568868100643158,0.4534437358379364,-86.14295196533203,0.03022609829178288,-0.2972994937975374,0.037081565770010164,-0.4959061909466983
0.1790909767150879,0,-86.12811279296875,0.030896065990544036,-0.30553310783166027,0.04331455808132888,-0.4921274931480488
0.3190578520298004,-0.7783262133598328,-86.16485595703125,0.03165256896056236,-0.3137892831489444,0.04746579832086961,-0.4986135449260474
-0.7358883619308472,0.5788516998291016,-86.38445281982422,0.032414719036055945,-0.3221133612944848,0.04399221073836089,-0.5002758325388035
-0.6285454630851746,-0.767915666103363,-86.62574768066406,0.033053170199402515,-0.3304644212789006,0.03262192886322737,-0.501851365591089
1.6222182512283325,0.3280397057533264,-86.78246307373047,0.033665874068521805,-0.3388591576471097,0.040902535431087024,-0.505516998594006
-1.49129056930542,-0.4509339928627014,-86.81266021728516,0.03435667519250679,-0.3472929752825035,0.0419935994471113,-0.5065411176532508
-0.6925546526908875,0.5100186467170715,-86.7143783569336,0.03490491259843113,-0.3557312241424289,0.02379488926380874,-0.5060487455377978
1.12706458568573,0,-86.67552185058594,0.03533166838706369,-0.3641299519398146,0.027415805372099093,-0.5017985901484888
0,0.12184429168701172,-86.75556945800781,0.035866866850604626,-0.37248480036647785,0.03680801025281351,-0.5007832210510971
0.39458391070365906,-0.22583481669425964,-86.9142074584961,0.03650773534861705,-0.38083840894823273,0.04009620950867733,-0.5016498087594908
0.6236335635185242,0.36036890745162964,-87.05016326904297,0.03724671505391599,-0.38918989644903274,0.048581355127195525,-0.5005286913365128
-0.35038629174232483,0.09472165256738663,-87.03497314453125,0.038075379811020375,-0.39750043779352884,0.05085841572533052,-0.496736270003021
0,-0.20654550194740295,-86.96776580810547,0.038898687691738223,-0.40578714117200837,0.047938529960811146,-0.49766813541452115
-0.8240783214569092,-0.3133004307746887,-86.92849731445312,0.038898687691738223,-0.40578714117200837,0.047938529960811146,-0.49766813541452115
0.8005691766738892,0.2223242223262787,-86.76569366455078,0.038898687691738223,-0.40578714117200837,0.047938529960811146,-0.49766813541452115
-0.9650586247444153,0.10429686307907104,-86.6050033569336,0.038898687691738223,-0.40578714117200837,0.047938529960811146,-0.49766813541452115
0.3724746108055115,1.4304293394088745,-86.59819030761719,0.038898687691738223,-0.40578714117200837,0.047938529960811146,-0.49766813541452115
-0.8497748374938965,1.8680880069732666,-86.94184112548828,0.038898687691738223,-0.40578714117200837,0.047938529960811146,-0.49766813541452115
0.6526600122451782,2.0411291122436523,-87.69757080078125,0.038898687691738223,-0.40578714117200837,0.047938529960811146,-0.49766813541452115
-0.8985359072685242,2.6518218517303467,-88.6508560180664,0.038898687691738223,-0.40578714117200837,0.047938529960811146,-0.49766813541452115
-0.8856654167175293,2.4030966758728027,-89.79078674316406,0.038898687691738223,-0.40578714117200837,0.047938529960811146,-0.49766813541452115
-0.5905051231384277,1.723075032234192,-91.12506866455078,0.038898687691738223,-0.40578714117200837,0.047938529960811146,-0.49766813541452115
-1.054724931716919,1.9515868425369263,-92.58030700683594,0.038898687691738223,-0.40578714117200837,0.047938529960811146,-0.49766813541452115
0.19130700826644897,2.3905563354492188,-94.10064697265625,0.038898687691738223,-0.40578714117200837,0.047938529960811146,-0.49766813541452115
-0.8755298256874084,0.7601346969604492,-95.64553833007812,0.038898687691738223,-0.40578714117200837,0.047938529960811146,-0.49766813541452115
0.6645732522010803,1.947305679321289,-97.16426849365234,0.038898687691738223,-0.40578714117200837,0.047938529960811146,-0.49766813541452115
-0.831690788269043,1.2719030380249023,-98.6227035522461,0.038898687691738223,-0.40578714117200837,0.047938529960811146,-0.49766813541452115
0.6572261452674866,0.6486538052558899,-100.1120834350586,0.038898687691738223,-0.40578714117200837,0.047938529960811146,-0.49766813541452115
0.235637366771698,1.1819877624511719,-101.52533721923828,0.038898687691738223,-0.40578714117200837,0.047938529960811146,-0.49766813541452115
-1.7427996397018433,0.63548344373703,-102.88420867919922,0.038898687691738223,-0.40578714117200837,0.047938529960811146,-0.49766813541452115
-0.3848959803581238,0.776205837726593,-104.22216796875,0.038898687691738223,-0.40578714117200837,0.047938529960811146,-0.49766813541452115
-1.1835824251174927,1.858742356300354,-105.6507568359375,0.038898687691738223,-0.40578714117200837,0.047938529960811146,-0.49766813541452115
-0.34477874636650085,0.009479771368205547,-107.04198455810547,0.038898687691738223,-0.40578714117200837,0.047938529960811146,-0.49766813541452115
0.9082716107368469,1.3645966053009033,-108.47052764892578,0.038898687691738223,-0.40578714117200837,0.047938529960811146,-0.49766813541452115
-1.7648944854736328,0.7968865633010864,-109.81771850585938,0.038898687691738223,-0.40578714117200837,0.047938529960811146,-0.49766813541452115
-0.2043142020702362,0.2010689526796341,-111.2174301147461,0.038898687691738223,-0.40578714117200837,0.047938529960811146,-0.49766813541452115
-0.3792579472064972,0.9393979907035828,-112.71861267089844,0.038898687691738223,-0.40578714117200837,0.047938529960811146,-0.49766813541452115
0.28995415568351746,1.0239226818084717,-114.26600646972656,0.038898687691738223,-0.40578714117200837,0.047938529960811146,-0.49766813541452115
-1.1114975214004517,1.1708401441574097,-115.89593505859375,0.038898687691738223,-0.40578714117200837,0.047938529960811146,-0.49766813541452115
0.5795906782150269,0.7302571535110474,-117.59960174560547,0.038898687691738223,-0.40578714117200837,0.047938529960811146,-0.49766813541452115
-0.021730029955506325,0.8883163332939148,-119.52262878417969,0.038898687691738223,-0.40578714117200837,0.047938529960811146,-0.49766813541452115
1.0572986602783203,1.3468618392944336,-121.60908508300781,0.038898687691738223,-0.40578714117200837,0.047938529960811146,-0.49766813541452115
-0.42900824546813965,0.11824927479028702,-123.75729370117188,0.038898687691738223,-0.40578714117200837,0.047938529960811146,-0.49766813541452115
0.7134767770767212,0.6557869911193848,-125.86146545410156,0.038898687691738223,-0.40578714117200837,0.047938529960811146,-0.49766813541452115
-0.5044351816177368,0.5868474841117859,-127.88936614990234,0.038898687691738223,-0.40578714117200837,0.047938529960811146,-0.49766813541452115
1.9060478210449219,0.7593511939048767,-129.8414306640625,0.038898687691738223,-0.40578714117200837,0.047938529960811146,-0.49766813541452115
-1.3010989427566528,0.3120500147342682,-131.81407165527344,0.038898687691738223,-0.40578714117200837,0.047938529960811146,-0.49766813541452115
3.069753885269165,0.6553849577903748,-133.7320556640625,0.038898687691738223,-0.40578714117200837,0.047938529960811146,-0.49766813541452115
-0.5190024375915527,-0.24266409873962402,-135.72293090820312,0.038898687691738223,-0.40578714117200837,0.047938529960811146,-0.49766813541452115
-1.1053050756454468,0.7282844185829163,-137.8569793701172,0.038898687691738223,-0.40578714117200837,0.047938529960811146,-0.49766813541452115
1.0005261898040771,-0.26284581422805786,-140.09170532226562,0.038898687691738223,-0.40578714117200837,0.047938529960811146,-0.49766813541452115
0.1127181127667427,1.3276339769363403,-142.40086364746094,0.038898687691738223,-0.40578714117200837,0.047938529960811146,-0.49766813541452115
1.8572200536727905,0.208705872297287,-144.82803344726562,0.038898687691738223,-0.40578714117200837,0.047938529960811146,-0.49766813541452115
-0.604479193687439,0.4217604994773865,-147.22044372558594,0.038898687691738223,-0.40578714117200837,0.047938529960811146,-0.49766813541452115
-1.9337891340255737,1.8687832355499268,-149.6307830810547,0.038898687691738223,-0.40578714117200837,0.047938529960811146,-0.49766813541452115
2.902996301651001,-0.933549702167511,-151.99978637695312,0.038898687691738223,-0.40578714117200837,0.047938529960811146,-0.49766813541452115
-1.5761804580688477,1.5528981685638428,-154.31201171875,0.038898687691738223,-0.40578714117200837,0.047938529960811146,-0.49766813541452115
1.0618927478790283,-1.0553510189056396,-156.65232849121094,0.038898687691738223,-0.40578714117200837,0.047938529960811146,-0.49766813541452115
0.7865720987319946,1.1074261665344238,-159.0142364501953,0.038898687691738223,-0.40578714117200837,0.047938529960811146,-0.49766813541452115
-0.3036664128303528,0.5697879195213318,-161.4602508544922,0.038898687691738223,-0.40578714117200837,0.047938529960811146,-0.49766813541452115
0.4231688380241394,-0.4640052616596222,-163.94024658203125,0.038898687691738223,-0.40578714117200837,0.047938529960811146,-0.49766813541452115
0.08275867998600006,0.7450548410415649,-166.4014129638672,0.038898687691738223,-0.40578714117200837,0.047938529960811146,-0.49766813541452115
-0.4933219254016876,0.17599287629127502,-168.9244384765625,0.038898687691738223,-0.40578714117200837,0.047938529960811146,-0.49766813541452115
1.4340053796768188,-0.5185262560844421,-171.4608612060547,0.038898687691738223,-0.40578714117200837,0.047938529960811146,-0.49766813541452115
-1.076431155204773,1.6105284690856934,-174.04981994628906,0.038898687691738223,-0.40578714117200837,0.047938529960811146,-0.49766813541452115
1.9172860383987427,-1.0736160278320312,-176.6235809326172,0.038898687691738223,-0.40578714117200837,0.047938529960811146,-0.49766813541452115
-0.4288383722305298,1.330154538154602,-179.16241455078125,0.038898687691738223,-0.40578714117200837,0.047938529960811146,-0.49766813541452115
0.593947172164917,-1.4556328058242798,178.3066864013672,0.038898687691738223,-0.40578714117200837,0.047938529960811146,-0.49766813541452115
0.22571109235286713,0.7856667041778564,176.07736206054688,0.038898687691738223,-0.40578714117200837,0.047938529960811146,-0.49766813541452115
-0.6756868362426758,-1.1267085075378418,174.25445556640625,0.038898687691738223,-0.40578714117200837,0.047938529960811146,-0.49766813541452115
-0.5820668935775757,-0.6116260886192322,172.85806274414062,0.038898687691738223,-0.40578714117200837,0.047938529960811146,-0.49766813541452115
-0.7074896097183228,-1.4710392951965332,171.77972412109375,0.038898687691738223,-0.40578714117200837,0.047938529960811146,-0.49766813541452115
-0.609724760055542,-1.306388258934021,171.05307006835938,0.038898687691738223,-0.40578714117200837,0.047938529960811146,-0.49766813541452115
-0.7027234435081482,-1.1424564123153687,170.74853515625,0.038898687691738223,-0.40578714117200837,0.047938529960811146,-0.49766813541452115
-0.3795962333679199,-0.6437667608261108,170.83200073242188,0.038898687691738223,-0.40578714117200837,0.047938529960811146,-0.49766813541452115
-0.008993497118353844,0.640656054019928,170.93666076660156,0.038898687691738223,-0.40578714117200837,0.047938529960811146,-0.49766813541452115
-0.12300440669059753,0.2051764726638794,170.89382934570312,0.038898687691738223,-0.40578714117200837,0.047938529960811146,-0.49766813541452115
-0.14278684556484222,0.16594965755939484,170.87086486816406,0.038898687691738223,-0.40578714117200837,0.047938529960811146,-0.49766813541452115
0.06965966522693634,0.31386467814445496,170.90003967285156,0.038898687691738223,-0.40578714117200837,0.047938529960811146,-0.49766813541452115
0.14533363282680511,0.03970087319612503,170.8965606689453,0.038898687691738223,-0.40578714117200837,0.047938529960811146,-0.49766813541452115
0.09838040918111801,0.2867218554019928,170.88050842285156,0.038898687691738223,-0.40578714117200837,0.047938529960811146,-0.49766813541452115
0.040309034287929535,0.21168707311153412,170.89239501953125,0.038898687691738223,-0.40578714117200837,0.047938529960811146,-0.49766813541452115
-0.06154593452811241,0.12633396685123444,170.89051818847656,0.038898687691738223,-0.40578714117200837,0.047938529960811146,-0.49766813541452115
-0.02551765739917755,0.25065678358078003,170.88348388671875,0.038898687691738223,-0.40578714117200837,0.047938529960811146,-0.49766813541452115
0.017535444349050522,0.21049346029758453,170.89236450195312,0.038898687691738223,-0.40578714117200837,0.047938529960811146,-0.49766813541452115
0.0432635173201561,0.1510230153799057,170.8903045654297,0.038898687691738223,-0.40578714117200837,0.047938529960811146,-0.49766813541452115
0.037666331976652145,0.23536749184131622,170.8870849609375,0.038898687691738223,-0.40578714117200837,0.047938529960811146,-0.49766813541452115
-0.0019321311265230179,0.1954178810119629,170.89183044433594,0.038898687691738223,-0.40578714117200837,0.047938529960811146,-0.49766813541452115
-0.017680110409855843,0.19256256520748138,170.88902282714844,0.038898687691738223,-0.40578714117200837,0.047938529960811146,-0.49766813541452115
0.018213585019111633,0.22644636034965515,170.8887939453125,0.038898687691738223,-0.40578714117200837,0.047938529960811146,-0.49766813541452115
0.0364869050681591,0.18216703832149506,170.89157104492188,0.038898687691738223,-0.40578714117200837,0.047938529960811146,-0.49766813541452115
0.012663867324590683,0.20028595626354218,170.8890838623047,0.038898687691738223,-0.40578714117200837,0.047938529960811146,-0.49766813541452115
0.013225683942437172,0.20432232320308685,170.8899383544922,0.038898687691738223,-0.40578714117200837,0.047938529960811146,-0.49766813541452115
-0.0007543767569586635,0.18138566613197327,170.89071655273438,0.038898687691738223,-0.40578714117200837,0.047938529960811146,-0.49766813541452115
0.011578709818422794,0.20146673917770386,170.88906860351562,0.038898687691738223,-0.40578714117200837,0.047938529960811146,-0.49766813541452115
0.020173510536551476,0.2073681503534317,170.8899688720703,0.038898687691738223,-0.40578714117200837,0.047938529960811146,-0.49766813541452115
0.016963614150881767,0.18791189789772034,170.89053344726562,0.038898687691738223,-0.40578714117200837,0.047938529960811146,-0.49766813541452115
0.007846291176974773,0.21207207441329956,170.88973999023438,0.038898687691738223,-0.40578714117200837,0.047938529960811146,-0.49766813541452115
-0.0005966145545244217,0.20001409947872162,170.89146423339844,0.038898687691738223,-0.40578714117200837,0.047938529960811146,-0.49766813541452115
0.016101814806461334,0.19609175622463226,170.89111328125,0.038898687691738223,-0.40578714117200837,0.047938529960811146,-0.49766813541452115
0.014438871294260025,0.1986689567565918,170.89154052734375,0.038898687691738223,-0.40578714117200837,0.047938529960811146,-0.49766813541452115
0.015332978218793869,0.20328274369239807,170.892578125,0.038898687691738223,-0.40578714117200837,0.047938529960811146,-0.49766813541452115
0.01101231761276722,0.19842591881752014,170.89134216308594,0.038898687691738223,-0.40578714117200837,0.047938529960811146,-0.49766813541452115
0.012419630773365498,0.2102125585079193,170.8910675048828,0.038898687691738223,-0.40578714117200837,0.047938529960811146,-0.49766813541452115
0.011190813966095448,0.18890799582004547,170.8909912109375,0.038898687691738223,-0.40578714117200837,0.047938529960811146,-0.49766813541452115
-0.002120218239724636,0.19485951960086823,170.8901824951172,0.038898687691738223,-0.40578714117200837,0.047938529960811146,-0.49766813541452115
0.020197929814457893,0.19096499681472778,170.8895721435547,0.038898687691738223,-0.40578714117200837,0.047938529960811146,-0.49766813541452115
0.01609925366938114,0.18068119883537292,170.88900756835938,0.038898687691738223,-0.40578714117200837,0.047938529960811146,-0.49766813541452115
0.013515550643205643,0.1982734054327011,170.88873291015625,0.038898687691738223,-0.40578714117200837,0.047938529960811146,-0.49766813541452115
0.007550964597612619,0.1901947259902954,170.88804626464844,0.038898687691738223,-0.40578714117200837,0.047938529960811146,-0.49766813541452115
0.01136891357600689,0.19682461023330688,170.88699340820312,0.038898687691738223,-0.40578714117200837,0.047938529960811146,-0.49766813541452115
0.00797067116945982,0.19610901176929474,170.88717651367188,0.038898687691738223,-0.40578714117200837,0.047938529960811146,-0.49766813541452115
0.0017375238239765167,0.2037551999092102,170.8887481689453,0.038898687691738223,-0.40578714117200837,0.047938529960811146,-0.49766813541452115
0.018256032839417458,0.19724667072296143,170.8895263671875,0.038898687691738223,-0.40578714117200837,0.047938529960811146,-0.49766813541452115
0.008942141197621822,0.1967991590499878,170.8893585205078,0.038898687691738223,-0.40578714117200837,0.047938529960811146,-0.49766813541452115
0.021459029987454414,0.19668073952198029,170.8888397216797,0.038898687691738223,-0.40578714117200837,0.047938529960811146,-0.49766813541452115
0.004096606280654669,0.20049579441547394,170.88905334472656,0.038898687691738223,-0.40578714117200837,0.047938529960811146,-0.49766813541452115
0.005435475148260593,0.19382262229919434,170.88809204101562,0.038898687691738223,-0.40578714117200837,0.047938529960811146,-0.49766813541452115
0.007590968161821365,0.18963895738124847,170.8886260986328,0.038898687691738223,-0.40578714117200837,0.047938529960811146,-0.49766813541452115
0.016889281570911407,0.19899383187294006,170.88900756835938,0.038898687691738223,-0.40578714117200837,0.047938529960811146,-0.49766813541452115
0.012456984259188175,0.1904531717300415,170.89002990722656,0.038898687691738223,-0.40578714117200837,0.047938529960811146,-0.49766813541452115
0.015675345435738564,0.19125854969024658,170.8894805908203,0.038898687691738223,-0.40578714117200837,0.047938529960811146,-0.49766813541452115
0.019765689969062805,0.1920785903930664,170.890380859375,0.038898687691738223,-0.40578714117200837,0.047938529960811146,-0.49766813541452115
0.015704168006777763,0.1942359358072281,170.89161682128906,0.038898687691738223,-0.40578714117200837,0.047938529960811146,-0.49766813541452115
0.01714595966041088,0.18827107548713684,170.8916015625,0.038898687691738223,-0.40578714117200837,0.047938529960811146,-0.49766813541452115
0.01101958379149437,0.19238723814487457,170.8916015625,0.038898687691738223,-0.40578714117200837,0.047938529960811146,-0.49766813541452115
0.026321928948163986,0.19663988053798676,170.8914031982422,0.038898687691738223,-0.40578714117200837,0.047938529960811146,-0.49766813541452115
0.015062655322253704,0.18465520441532135,170.89111328125,0.038898687691738223,-0.40578714117200837,0.047938529960811146,-0.49766813541452115
0.006076447665691376,0.19233788549900055,170.89076232910156,0.038898687691738223,-0.40578714117200837,0.047938529960811146,-0.49766813541452115
0.004830287769436836,0.20066703855991364,170.89007568359375,0.038898687691738223,-0.40578714117200837,0.047938529960811146,-0.49766813541452115
0.013208753429353237,0.17986932396888733,170.88990783691406,0.038898687691738223,-0.40578714117200837,0.047938529960811146,-0.49766813541452115
0.011554102413356304,0.19099532067775726,170.89044189453125,0.038898687691738223,-0.40578714117200837,0.047938529960811146,-0.49766813541452115
0.008392787538468838,0.18499144911766052,170.8896026611328,0.038898687691738223,-0.40578714117200837,0.047938529960811146,-0.49766813541452115
0.011016471311450005,0.18173357844352722,170.88973999023438,0.038898687691738223,-0.40578714117200837,0.047938529960811146,-0.49766813541452115
0.014502172358334064,0.2009972780942917,170.88987731933594,0.038898687691738223,-0.40578714117200837,0.047938529960811146,-0.49766813541452115
0.011369438841938972,0.204537034034729,170.8892822265625,0.038898687691738223,-0.40578714117200837,0.047938529960811146,-0.49766813541452115
0.013520841486752033,0.185726135969162,170.8897705078125,0.038898687691738223,-0.40578714117200837,0.047938529960811146,-0.49766813541452115
0.010832881554961205,0.19929811358451843,170.8910369873047,0.038898687691738223,-0.40578714117200837,0.047938529960811146,-0.49766813541452115
0.004867849871516228,0.18270274996757507,170.891357421875,0.038898687691738223,-0.40578714117200837,0.047938529960811146,-0.49766813541452115
0.018427271395921707,0.18541280925273895,170.89199829101562,0.038898687691738223,-0.40578714117200837,0.047938529960811146,-0.49766813541452115
0.027157016098499298,0.17943572998046875,170.89181518554688,0.038898687691738223,-0.40578714117200837,0.047938529960811146,-0.49766813541452115
0.009919721633195877,0.19228339195251465,170.89230346679688,0.038898687691738223,-0.40578714117200837,0.047938529960811146,-0.49766813541452115
0.009902200661599636,0.18139003217220306,170.89247131347656,0.038898687691738223,-0.40578714117200837,0.047938529960811146,-0.49766813541452115
0.00637466087937355,0.17385579645633698,170.89303588867188,0.038898687691738223,-0.40578714117200837,0.047938529960811146,-0.49766813541452115
0.010432188399136066,0.17334775626659393,170.8927764892578,0.038898687691738223,-0.40578714117200837,0.047938529960811146,-0.49766813541452115
0.007177956867963076,0.18357843160629272,170.89231872558594,0.038898687691738223,-0.40578714117200837,0.047938529960811146,-0.49766813541452115
0.004298253450542688,0.17927873134613037,170.8927459716797,0.038898687691738223,-0.40578714117200837,0.047938529960811146,-0.49766813541452115
0.01577368564903736,0.17734842002391815,170.89280700683594,0.038898687691738223,-0.40578714117200837,0.047938529960811146,-0.49766813541452115
0.011819254606962204,0.1678309291601181,170.89434814453125,0.038898687691738223,-0.40578714117200837,0.047938529960811146,-0.49766813541452115
0.0033593319822102785,0.18783649802207947,170.89447021484375,0.038898687691738223,-0.40578714117200837,0.047938529960811146,-0.49766813541452115
0.00654718279838562,0.18254056572914124,170.8948516845703,0.038898687691738223,-0.40578714117200837,0.047938529960811146,-0.49766813541452115
0.017509687691926956,0.1863926649093628,170.89404296875,0.038898687691738223,-0.40578714117200837,0.047938529960811146,-0.49766813541452115
0.007089393213391304,0.1727796345949173,170.89315795898438,0.038898687691738223,-0.40578714117200837,0.047938529960811146,-0.49766813541452115
0.011186184361577034,0.18404386937618256,170.89315795898438,0.038898687691738223,-0.40578714117200837,0.047938529960811146,-0.49766813541452115
0.014052319340407848,0.17837826907634735,170.89276123046875,0.038898687691738223,-0.40578714117200837,0.047938529960811146,-0.49766813541452115
0,0.17498116195201874,170.8931121826172,0.039698639046594826,-0.4140570712462068,0.04805563262198121,-0.49472347348928475
0,0.1737799495458603,170.89407348632812,0.04049956625696118,-0.42227824294939637,0.04805563262198121,-0.49181713089346907
-0.3848458230495453,0.055223412811756134,170.8958282470703,0.04127376806294909,-0.43045929211967937,0.044848584096568334,-0.48990876954048895
-0.8124118447303772,0.8129467368125916,170.86680603027344,0.041938101570962734,-0.43856414868496363,0.03487143686506898,-0.4826740182936194
-2.9738194942474365,0.36756631731987,170.78689575195312,0.04225635945350709,-0.4465267355833203,0.003319509040253868,-0.4728364095091822
-3.530088186264038,0.4640525281429291,170.75555419921875,0.04186002434858692,-0.45434959109976064,-0.050879721630675084,-0.4659062524636589
-0.9519927501678467,0.4819922149181366,170.7561798095703,0.04070077336749012,-0.4620489977558868,-0.0882303961009408,-0.45802254627148337
-1.778894066810608,0.1250341385602951,170.825439453125,0.039040621847962045,-0.4696405522525311,-0.11098778624242792,-0.45296399332582976
-1.8912428617477417,0.05632820725440979,170.86424255371094,0.03693595479054947,-0.4771773575339467,-0.14157226064708084,-0.45145264044404054
-1.4722498655319214,1.1569063663482666,170.97862243652344,0.03434284122925926,-0.4846173158070694,-0.1696013667077447,-0.4413423523306849
-1.2897158861160278,-0.08328132331371307,171.00344848632812,0.03132434860693241,-0.4918984643845923,-0.1926177479714776,-0.43239547697206365
-0.72452312707901,0.44682982563972473,170.99375915527344,0.027974175098158128,-0.4990798092436874,-0.20940307308143624,-0.4293659061193469
-1.9472811222076416,0.21664310991764069,171.06703186035156,0.024298581918378172,-0.5061898331695961,-0.23166810849215835,-0.4238369649897022
-0.16178643703460693,0,171.2102508544922,0.020290983751894823,-0.5132387379256802,-0.24924367148584375,-0.4220316057403885
-1.6183615922927856,1.168594241142273,171.3302764892578,0.01601330116953858,-0.5201914456434963,-0.26407823839690536,-0.41229332039753624
-0.3028033971786499,-0.31087225675582886,171.39622497558594,0.011478582960876865,-0.5270034369567618,-0.28008794664250064,-0.4051456371943159
-0.7667142748832703,0.8401002883911133,171.33502197265625,0.006736178456275332,-0.5337191122966923,-0.2890005939096833,-0.4007354035973552
-0.7017254829406738,0.5625984072685242,171.2200469970703,0.0018175269079317253,-0.5403006260583385,-0.3012375918915495,-0.3890462478001916
-0.9851921200752258,-0.13718082010746002,171.07843017578125,-0.003320246679359093,-0.5467551873003444,-0.3152952385833487,-0.38550110124051606
-0.8106375932693481,-0.3158992826938629,170.9253692626953,-0.008699877719174944,-0.5532116695503809,-0.33026048619455345,-0.3892767687638604
0.4002961814403534,0.7458736300468445,170.81341552734375,-0.014232715087127848,-0.559669756366768,-0.3336799979597951,-0.3856936492025856
-1.2510898113250732,0.4442221522331238,170.7823944091797,-0.019853131277421984,-0.5660153383130416,-0.3407699448755011,-0.3757761843502525
-0.978339672088623,0.18646836280822754,170.6757049560547,-0.025687451850584065,-0.5722344767664458,-0.35934852390394856,-0.37052043005824126
0,-0.7699539065361023,170.7024688720703,-0.03174453417065603,-0.578450337096842,-0.36750135450468707,-0.37538280958930687
-0.24261760711669922,0.7478647828102112,170.84901428222656,-0.03788640519067281,-0.5847082512235892,-0.36952316789732625,-0.37556688562035595
0.5887535214424133,0.7741793394088745,170.91343688964844,-0.04402108743935563,-0.5908620018087744,-0.36663870194461196,-0.3628831846018636
-1.1891132593154907,-0.17936931550502777,170.7318572998047,-0.05017342412022924,-0.5968687486338121,-0.37164169976022093,-0.35792643440266486
-0.5961589217185974,0.49775564670562744,170.65435791015625,-0.056491429684360286,-0.602812079045301,-0.386518967935505,-0.3552732149759932
-0.39175018668174744,0.1865096241235733,170.64700317382812,-0.06300201728247984,-0.6086857808733155,-0.3947515438388412,-0.34957100438574984
0.5017902851104736,0.31364184617996216,170.587646484375,-0.06957356800629186,-0.6144772315387513,-0.3938345430186018,-0.3454030754665537
-0.3497655391693115,0.2197960466146469,170.59190368652344,-0.0761269197825782,-0.6201969051650832,-0.39256767013575883,-0.3409577596932653
-0.2861088514328003,-0.16881808638572693,170.6719207763672,-0.08271387222863266,-0.6258759943571772,-0.39786662339077644,-0.3405329433580243
-0.7089464664459229,-0.051539044827222824,170.75537109375,-0.08941408368222051,-0.6315668459917008,-0.4061587510397658,-0.3423692527847989
-0.27973029017448425,1.8030234575271606,170.83592224121094,-0.09625205430764858,-0.6371513693427877,-0.4143977240116025,-0.32777354934563274
0.14340698719024658,-1.0783066749572754,170.8865203857422,-0.10316814993721586,-0.6425639342775364,-0.41553375153647115,-0.32173424282421703
0.8800178170204163,1.2685281038284302,170.8558349609375,-0.11002264129586464,-0.6479129618364907,-0.4070052115013823,-0.3201490642502907
-0.29847288131713867,0.5221909284591675,170.8357696533203,-0.11676567642257496,-0.6531244240856423,-0.402159003703855,-0.30522640564789405
-0.8895992040634155,-0.7839269042015076,170.80770874023438,-0.12355083149023507,-0.6582297069558671,-0.4120596044153596,-0.3074075387790802
-1.4260835647583008,-0.7321042418479919,170.71920776367188,-0.1305793028672148,-0.6634584458762164,-0.43135696082220726,-0.32004113166282605
-0.5389445424079895,1.2419766187667847,170.72659301757812,-0.1379050458328048,-0.6687570569333108,-0.447732195048593,-0.31579219518850277
0.6215869784355164,-0.1735292673110962,170.7843475341797,-0.14536151002555722,-0.6739460624537125,-0.44704350808169696,-0.30688846725970537
0.4443933069705963,0,170.7682342529297,-0.15273820875154343,-0.6790729208849375,-0.43816033903664603,-0.30833454448729786
-0.5340732932090759,1.0977205038070679,170.67440795898438,-0.16004710884564297,-0.6841355993691837,-0.43890767225530003,-0.29918687362223895
-0.358961820602417,-0.48753786087036133,170.52915954589844,-0.16742425304391265,-0.6890796734682393,-0.4463496315370625,-0.29410201826443305
0,0.29541271924972534,170.3362274169922,-0.17488834147373886,-0.6939947157963702,-0.4493409800420826,-0.2957030611112717
-0.2397773563861847,-0.4055432975292206,170.06871032714844,-0.18239400901307817,-0.6989307481050496,-0.45133912467863413,-0.2966208159302675
0.1526680588722229,1.1565698385238647,169.90304565429688,-0.18992237701449388,-0.7038222737496517,-0.4520650354912505,-0.2903622614219788
-0.24773234128952026,0.6991550326347351,169.8102264404297,-0.19746339595896037,-0.7085327749906319,-0.452857237844728,-0.27489788749565713
-0.9395000338554382,-0.4146450161933899,169.7704620361328,-0.20509346328242423,-0.7130946488088622,-0.46275084097093594,-0.27252697069197923
1.68477201461792,1.1277834177017212,169.79470825195312,-0.21275422229994242,-0.7175872414869571,-0.4565402411312486,-0.2665841506794098
0.1573605239391327,-0.029218098148703575,169.74468994140625,-0.21275422229994242,-0.7175872414869571,-0.4565402411312486,-0.2665841506794098
-0.15472041070461273,-1.1277186870574951,169.62254333496094,-0.21275422229994242,-0.7175872414869571,-0.4565402411312486,-0.2665841506794098
0.0723455399274826,0.8189495801925659,169.5432586669922,-0.21275422229994242,-0.7175872414869571,-0.4565402411312486,-0.2665841506794098
-0.3709045350551605,0.2925490736961365,169.53732299804688,-0.21275422229994242,-0.7175872414869571,-0.4565402411312486,-0.2665841506794098
3.7311792373657227,-0.30413705110549927,169.19468688964844,-0.21275422229994242,-0.7175872414869571,-0.4565402411312486,-0.2665841506794098
2.822404146194458,0.39170995354652405,168.4685821533203,-0.21275422229994242,-0.7175872414869571,-0.4565402411312486,-0.2665841506794098
1.294877529144287,-0.02961135283112526,167.51364135742188,-0.21275422229994242,-0.7175872414869571,-0.4565402411312486,-0.2665841506794098
2.602468252182007,-0.33796852827072144,166.31993103027344,-0.21275422229994242,-0.7175872414869571,-0.4565402411312486,-0.2665841506794098
2.2901668548583984,0.5176141262054443,164.87599182128906,-0.21275422229994242,-0.7175872414869571,-0.4565402411312486,-0.2665841506794098
2.0572729110717773,-0.8323507308959961,163.29632568359375,-0.21275422229994242,-0.7175872414869571,-0.4565402411312486,-0.2665841506794098
2.128255605697632,-0.14186826348304749,161.49362182617188,-0.21275422229994242,-0.7175872414869571,-0.4565402411312486,-0.2665841506794098
0.5539170503616333,-0.4075492322444916,159.5822296142578,-0.21275422229994242,-0.7175872414869571,-0.4565402411312486,-0.2665841506794098
1.1128685474395752,0.3220442533493042,157.62112426757812,-0.21275422229994242,-0.7175872414869571,-0.4565402411312486,-0.2665841506794098
2.248033285140991,0.5696344375610352,155.52806091308594,-0.21275422229994242,-0.7175872414869571,-0.4565402411312486,-0.2665841506794098
1.7838973999023438,0.1981094628572464,153.34901428222656,-0.21275422229994242,-0.7175872414869571,-0.4565402411312486,-0.2665841506794098
1.3850570917129517,-0.4079176187515259,151.12461853027344,-0.21275422229994242,-0.7175872414869571,-0.4565402411312486,-0.2665841506794098
1.4754186868667603,-0.3558935225009918,148.85964965820312,-0.21275422229994242,-0.7175872414869571,-0.4565402411312486,-0.2665841506794098
0.942501962184906,1.5809853076934814,146.63800048828125,-0.21275422229994242,-0.7175872414869571,-0.4565402411312486,-0.2665841506794098
0.09323526173830032,-1.1748850345611572,144.4193572998047,-0.21275422229994242,-0.7175872414869571,-0.4565402411312486,-0.2665841506794098
0.5450829863548279,-1.21687912940979,142.1279754638672,-0.21275422229994242,-0.7175872414869571,-0.4565402411312486,-0.2665841506794098
1.0472266674041748,2.4331603050231934,139.79515075683594,-0.21275422229994242,-0.7175872414869571,-0.4565402411312486,-0.2665841506794098
1.2137274742126465,-1.3306914567947388,137.46170043945312,-0.21275422229994242,-0.7175872414869571,-0.4565402411312486,-0.2665841506794098
0.9369621276855469,0.4459843635559082,135.1121063232422,-0.21275422229994242,-0.7175872414869571,-0.4565402411312486,-0.2665841506794098
0.021001847460865974,1.165397047996521,132.7689971923828,-0.21275422229994242,-0.7175872414869571,-0.4565402411312486,-0.2665841506794098
1.3619779348373413,0.4825669229030609,130.3907928466797,-0.21275422229994242,-0.7175872414869571,-0.4565402411312486,-0.2665841506794098
-0.02545897476375103,-0.8583886623382568,128.06387329101562,-0.21275422229994242,-0.7175872414869571,-0.4565402411312486,-0.2665841506794098
1.38832688331604,0.2936127483844757,125.78580474853516,-0.21275422229994242,-0.7175872414869571,-0.4565402411312486,-0.2665841506794098
0.9048778414726257,-0.5327408313751221,123.56700134277344,-0.21275422229994242,-0.7175872414869571,-0.4565402411312486,-0.2665841506794098
0.09421030431985855,0.40127599239349365,121.28274536132812,-0.21275422229994242,-0.7175872414869571,-0.4565402411312486,-0.2665841506794098
1.459386944770813,0.08058691769838333,119.0094223022461,-0.21275422229994242,-0.7175872414869571,-0.4565402411312486,-0.2665841506794098
0.32939186692237854,-0.13216416537761688,116.72000885009766,-0.21275422229994242,-0.7175872414869571,-0.4565402411312486,-0.2665841506794098
-0.04347693547606468,-0.45183104276657104,114.46690368652344,-0.21275422229994242,-0.7175872414869571,-0.4565402411312486,-0.2665841506794098
0.8650371432304382,-0.31123805046081543,112.12200927734375,-0.21275422229994242,-0.7175872414869571,-0.4565402411312486,-0.2665841506794098
0.2754332423210144,0.09894020855426788,109.87162780761719,-0.21275422229994242,-0.7175872414869571,-0.4565402411312486,-0.2665841506794098
0.225126251578331,-0.34685778617858887,107.55413818359375,-0.21275422229994242,-0.7175872414869571,-0.4565402411312486,-0.2665841506794098
0.838802695274353,0.41298627853393555,105.20460510253906,-0.21275422229994242,-0.7175872414869571,-0.4565402411312486,-0.2665841506794098
1.0042489767074585,0.1447734832763672,102.8091812133789,-0.21275422229994242,-0.7175872414869571,-0.4565402411312486,-0.2665841506794098
-0.7200846672058105,-0.3313809335231781,100.37238311767578,-0.21275422229994242,-0.7175872414869571,-0.4565402411312486,-0.2665841506794098
1.024381399154663,0.3107174038887024,97.87096405029297,-0.21275422229994242,-0.7175872414869571,-0.4565402411312486,-0.2665841506794098
0.2722669541835785,-0.8342640399932861,95.34027099609375,-0.21275422229994242,-0.7175872414869571,-0.4565402411312486,-0.2665841506794098
-0.2298905849456787,-0.6270382404327393,92.80392456054688,-0.21275422229994242,-0.7175872414869571,-0.4565402411312486,-0.2665841506794098
0.3045830726623535,1.0673582553863525,90.58319854736328,-0.21275422229994242,-0.7175872414869571,-0.4565402411312486,-0.2665841506794098
0.5627163648605347,0.3663746416568756,88.83007049560547,-0.21275422229994242,-0.7175872414869571,-0.4565402411312486,-0.2665841506794098
-0.5245029330253601,1.1290479898452759,87.62238311767578,-0.21275422229994242,-0.7175872414869571,-0.4565402411312486,-0.2665841506794098
-2.5687108039855957,0.5032519698143005,86.78440856933594,-0.21275422229994242,-0.7175872414869571,-0.4565402411312486,-0.2665841506794098
-1.1902881860733032,-0.02710641361773014,86.3755874633789,-0.21275422229994242,-0.7175872414869571,-0.4565402411312486,-0.2665841506794098
-1.0768609046936035,0.09886088967323303,86.37324523925781,-0.21275422229994242,-0.7175872414869571,-0.4565402411312486,-0.2665841506794098
0.5655671954154968,-0.26972463726997375,86.47119140625,-0.21275422229994242,-0.7175872414869571,-0.4565402411312486,-0.2665841506794098
0.23302346467971802,0.44888171553611755,86.43788146972656,-0.21275422229994242,-0.7175872414869571,-0.4565402411312486,-0.2665841506794098
0.0923096239566803,0.5017170906066895,86.4715347290039,-0.21275422229994242,-0.7175872414869571,-0.4565402411312486,-0.2665841506794098
0.2701292335987091,0.4234215319156647,86.46221160888672,-0.21275422229994242,-0.7175872414869571,-0.4565402411312486,-0.2665841506794098
0.11122152954339981,0.17342934012413025,86.46134948730469,-0.21275422229994242,-0.7175872414869571,-0.4565402411312486,-0.2665841506794098
0.2610572576522827,-0.06289733201265335,86.4569091796875,-0.21275422229994242,-0.7175872414869571,-0.4565402411312486,-0.2665841506794098
0.0914660170674324,-0.08925241231918335,86.45425415039062,-0.21275422229994242,-0.7175872414869571,-0.4565402411312486,-0.2665841506794098
0.22081953287124634,0.03240668401122093,86.46075439453125,-0.21275422229994242,-0.7175872414869571,-0.4565402411312486,-0.2665841506794098
0.12011547386646271,0.22608965635299683,86.46410369873047,-0.21275422229994242,-0.7175872414869571,-0.4565402411312486,-0.2665841506794098
0.22772760689258575,0.2600123882293701,86.46648406982422,-0.21275422229994242,-0.7175872414869571,-0.4565402411312486,-0.2665841506794098
0.141337051987648,0.18794094026088715,86.46540069580078,-0.21275422229994242,-0.7175872414869571,-0.4565402411312486,-0.2665841506794098
0.18855853378772736,0.04869427531957626,86.46437072753906,-0.21275422229994242,-0.7175872414869571,-0.4565402411312486,-0.2665841506794098
0.1642322838306427,0.028001883998513222,86.46615600585938,-0.21275422229994242,-0.7175872414869571,-0.4565402411312486,-0.2665841506794098
0.18105848133563995,0.10454930365085602,86.46661376953125,-0.21275422229994242,-0.7175872414869571,-0.4565402411312486,-0.2665841506794098
0.18295186758041382,0.18980903923511505,86.46887969970703,-0.21275422229994242,-0.7175872414869571,-0.4565402411312486,-0.2665841506794098
0.18117941915988922,0.16941618919372559,86.46882629394531,-0.21275422229994242,-0.7175872414869571,-0.4565402411312486,-0.2665841506794098
0.17381520569324493,0.10127969831228256,86.46952056884766,-0.21275422229994242,-0.7175872414869571,-0.4565402411312486,-0.2665841506794098
0.17302462458610535,0.08128014951944351,86.46859741210938,-0.21275422229994242,-0.7175872414869571,-0.4565402411312486,-0.2665841506794098
0.17160901427268982,0.0976986512541771,86.46884155273438,-0.21275422229994242,-0.7175872414869571,-0.4565402411312486,-0.2665841506794098
0.17729082703590393,0.13752901554107666,86.46975708007812,-0.21275422229994242,-0.7175872414869571,-0.4565402411312486,-0.2665841506794098
0.17079052329063416,0.14036601781845093,86.4700927734375,-0.21275422229994242,-0.7175872414869571,-0.4565402411312486,-0.2665841506794098
0.16911815106868744,0.12454721331596375,86.4699478149414,-0.21275422229994242,-0.7175872414869571,-0.4565402411312486,-0.2665841506794098
0.17941784858703613,0.10158829391002655,86.47079467773438,-0.21275422229994242,-0.7175872414869571,-0.4565402411312486,-0.2665841506794098
0.17199410498142242,0.12295135110616684,86.47010040283203,-0.21275422229994242,-0.7175872414869571,-0.4565402411312486,-0.2665841506794098
0.1827966272830963,0.12779103219509125,86.47052001953125,-0.21275422229994242,-0.7175872414869571,-0.4565402411312486,-0.2665841506794098
0.1703508496284485,0.11355946213006973,86.47097778320312,-0.21275422229994242,-0.7175872414869571,-0.4565402411312486,-0.2665841506794098
0.1751045286655426,0.12016254663467407,86.4720458984375,-0.21275422229994242,-0.7175872414869571,-0.4565402411312486,-0.2665841506794098
0.1779198795557022,0.12087072432041168,86.47187805175781,-0.21275422229994242,-0.7175872414869571,-0.4565402411312486,-0.2665841506794098
0.1731027066707611,0.11441108584403992,86.4714126586914,-0.21275422229994242,-0.7175872414869571,-0.4565402411312486,-0.2665841506794098
0.1713601052761078,0.123482845723629,86.46986389160156,-0.21275422229994242,-0.7175872414869571,-0.4565402411312486,-0.2665841506794098
0.16937598586082458,0.1207231730222702,86.47075653076172,-0.21275422229994242,-0.7175872414869571,-0.4565402411312486,-0.2665841506794098
0.1832047402858734,0.10986507683992386,86.47145080566406,-0.21275422229994242,-0.7175872414869571,-0.4565402411312486,-0.2665841506794098
0.16686728596687317,0.11823910474777222,86.4727783203125,-0.21275422229994242,-0.7175872414869571,-0.4565402411312486,-0.2665841506794098
0.17091526091098785,0.11016631126403809,86.47172546386719,-0.21275422229994242,-0.7175872414869571,-0.4565402411312486,-0.2665841506794098
0.15939974784851074,0.11725194752216339,86.47200775146484,-0.21275422229994242,-0.7175872414869571,-0.4565402411312486,-0.2665841506794098
0.1572168916463852,0.11293965578079224,86.4729232788086,-0.21275422229994242,-0.7175872414869571,-0.4565402411312486,-0.2665841506794098
0.16540034115314484,0.1028662770986557,86.47230529785156,-0.21275422229994242,-0.7175872414869571,-0.4565402411312486,-0.2665841506794098
0.1831633746623993,0.1090468242764473,86.47248077392578,-0.21275422229994242,-0.7175872414869571,-0.4565402411312486,-0.2665841506794098
0.1714993119239807,0.12299478054046631,86.47293090820312,-0.21275422229994242,-0.7175872414869571,-0.4565402411312486,-0.2665841506794098
0.1817353367805481,0.11504938453435898,86.47286224365234,-0.21275422229994242,-0.7175872414869571,-0.4565402411312486,-0.2665841506794098
0.17266745865345,0.11494158953428268,86.47476959228516,-0.21275422229994242,-0.7175872414869571,-0.4565402411312486,-0.2665841506794098
0.1785602569580078,0.11532880365848541,86.4754409790039,-0.21275422229994242,-0.7175872414869571,-0.4565402411312486,-0.2665841506794098
0.17294667661190033,0.1317788064479828,86.47509765625,-0.21275422229994242,-0.7175872414869571,-0.4565402411312486,-0.2665841506794098
0.16627496480941772,0.12446955591440201,86.47596740722656,-0.21275422229994242,-0.7175872414869571,-0.4565402411312486,-0.2665841506794098
0.15757331252098083,0.12133241444826126,86.47685241699219,-0.21275422229994242,-0.7175872414869571,-0.4565402411312486,-0.2665841506794098
0.16370108723640442,0.12110057473182678,86.47692108154297,-0.21275422229994242,-0.7175872414869571,-0.4565402411312486,-0.2665841506794098
0.1634017676115036,0.1135924756526947,86.47602844238281,-0.21275422229994242,-0.7175872414869571,-0.4565402411312486,-0.2665841506794098
0.1557755172252655,0.11732804030179977,86.47529602050781,-0.21275422229994242,-0.7175872414869571,-0.4565402411312486,-0.2665841506794098
0.16250966489315033,0.12642093002796173,86.47554016113281,-0.21275422229994242,-0.7175872414869571,-0.4565402411312486,-0.2665841506794098
0.17908836901187897,0.10126841068267822,86.4749984741211,-0.21275422229994242,-0.7175872414869571,-0.4565402411312486,-0.2665841506794098
0.15988662838935852,0.10583626478910446,86.47602081298828,-0.21275422229994242,-0.7175872414869571,-0.4565402411312486,-0.2665841506794098
0.1665375828742981,0.11304862797260284,86.47599792480469,-0.21275422229994242,-0.7175872414869571,-0.4565402411312486,-0.2665841506794098
0.17070576548576355,0.103295236825943,86.47711944580078,-0.21275422229994242,-0.7175872414869571,-0.4565402411312486,-0.2665841506794098
0.1551320105791092,0.10452588647603989,86.47785186767578,-0.21275422229994242,-0.7175872414869571,-0.4565402411312486,-0.2665841506794098
0.16476130485534668,0.11012034118175507,86.47747802734375,-0.21275422229994242,-0.7175872414869571,-0.4565402411312486,-0.2665841506794098
0.1655758172273636,0.11429957300424576,86.47677612304688,-0.21275422229994242,-0.7175872414869571,-0.4565402411312486,-0.2665841506794098
0.17023123800754547,0.09493743628263474,86.47635650634766,-0.21275422229994242,-0.7175872414869571,-0.4565402411312486,-0.2665841506794098
0.15456949174404144,0.09774798154830933,86.47594451904297,-0.21275422229994242,-0.7175872414869571,-0.4565402411312486,-0.2665841506794098
0.15993286669254303,0.11610518395900726,86.47478485107422,-0.21275422229994242,-0.7175872414869571,-0.4565402411312486,-0.2665841506794098
0.16373802721500397,0.10051680356264114,86.47376251220703,-0.21275422229994242,-0.7175872414869571,-0.4565402411312486,-0.2665841506794098
0.16304713487625122,0.1102309450507164,86.47352600097656,-0.21275422229994242,-0.7175872414869571,-0.4565402411312486,-0.2665841506794098
0.159497931599617,0.12164463847875595,86.47307586669922,-0.21275422229994242,-0.7175872414869571,-0.4565402411312486,-0.2665841506794098
0.16583216190338135,0.11613547056913376,86.47391510009766,-0.21275422229994242,-0.7175872414869571,-0.4565402411312486,-0.2665841506794098
0.1617814600467682,0.11392460018396378,86.47412872314453,-0.21275422229994242,-0.7175872414869571,-0.4565402411312486,-0.2665841506794098
0.16089138388633728,0.09831567108631134,86.47591400146484,-0.21275422229994242,-0.7175872414869571,-0.4565402411312486,-0.2665841506794098
0.17909008264541626,0.10903862863779068,86.4761734008789,-0.21275422229994242,-0.7175872414869571,-0.4565402411312486,-0.2665841506794098
0.17541027069091797,0.10036394000053406,86.47542572021484,-0.21275422229994242,-0.7175872414869571,-0.4565402411312486,-0.2665841506794098
0.1776827871799469,0.10972033441066742,86.47560119628906,-0.21275422229994242,-0.7175872414869571,-0.4565402411312486,-0.2665841506794098
0.16964583098888397,0.10131717473268509,86.47574615478516,-0.21275422229994242,-0.7175872414869571,-0.4565402411312486,-0.2665841506794098
0.1743786484003067,0.11347092688083649,86.47637176513672,-0.21275422229994242,-0.7175872414869571,-0.4565402411312486,-0.2665841506794098
0.17827673256397247,0.1083161011338234,86.47651672363281,-0.21275422229994242,-0.7175872414869571,-0.4565402411312486,-0.2665841506794098
0.17444980144500732,0.11163788288831711,86.4753646850586,-0.21275422229994242,-0.7175872414869571,-0.4565402411312486,-0.2665841506794098
0.17416463792324066,0.1018696129322052,86.47555541992188,-0.21275422229994242,-0.7175872414869571,-0.4565402411312486,-0.2665841506794098
0.15718866884708405,0.10169124603271484,86.47537994384766,-0.21275422229994242,-0.7175872414869571,-0.4565402411312486,-0.2665841506794098
0.156701922416687,0.0938057079911232,86.47540283203125,-0.21275422229994242,-0.7175872414869571,-0.4565402411312486,-0.2665841506794098
0.17088644206523895,0.08847606927156448,86.47530364990234,-0.21275422229994242,-0.7175872414869571,-0.4565402411312486,-0.2665841506794098
0.1608269214630127,0.08985776454210281,86.4757080078125,-0.21275422229994242,-0.7175872414869571,-0.4565402411312486,-0.2665841506794098
0.1608590930700302,0.10467846691608429,86.47632598876953,-0.21275422229994242,-0.7175872414869571,-0.4565402411312486,-0.2665841506794098
0.16833378374576569,0.10086599737405777,86.47620391845703,-0.21275422229994242,-0.7175872414869571,-0.4565402411312486,-0.2665841506794098
0.16189539432525635,0.10415676236152649,86.47650909423828,-0.21275422229994242,-0.7175872414869571,-0.4565402411312486,-0.2665841506794098
0.16374549269676208,0.10181563347578049,86.47650909423828,-0.21275422229994242,-0.7175872414869571,-0.4565402411312486,-0.2665841506794098
0.15833348035812378,0.09638345241546631,86.47734832763672,-0.21275422229994242,-0.7175872414869571,-0.4565402411312486,-0.2665841506794098
0.16015122830867767,0.10114983469247818,86.47737121582031,-0.22034110932513915,-0.7220165930755648,-0.45388620189235857,-0.2649380399535103
0.1954846978187561,0.2601899802684784,86.47137451171875,-0.22788118241736405,-0.7264071340320843,-0.45092256917463,-0.26192687482883564
0.2458726018667221,1.153586506843567,86.47269439697266,-0.2353659087577964,-0.7306744030231822,-0.447244591677251,-0.2501454041029019
-0.45348870754241943,3.313065528869629,86.552001953125,-0.24283440307086696,-0.7345333089224172,-0.4489747258912151,-0.21292330380529195
0.7814431190490723,2.392737865447998,86.67716979980469,-0.2502945405571437,-0.7376857943056778,-0.44624177246199304,-0.1653749421859784
0.615860104560852,0.8800983428955078,86.63352966308594,-0.2576348684854262,-0.7402147630498647,-0.4345975789319103,-0.1381013071164492
0.3622795641422272,1.5322270393371582,86.52841186523438,-0.26481023510174256,-0.742348928905817,-0.4264464150260513,-0.11799859559784365
0,1.828708291053772,86.49999237060547,-0.2718925170491113,-0.7440821738789484,-0.4234274186581994,-0.08999080117791923
-0.36282777786254883,2.1860945224761963,86.56314086914062,-0.2789748370668773,-0.7453032148143074,-0.4264509834737206,-0.05653411106516949
0.46125859022140503,0.8915271162986755,86.66230010986328,-0.2860755179850255,-0.746031726273812,-0.4256307267040635,-0.030887264075378895
0,1.5100890398025513,86.83058166503906,-0.2931373315835501,-0.7463797351086724,-0.4217869051188851,-0.01087379610786867
0,1.0837794542312622,86.9737548828125,-0.30016711333553153,-0.7463808352872734,-0.4217869051188851,0.01074177467574644
0.11521237343549728,1.6119190454483032,87.17169952392578,-0.3071888942282466,-0.7460146044246443,-0.42082680200692263,0.03320592883974282
1.1062110662460327,1.092725157737732,87.31267547607422,-0.3141178531894952,-0.7452733497632051,-0.4106482733429099,0.05574463053295978
-0.4012582302093506,0.5960866212844849,87.23561096191406,-0.3209130360204856,-0.7442269939918904,-0.40477366637593754,0.06981806202481158
0.5453344583511353,1.4340347051620483,87.11698913574219,-0.3276492584997969,-0.7429223789771403,-0.4035730311414227,0.08673573974519935
0.5533020496368408,0.5258281826972961,87.04576110839844,-0.3342991814835437,-0.7413406817252857,-0.39441772690818955,0.10306793047736056
-0.9419569373130798,0.9903891682624817,86.93235778808594,-0.3408998001881022,-0.7395175900124019,-0.39765651763882487,0.11570307506869204
1.16034996509552,0.728709876537323,86.8414306640625,-0.347512242632931,-0.7374698235498126,-0.39583657574063785,0.13002890044202375
0.37732428312301636,1.04942786693573,86.93885803222656,-0.3540027359613709,-0.7351791934213711,-0.38302262367215006,0.14484671497096585
-0.2627677917480469,1.1184626817703247,87.03430938720703,-0.36037849104400566,-0.7326145335504171,-0.3820679862440253,0.1629124695435163
-0.19778454303741455,0.6067509651184082,86.99846649169922,-0.3667782736157662,-0.7297795192214356,-0.38590592236723753,0.17728924993425574
0.7567405700683594,-0.3434973657131195,87.07861328125,-0.37317122259778746,-0.7268064168892393,-0.381247955475313,0.17948302992929982
-0.9327477812767029,0.5691523551940918,87.02359008789062,-0.37953757791204323,-0.7237993625717036,-0.3827146822353825,0.18136348817497458
0.5243093371391296,1.2472153902053833,86.89225769042969,-0.3859445197301425,-0.7206505011198013,-0.38611833593652894,0.19649988605330354
0.4974076449871063,-0.31462913751602173,86.83123779296875,-0.39230887276088144,-0.7173107400846984,-0.37760402775214363,0.20427143815904822
-0.08492910116910934,-0.08420313894748688,86.6886978149414,-0.39857362888009645,-0.7139339128012465,-0.3741667065536603,0.20094783585518564
1.4211101531982422,0.6543407440185547,86.65062713623047,-0.4047169503051554,-0.710545189314419,-0.3630318644534175,0.2056989825641112
0.37703949213027954,1.012884497642517,86.7836685180664,-0.41064260987623125,-0.7070010934076796,-0.3480472840756798,0.21959252624462014
-2.1522247791290283,-0.3371289074420929,86.91571044921875,-0.4165666747002008,-0.7032942904987276,-0.3628404948006694,0.22522382282962367
0.7229722738265991,1.2515400648117065,86.91490173339844,-0.4227132699264135,-0.6994770593434165,-0.3747509323448563,0.23284391580770378
1.1177771091461182,0,86.89859771728516,-0.4288312889805658,-0.6955094149087874,-0.35941135415341696,0.24327341634780134
-0.6687549352645874,0.6224181056022644,86.88542175292969,-0.43479029612104764,-0.6914116344901017,-0.35566950270440423,0.24846023389448688
0.27322959899902344,0.6156908869743347,86.90353393554688,-0.4407455882033617,-0.6871846508007091,-0.35896554717328394,0.2587778088326252
0.5924041271209717,-0.106169693171978,86.8721694946289,-0.44666823386971366,-0.6828363039039291,-0.35175193278895067,0.26302381878097814
0.48018959164619446,-0.15339238941669464,86.79960632324219,-0.45245628040794844,-0.6784705987355371,-0.3428136517992243,0.26086080142607254
0.9697207808494568,0.4558098316192627,86.68266296386719,-0.45806915305095663,-0.6741019175005051,-0.33073106536176056,0.2633809467777606
-0.3927142322063446,0.22065533697605133,86.5826416015625,-0.4635412675744413,-0.6696652583063899,-0.3259226774564013,0.2690181565160549
-1.194705843925476,0.8085706233978271,86.5895004272461,-0.46908354970400157,-0.6651101483394297,-0.3391511780908331,0.27759503951917053
0.3187457025051117,0.19477374851703644,86.7474136352539,-0.4747968999042252,-0.6604138876549495,-0.34645084593600284,0.28595624261846103
0.6566246151924133,0.33222830295562744,86.9999008178711,-0.4805033466199851,-0.6556113529132895,-0.3383227599551901,0.29034792638073326
0.3397486209869385,-0.052592579275369644,87.0218505859375,-0.48607286670005917,-0.6507528016594661,-0.3300196496536955,0.29267822407806876
0.6877613067626953,0.11669529229402542,86.81238555908203,-0.4915018393381937,-0.645870379680872,-0.3214570669224486,0.29321241335322423
-0.06659357994794846,0.38385820388793945,86.64643859863281,-0.49681632047253904,-0.6409487454655278,-0.31628066919899234,0.29738369248807395
-0.14282803237438202,0,86.56497192382812,-0.5021022081267112,-0.6359656937710122,-0.31802584930167843,0.3005825108538068
0.7185958623886108,0.5194365382194519,86.53636169433594,-0.5073626550713216,-0.6309199132749613,-0.3132277840515599,0.3049111486723022
0.2906684875488281,0.12507884204387665,86.5362548828125,-0.5125130303367686,-0.6257933027845713,-0.3048172478020812,0.3102821101744966
0.12888802587985992,-0.12748906016349792,86.54925537109375,-0.5175641819311486,-0.6206221016579214,-0.3013209435235088,0.31026202502349975
-0.17446576058864594,0.6637149453163147,86.56087493896484,-0.5225893627770063,-0.6154138299988385,-0.30170075797941537,0.3147305740664399
-1.5837525129318237,0.7308334112167358,86.41644287109375,-0.5277398072345466,-0.6100714767951941,-0.3163525769254193,0.32635181037088196
1.4457453489303589,-0.7984614968299866,86.25665283203125,-0.533021934014137,-0.6046369763505137,-0.3175026366254315,0.3257882429907715
0.25058433413505554,0.46232783794403076,86.13922882080078,-0.5381958439521257,-0.599230514915868,-0.3033665559332197,0.3229871291667219
1.589362382888794,0,86.0715560913086,-0.5431241791401082,-0.5938152899965654,-0.2880336666246876,0.3268398611495888
-1.1055930852890015,-0.883836567401886,86.11483764648438,-0.5478911451604086,-0.5884293365168085,-0.284002255811356,0.31947455642123973
0.3887057900428772,0.9511257410049438,86.22565460205078,-0.5526742999305455,-0.5831000877171765,-0.2899763166050737,0.3200352995345985
0.553962767124176,-0.36481407284736633,86.20269775390625,-0.5574417754463824,-0.5777254499702,-0.2821207452953483,0.32492123010257834
-0.1906885951757431,0.05127497762441635,86.16426849365234,-0.5621185604949196,-0.5723318696834364,-0.2790934605291114,0.3223084043090538
-0.7855843305587769,1.0236587524414062,86.06449127197266,-0.5668379149013586,-0.5668854147692531,-0.2872290682435657,0.3312661853929356
1.1470160484313965,-0.09501170367002487,85.95782470703125,-0.5715999666138991,-0.561299822300984,-0.2842171372612939,0.3390049107993638
1.1826993227005005,-0.5441582798957825,85.87956237792969,-0.5761751331119254,-0.5556941272587422,-0.2648028425018614,0.33367849426964874
0.49424150586128235,-0.4933534562587738,85.74352264404297,-0.5804720595960841,-0.5502048684470366,-0.2508283355971799,0.32503256313502743
-0.46476083993911743,0.35222628712654114,85.66422271728516,-0.5804720595960841,-0.5502048684470366,-0.2508283355971799,0.32503256313502743
-1.3934290409088135,1.3199920654296875,85.73017883300781,-0.5804720595960841,-0.5502048684470366,-0.2508283355971799,0.32503256313502743
0.5714967846870422,-0.8841884732246399,85.81926727294922,-0.5804720595960841,-0.5502048684470366,-0.2508283355971799,0.32503256313502743
0.3183930814266205,-1.2749289274215698,85.7620849609375,-0.5804720595960841,-0.5502048684470366,-0.2508283355971799,0.32503256313502743
0.2898006737232208,-3.3393208980560303,85.19145965576172,-0.5804720595960841,-0.5502048684470366,-0.2508283355971799,0.32503256313502743
0.895758867263794,-1.923479676246643,84.3810806274414,-0.5804720595960841,-0.5502048684470366,-0.2508283355971799,0.32503256313502743
0.719244658946991,-2.678840160369873,83.34265899658203,-0.5804720595960841,-0.5502048684470366,-0.2508283355971799,0.32503256313502743
0.11792214214801788,-1.8833059072494507,82.11465454101562,-0.5804720595960841,-0.5502048684470366,-0.2508283355971799,0.32503256313502743
1.4432322978973389,-0.37270721793174744,80.70854949951172,-0.5804720595960841,-0.5502048684470366,-0.2508283355971799,0.32503256313502743
0.07952392846345901,-1.6048377752304077,79.12480926513672,-0.5804720595960841,-0.5502048684470366,-0.2508283355971799,0.32503256313502743
-0.39400678873062134,-1.450488567352295,77.4581298828125,-0.5804720595960841,-0.5502048684470366,-0.2508283355971799,0.32503256313502743
-0.044360462576150894,-1.8195778131484985,75.7597885131836,-0.5804720595960841,-0.5502048684470366,-0.2508283355971799,0.32503256313502743
0.3932367265224457,-1.0881714820861816,74.02825164794922,-0.5804720595960841,-0.5502048684470366,-0.2508283355971799,0.32503256313502743
-0.820458710193634,-1.7104979753494263,72.26390838623047,-0.5804720595960841,-0.5502048684470366,-0.2508283355971799,0.32503256313502743
1.4699580669403076,-0.7014905214309692,70.41181182861328,-0.5804720595960841,-0.5502048684470366,-0.2508283355971799,0.32503256313502743
-0.9123692512512207,-1.1760685443878174,68.53690338134766,-0.5804720595960841,-0.5502048684470366,-0.2508283355971799,0.32503256313502743
2.027381420135498,-0.7589380741119385,66.56212615966797,-0.5804720595960841,-0.5502048684470366,-0.2508283355971799,0.32503256313502743
-0.9256660342216492,-1.1324232816696167,64.55023193359375,-0.5804720595960841,-0.5502048684470366,-0.2508283355971799,0.32503256313502743
-0.3029842674732208,-1.748673439025879,62.5244140625,-0.5804720595960841,-0.5502048684470366,-0.2508283355971799,0.32503256313502743
0.9525710940361023,-0.6771486401557922,60.48564910888672,-0.5804720595960841,-0.5502048684470366,-0.2508283355971799,0.32503256313502743
-0.3556208312511444,-0.45807650685310364,58.465293884277344,-0.5804720595960841,-0.5502048684470366,-0.2508283355971799,0.32503256313502743
2.0174388885498047,-0.41703951358795166,56.449073791503906,-0.5804720595960841,-0.5502048684470366,-0.2508283355971799,0.32503256313502743
-0.8635165691375732,-1.0153650045394897,54.460140228271484,-0.5804720595960841,-0.5502048684470366,-0.2508283355971799,0.32503256313502743
1.2396113872528076,-1.014081358909607,52.481502532958984,-0.5804720595960841,-0.5502048684470366,-0.2508283355971799,0.32503256313502743
-1.3710017204284668,-1.738105058670044,50.40644836425781,-0.5804720595960841,-0.5502048684470366,-0.2508283355971799,0.32503256313502743
0.4215790033340454,-0.35080039501190186,48.385833740234375,-0.5804720595960841,-0.5502048684470366,-0.2508283355971799,0.32503256313502743
0.6480586528778076,-0.45607253909111023,46.242313385009766,-0.5804720595960841,-0.5502048684470366,-0.2508283355971799,0.32503256313502743
-0.8569480776786804,-0.3294620215892792,43.985145568847656,-0.5804720595960841,-0.5502048684470366,-0.2508283355971799,0.32503256313502743
0.08063320070505142,-0.8565426468849182,41.64462661743164,-0.5804720595960841,-0.5502048684470366,-0.2508283355971799,0.32503256313502743
0.5145161151885986,-0.9676685929298401,39.31092071533203,-0.5804720595960841,-0.5502048684470366,-0.2508283355971799,0.32503256313502743
-1.0773347616195679,-0.7464300990104675,37.000038146972656,-0.5804720595960841,-0.5502048684470366,-0.2508283355971799,0.32503256313502743
-0.4260464608669281,-0.30354827642440796,34.658226013183594,-0.5804720595960841,-0.5502048684470366,-0.2508283355971799,0.32503256313502743
0.4109044075012207,-0.8687166571617126,32.34074783325195,-0.5804720595960841,-0.5502048684470366,-0.2508283355971799,0.32503256313502743
-0.4432385563850403,0.14065605401992798,30.063159942626953,-0.5804720595960841,-0.5502048684470366,-0.2508283355971799,0.32503256313502743
-0.9380325675010681,-1.143011450767517,27.82220458984375,-0.5804720595960841,-0.5502048684470366,-0.2508283355971799,0.32503256313502743
0.6152941584587097,-0.13056693971157074,25.619915008544922,-0.5804720595960841,-0.5502048684470366,-0.2508283355971799,0.32503256313502743
-0.4410669207572937,-0.3439570963382721,23.38445281982422,-0.5804720595960841,-0.5502048684470366,-0.2508283355971799,0.32503256313502743
-0.6080036759376526,-0.9307171702384949,21.202119827270508,-0.5804720595960841,-0.5502048684470366,-0.2508283355971799,0.32503256313502743
0.09048672020435333,-0.3996164798736572,18.978492736816406,-0.5804720595960841,-0.5502048684470366,-0.2508283355971799,0.32503256313502743
-0.6903671622276306,0.2231229841709137,16.628366470336914,-0.5804720595960841,-0.5502048684470366,-0.2508283355971799,0.32503256313502743
-0.8633401393890381,-0.03774420917034149,14.2809476852417,-0.5804720595960841,-0.5502048684470366,-0.2508283355971799,0.32503256313502743
-0.09453825652599335,-0.4689015746116638,11.896956443786621,-0.5804720595960841,-0.5502048684470366,-0.2508283355971799,0.32503256313502743
-0.9210191369056702,0.39780640602111816,9.498433113098145,-0.5804720595960841,-0.5502048684470366,-0.2508283355971799,0.32503256313502743
0.6284397840499878,-0.7146646976470947,7.041492462158203,-0.5804720595960841,-0.5502048684470366,-0.2508283355971799,0.32503256313502743
-0.4400691092014313,0.7108074426651001,4.6010308265686035,-0.5804720595960841,-0.5502048684470366,-0.2508283355971799,0.32503256313502743
0.030117060989141464,-0.4207242727279663,2.2809696197509766,-0.5804720595960841,-0.5502048684470366,-0.2508283355971799,0.32503256313502743
0.03269626945257187,0.17757713794708252,0.4267520606517792,-0.5804720595960841,-0.5502048684470366,-0.2508283355971799,0.32503256313502743
0.911158561706543,0.6436474919319153,-0.9915516972541809,-0.5804720595960841,-0.5502048684470366,-0.2508283355971799,0.32503256313502743
-0.00861656665802002,2.2631282806396484,-2.0727579593658447,-0.5804720595960841,-0.5502048684470366,-0.2508283355971799,0.32503256313502743
1.2179611921310425,0.8618094325065613,-2.8200571537017822,-0.5804720595960841,-0.5502048684470366,-0.2508283355971799,0.32503256313502743
0.8714329600334167,1.2070260047912598,-3.18459153175354,-0.5804720595960841,-0.5502048684470366,-0.2508283355971799,0.32503256313502743
0.9312107563018799,0.9054572582244873,-3.2357559204101562,-0.5804720595960841,-0.5502048684470366,-0.2508283355971799,0.32503256313502743
0.9242851138114929,-0.41006678342819214,-3.1639294624328613,-0.5804720595960841,-0.5502048684470366,-0.2508283355971799,0.32503256313502743
1.0612176656723022,-0.01819610223174095,-3.181753635406494,-0.5804720595960841,-0.5502048684470366,-0.2508283355971799,0.32503256313502743
0.424859881401062,-0.25390487909317017,-3.181598424911499,-0.5804720595960841,-0.5502048684470366,-0.2508283355971799,0.32503256313502743
0.0418674498796463,-0.11519215255975723,-3.169093370437622,-0.5804720595960841,-0.5502048684470366,-0.2508283355971799,0.32503256313502743
-0.05771584436297417,-0.0344027616083622,-3.1802868843078613,-0.5804720595960841,-0.5502048684470366,-0.2508283355971799,0.32503256313502743
-0.241815447807312,-0.19366146624088287,-3.1860995292663574,-0.5804720595960841,-0.5502048684470366,-0.2508283355971799,0.32503256313502743
-0.2511594593524933,-0.03738150745630264,-3.1862361431121826,-0.5804720595960841,-0.5502048684470366,-0.2508283355971799,0.32503256313502743
0.03957667201757431,-0.16560789942741394,-3.1900875568389893,-0.5804720595960841,-0.5502048684470366,-0.2508283355971799,0.32503256313502743
0.343112051486969,-0.08556666970252991,-3.1847610473632812,-0.5804720595960841,-0.5502048684470366,-0.2508283355971799,0.32503256313502743
0.2836798131465912,-0.15284833312034607,-3.182858943939209,-0.5804720595960841,-0.5502048684470366,-0.2508283355971799,0.32503256313502743
0.11110927164554596,-0.10016907751560211,-3.182617425918579,-0.5804720595960841,-0.5502048684470366,-0.2508283355971799,0.32503256313502743
-0.023192696273326874,-0.14431476593017578,-3.182222604751587,-0.5804720595960841,-0.5502048684470366,-0.2508283355971799,0.32503256313502743
0.11006775498390198,-0.10010311752557755,-3.1809041500091553,-0.5804720595960841,-0.5502048684470366,-0.2508283355971799,0.32503256313502743
0.2194802165031433,-0.13072042167186737,-3.1809396743774414,-0.5804720595960841,-0.5502048684470366,-0.2508283355971799,0.32503256313502743
0.17182192206382751,-0.12061502039432526,-3.179614305496216,-0.5804720595960841,-0.5502048684470366,-0.2508283355971799,0.32503256313502743
0.07194756716489792,-0.10862259566783905,-3.1785740852355957,-0.5804720595960841,-0.5502048684470366,-0.2508283355971799,0.32503256313502743
0.08007795363664627,-0.11926469951868057,-3.1782145500183105,-0.5804720595960841,-0.5502048684470366,-0.2508283355971799,0.32503256313502743
0.1812044382095337,-0.1231074333190918,-3.1787285804748535,-0.5804720595960841,-0.5502048684470366,-0.2508283355971799,0.32503256313502743
0.16458331048488617,-0.12608376145362854,-3.178135395050049,-0.5804720595960841,-0.5502048684470366,-0.2508283355971799,0.32503256313502743
0.07917645573616028,-0.12145140767097473,-3.1777801513671875,-0.5804720595960841,-0.5502048684470366,-0.2508283355971799,0.32503256313502743
0.08055713027715683,-0.11701298505067825,-3.17744779586792,-0.5804720595960841,-0.5502048684470366,-0.2508283355971799,0.32503256313502743
0.1460275650024414,-0.10300721228122711,-3.177889108657837,-0.5804720595960841,-0.5502048684470366,-0.2508283355971799,0.32503256313502743
0.1564406305551529,-0.11461517959833145,-3.1776044368743896,-0.5804720595960841,-0.5502048684470366,-0.2508283355971799,0.32503256313502743
0.12027212232351303,-0.13182879984378815,-3.176332950592041,-0.5804720595960841,-0.5502048684470366,-0.2508283355971799,0.32503256313502743
0.09854179620742798,-0.12000575661659241,-3.1761696338653564,-0.5804720595960841,-0.5502048684470366,-0.2508283355971799,0.32503256313502743
0.12346181273460388,-0.12098056077957153,-3.176314353942871,-0.5804720595960841,-0.5502048684470366,-0.2508283355971799,0.32503256313502743
0.12859658896923065,-0.123823381960392,-3.1753358840942383,-0.5804720595960841,-0.5502048684470366,-0.2508283355971799,0.32503256313502743
0.11311987787485123,-0.12006819993257523,-3.1752078533172607,-0.5804720595960841,-0.5502048684470366,-0.2508283355971799,0.32503256313502743
0.10356851667165756,-0.11590839922428131,-3.1744792461395264,-0.5804720595960841,-0.5502048684470366,-0.2508283355971799,0.32503256313502743
0.12015800923109055,-0.12571197748184204,-3.1746673583984375,-0.5804720595960841,-0.5502048684470366,-0.2508283355971799,0.32503256313502743
0.1341364085674286,-0.11850356310606003,-3.1740896701812744,-0.5804720595960841,-0.5502048684470366,-0.2508283355971799,0.32503256313502743
0.11528150737285614,-0.11463217437267303,-3.1733784675598145,-0.5804720595960841,-0.5502048684470366,-0.2508283355971799,0.32503256313502743
0.12009730935096741,-0.11415502429008484,-3.171938896179199,-0.5804720595960841,-0.5502048684470366,-0.2508283355971799,0.32503256313502743
0.12301141768693924,-0.12979774177074432,-3.171297788619995,-0.5804720595960841,-0.5502048684470366,-0.2508283355971799,0.32503256313502743
0.13333171606063843,-0.1343836933374405,-3.171365976333618,-0.5804720595960841,-0.5502048684470366,-0.2508283355971799,0.32503256313502743
0.11783252656459808,-0.1202303022146225,-3.1705398559570312,-0.5804720595960841,-0.5502048684470366,-0.2508283355971799,0.32503256313502743
0.11628995835781097,-0.11505533754825592,-3.1700830459594727,-0.5804720595960841,-0.5502048684470366,-0.2508283355971799,0.32503256313502743
0.12632068991661072,-0.11216157674789429,-3.170403242111206,-0.5804720595960841,-0.5502048684470366,-0.2508283355971799,0.32503256313502743
0.12282433360815048,-0.12149112671613693,-3.1696794033050537,-0.5804720595960841,-0.5502048684470366,-0.2508283355971799,0.32503256313502743
0.12713097035884857,-0.13934947550296783,-3.1691184043884277,-0.5804720595960841,-0.5502048684470366,-0.2508283355971799,0.32503256313502743
0.11501898616552353,-0.11385159939527512,-3.1696102619171143,-0.5804720595960841,-0.5502048684470366,-0.2508283355971799,0.32503256313502743
0.11612343788146973,-0.12652269005775452,-3.1688036918640137,-0.5804720595960841,-0.5502048684470366,-0.2508283355971799,0.32503256313502743
0.11405998468399048,-0.12833362817764282,-3.1686465740203857,-0.5804720595960841,-0.5502048684470366,-0.2508283355971799,0.32503256313502743
0.12174361199140549,-0.1169641762971878,-3.1697285175323486,-0.5804720595960841,-0.5502048684470366,-0.2508283355971799,0.32503256313502743
0.12071922421455383,-0.12062720209360123,-3.1688458919525146,-0.5804720595960841,-0.5502048684470366,-0.2508283355971799,0.32503256313502743
0.10941018909215927,-0.12630616128444672,-3.169924020767212,-0.5804720595960841,-0.5502048684470366,-0.2508283355971799,0.32503256313502743
0.12419810146093369,-0.12127675861120224,-3.171083450317383,-0.5804720595960841,-0.5502048684470366,-0.2508283355971799,0.32503256313502743
0.10937398672103882,-0.12566527724266052,-3.1713223457336426,-0.5804720595960841,-0.5502048684470366,-0.2508283355971799,0.32503256313502743
0.10580146312713623,-0.11843574047088623,-3.170837879180908,-0.5804720595960841,-0.5502048684470366,-0.2508283355971799,0.32503256313502743
0.11167965829372406,-0.13375738263130188,-3.1700117588043213,-0.5804720595960841,-0.5502048684470366,-0.2508283355971799,0.32503256313502743
0.1168970987200737,-0.11621569842100143,-3.1709141731262207,-0.5804720595960841,-0.5502048684470366,-0.2508283355971799,0.32503256313502743
0.11269419640302658,-0.12303698062896729,-3.1699845790863037,-0.5804720595960841,-0.5502048684470366,-0.2508283355971799,0.32503256313502743
0.1159195601940155,-0.11917364597320557,-3.169524908065796,-0.5804720595960841,-0.5502048684470366,-0.2508283355971799,0.32503256313502743
0.11904820054769516,-0.11564494669437408,-3.1702663898468018,-0.5804720595960841,-0.5502048684470366,-0.2508283355971799,0.32503256313502743
0.1103559285402298,-0.1312941461801529,-3.170013666152954,-0.5804720595960841,-0.5502048684470366,-0.2508283355971799,0.32503256313502743
0.12702977657318115,-0.1298656165599823,-3.1696295738220215,-0.5804720595960841,-0.5502048684470366,-0.2508283355971799,0.32503256313502743
0.12049709260463715,-0.12141285091638565,-3.1689789295196533,-0.5804720595960841,-0.5502048684470366,-0.2508283355971799,0.32503256313502743
0.09795159101486206,-0.11615560203790665,-3.1680407524108887,-0.5804720595960841,-0.5502048684470366,-0.2508283355971799,0.32503256313502743
0.11366772651672363,-0.11018280684947968,-3.1681711673736572,-0.5804720595960841,-0.5502048684470366,-0.2508283355971799,0.32503256313502743
0.11262302100658417,-0.12618482112884521,-3.168470859527588,-0.5804720595960841,-0.5502048684470366,-0.2508283355971799,0.32503256313502743
0.09300316870212555,-0.11715662479400635,-3.167996406555176,-0.5804720595960841,-0.5502048684470366,-0.2508283355971799,0.32503256313502743
0.11052297800779343,-0.12930086255073547,-3.168891429901123,-0.5804720595960841,-0.5502048684470366,-0.2508283355971799,0.32503256313502743
0.1066955178976059,-0.13700413703918457,-3.1688034534454346,-0.5804720595960841,-0.5502048684470366,-0.2508283355971799,0.32503256313502743
0.10463789850473404,-0.1262560784816742,-3.169761896133423,-0.5804720595960841,-0.5502048684470366,-0.2508283355971799,0.32503256313502743
0.10185454040765762,-0.130532369017601,-3.169300079345703,-0.5804720595960841,-0.5502048684470366,-0.2508283355971799,0.32503256313502743
0.10827095806598663,-0.1253460943698883,-3.1695919036865234,-0.5804720595960841,-0.5502048684470366,-0.2508283355971799,0.32503256313502743
0.10108242183923721,-0.13573898375034332,-3.169400453567505,-0.5804720595960841,-0.5502048684470366,-0.2508283355971799,0.32503256313502743
0.11409293115139008,-0.11315872520208359,-3.1682956218719482,-0.5804720595960841,-0.5502048684470366,-0.2508283355971799,0.32503256313502743
0.11026649922132492,-0.1259242445230484,-3.166980028152466,-0.5804720595960841,-0.5502048684470366,-0.2508283355971799,0.32503256313502743
0.11672119796276093,-0.1325709968805313,-3.1662161350250244,-0.5804720595960841,-0.5502048684470366,-0.2508283355971799,0.32503256313502743
0.09488961845636368,-0.12026768177747726,-3.1660547256469727,-0.5804720595960841,-0.5502048684470366,-0.2508283355971799,0.32503256313502743
0.09278325736522675,-0.13462594151496887,-3.166215419769287,-0.5804720595960841,-0.5502048684470366,-0.2508283355971799,0.32503256313502743
0.1009548008441925,-0.13455501198768616,-3.166106700897217,-0.5804720595960841,-0.5502048684470366,-0.2508283355971799,0.32503256313502743
0.10455205291509628,-0.12450406700372696,-3.165015935897827,-0.5804720595960841,-0.5502048684470366,-0.2508283355971799,0.32503256313502743
0.09930349886417389,-0.11986079066991806,-3.1646554470062256,-0.5804720595960841,-0.5502048684470366,-0.2508283355971799,0.32503256313502743
0.11498548835515976,-0.11517386883497238,-3.1651177406311035,-0.5804720595960841,-0.5502048684470366,-0.2508283355971799,0.32503256313502743
0.10831756889820099,-0.13604196906089783,-3.164992332458496,-0.5804720595960841,-0.5502048684470366,-0.2508283355971799,0.32503256313502743
0.12062299996614456,-0.13240142166614532,-3.164351224899292,-0.5804720595960841,-0.5502048684470366,-0.2508283355971799,0.32503256313502743
0.10638553649187088,-0.12174218147993088,-3.1653530597686768,-0.5804720595960841,-0.5502048684470366,-0.2508283355971799,0.32503256313502743
0.09341065585613251,-0.12686984241008759,-3.164856195449829,-0.5804720595960841,-0.5502048684470366,-0.2508283355971799,0.32503256313502743
0.09938087314367294,-0.11502756178379059,-3.1669583320617676,-0.5804720595960841,-0.5502048684470366,-0.2508283355971799,0.32503256313502743
0.10257808119058609,-0.11808329075574875,-3.166802167892456,-0.5846385069286527,-0.5448038473151015,-0.24914534431106106,0.3230899726971979
0.13557907938957214,-0.12681908905506134,-3.167931318283081,-0.5887743906421301,-0.5394360215465239,-0.24716070130622642,0.32104911953210785
0.4674951136112213,-0.1274426281452179,-3.1523489952087402,-0.5928518555116088,-0.5341028599513499,-0.2421350830312198,0.3189302718887722
2.410127878189087,0.3755825459957123,-3.056488037109375,-0.5966876052988097,-0.5287701234811307,-0.2181548914328839,0.3209981045375263
3.776744842529297,-0.5432038307189941,-2.8386614322662354,-0.5998938762170857,-0.5234317954391666,-0.16659761876023071,0.3196012604981656
2.1777522563934326,-0.34664276242256165,-2.718837022781372,-0.6022569964534421,-0.5181669026664987,-0.11697680960254131,0.31218587222198596
1.2580909729003906,-0.18616290390491486,-2.66300106048584,-0.6039680097225613,-0.5130008051896272,-0.08834478269175945,0.30774582500259035
0.8324794769287109,-0.3527580797672272,-2.6180026531219482,-0.6052952442639635,-0.5079091331745613,-0.07092336227651694,0.3032548168053225
1.840693712234497,0.7508754730224609,-2.627462148666382,-0.6062916632748803,-0.5028272391866077,-0.04864691903349021,0.3065724617491161
1.5594972372055054,-1.4349769353866577,-2.5956003665924072,-0.6068663208872829,-0.49776520520345324,-0.020311994454823522,0.3008716162294145
1.853838324546814,1.0148959159851074,-2.5307183265686035,-0.6069678169364082,-0.49277985055931034,0.008132468559779137,0.29737094106773493
1.1096571683883667,-0.7741020321846008,-2.4648079872131348,-0.6066264774956247,-0.4878069464106953,0.03282826433423898,0.2993775567660725
0.9824324250221252,0.3424845337867737,-2.451775550842285,-0.6059340557571783,-0.4828472939019828,0.05026234427932641,0.2957807442794239
0.4962635934352875,-0.6464977860450745,-2.4436004161834717,-0.6049936627956856,-0.47793872686206584,0.06258481109980485,0.2932473005106047
1.4629309177398682,-0.8161128163337708,-2.4619650840759277,-0.6038145274363016,-0.47315284203427654,0.07891143202626448,0.28105887882411434
0.8155630826950073,0.40810659527778625,-2.5419633388519287,-0.6023411081525003,-0.46849686115255906,0.09789888202988845,0.27765882698198113
0.42895856499671936,0.36178484559059143,-2.6566948890686035,-0.6006230350042457,-0.46381574935279907,0.10826989576065284,0.2840745889892176
0.8337063789367676,-0.1951780468225479,-2.7460777759552,-0.5987308516760173,-0.4590696029530643,0.11879210362676523,0.2854629789789513
0.9096713066101074,0.8886006474494934,-2.711573600769043,-0.5966299153874082,-0.4542637322894827,0.13332025100632253,0.2912415006508425
1.2639145851135254,-1.13467538356781,-2.6776931285858154,-0.5942569677392664,-0.44942679580197686,0.15143346677068614,0.28919087784985653
0.43950822949409485,0.7834103107452393,-2.6391003131866455,-0.5916147833754072,-0.4446313412456475,0.16562865689241632,0.2862636689096684
1.5909491777420044,-0.7684177756309509,-2.588070869445801,-0.58871330177392,-0.43985923894888124,0.1825491352860505,0.2863886067022875
-0.20897963643074036,-0.5006735920906067,-2.643199920654297,-0.5855748460787836,-0.4351742268488238,0.19406554813031102,0.27581284530460787
1.4233784675598145,-0.5450087189674377,-2.7212748527526855,-0.5822560870244501,-0.4306499629209038,0.20418553838971998,0.2670988260457908
0,-0.34303274750709534,-2.8466994762420654,-0.5787541489910408,-0.42625998536642357,0.2160470256193851,0.25969848049183636
0,-0.4883500933647156,-2.9543113708496094,-0.5751533652307177,-0.4219894122777313,0.2160470256193851,0.2527702901512379
0.2973850965499878,0,-2.983686685562134,-0.5715319297275786,-0.4178104873094721,0.21852523475730168,0.2487007060398653
0.27466052770614624,0.9628800749778748,-2.973728656768799,-0.5678501170910503,-0.41359860887026756,0.2232922816261028,0.25672470666468095
0.3581502437591553,0,-3.0227210521698,-0.5640846338714857,-0.4092529970873161,0.22856570472164697,0.26474870728949657
0.6869286298751831,-1.1172375679016113,-3.0304746627807617,-0.560202630537678,-0.40491810457470656,0.23727469533526646,0.2554383942236498
0.909567654132843,0.6741064190864563,-3.053504228591919,-0.5561371844845897,-0.4006915710007579,0.25057883103533335,0.2517456346501902
0,-1.143725872039795,-3.08152174949646,-0.5518977062135749,-0.3965284228852654,0.2581585614864404,0.24783213920891237
0.2658159136772156,-1.3537933826446533,-3.2039172649383545,-0.5475766040836845,-0.39257132606891443,0.2603736941004172,0.22701947875320863
-0.34742507338523865,0.37808623909950256,-3.33732271194458,-0.5432427098181016,-0.38885542553021823,0.25969361776951705,0.2188885858903324
0,0.4756712317466736,-3.4715147018432617,-0.5389386095964837,-0.3851479937187928,0.25679840882464006,0.2260032314807172
0.3980984091758728,-0.4102564752101898,-3.4438695907592773,-0.5346309903932136,-0.38137673050268805,0.2601158955677723,0.22654835445185456
0.5892548561096191,0.3933212459087372,-3.381892442703247,-0.5302271592681059,-0.3776021006527475,0.2683438394451514,0.22640722754100912
-0.10310151427984238,-0.4882405698299408,-3.3124537467956543,-0.5257210012952819,-0.37383523848011413,0.27239511729373284,0.2256162331749991
0,-0.2770232558250427,-3.2579262256622314,-0.5211882425011002,-0.37012811124842354,0.27153593800806747,0.21923903462787422
0.6437546610832214,0.6052444577217102,-3.2626216411590576,-0.5166179383495016,-0.3664513341989384,0.27690056018376097,0.22197421131034645
0.6431714296340942,0.14213213324546814,-3.2618587017059326,-0.5119135591456947,-0.3626998628582821,0.28762494427307195,0.22820234956840627
1.0409175157546997,-0.5254310965538025,-3.1934688091278076,-0.5070028594532693,-0.3589231083490384,0.3016590188179786,0.22500819154083682
-0.324939101934433,-0.6567442417144775,-3.2027554512023926,-0.5019254884164543,-0.35525506733295975,0.3076255055998141,0.21515673038860114
0.36306506395339966,0.42447182536125183,-3.359478235244751,-0.4967957490202061,-0.3516852518553965,0.30794322194997215,0.21322112691899092
-0.3352105915546417,0.7447177767753601,-3.459221124649048,-0.49166142764934556,-0.34805037268437605,0.30817534255329515,0.2229643736034627
0.7307793498039246,0.15912896394729614,-3.46474552154541,-0.48649770188746777,-0.3442715326562126,0.31147174887203916,0.23049642977615148
-0.7520493865013123,0.32526856660842896,-3.4003028869628906,-0.48130798315881557,-0.340396286775877,0.3112944985662276,0.23453307586411584
1.8913304805755615,-1.223564624786377,-3.413778066635132,-0.47604062477340103,-0.33654978384884854,0.320788507683513,0.2270472753792996
-1.0156739950180054,-0.610845685005188,-3.464836835861206,-0.4706333401671788,-0.33289305219737353,0.32808564506315935,0.21176052279770324
0.2251867949962616,-0.4048430919647217,-3.5344839096069336,-0.46522014102723874,-0.3294342440935903,0.3214982517296448,0.20329644965628732
0.49089911580085754,-0.5852234959602356,-3.7093520164489746,-0.45981210864349487,-0.3261147245568136,0.3274656343196208,0.19504589475691267
-0.48536089062690735,0.2231939733028412,-3.810290575027466,-0.45435396347253076,-0.32288910058327186,0.32751178619607035,0.19202898206810104
0.09763737767934799,-0.052523355931043625,-3.8312835693359375,-0.44892235894655097,-0.31967676542259715,0.3242807569215074,0.19345123721286603
0.17040587961673737,0.7999147772789001,-3.8569223880767822,-0.44349906554943586,-0.316400675953678,0.32651445073230806,0.1996794990574315
0.3399392366409302,-0.6955280900001526,-3.9262733459472656,-0.4380217174041573,-0.3130654352272153,0.33076732670112197,0.20054938811808773
0.8280183672904968,0.18551351130008698,-3.9506168365478516,-0.4324278204588656,-0.3097583631043236,0.3405003067338839,0.19629926662892053
-0.393342524766922,-1.7832720279693604,-4.022496700286865,-0.42672262952423673,-0.3065976641130547,0.34412260542158035,0.18298461232334326
-0.2332421839237213,0.2366386204957962,-4.155201435089111,-0.42103076559420277,-0.30365532567207354,0.33890106618249166,0.1700960005943969
0.15275835990905762,-0.24808579683303833,-4.368376731872559,-0.4153880036456067,-0.3008211872716348,0.33823036764903613,0.1700006074582532
-0.18872031569480896,-0.9137532114982605,-4.356303691864014,-0.4097533282094968,-0.2980685270784647,0.3379306846841549,0.16031861572215905
0.7244399785995483,1.7446593046188354,-4.360732555389404,-0.40408394737705916,-0.29533884833773977,0.342395015208361,0.16724283316483052
-1.148956298828125,-1.392725944519043,-4.2958879470825195,-0.398406844090269,-0.292527027968319,0.3388573792064562,0.17017561116566213
0.23340876400470734,-0.5192794799804688,-4.184096813201904,-0.39282280079341303,-0.28982354593670373,0.33122781641626103,0.1542422326281662
0.546329915523529,1.341532826423645,-4.157303810119629,-0.3872481886670637,-0.2871957411327313,0.337725638745663,0.161094343848526
0.2612197697162628,-0.5118726491928101,-4.151552677154541,-0.38156334818204984,-0.28445322011183705,0.3444552194559946,0.16800817865878295
0.6582857966423035,-0.34936702251434326,-4.125129699707031,-0.3757585733045639,-0.28171289211139255,0.352117765842316,0.16083118139455668
0,-0.18900221586227417,-4.166930675506592,-0.36984422958242513,-0.27906975917414834,0.35760348081433524,0.15634477107475153
0,1.1974716186523438,-4.2844319343566895,-0.3638841715688529,-0.2763939803921532,0.35760348081433524,0.16474868276466878
0,0.08888822793960571,-4.355673313140869,-0.35792411355528064,-0.2735588384678398,0.35760348081433524,0.17546834815293502
0.06442524492740631,-0.7948541045188904,-4.352022647857666,-0.3519595815663662,-0.27068339140672,0.35814035785539694,0.169585299181441
0.16315114498138428,0.4257511794567108,-4.2972187995910645,-0.3459747716861437,-0.2678826019012697,0.3600368277713035,0.1665094414725895
1.1993744373321533,-1.210341453552246,-4.355418682098389,-0.3398795380578502,-0.2651619299790943,0.37139120762391636,0.15997118918846004
-0.6938768029212952,-0.18761737644672394,-4.419358730316162,-0.333654580595062,-0.26259282396692546,0.3756036879106735,0.14832153227180195
0.218267560005188,-0.5663902163505554,-4.55946159362793,-0.327427547549531,-0.2601731600674508,0.3716402775530393,0.14203813566515797
-0.2591233551502228,-0.42789018154144287,-4.692492961883545,-0.32123638013164324,-0.2578749050562184,0.37129981259349737,0.13375246568272464
-0.7386912703514099,-0.06129855290055275,-4.748477458953857,-0.31511734260407814,-0.25567966873473147,0.3629846907143171,0.12967589289570802
0.47762399911880493,0.953788697719574,-4.770680904388428,-0.30908572743045293,-0.2534564253708572,0.3608091301207121,0.13711331076919986
0.15067386627197266,-0.5689264535903931,-4.851248264312744,-0.30908572743045293,-0.2534564253708572,0.3608091301207121,0.13711331076919986
0.28736743330955505,0.19979193806648254,-4.895141124725342,-0.30908572743045293,-0.2534564253708572,0.3608091301207121,0.13711331076919986
-0.3857276737689972,-1.36713445186615,-5.043492317199707,-0.30908572743045293,-0.2534564253708572,0.3608091301207121,0.13711331076919986
-2.2404301166534424,0.08456650376319885,-5.398534297943115,-0.30908572743045293,-0.2534564253708572,0.3608091301207121,0.13711331076919986
-2.4628241062164307,0.24392877519130707,-5.991137981414795,-0.30908572743045293,-0.2534564253708572,0.3608091301207121,0.13711331076919986
-2.99467134475708,0.5574021935462952,-6.815835952758789,-0.30908572743045293,-0.2534564253708572,0.3608091301207121,0.13711331076919986
-2.6101341247558594,-0.43132254481315613,-7.8545308113098145,-0.30908572743045293,-0.2534564253708572,0.3608091301207121,0.13711331076919986
-2.039430618286133,0.14738476276397705,-9.179780960083008,-0.30908572743045293,-0.2534564253708572,0.3608091301207121,0.13711331076919986
-1.6198935508728027,0.1980392336845398,-10.688859939575195,-0.30908572743045293,-0.2534564253708572,0.3608091301207121,0.13711331076919986
-1.6855974197387695,-0.36325448751449585,-12.339191436767578,-0.30908572743045293,-0.2534564253708572,0.3608091301207121,0.13711331076919986
-1.315625786781311,-0.47205138206481934,-14.14111614227295,-0.30908572743045293,-0.2534564253708572,0.3608091301207121,0.13711331076919986
-1.7151275873184204,-0.5215039253234863,-15.97281265258789,-0.30908572743045293,-0.2534564253708572,0.3608091301207121,0.13711331076919986
-1.3612414598464966,-0.9814192652702332,-17.848899841308594,-0.30908572743045293,-0.2534564253708572,0.3608091301207121,0.13711331076919986
-0.7866979241371155,-0.34042418003082275,-19.755226135253906,-0.30908572743045293,-0.2534564253708572,0.3608091301207121,0.13711331076919986
-1.2410166263580322,-0.2899649143218994,-21.776819229125977,-0.30908572743045293,-0.2534564253708572,0.3608091301207121,0.13711331076919986
-0.6930907964706421,-0.6281800866127014,-23.815814971923828,-0.30908572743045293,-0.2534564253708572,0.3608091301207121,0.13711331076919986
-0.7628612518310547,1.5165367126464844,-25.945579528808594,-0.30908572743045293,-0.2534564253708572,0.3608091301207121,0.13711331076919986
-1.1892627477645874,-2.060567617416382,-28.028156280517578,-0.30908572743045293,-0.2534564253708572,0.3608091301207121,0.13711331076919986
-1.3966561555862427,0.8582614064216614,-30.09275245666504,-0.30908572743045293,-0.2534564253708572,0.3608091301207121,0.13711331076919986
-0.7835656404495239,-0.9551697373390198,-32.112606048583984,-0.30908572743045293,-0.2534564253708572,0.3608091301207121,0.13711331076919986
-1.156546950340271,-1.0508419275283813,-34.18473815917969,-0.30908572743045293,-0.2534564253708572,0.3608091301207121,0.13711331076919986
-0.20043720304965973,0.45194196701049805,-36.23078155517578,-0.30908572743045293,-0.2534564253708572,0.3608091301207121,0.13711331076919986
-1.1191661357879639,-1.0872546434402466,-38.32495880126953,-0.30908572743045293,-0.2534564253708572,0.3608091301207121,0.13711331076919986
-1.3073318004608154,0.25593623518943787,-40.364532470703125,-0.30908572743045293,-0.2534564253708572,0.3608091301207121,0.13711331076919986
-0.7326825261116028,-0.13698530197143555,-42.36690902709961,-0.30908572743045293,-0.2534564253708572,0.3608091301207121,0.13711331076919986
-1.1154048442840576,0.2793838381767273,-44.224639892578125,-0.30908572743045293,-0.2534564253708572,0.3608091301207121,0.13711331076919986
-0.25896862149238586,-0.3154183030128479,-46.06971740722656,-0.30908572743045293,-0.2534564253708572,0.3608091301207121,0.13711331076919986
0.2686585485935211,-0.48284387588500977,-47.88072967529297,-0.30908572743045293,-0.2534564253708572,0.3608091301207121,0.13711331076919986
-0.6622492074966431,0.3047396242618561,-49.607139587402344,-0.30908572743045293,-0.2534564253708572,0.3608091301207121,0.13711331076919986
-0.13796432316303253,0.9338716864585876,-51.14702606201172,-0.30908572743045293,-0.2534564253708572,0.3608091301207121,0.13711331076919986
-0.9290391206741333,-0.387436181306839,-52.66925048828125,-0.30908572743045293,-0.2534564253708572,0.3608091301207121,0.13711331076919986
0.18080025911331177,-0.11510466784238815,-54.16105651855469,-0.30908572743045293,-0.2534564253708572,0.3608091301207121,0.13711331076919986
-0.5604932904243469,0.34026622772216797,-55.73480987548828,-0.30908572743045293,-0.2534564253708572,0.3608091301207121,0.13711331076919986
-0.1430138498544693,0.5055411458015442,-57.238059997558594,-0.30908572743045293,-0.2534564253708572,0.3608091301207121,0.13711331076919986
0.04160575568675995,0.27453508973121643,-58.70493698120117,-0.30908572743045293,-0.2534564253708572,0.3608091301207121,0.13711331076919986
-0.4041891098022461,-0.5546712875366211,-60.31770706176758,-0.30908572743045293,-0.2534564253708572,0.3608091301207121,0.13711331076919986
-0.05306090787053108,-0.7617942690849304,-61.956974029541016,-0.30908572743045293,-0.2534564253708572,0.3608091301207121,0.13711331076919986
-1.0443099737167358,1.4305592775344849,-63.73613739013672,-0.30908572743045293,-0.2534564253708572,0.3608091301207121,0.13711331076919986
-0.7178906202316284,-0.11392834782600403,-65.4853286743164,-0.30908572743045293,-0.2534564253708572,0.3608091301207121,0.13711331076919986
0.24958668649196625,-0.2762807607650757,-67.38143920898438,-0.30908572743045293,-0.2534564253708572,0.3608091301207121,0.13711331076919986
-0.5785194635391235,0.868156909942627,-69.58394622802734,-0.30908572743045293,-0.2534564253708572,0.3608091301207121,0.13711331076919986
-0.9982196092605591,0.27267348766326904,-72.03115844726562,-0.30908572743045293,-0.2534564253708572,0.3608091301207121,0.13711331076919986
-0.25584399700164795,-0.2783042788505554,-74.41278076171875,-0.30908572743045293,-0.2534564253708572,0.3608091301207121,0.13711331076919986
0.08247502148151398,1.1425520181655884,-76.88888549804688,-0.30908572743045293,-0.2534564253708572,0.3608091301207121,0.13711331076919986
0.1533057987689972,-0.29739391803741455,-79.32662200927734,-0.30908572743045293,-0.2534564253708572,0.3608091301207121,0.13711331076919986
0.14340177178382874,0.5388643741607666,-81.8160400390625,-0.30908572743045293,-0.2534564253708572,0.3608091301207121,0.13711331076919986
-1.1278507709503174,-0.6096983551979065,-84.34627532958984,-0.30908572743045293,-0.2534564253708572,0.3608091301207121,0.13711331076919986
0.7982320189476013,1.3515355587005615,-86.83976745605469,-0.30908572743045293,-0.2534564253708572,0.3608091301207121,0.13711331076919986
0.3080003261566162,-0.33165690302848816,-88.97406005859375,-0.30908572743045293,-0.2534564253708572,0.3608091301207121,0.13711331076919986
0.35657432675361633,0.15949498116970062,-90.61634826660156,-0.30908572743045293,-0.2534564253708572,0.3608091301207121,0.13711331076919986
1.3137249946594238,-0.950962483882904,-91.8123550415039,-0.30908572743045293,-0.2534564253708572,0.3608091301207121,0.13711331076919986
1.447608232498169,-0.8277928233146667,-92.73682403564453,-0.30908572743045293,-0.2534564253708572,0.3608091301207121,0.13711331076919986
1.4860519170761108,-0.43280279636383057,-93.17194366455078,-0.30908572743045293,-0.2534564253708572,0.3608091301207121,0.13711331076919986
1.1959118843078613,-1.1791328191757202,-93.21812438964844,-0.30908572743045293,-0.2534564253708572,0.3608091301207121,0.13711331076919986
-0.2846095561981201,0.2248268574476242,-93.07263946533203,-0.30908572743045293,-0.2534564253708572,0.3608091301207121,0.13711331076919986
-0.05825166776776314,-0.08965642005205154,-93.07026672363281,-0.30908572743045293,-0.2534564253708572,0.3608091301207121,0.13711331076919986
-0.09284120798110962,-0.15688934922218323,-93.0052490234375,-0.30908572743045293,-0.2534564253708572,0.3608091301207121,0.13711331076919986
-0.2080450803041458,-0.035133060067892075,-92.95989990234375,-0.30908572743045293,-0.2534564253708572,0.3608091301207121,0.13711331076919986
-0.04964002966880798,-0.12692397832870483,-92.90860748291016,-0.30908572743045293,-0.2534564253708572,0.3608091301207121,0.13711331076919986
-0.13680940866470337,-0.106300488114357,-92.86646270751953,-0.30908572743045293,-0.2534564253708572,0.3608091301207121,0.13711331076919986
-0.12072232365608215,-0.1485397070646286,-92.81344604492188,-0.30908572743045293,-0.2534564253708572,0.3608091301207121,0.13711331076919986
-0.08599952608346939,-0.09325732290744781,-92.77644348144531,-0.30908572743045293,-0.2534564253708572,0.3608091301207121,0.13711331076919986
-0.14150825142860413,-0.11526880413293839,-92.72892761230469,-0.30908572743045293,-0.2534564253708572,0.3608091301207121,0.13711331076919986
-0.06421418488025665,-0.07260608673095703,-92.6889419555664,-0.30908572743045293,-0.2534564253708572,0.3608091301207121,0.13711331076919986
-0.15814779698848724,-0.113765649497509,-92.64588165283203,-0.30908572743045293,-0.2534564253708572,0.3608091301207121,0.13711331076919986
-0.09496760368347168,-0.11936415731906891,-92.60346984863281,-0.30908572743045293,-0.2534564253708572,0.3608091301207121,0.13711331076919986
-0.13158288598060608,-0.11920949071645737,-92.56324005126953,-0.30908572743045293,-0.2534564253708572,0.3608091301207121,0.13711331076919986
-0.12193448841571808,-0.10705229640007019,-92.52237701416016,-0.30908572743045293,-0.2534564253708572,0.3608091301207121,0.13711331076919986
-0.1118730828166008,-0.10150596499443054,-92.48513793945312,-0.30908572743045293,-0.2534564253708572,0.3608091301207121,0.13711331076919986
-0.11986277252435684,-0.10407719761133194,-92.44691467285156,-0.30908572743045293,-0.2534564253708572,0.3608091301207121,0.13711331076919986
-0.112335205078125,-0.11043814569711685,-92.40906524658203,-0.30908572743045293,-0.2534564253708572,0.3608091301207121,0.13711331076919986
-0.10376325994729996,-0.10227730870246887,-92.3726577758789,-0.30908572743045293,-0.2534564253708572,0.3608091301207121,0.13711331076919986
-0.11624875664710999,-0.11173975467681885,-92.3365249633789,-0.30908572743045293,-0.2534564253708572,0.3608091301207121,0.13711331076919986
-0.10463088750839233,-0.10337404906749725,-92.3017807006836,-0.30908572743045293,-0.2534564253708572,0.3608091301207121,0.13711331076919986
-0.12005151808261871,-0.09687197953462601,-92.2668685913086,-0.30908572743045293,-0.2534564253708572,0.3608091301207121,0.13711331076919986
-0.0923580452799797,-0.1121271476149559,-92.2348861694336,-0.30908572743045293,-0.2534564253708572,0.3608091301207121,0.13711331076919986
-0.11079128831624985,-0.10231354087591171,-92.2021484375,-0.30908572743045293,-0.2534564253708572,0.3608091301207121,0.13711331076919986
-0.10479503870010376,-0.10551563650369644,-92.17144012451172,-0.30908572743045293,-0.2534564253708572,0.3608091301207121,0.13711331076919986
-0.1146634966135025,-0.1088932454586029,-92.14118957519531,-0.30908572743045293,-0.2534564253708572,0.3608091301207121,0.13711331076919986
-0.12025188654661179,-0.09177260100841522,-92.10944366455078,-0.30908572743045293,-0.2534564253708572,0.3608091301207121,0.13711331076919986
-0.11429638415575027,-0.10127255320549011,-92.07987213134766,-0.30908572743045293,-0.2534564253708572,0.3608091301207121,0.13711331076919986
-0.10532192140817642,-0.10921928286552429,-92.05142211914062,-0.30908572743045293,-0.2534564253708572,0.3608091301207121,0.13711331076919986
-0.11171045154333115,-0.10314749926328659,-92.02294921875,-0.30908572743045293,-0.2534564253708572,0.3608091301207121,0.13711331076919986
-0.12000315636396408,-0.0933680534362793,-91.99296569824219,-0.30908572743045293,-0.2534564253708572,0.3608091301207121,0.13711331076919986
-0.10223600268363953,-0.10317200422286987,-91.96507263183594,-0.30908572743045293,-0.2534564253708572,0.3608091301207121,0.13711331076919986
-0.10184377431869507,-0.11656145751476288,-91.93928527832031,-0.30908572743045293,-0.2534564253708572,0.3608091301207121,0.13711331076919986
-0.1207001805305481,-0.10914583504199982,-91.91266632080078,-0.30908572743045293,-0.2534564253708572,0.3608091301207121,0.13711331076919986
-0.1141696348786354,-0.12054374814033508,-91.88716125488281,-0.30908572743045293,-0.2534564253708572,0.3608091301207121,0.13711331076919986
-0.10187889635562897,-0.11020693182945251,-91.86465454101562,-0.30908572743045293,-0.2534564253708572,0.3608091301207121,0.13711331076919986
-0.10892251878976822,-0.1089884415268898,-91.83960723876953,-0.30908572743045293,-0.2534564253708572,0.3608091301207121,0.13711331076919986
-0.1007610633969307,-0.10951431840658188,-91.81725311279297,-0.30908572743045293,-0.2534564253708572,0.3608091301207121,0.13711331076919986
-0.12005162984132767,-0.10169949382543564,-91.79269409179688,-0.30908572743045293,-0.2534564253708572,0.3608091301207121,0.13711331076919986
-0.10321983695030212,-0.10722992569208145,-91.76932525634766,-0.30908572743045293,-0.2534564253708572,0.3608091301207121,0.13711331076919986
-0.10774882882833481,-0.10667058080434799,-91.74494934082031,-0.30908572743045293,-0.2534564253708572,0.3608091301207121,0.13711331076919986
-0.1052260473370552,-0.10049141943454742,-91.72283935546875,-0.30908572743045293,-0.2534564253708572,0.3608091301207121,0.13711331076919986
-0.11182563751935959,-0.1002558246254921,-91.700927734375,-0.30908572743045293,-0.2534564253708572,0.3608091301207121,0.13711331076919986
-0.11737296730279922,-0.11088284850120544,-91.6798324584961,-0.30908572743045293,-0.2534564253708572,0.3608091301207121,0.13711331076919986
-0.1141052097082138,-0.11562889814376831,-91.65869903564453,-0.30908572743045293,-0.2534564253708572,0.3608091301207121,0.13711331076919986
-0.11459366232156754,-0.10552894324064255,-91.6404800415039,-0.30908572743045293,-0.2534564253708572,0.3608091301207121,0.13711331076919986
-0.11049425601959229,-0.10017125308513641,-91.61995697021484,-0.30908572743045293,-0.2534564253708572,0.3608091301207121,0.13711331076919986
-0.10647647082805634,-0.11380628496408463,-91.59994506835938,-0.30908572743045293,-0.2534564253708572,0.3608091301207121,0.13711331076919986
-0.10898081958293915,-0.0967695415019989,-91.58103942871094,-0.30908572743045293,-0.2534564253708572,0.3608091301207121,0.13711331076919986
-0.10001977533102036,-0.11506658792495728,-91.56327819824219,-0.30908572743045293,-0.2534564253708572,0.3608091301207121,0.13711331076919986
-0.11453668773174286,-0.10305215418338776,-91.5452651977539,-0.30908572743045293,-0.2534564253708572,0.3608091301207121,0.13711331076919986
-0.10461299121379852,-0.10193358361721039,-91.52901458740234,-0.30908572743045293,-0.2534564253708572,0.3608091301207121,0.13711331076919986
-0.10037152469158173,-0.11163651943206787,-91.51140594482422,-0.30908572743045293,-0.2534564253708572,0.3608091301207121,0.13711331076919986
-0.10708459466695786,-0.10503608733415604,-91.49396514892578,-0.30908572743045293,-0.2534564253708572,0.3608091301207121,0.13711331076919986
-0.09904127568006516,-0.11147206276655197,-91.47657775878906,-0.30908572743045293,-0.2534564253708572,0.3608091301207121,0.13711331076919986
-0.10116995126008987,-0.09550315141677856,-91.45834350585938,-0.30908572743045293,-0.2534564253708572,0.3608091301207121,0.13711331076919986
-0.10932239890098572,-0.10874172300100327,-91.44231414794922,-0.30908572743045293,-0.2534564253708572,0.3608091301207121,0.13711331076919986
-0.1203388199210167,-0.11887466907501221,-91.4256820678711,-0.30908572743045293,-0.2534564253708572,0.3608091301207121,0.13711331076919986
-0.10946351289749146,-0.11550217866897583,-91.4091567993164,-0.30908572743045293,-0.2534564253708572,0.3608091301207121,0.13711331076919986
-0.11132042109966278,-0.10596030950546265,-91.39551544189453,-0.30908572743045293,-0.2534564253708572,0.3608091301207121,0.13711331076919986
-0.10655452311038971,-0.09686774760484695,-91.38127136230469,-0.30908572743045293,-0.2534564253708572,0.3608091301207121,0.13711331076919986
-0.11549500375986099,-0.1110723465681076,-91.36511993408203,-0.30908572743045293,-0.2534564253708572,0.3608091301207121,0.13711331076919986
-0.11404315382242203,-0.1027635782957077,-91.35092163085938,-0.30908572743045293,-0.2534564253708572,0.3608091301207121,0.13711331076919986
-0.09176948666572571,-0.10029252618551254,-91.3349838256836,-0.30908572743045293,-0.2534564253708572,0.3608091301207121,0.13711331076919986
-0.08680062741041183,-0.09817352890968323,-91.31936645507812,-0.30908572743045293,-0.2534564253708572,0.3608091301207121,0.13711331076919986
-0.10992531478404999,-0.10547788441181183,-91.30533599853516,-0.30908572743045293,-0.2534564253708572,0.3608091301207121,0.13711331076919986
-0.11587835103273392,-0.11392447352409363,-91.29069519042969,-0.30908572743045293,-0.2534564253708572,0.3608091301207121,0.13711331076919986
-0.10944835841655731,-0.10739623010158539,-91.27687072753906,-0.30908572743045293,-0.2534564253708572,0.3608091301207121,0.13711331076919986
-0.10665730386972427,-0.09409373253583908,-91.2653579711914,-0.30908572743045293,-0.2534564253708572,0.3608091301207121,0.13711331076919986
-0.1104520782828331,-0.11100603640079498,-91.2524185180664,-0.30908572743045293,-0.2534564253708572,0.3608091301207121,0.13711331076919986
-0.10983135551214218,-0.09723071753978729,-91.24002075195312,-0.30908572743045293,-0.2534564253708572,0.3608091301207121,0.13711331076919986
-0.11829820275306702,-0.11056201905012131,-91.2280044555664,-0.30908572743045293,-0.2534564253708572,0.3608091301207121,0.13711331076919986
-0.11341368407011032,-0.10546892136335373,-91.21490478515625,-0.30908572743045293,-0.2534564253708572,0.3608091301207121,0.13711331076919986
-0.11057303845882416,-0.09791373461484909,-91.20355224609375,-0.30908572743045293,-0.2534564253708572,0.3608091301207121,0.13711331076919986
-0.10205867886543274,-0.0921892449259758,-91.19268798828125,-0.30908572743045293,-0.2534564253708572,0.3608091301207121,0.13711331076919986
-0.11606982350349426,-0.09296700358390808,-91.18098449707031,-0.30908572743045293,-0.2534564253708572,0.3608091301207121,0.13711331076919986
-0.11018764227628708,-0.10676015913486481,-91.16954040527344,-0.30908572743045293,-0.2534564253708572,0.3608091301207121,0.13711331076919986
-0.10146710276603699,-0.10167236626148224,-91.15779113769531,-0.30908572743045293,-0.2534564253708572,0.3608091301207121,0.13711331076919986
-0.10018711537122726,-0.0980226919054985,-91.14625549316406,-0.30908572743045293,-0.2534564253708572,0.3608091301207121,0.13711331076919986
-0.10471991449594498,-0.1046329066157341,-91.13530731201172,-0.30908572743045293,-0.2534564253708572,0.3608091301207121,0.13711331076919986
-0.11869772523641586,-0.10363323241472244,-91.12320709228516,-0.30908572743045293,-0.2534564253708572,0.3608091301207121,0.13711331076919986
-0.1111159399151802,-0.11065574735403061,-91.11185455322266,-0.30908572743045293,-0.2534564253708572,0.3608091301207121,0.13711331076919986
-0.09553834050893784,-0.10438083112239838,-91.10214233398438,-0.3030865929201372,-0.25118613662043143,0.3590870111171778,0.1353213392818963
-0.09460511058568954,-0.09656771272420883,-91.09302520751953,-0.29711501380784355,-0.2489447357257225,0.3575024823580559,0.13364676808317458
0,-0.4072815775871277,-91.09295654296875,-0.29116320890122216,-0.24675227912505232,0.35671410643650847,0.12944802399724678
-0.13608388602733612,-2.31968355178833,-91.01704406738281,-0.28522742406381,-0.24478418463686039,0.35558007405294734,0.10672331458578463
-0.186035618185997,-3.1166324615478516,-90.96519470214844,-0.2793234589062757,-0.24338298467246788,0.35289574485116953,0.06142068114131645
-0.6129729747772217,-1.5360685586929321,-91.03594970703125,-0.27349734986660085,-0.24268241089096265,0.34623733990980937,0.02264817263930992
0.777172327041626,-1.1520174741744995,-91.15644836425781,-0.2677153248019746,-0.2424916139881455,0.3476056678453461,0.00024745569874798715
-0.7948495745658875,-1.4939312934875488,-91.13392639160156,-0.2619231245911858,-0.24267123616869846,0.3474583574493106,-0.021802117365102416
0.367521196603775,-1.7870694398880005,-91.08050537109375,-0.25616182754883354,-0.24326245206460123,0.3438972876329596,-0.04914379014323199
0.2798791825771332,-1.7639249563217163,-91.10693359375,-0.25038524772861886,-0.24432811206672522,0.34929229079280055,-0.0787354101116463
-0.5432167053222656,-1.6233901977539062,-91.04402160644531,-0.24458199687670726,-0.24587559912095236,0.34709781143659113,-0.10696303639560982
0.054767806082963943,-0.6655327081680298,-90.9624252319336,-0.23883095341521124,-0.24781726937379042,0.3430274039429303,-0.12603739394495928
-1.1037698984146118,-1.039810299873352,-90.91706848144531,-0.23318667738368543,-0.25003631920398706,0.3342857198401666,-0.14024858567863746
0.7180373072624207,-1.637773871421814,-90.93950653076172,-0.22764203570517932,-0.2525597389771932,0.331071281580565,-0.16256178710609717
-0.3013714849948883,-0.97674560546875,-90.93643188476562,-0.22209524588562354,-0.25545066594819,0.33454349676612777,-0.18434944941351855
-0.7998548746109009,0.05580461770296097,-90.94825744628906,-0.2165959949922718,-0.25858711100701015,0.3253666104360795,-0.19202395764490013
1.5666282176971436,-1.487413763999939,-90.99890899658203,-0.21111997000284505,-0.261886927602918,0.33175638829513154,-0.20395403386404162
-0.8482656478881836,-0.5617722272872925,-90.96418762207031,-0.2055408105750228,-0.2654284660833803,0.3377427430435395,-0.22103058379143523
-1.2814182043075562,-1.1170611381530762,-90.89219665527344,-0.20005965956958852,-0.26922889479694867,0.319995377608575,-0.23502086183677162
1.1116206645965576,-1.101314663887024,-90.83231353759766,-0.19473819477192553,-0.27329996303603654,0.3185803981109833,-0.2535073268537725
0,-0.16624167561531067,-90.79861450195312,-0.18935132559058993,-0.27761310989606486,0.32784390364928795,-0.26407029634962526
-1.3472678661346436,-0.9124397039413452,-90.68507385253906,-0.18398082079825004,-0.28208918993102783,0.31661667143149924,-0.27305930784593074
0.1735750138759613,-0.9906260967254639,-90.61312866210938,-0.17878538272246525,-0.2867723357423952,0.3068358976626769,-0.2889181895181542
1.3165361881256104,-1.019480586051941,-90.64987182617188,-0.17356797115017053,-0.29172722964289066,0.31925349101268996,-0.3056690785412992
0.06853526085615158,-0.5610026717185974,-90.74284362792969,-0.16815089411600195,-0.29693147006703524,0.330795753087538,-0.3188397723560537
-0.802396833896637,-0.4397611916065216,-90.89775085449219,-0.1626885941737819,-0.30231496376347816,0.3246802399788673,-0.32717947121709634
-0.3192098140716553,0.26468485593795776,-91.08914184570312,-0.15735514619135413,-0.30778011302929564,0.3153335179124649,-0.32863844068100106
-0.3924241364002228,-0.7596260905265808,-91.05345153808594,-0.15214900658381803,-0.31329179129304763,0.3094032349918659,-0.3327629509692396
0.15898112952709198,-0.8629645705223083,-91.0498046875,-0.147008497320542,-0.31895052038288557,0.30745787660125645,-0.34628453981131363
0.28147274255752563,-0.8435160517692566,-91.15476989746094,-0.1418536123027374,-0.32484043497851106,0.31112832553529496,-0.36050521166374333
-0.21048811078071594,-0.9509961009025574,-91.19571685791016,-0.13666321072216467,-0.33097347407239786,0.31171986413343505,-0.3754594796026751
-0.2304965853691101,-0.8254460692405701,-91.12535095214844,-0.13149850359050672,-0.33735449610536905,0.30804499166551985,-0.3902631643538678
0.8568011522293091,0.4946172833442688,-91.18197631835938,-0.12632092702338277,-0.3438818563991763,0.3132641963893548,-0.39302007090300367
-0.6898173689842224,0.6783767938613892,-91.3304214477539,-0.1210882609875015,-0.35035073299219816,0.31465572791639723,-0.3832451202596232
-0.4818466007709503,-0.6443935036659241,-91.40569305419922,-0.11592536440901677,-0.3567357917124839,0.3048918615017708,-0.382961926174661
-0.22941574454307556,-0.6782957315444946,-91.46949768066406,-0.11089322660241184,-0.3632103439011734,0.29896467529082055,-0.3939843364680812
-0.7104544639587402,-0.4136034846305847,-91.39268493652344,-0.1059757507787108,-0.36985257584343134,0.29113242355330543,-0.4030834966028735
-0.5280640125274658,0,-91.27023315429688,-0.1012095519470228,-0.37659935658435634,0.2808114362492537,-0.40653019230812837
0.6654854416847229,0.27640968561172485,-91.19934844970703,-0.09651981818806599,-0.3833556646724354,0.28195661482556417,-0.404226778261364
0.05741162970662117,-0.23579029738903046,-91.21243286132812,-0.0917703400887933,-0.3900899568526094,0.2879807570871587,-0.4038882833595082
0.4017820656299591,-0.7204141020774841,-91.17327880859375,-0.08693877235294228,-0.3968878313252308,0.29180737121496353,-0.4118566533550625
-0.566299557685852,-0.2977203130722046,-91.14434814453125,-0.08208674099186344,-0.4038228126599784,0.29043639211449773,-0.42034110681464326
-0.3518334627151489,0.6404382586479187,-91.1899185180664,-0.07730989369414966,-0.41080469791622415,0.28278528361115607,-0.41748512393484566
-0.15976017713546753,-0.8793746829032898,-91.24951171875,-0.07263233297006447,-0.4177793761223782,0.2785220032790676,-0.4194762608036404
0.22658224403858185,0.5979878902435303,-91.29733276367188,-0.06798565916076729,-0.42479018788526246,0.2790788538365936,-0.42182115074247173
-0.9571775794029236,-0.5417007207870483,-91.28872680664062,-0.06338508071733548,-0.43181663156642475,0.2729905593752241,-0.42135209099700105
-0.0898042544722557,-0.23431648313999176,-91.19732666015625,-0.05890794513287863,-0.4388930564999808,0.2642657107595976,-0.42781890102972636
0.05088864266872406,-0.539148211479187,-91.06204986572266,-0.05450621909326058,-0.4460770843431581,0.26394141399456816,-0.43426444015155286
0,-0.6726030707359314,-91.02948760986328,-0.05010366159316578,-0.45339897440694893,0.26436548601680754,-0.4443623675033455
0.21402765810489655,-0.11549729853868484,-91.23750305175781,-0.04568270712773948,-0.46085974305764876,0.26614904983434834,-0.450929870580634
-0.42986801266670227,0,-91.4856948852539,-0.04126187854401158,-0.4683832615463912,0.26435038021299995,-0.45189234806845635
0.8585959672927856,-0.13759978115558624,-91.70995330810547,-0.0368262660991681,-0.47592435622122353,0.2679231131682173,-0.45303901291141957
-0.22231683135032654,1.1803104877471924,-91.65347290039062,-0.032316694828590696,-0.4834025959706783,0.2732254393010711,-0.4443497570231562
-0.8136457800865173,-1.2345813512802124,-91.62039184570312,-0.027834879354922626,-0.49081219406436516,0.2645924175390974,-0.4448020142192647
0.5669897794723511,-1.093801498413086,-91.68373107910156,-0.02344213461820254,-0.4983872542214705,0.26253695086731266,-0.4642052046333755
-1.161515474319458,-0.1682891845703125,-91.77819061279297,-0.0191078052770006,-0.506211652818345,0.2575825700769201,-0.4747226269915705
0.705614447593689,-0.18722720444202423,-91.90939331054688,-0.014846422235907888,-0.5141483852396637,0.25378339485420537,-0.4776852635666733
0,0.7514866590499878,-92.13140869140625,-0.010567697985032681,-0.5220706216147605,0.25966351525081943,-0.47298310144494027
-1.0418027639389038,0.6349437832832336,-92.19940948486328,-0.010567697985032681,-0.5220706216147605,0.25966351525081943,-0.47298310144494027
-0.2730106711387634,-0.679215669631958,-92.23133850097656,-0.010567697985032681,-0.5220706216147605,0.25966351525081943,-0.47298310144494027
0.09128885716199875,0.18717354536056519,-92.12986755371094,-0.010567697985032681,-0.5220706216147605,0.25966351525081943,-0.47298310144494027
-1.217738389968872,2.808919668197632,-92.29095458984375,-0.010567697985032681,-0.5220706216147605,0.25966351525081943,-0.47298310144494027
0.36922112107276917,2.2756764888763428,-92.85848999023438,-0.010567697985032681,-0.5220706216147605,0.25966351525081943,-0.47298310144494027
-1.3046667575836182,1.1350128650665283,-93.66595458984375,-0.010567697985032681,-0.5220706216147605,0.25966351525081943,-0.47298310144494027
0.2621082365512848,1.6435165405273438,-94.67700958251953,-0.010567697985032681,-0.5220706216147605,0.25966351525081943,-0.47298310144494027
-0.6304715871810913,3.0457937717437744,-95.91085815429688,-0.010567697985032681,-0.5220706216147605,0.25966351525081943,-0.47298310144494027
-0.41459375619888306,0.5098206400871277,-97.32603454589844,-0.010567697985032681,-0.5220706216147605,0.25966351525081943,-0.47298310144494027
