faccX,faccY,yaw,posX,posY,velX,velY
0,0,-100.85749053955078,0.0,0.0,0.0,0.0
0,0,-100.85795593261719,0.0,0.0,0.0,0.0
0,0,-100.85908508300781,0.0,0.0,0.0,0.0
0,-0.0655256137251854,-100.86219787597656,0.0,-4.550389842026763e-06,0.0,-0.0005460467810432116
-0.09448599070310593,-0.7020531892776489,-100.8553695678711,-6.561527132160134e-06,-6.695525306794377e-05,-0.0007873832558592161,-0.0069425368060668305
-0.6414086818695068,-2.368966817855835,-100.8855972290039,-7.078837810291184e-05,-0.0003959294781088829,-0.0069198388606309886,-0.03253437019884586
-0.3071240484714508,-2.7312569618225098,-100.99434661865234,-0.0002519893542759948,-0.001292351188345088,-0.014824278280138967,-0.07503623502949874
-0.16620467603206635,-1.616738200187683,-100.97344207763672,-0.0005319307092577219,-0.0028448992139763303,-0.018768684317668278,-0.11126952804625034
0.44826754927635193,-0.8456246256828308,-100.91484832763672,-0.00082515441502134,-0.004870388766543733,-0.016418160373965898,-0.13178921826183795
-0.7532728910446167,-0.6602221131324768,-100.87770080566406,-0.0011199713477657901,-0.007171448427769873,-0.018959871555368105,-0.14433794108529885
0.05155876278877258,-1.5697578191757202,-100.90048217773438,-0.00148469935481747,-0.009731940496712922,-0.024807489290833474,-0.16292110718786715
0.2598639130592346,-2.1398942470550537,-100.87712860107422,-0.0018765309349530275,-0.012704907009998956,-0.022212300325433414,-0.19383487440645694
-0.8975909352302551,-1.0118470191955566,-100.7635269165039,-0.002291022539138794,-0.016154359171373974,-0.027526692176858585,-0.22009938495854536
-0.16748258471488953,-1.0444413423538208,-100.6224594116211,-0.0028237641809715167,-0.01996548005690177,-0.036402304843068126,-0.2372351213047902
0,-0.4681742191314697,-100.59835052490234,-0.003442099996738964,-0.024024441492640304,-0.037797993049025536,-0.24984025098383428
-0.3193584978580475,-1.508610486984253,-100.53085327148438,-0.004094244221018421,-0.02832572239140669,-0.040459313864509266,-0.26631345686813196
-0.08858290314674377,-1.6314538717269897,-100.4646224975586,-0.0047968953827189085,-0.03298234003078606,-0.043858825539549194,-0.2924806598573923
-0.28664296865463257,-0.23170781135559082,-100.3765869140625,-0.005553933160586491,-0.03798640392306778,-0.04698570780456066,-0.30800700721641383
0.20120778679847717,-0.6652266979217529,-100.39883422851562,-0.006342961289402513,-0.04318214116204116,-0.04769766765336196,-0.3154814614603917
-0.7545166015625,-1.014541506767273,-100.38336181640625,-0.007176346640206047,-0.04855681608948442,-0.05230857444306215,-0.3294795298328002
-0.37722086906433105,-0.8213231563568115,-100.44725799560547,-0.008126749094161724,-0.054175632188303596,-0.06173972003161908,-0.3447784020255009
0.42691129446029663,-0.10077651590108871,-100.47429656982422,-0.009152293704036212,-0.059985973588190966,-0.06132563315331937,-0.3524625659609834
0.5740416646003723,-0.6957398056983948,-100.51433563232422,-0.010104876967767877,-0.0659156633209851,-0.05298435849448046,-0.3591002019743124
0.24101577699184418,-1.1162711381912231,-100.5412368774414,-0.01093134839812087,-0.07202650078054931,-0.04619221314787866,-0.37420029317339254
-1.2404611110687256,0.24623559415340424,-100.50365447998047,-0.011770624543229743,-0.07832359146844181,-0.054520924265186003,-0.3814505893737077
-0.5456390976905823,0.26927822828292847,-100.41578674316406,-0.012803341351035573,-0.08464530172033441,-0.06940509267151357,-0.3771546408534049
0.4402889013290405,-1.565984845161438,-100.42091369628906,-0.01396740888141924,-0.09102126147184106,-0.07028301097452641,-0.38796052932739244
0.5353585481643677,-1.0927844047546387,-100.5769271850586,-0.015071039102557637,-0.09767190704743066,-0.06215261556208134,-0.4101169397433597
-0.5788194537162781,-0.7390764355659485,-100.66213989257812,-0.01610993414703343,-0.10463440193484225,-0.06251478977501393,-0.42538244674603126
0.2645151913166046,-0.177207812666893,-100.6363525390625,-0.01610993414703343,-0.10463440193484225,-0.06251478977501393,-0.42538244674603126
-0.4396212697029114,0.36362263560295105,-100.5638427734375,-0.01716400745428271,-0.11171116390679443,-0.06397400709489982,-0.42382898988823076
-0.7210991382598877,-0.23570305109024048,-100.51531982421875,-0.01831084648975068,-0.11876609710045156,-0.07364667716125649,-0.42276299335062484
0.6773762702941895,0.8734328150749207,-100.53681945800781,-0.01954132741938035,-0.12576786020046304,-0.07401103439430397,-0.4174485786507525
0.18960757553577423,0.5314188003540039,-100.7265396118164,-0.020714637447769448,-0.13262777737134857,-0.0667861690123876,-0.4057414818555115
0.8409590721130371,1.31834876537323,-101.0136947631836,-0.02175617313633363,-0.13926167932132047,-0.05819811361531417,-0.3903267521411179
0.5834441184997559,-0.7206217050552368,-101.15550231933594,-0.022627224808351866,-0.14572561636670592,-0.04632808702687423,-0.38534569330513463
-0.43846380710601807,-1.2025195360183716,-100.99652099609375,-0.023389291514952983,-0.15228159606353273,-0.04511991776525975,-0.4013718703140814
-0.6813175678253174,-0.3623638451099396,-100.6707763671875,-0.02421905273985532,-0.1590797996924569,-0.054451429223020875,-0.4144125651568173
-0.1806088238954544,-0.8265069127082825,-100.53952026367188,-0.025186432559664056,-0.1660692362476968,-0.061634149154027304,-0.4243198214719691
-0.46189433336257935,-1.0614567995071411,-100.49005126953125,-0.02625828665370743,-0.1732723418633557,-0.06698834213117759,-0.4400528524070976
0.7796759009361267,1.5958688259124756,-100.5464096069336,-0.02735269085814556,-0.1805694441238625,-0.06434016240139803,-0.43559941885371983
0,-0.4795662760734558,-100.5552749633789,-0.02837088273838163,-0.18775191342768568,-0.05784286322693031,-0.42629689760506134
-0.7154368162155151,-0.7252734899520874,-100.5276870727539,-0.029384613571067655,-0.1949405311492996,-0.06380483669539294,-0.43633722898860755
-0.7604989409446716,-0.20397686958312988,-100.44794464111328,-0.03055052305468255,-0.20227734957407745,-0.07610430133839449,-0.44408098198473434
0.7672202587127686,-0.24030433595180511,-100.25983428955078,-0.03181846131881078,-0.2097095521353185,-0.07604829035699369,-0.44778332536419213
0.5428640246391296,-0.7217645049095154,-100.19832611083984,-0.03181846131881078,-0.2097095521353185,-0.07604829035699369,-0.44778332536419213
-0.5233893394470215,0.6597854495048523,-100.22059631347656,-0.03308458041606678,-0.2171769116591248,-0.07588600131372612,-0.4482998174925643
0,0.09519343078136444,-100.30421447753906,-0.03438569358653493,-0.2245961461950921,-0.0802475791424513,-0.4420083268235125
0.09833063930273056,2.801180839538574,-100.5972900390625,-0.03571632472229087,-0.2317618145400451,-0.07942815714826187,-0.41787187457084635
0.4594171941280365,0.38862067461013794,-100.86853790283203,-0.037001394852995875,-0.23850483178885443,-0.07478025853633882,-0.39129019528627373
0.7540898323059082,0.38495954871177673,-100.87014770507812,-0.038163461173988056,-0.24497261419478386,-0.06466769998272262,-0.38484369342525776
-0.7785164713859558,-0.24861256778240204,-100.78218841552734,-0.039242952468080655,-0.2513772072115292,-0.06487125530838968,-0.38370746858417965
-0.5750221610069275,-1.7248681783676147,-100.66363525390625,-0.040418135794914434,-0.25790937896197036,-0.07615074391166371,-0.40015314146876313
-0.40782254934310913,-1.1413909196853638,-100.63905334472656,-0.041755567964994245,-0.26477764375714785,-0.08434111649791401,-0.42403863395253794
0.6405639052391052,-0.8458722233772278,-100.80294036865234,-0.043145090645800036,-0.2719829587079584,-0.0824016051987807,-0.4405991601447262
-0.798698365688324,0.36677610874176025,-100.92194366455078,-0.0445294322921998,-0.2793595486072202,-0.08371939236919086,-0.4445916277666884
0.2643071115016937,-0.09980634599924088,-100.88004302978516,-0.04596186600211594,-0.2867508695031412,-0.08817265282074611,-0.4423668797438341
0,0.1786462664604187,-100.7915267944336,-0.04741305555527409,-0.29411817583772865,-0.085970093558232,-0.4417098804066576
-0.6877859234809875,0.7990054488182068,-100.76994323730469,-0.04889365335926414,-0.3014121146976119,-0.09170164292057356,-0.43356278277933574
0.3215356469154358,-0.19978933036327362,-100.79380798339844,-0.05044744812159075,-0.30859654884681925,-0.09475372855861983,-0.42856931512554464
1.3951280117034912,-0.8088265657424927,-100.93831634521484,-0.05044744812159075,-0.30859654884681925,-0.09475372855861983,-0.42856931512554464
0.354177862405777,-0.6175434589385986,-101.15259552001953,-0.05190519735631016,-0.3158384242395145,-0.08017617960770926,-0.44045573199788707
-0.9931010007858276,0.6309511661529541,-101.11357879638672,-0.05328583667882615,-0.32317842201536723,-0.08550053909420968,-0.4403440011044341
-0.6606441736221313,0.1629602015018463,-100.87032318115234,-0.05482568907861909,-0.3304623559665762,-0.09928174888094267,-0.4337280730406441
0.27241313457489014,1.5825786590576172,-100.64663696289062,-0.05650734538212419,-0.3375699392074925,-0.10251700753966968,-0.41918191586931525
1.0586793422698975,-0.7653025984764099,-100.63352966308594,-0.05812352519689335,-0.3444995491899963,-0.09142457023262979,-0.41237128203113854
-0.1274116039276123,1.132663369178772,-100.6871109008789,-0.05958259666338563,-0.35134689272588315,-0.08366400574644407,-0.4093099422752855
-0.33612653613090515,-0.16544896364212036,-100.66267395019531,-0.061009186907774876,-0.35810155743008676,-0.08752682358026505,-0.40124982222914674
0.4589154124259949,-1.6689904928207397,-100.562744140625,-0.06245944029548103,-0.36491644609616025,-0.08650358294447263,-0.41653681769967055
-0.6594844460487366,-0.29738473892211914,-100.46369934082031,-0.0639150950830016,-0.3719952802266925,-0.08817499155799548,-0.4329232779641944
0,-0.4153870642185211,-100.34281921386719,-0.06543047580661046,-0.37926016623464714,-0.09367069527506829,-0.4388630429903664
0.2539961040019989,-0.8746147155761719,-100.26921081542969,-0.06697401544286145,-0.3866641337414168,-0.09155406107505162,-0.44961305782198885
-0.3387748897075653,0,-100.25016784667969,-0.06850580387645298,-0.3942184218381427,-0.09226055095593134,-0.4569015137851236
-0.7068716287612915,-0.0875706747174263,-100.30850982666016,-0.07011609406727884,-0.4018395283647501,-0.10097427194317182,-0.4576312694077688
1.0237418413162231,0.5819261074066162,-100.47067260742188,-0.07177699372379316,-0.4094323859498317,-0.09833368683854739,-0.45351164080202555
-0.4820164144039154,0.1711217761039734,-100.52838897705078,-0.07177699372379316,-0.4094323859498317,-0.09833368683854739,-0.45351164080202555
0,-0.6741003394126892,-100.54490661621094,-0.073449361866547,-0.4170258423634286,-0.10235049029191334,-0.4577031288295982
-0.3469334542751312,0.8380568027496338,-100.55657196044922,-0.07517929597240355,-0.4246428419784124,-0.10524160241087277,-0.45633682496845696
-0.15472997725009918,0.11505928635597229,-100.5686264038086,-0.07696816041755179,-0.43218226711058766,-0.10942213100691636,-0.4483941908925769
1.2706170082092285,-0.5549914836883545,-100.64743041992188,-0.07871437044607268,-0.4396860544725009,-0.10012307241559029,-0.45206029253701346
0.49712294340133667,2.502995729446411,-100.79838562011719,-0.08026032860080401,-0.44708511460882905,-0.08539190615216892,-0.435826923822363
-0.3186398148536682,0.27887454628944397,-100.84710693359375,-0.08167113237496879,-0.4541557112367201,-0.08390454674760502,-0.4126446715245642
-0.7977237105369568,-0.052795395255088806,-100.79724884033203,-0.08314706673224766,-0.4610174224877521,-0.09320757612586023,-0.4107606785992779
-1.353269100189209,0.5012888312339783,-100.77696990966797,-0.0848499008350902,-0.46783228842024155,-0.11113251621524495,-0.40702323329945383
0.44847577810287476,-0.581983745098114,-100.82573699951172,-0.08676494230826694,-0.47462161278869525,-0.1186724605659644,-0.4076956909149883
1.4283969402313232,-1.8165510892868042,-100.93074035644531,-0.08861247826781536,-0.48158310588966624,-0.10303185457984608,-0.42768348120152927
0.8528403043746948,0.30037763714790344,-100.99455261230469,-0.0901712565910485,-0.48881645373275695,-0.08402154420812927,-0.4403182599693534
-0.9628845453262329,0,-100.91999053955078,-0.09157925762236117,-0.4961342318407776,-0.08493857954939209,-0.43781511299312087
-1.2946323156356812,-0.43910351395606995,-100.6971435546875,-0.09315167261908451,-0.5034616436902433,-0.10375122005740804,-0.4414743089427548
0,0.08477556705474854,-100.57072448730469,-0.09497076464196046,-0.5108441549467129,-0.11453982268770538,-0.44442704183359916
1.9213111400604248,0.2066221386194229,-100.59831237792969,-0.09497076464196046,-0.5108441549467129,-0.11453982268770538,-0.44442704183359916
-0.38428565859794617,0.06008060276508331,-100.67315673828125,-0.09497076464196046,-0.5108441549467129,-0.11453982268770538,-0.44442704183359916
-0.11350563168525696,0.5159477591514587,-100.6357192993164,-0.09497076464196046,-0.5108441549467129,-0.11453982268770538,-0.44442704183359916
-0.30597811937332153,2.3309075832366943,-100.53882598876953,-0.09497076464196046,-0.5108441549467129,-0.11453982268770538,-0.44442704183359916
0.6393992304801941,1.371566891670227,-100.59691619873047,-0.09497076464196046,-0.5108441549467129,-0.11453982268770538,-0.44442704183359916
0.36412984132766724,2.063915491104126,-100.97765350341797,-0.09497076464196046,-0.5108441549467129,-0.11453982268770538,-0.44442704183359916
-0.7417751550674438,1.6411715745925903,-101.60749053955078,-0.09497076464196046,-0.5108441549467129,-0.11453982268770538,-0.44442704183359916
-0.0506448820233345,1.0606483221054077,-102.5365219116211,-0.09497076464196046,-0.5108441549467129,-0.11453982268770538,-0.44442704183359916
-0.38388410210609436,1.6418932676315308,-103.72380828857422,-0.09497076464196046,-0.5108441549467129,-0.11453982268770538,-0.44442704183359916
0.42877882719039917,0.9293550848960876,-105.06157684326172,-0.09497076464196046,-0.5108441549467129,-0.11453982268770538,-0.44442704183359916
-0.6773744225502014,2.1707746982574463,-106.4952621459961,-0.09497076464196046,-0.5108441549467129,-0.11453982268770538,-0.44442704183359916
0.5620155334472656,2.1194252967834473,-108.03974151611328,-0.09497076464196046,-0.5108441549467129,-0.11453982268770538,-0.44442704183359916
0.3330140709877014,2.106297254562378,-109.7411117553711,-0.09497076464196046,-0.5108441549467129,-0.11453982268770538,-0.44442704183359916
-0.2095772922039032,1.151306390762329,-111.51203155517578,-0.09497076464196046,-0.5108441549467129,-0.11453982268770538,-0.44442704183359916
-0.3567940890789032,0.5769282579421997,-113.398193359375,-0.09497076464196046,-0.5108441549467129,-0.11453982268770538,-0.44442704183359916
-0.4891458749771118,0.988761842250824,-115.31751251220703,-0.09497076464196046,-0.5108441549467129,-0.11453982268770538,-0.44442704183359916
-0.4757941961288452,1.0047194957733154,-117.27679443359375,-0.09497076464196046,-0.5108441549467129,-0.11453982268770538,-0.44442704183359916
0.24795988202095032,1.6458373069763184,-119.31916809082031,-0.09497076464196046,-0.5108441549467129,-0.11453982268770538,-0.44442704183359916
0.16149108111858368,1.2199788093566895,-121.43160247802734,-0.09497076464196046,-0.5108441549467129,-0.11453982268770538,-0.44442704183359916
-0.08781089633703232,1.176694631576538,-123.57852935791016,-0.09497076464196046,-0.5108441549467129,-0.11453982268770538,-0.44442704183359916
0.10726968944072723,0.8200966715812683,-125.76606750488281,-0.09497076464196046,-0.5108441549467129,-0.11453982268770538,-0.44442704183359916
0.3956928551197052,0.4778759479522705,-128.00244140625,-0.09497076464196046,-0.5108441549467129,-0.11453982268770538,-0.44442704183359916
-1.0838857889175415,0.8212552666664124,-130.2396697998047,-0.09497076464196046,-0.5108441549467129,-0.11453982268770538,-0.44442704183359916
0.6946176290512085,0.5301327109336853,-132.56381225585938,-0.09497076464196046,-0.5108441549467129,-0.11453982268770538,-0.44442704183359916
-0.44039642810821533,1.7710047960281372,-134.8909912109375,-0.09497076464196046,-0.5108441549467129,-0.11453982268770538,-0.44442704183359916
-0.4038853645324707,-0.13145989179611206,-137.2495880126953,-0.09497076464196046,-0.5108441549467129,-0.11453982268770538,-0.44442704183359916
0.937445878982544,1.205535650253296,-139.65838623046875,-0.09497076464196046,-0.5108441549467129,-0.11453982268770538,-0.44442704183359916
0.6755021214485168,-0.1370363086462021,-142.09910583496094,-0.09497076464196046,-0.5108441549467129,-0.11453982268770538,-0.44442704183359916
-2.109022617340088,1.4644439220428467,-144.56060791015625,-0.09497076464196046,-0.5108441549467129,-0.11453982268770538,-0.44442704183359916
1.4976341724395752,0.821232259273529,-147.1079559326172,-0.09497076464196046,-0.5108441549467129,-0.11453982268770538,-0.44442704183359916
-0.07857804745435715,1.1014540195465088,-149.6278839111328,-0.09497076464196046,-0.5108441549467129,-0.11453982268770538,-0.44442704183359916
-0.25681883096694946,0.31697988510131836,-152.15684509277344,-0.09497076464196046,-0.5108441549467129,-0.11453982268770538,-0.44442704183359916
0.5982000827789307,0.610811173915863,-154.70761108398438,-0.09497076464196046,-0.5108441549467129,-0.11453982268770538,-0.44442704183359916
0.695354163646698,-0.08760357648134232,-157.33746337890625,-0.09497076464196046,-0.5108441549467129,-0.11453982268770538,-0.44442704183359916
-0.09025168418884277,1.365602970123291,-159.995849609375,-0.09497076464196046,-0.5108441549467129,-0.11453982268770538,-0.44442704183359916
0.9205153584480286,0.4199848771095276,-162.6857452392578,-0.09497076464196046,-0.5108441549467129,-0.11453982268770538,-0.44442704183359916
-0.327816903591156,0.6377533078193665,-165.3975372314453,-0.09497076464196046,-0.5108441549467129,-0.11453982268770538,-0.44442704183359916
0.8699073195457458,0.42366376519203186,-168.14199829101562,-0.09497076464196046,-0.5108441549467129,-0.11453982268770538,-0.44442704183359916
0.8199845552444458,0.29168879985809326,-170.88565063476562,-0.09497076464196046,-0.5108441549467129,-0.11453982268770538,-0.44442704183359916
0.42776644229888916,0.5226667523384094,-173.64259338378906,-0.09497076464196046,-0.5108441549467129,-0.11453982268770538,-0.44442704183359916
0.22946810722351074,1.0564316511154175,-176.3644561767578,-0.09497076464196046,-0.5108441549467129,-0.11453982268770538,-0.44442704183359916
1.9773428440093994,-0.1613650768995285,-179.06004333496094,-0.09497076464196046,-0.5108441549467129,-0.11453982268770538,-0.44442704183359916
0.21698839962482452,-0.27399495244026184,178.2841796875,-0.09497076464196046,-0.5108441549467129,-0.11453982268770538,-0.44442704183359916
-1.2571772336959839,0.7238607406616211,175.59957885742188,-0.09497076464196046,-0.5108441549467129,-0.11453982268770538,-0.44442704183359916
2.7256269454956055,-1.1661912202835083,173.00027465820312,-0.09497076464196046,-0.5108441549467129,-0.11453982268770538,-0.44442704183359916
0.27325478196144104,1.4176908731460571,170.43585205078125,-0.09497076464196046,-0.5108441549467129,-0.11453982268770538,-0.44442704183359916
-0.7731431722640991,2.423814535140991,167.99082946777344,-0.09497076464196046,-0.5108441549467129,-0.11453982268770538,-0.44442704183359916
0.5647284984588623,-0.8688274621963501,165.66885375976562,-0.09497076464196046,-0.5108441549467129,-0.11453982268770538,-0.44442704183359916
-0.07559877634048462,-0.9744478464126587,163.59783935546875,-0.09497076464196046,-0.5108441549467129,-0.11453982268770538,-0.44442704183359916
-0.785209596157074,-0.6368187665939331,161.8962860107422,-0.09497076464196046,-0.5108441549467129,-0.11453982268770538,-0.44442704183359916
-0.2964939475059509,-1.6145609617233276,160.73060607910156,-0.09497076464196046,-0.5108441549467129,-0.11453982268770538,-0.44442704183359916
-0.6145203709602356,-1.561502456665039,160.04965209960938,-0.09497076464196046,-0.5108441549467129,-0.11453982268770538,-0.44442704183359916
-0.36846163868904114,-0.5444296002388,159.60780334472656,-0.09497076464196046,-0.5108441549467129,-0.11453982268770538,-0.44442704183359916
-0.4455934166908264,0.08204186707735062,159.4185333251953,-0.09497076464196046,-0.5108441549467129,-0.11453982268770538,-0.44442704183359916
0.09113118052482605,-0.8683202862739563,159.44224548339844,-0.09497076464196046,-0.5108441549467129,-0.11453982268770538,-0.44442704183359916
0.880648672580719,0.5677077770233154,159.4430694580078,-0.09497076464196046,-0.5108441549467129,-0.11453982268770538,-0.44442704183359916
0.6212694644927979,-0.18469002842903137,159.4197540283203,-0.09497076464196046,-0.5108441549467129,-0.11453982268770538,-0.44442704183359916
0.09797549992799759,0.07419584691524506,159.4398956298828,-0.09497076464196046,-0.5108441549467129,-0.11453982268770538,-0.44442704183359916
-0.26753556728363037,0.4915410280227661,159.4286651611328,-0.09497076464196046,-0.5108441549467129,-0.11453982268770538,-0.44442704183359916
-0.4065072238445282,0.25536951422691345,159.43280029296875,-0.09497076464196046,-0.5108441549467129,-0.11453982268770538,-0.44442704183359916
0.019621219485998154,0.29284289479255676,159.43479919433594,-0.09497076464196046,-0.5108441549467129,-0.11453982268770538,-0.44442704183359916
0.29705554246902466,0.07118982821702957,159.4276123046875,-0.09497076464196046,-0.5108441549467129,-0.11453982268770538,-0.44442704183359916
0.38007852435112,0.13614602386951447,159.43048095703125,-0.09497076464196046,-0.5108441549467129,-0.11453982268770538,-0.44442704183359916
0.16537119448184967,0.1374405175447464,159.43148803710938,-0.09497076464196046,-0.5108441549467129,-0.11453982268770538,-0.44442704183359916
-0.08371127396821976,0.27428773045539856,159.4326171875,-0.09497076464196046,-0.5108441549467129,-0.11453982268770538,-0.44442704183359916
-0.1520666629076004,0.2848069965839386,159.43246459960938,-0.09497076464196046,-0.5108441549467129,-0.11453982268770538,-0.44442704183359916
-0.004272724501788616,0.22601576149463654,159.43167114257812,-0.09497076464196046,-0.5108441549467129,-0.11453982268770538,-0.44442704183359916
0.1857845038175583,0.16627171635627747,159.42990112304688,-0.09497076464196046,-0.5108441549467129,-0.11453982268770538,-0.44442704183359916
0.22026586532592773,0.14696763455867767,159.4307861328125,-0.09497076464196046,-0.5108441549467129,-0.11453982268770538,-0.44442704183359916
0.09737686812877655,0.20629526674747467,159.43128967285156,-0.09497076464196046,-0.5108441549467129,-0.11453982268770538,-0.44442704183359916
-0.03589368239045143,0.2207666039466858,159.4320068359375,-0.09497076464196046,-0.5108441549467129,-0.11453982268770538,-0.44442704183359916
-0.024722978472709656,0.23682913184165955,159.43087768554688,-0.09497076464196046,-0.5108441549467129,-0.11453982268770538,-0.44442704183359916
0.07235398888587952,0.20732343196868896,159.4295196533203,-0.09497076464196046,-0.5108441549467129,-0.11453982268770538,-0.44442704183359916
0.1439054012298584,0.1792752742767334,159.4295654296875,-0.09497076464196046,-0.5108441549467129,-0.11453982268770538,-0.44442704183359916
0.12836569547653198,0.17410075664520264,159.4298553466797,-0.09497076464196046,-0.5108441549467129,-0.11453982268770538,-0.44442704183359916
0.057855818420648575,0.20033633708953857,159.4306640625,-0.09686682963717935,-0.5182252697346524,-0.1129879767385622,-0.441306732719143
0,0.2173537015914917,159.43006896972656,-0.09874594481765396,-0.5255513756939519,-0.11250584491839014,-0.4378259823968011
-0.29743102192878723,0.2463764250278473,159.42747497558594,-0.10064169716503885,-0.53281627191955,-0.1149844367677967,-0.43396156467497327
-0.8032610416412354,0.7527148127555847,159.44137573242188,-0.10263454139336116,-0.5399795833281757,-0.12415687063088021,-0.42563580436011134
-2.2699413299560547,0.1304255723953247,159.61244201660156,-0.10491723940190342,-0.547012184207431,-0.14976689039419097,-0.41827630115052045
-1.5925536155700684,0.5498360991477966,159.95957946777344,-0.10768158305746814,-0.5539362154994159,-0.18195434827357532,-0.4126074538876611
-0.4328765273094177,0.21395370364189148,160.21871948242188,-0.1108548103997277,-0.5607599654390165,-0.19883293279757103,-0.40624253886441375
-0.4502057135105133,0.8178995847702026,160.51358032226562,-0.11423001776863304,-0.5674590179417281,-0.20619195147107044,-0.39764376146097963
-1.203247308731079,-0.2732238471508026,160.73805236816406,-0.11778137341969543,-0.5740485892620765,-0.21997072665641704,-0.39310479698081796
-1.3479872941970825,1.5157155990600586,160.9060516357422,-0.12162472126695016,-0.5805140517289853,-0.24123101501415173,-0.38275069904824083
-1.7275124788284302,0.9071127772331238,160.9719696044922,-0.12585881455697945,-0.5867249780758801,-0.2668601797893643,-0.362560462579131
-1.1690081357955933,1.5776273012161255,160.9193572998047,-0.13050763148503997,-0.5925951010578622,-0.29099785157789787,-0.3418542952587206
-0.539201021194458,-0.7138053178787231,160.92486572265625,-0.13547622131390702,-0.5982326850077757,-0.3052329278861483,-0.3346557787309089
-2.47255802154541,0.40678778290748596,160.93824768066406,-0.14077258671219975,-0.6038316019821083,-0.33033091990898056,-0.3372142581890025
-0.3582378923892975,1.0917497873306274,161.02662658691406,-0.14077258671219975,-0.6038316019821083,-0.33033091990898056,-0.3372142581890025
-1.297760248184204,0.4725554585456848,161.0739288330078,-0.14639310191488925,-0.6093432073098503,-0.34413090441375976,-0.3241783811400333
-0.4738397002220154,0.8279938101768494,161.04891967773438,-0.1522516447626468,-0.6146558644074117,-0.3588942373171449,-0.3133404705673455
0.1523778885602951,0.7040113210678101,161.0567169189453,-0.15825553912152016,-0.6197718163383088,-0.3615730857476593,-0.30057376114030665
1.161253571510315,-0.6585084199905396,161.05084228515625,-0.16419053281036514,-0.6247782191002946,-0.35062615691373755,-0.30019457029799607
-1.0246819257736206,0.32389190793037415,161.08592224121094,-0.17002481795019572,-0.6298046991963765,-0.3494880598659318,-0.3029830412318308
0.05721127986907959,0.7201589941978455,161.13790893554688,-0.1759168044094824,-0.6347819130153703,-0.35755031524846964,-0.294282617047429
-1.8424887657165527,0.8065208792686462,161.22413635253906,-0.1819999539334741,-0.6395806038638367,-0.37242762763053194,-0.28156028476854156
-1.9148573875427246,0.8354822397232056,161.27886962890625,-0.1884680078768482,-0.6441592472822714,-0.40373884557435924,-0.26787692544360947
-0.4478389322757721,-0.3022102117538452,161.42555236816406,-0.19536106476974158,-0.6485868299266114,-0.4234279815728467,-0.26343299187719815
-0.7078339457511902,0,161.49456787109375,-0.20249845285692977,-0.6529983666114921,-0.4330585888897381,-0.2659514103084802
0.37820571660995483,0.17633210122585297,161.37564086914062,-0.209738986854338,-0.6574186448318261,-0.43580549079924835,-0.2644819761315981
-0.42940738797187805,0.8505147695541382,161.30160522460938,-0.2170059673726145,-0.6617553689568819,-0.43623217139393106,-0.25592491887509816
-0.6070301532745361,0.16526968777179718,161.3221435546875,-0.22434847839176655,-0.6659502436841526,-0.44486915090431783,-0.24746004839738203
-0.710221529006958,1.118703007698059,161.4241943359375,-0.22434847839176655,-0.6659502436841526,-0.44486915090431783,-0.24746004839738203
-0.3529737889766693,0.08992046117782593,161.6209259033203,-0.23183679724836515,-0.6699906456387703,-0.45372911188751475,-0.23738818615674967
1.316685676574707,-0.27567529678344727,161.57437133789062,-0.23933202467651832,-0.6739600150494109,-0.44569817949086443,-0.23893614312012984
1.9641759395599365,-0.812509298324585,161.33204650878906,-0.24653249005580116,-0.6780178524760734,-0.4183576660230757,-0.24800434807936345
0,-0.1669224202632904,161.29107666015625,-0.2533687167159385,-0.6822192743689647,-0.4019895331934096,-0.25616627906759576
0,0.6894242167472839,161.30044555664062,-0.26006854226916204,-0.6864524275064465,-0.4019895331934096,-0.25181209743022914
-1.5290441513061523,0.5863670706748962,161.32061767578125,-0.266874551444004,-0.6905606991797683,-0.4147315677876275,-0.24118050336837765
-0.9399275183677673,1.279999017715454,161.4518585205078,-0.27395820060641407,-0.6944507654797697,-0.43530633170157684,-0.2256274526317914
-0.878957986831665,0.09534113109111786,161.61013793945312,-0.2813396176281903,-0.6981157132910769,-0.4504637109115721,-0.21416628472506996
-0.8643102645874023,-0.24960921704769135,161.67062377929688,-0.28896840643862065,-0.7016958644313528,-0.4649909463400643,-0.2154518521080414
-0.8678478002548218,0.1910410225391388,161.64234924316406,-0.2968385442987913,-0.7052907958688832,-0.4794255968804162,-0.2159399203956127
0.2846967279911041,0.8718016147613525,161.64366149902344,-0.30486946751570543,-0.7088159860256642,-0.4842851891492805,-0.2070828984181086
-0.12026296555995941,1.241493582725525,161.6376495361328,-0.31292946832358015,-0.7121206110550294,-0.48291490779568763,-0.18947210510571794
0.2955455780029297,-0.8914098739624023,161.60508728027344,-0.32096587771653307,-0.7152541681047939,-0.4814542193586629,-0.18655474086602525
-0.4306681454181671,-0.4143708646297455,161.59503173828125,-0.32096587771653307,-0.7152541681047939,-0.4814542193586629,-0.18655474086602525
-0.7394137978553772,0.6281120181083679,161.63607788085938,-0.3290713703963492,-0.718348570650236,-0.49120490221927576,-0.18477356458703673
0.7321367859840393,0.6883155703544617,161.71429443359375,-0.3372586241147171,-0.7213367114774879,-0.49126554398487027,-0.17380333468317982
1.2001525163650513,-1.5289064645767212,161.617919921875,-0.345312196424024,-0.7242918080898619,-0.4751631331319612,-0.18080825880169865
2.050509452819824,0,161.51104736328125,-0.3530058415616966,-0.7274114531299303,-0.4480742833887539,-0.19354914600650466
-0.33594974875450134,1.0527198314666748,161.4923553466797,-0.36035467963872686,-0.7305641666861868,-0.43378628585487616,-0.18477648074428238
0.34082382917404175,0.940598726272583,161.5131378173828,-0.36758411259183454,-0.7335053497987486,-0.43374566851804663,-0.1681654927631219
-1.4828249216079712,0.23726095259189606,161.59535217285156,-0.37489251269855434,-0.736226312200435,-0.4432623442883294,-0.15834999543925124
-1.4853360652923584,0.562592625617981,161.6948699951172,-0.38248634072745014,-0.7388099334037135,-0.4679970191791655,-0.15168454895416894
-0.276366651058197,0.3858931362628937,161.7708282470703,-0.3904086315135161,-0.741272142152819,-0.48267787514875343,-0.14378050093849498
0,-0.35790079832077026,161.8260040283203,-0.3984724548945411,-0.7436665399227702,-0.4849809305742384,-0.14354723145564396
0.750245988368988,-0.33641377091407776,161.76980590820312,-0.40650336998825276,-0.7461072100698944,-0.47872888067116354,-0.1493331861992677
0.6720321178436279,0.6554423570632935,161.59934997558594,-0.4143834153531741,-0.7485739417436219,-0.46687656311939174,-0.14667461464802423
-0.8035925030708313,0.4538608193397522,161.5271759033203,-0.42217382754302696,-0.7509414837116165,-0.46797289966295175,-0.13743042151133217
0.39133507013320923,0.9761302471160889,161.55166625976562,-0.42217382754302696,-0.7509414837116165,-0.46797289966295175,-0.13743042151133217
-0.17898572981357574,-1.017432689666748,161.66249084472656,-0.42995862938877616,-0.7532348589619825,-0.4662033218269548,-0.13777460853258766
0.5165931582450867,0.6983252763748169,161.705810546875,-0.437705239792251,-0.7555532626745598,-0.46338992659002554,-0.1404338369766871
1.1387240886688232,-0.6069267392158508,161.5896759033203,-0.4453134526488269,-0.7578874795035352,-0.4495956161990763,-0.13967218250036237
2.3058338165283203,-0.8611912727355957,161.4239501953125,-0.4525675075087284,-0.7603173018515934,-0.4208909669891001,-0.15190649926662442
-0.30421552062034607,0.7315731644630432,161.35659790039062,-0.45944335568799755,-0.7628580780968894,-0.40421081452320035,-0.15298665016889568
-0.7755153775215149,0.7232005596160889,161.3868865966797,-0.4662551839090885,-0.7653068296466433,-0.4132085720077159,-0.14086353580156957
-1.156674861907959,0.41941162943840027,161.37705993652344,-0.4732761733202886,-0.7675752071746518,-0.42931015733629485,-0.13134176755944882
-1.6588177680969238,0.29920822381973267,161.28407287597656,-0.48062686293075496,-0.7697143324774997,-0.4527725959196689,-0.12535326878229772
-0.8281066417694092,1.002145528793335,161.20584106445312,-0.4883457759467679,-0.7717131818354954,-0.47349696600188834,-0.11450865417718882
1.4673165082931519,0.8231092095375061,161.12130737304688,-0.49619300247273523,-0.7734949056038423,-0.4681702171141905,-0.09929819802443181
0.39179202914237976,-0.499907523393631,161.078369140625,-0.5038667346650942,-0.7751274310093783,-0.45267764596889437,-0.09660485063989951
-0.8906286954879761,0.2512950599193573,161.11009216308594,-0.511446003533072,-0.7767547766077846,-0.456834618188441,-0.0986766211688518
-0.8202433586120605,-0.46038395166397095,161.2325897216797,-0.5191787243955251,-0.7784139070225254,-0.4710918853059413,-0.10041902860005691
0.42000219225883484,0.8125685453414917,161.34292602539062,-0.5191787243955251,-0.7784139070225254,-0.4710918853059413,-0.10041902860005691
-1.7156308889389038,-1.080009937286377,161.29495239257812,-0.5191787243955251,-0.7784139070225254,-0.4710918853059413,-0.10041902860005691
2.3313941955566406,0.7413961887359619,161.15757751464844,-0.5191787243955251,-0.7784139070225254,-0.4710918853059413,-0.10041902860005691
0.4477505087852478,0.4092428684234619,161.134521484375,-0.5191787243955251,-0.7784139070225254,-0.4710918853059413,-0.10041902860005691
1.7950084209442139,0.05221308022737503,161.01995849609375,-0.5191787243955251,-0.7784139070225254,-0.4710918853059413,-0.10041902860005691
3.1576812267303467,-0.5084406733512878,160.68017578125,-0.5191787243955251,-0.7784139070225254,-0.4710918853059413,-0.10041902860005691
0.5446999669075012,0.43135613203048706,160.17868041992188,-0.5191787243955251,-0.7784139070225254,-0.4710918853059413,-0.10041902860005691
0.9019522666931152,0.11490702629089355,159.41876220703125,-0.5191787243955251,-0.7784139070225254,-0.4710918853059413,-0.10041902860005691
0.7120481729507446,-0.28138452768325806,158.40798950195312,-0.5191787243955251,-0.7784139070225254,-0.4710918853059413,-0.10041902860005691
2.0277881622314453,-0.5291823744773865,157.27725219726562,-0.5191787243955251,-0.7784139070225254,-0.4710918853059413,-0.10041902860005691
1.1093944311141968,-0.019043371081352234,156.0066680908203,-0.5191787243955251,-0.7784139070225254,-0.4710918853059413,-0.10041902860005691
3.662879467010498,-0.5871037244796753,154.5349578857422,-0.5191787243955251,-0.7784139070225254,-0.4710918853059413,-0.10041902860005691
0.16796472668647766,0.2464018613100052,152.86334228515625,-0.5191787243955251,-0.7784139070225254,-0.4710918853059413,-0.10041902860005691
1.5571262836456299,-0.41159671545028687,151.09132385253906,-0.5191787243955251,-0.7784139070225254,-0.4710918853059413,-0.10041902860005691
1.0623784065246582,-0.19931478798389435,149.24710083007812,-0.5191787243955251,-0.7784139070225254,-0.4710918853059413,-0.10041902860005691
1.396300196647644,0.12976926565170288,147.346435546875,-0.5191787243955251,-0.7784139070225254,-0.4710918853059413,-0.10041902860005691
1.5896100997924805,-0.4154894948005676,145.38375854492188,-0.5191787243955251,-0.7784139070225254,-0.4710918853059413,-0.10041902860005691
1.0207217931747437,-0.16444087028503418,143.3770751953125,-0.5191787243955251,-0.7784139070225254,-0.4710918853059413,-0.10041902860005691
0.6585729122161865,0.5432859659194946,141.30526733398438,-0.5191787243955251,-0.7784139070225254,-0.4710918853059413,-0.10041902860005691
0.179899200797081,-1.6369572877883911,139.15438842773438,-0.5191787243955251,-0.7784139070225254,-0.4710918853059413,-0.10041902860005691
0.7298873066902161,1.2739508152008057,137.00283813476562,-0.5191787243955251,-0.7784139070225254,-0.4710918853059413,-0.10041902860005691
0.7137216329574585,-0.12376777082681656,134.85194396972656,-0.5191787243955251,-0.7784139070225254,-0.4710918853059413,-0.10041902860005691
1.2895601987838745,0.3570382297039032,132.68765258789062,-0.5191787243955251,-0.7784139070225254,-0.4710918853059413,-0.10041902860005691
1.1639078855514526,-0.5265846252441406,130.48001098632812,-0.5191787243955251,-0.7784139070225254,-0.4710918853059413,-0.10041902860005691
1.3284000158309937,0.7064226865768433,128.24765014648438,-0.5191787243955251,-0.7784139070225254,-0.4710918853059413,-0.10041902860005691
0.138006329536438,-0.1191352978348732,125.94908905029297,-0.5191787243955251,-0.7784139070225254,-0.4710918853059413,-0.10041902860005691
1.383860468864441,1.5047833919525146,123.64208221435547,-0.5191787243955251,-0.7784139070225254,-0.4710918853059413,-0.10041902860005691
-0.41393789649009705,-0.9638350009918213,121.30633544921875,-0.5191787243955251,-0.7784139070225254,-0.4710918853059413,-0.10041902860005691
2.099959135055542,0.45658746361732483,118.96381378173828,-0.5191787243955251,-0.7784139070225254,-0.4710918853059413,-0.10041902860005691
0.655502438545227,0.11170709878206253,116.58124542236328,-0.5191787243955251,-0.7784139070225254,-0.4710918853059413,-0.10041902860005691
1.2378084659576416,-0.15389272570610046,114.22055053710938,-0.5191787243955251,-0.7784139070225254,-0.4710918853059413,-0.10041902860005691
-0.07234921306371689,-0.8294052481651306,111.81043243408203,-0.5191787243955251,-0.7784139070225254,-0.4710918853059413,-0.10041902860005691
0.8336606621742249,0.4436650574207306,109.39685821533203,-0.5191787243955251,-0.7784139070225254,-0.4710918853059413,-0.10041902860005691
1.016162395477295,0.5869410037994385,106.96395874023438,-0.5191787243955251,-0.7784139070225254,-0.4710918853059413,-0.10041902860005691
0.7235146760940552,-0.31652846932411194,104.47248840332031,-0.5191787243955251,-0.7784139070225254,-0.4710918853059413,-0.10041902860005691
0.5286297798156738,-0.28595131635665894,101.98924255371094,-0.5191787243955251,-0.7784139070225254,-0.4710918853059413,-0.10041902860005691
0.6561598777770996,-1.139033317565918,99.45794677734375,-0.5191787243955251,-0.7784139070225254,-0.4710918853059413,-0.10041902860005691
0.26481467485427856,-0.047425173223018646,96.9137191772461,-0.5191787243955251,-0.7784139070225254,-0.4710918853059413,-0.10041902860005691
1.2184354066848755,0.2843303680419922,94.36341857910156,-0.5191787243955251,-0.7784139070225254,-0.4710918853059413,-0.10041902860005691
0.5897026062011719,-0.21533873677253723,91.80261993408203,-0.5191787243955251,-0.7784139070225254,-0.4710918853059413,-0.10041902860005691
0.8141608834266663,0.3467402458190918,89.20909881591797,-0.5191787243955251,-0.7784139070225254,-0.4710918853059413,-0.10041902860005691
-0.02473912015557289,-1.579811930656433,86.57518005371094,-0.5191787243955251,-0.7784139070225254,-0.4710918853059413,-0.10041902860005691
1.9310332536697388,-0.20969417691230774,83.97189331054688,-0.5191787243955251,-0.7784139070225254,-0.4710918853059413,-0.10041902860005691
1.3686414957046509,0.4870058298110962,81.40350341796875,-0.5191787243955251,-0.7784139070225254,-0.4710918853059413,-0.10041902860005691
0.12311574071645737,-0.9275862574577332,78.80482482910156,-0.5191787243955251,-0.7784139070225254,-0.4710918853059413,-0.10041902860005691
-0.6299257278442383,-0.1768142729997635,76.39286804199219,-0.5191787243955251,-0.7784139070225254,-0.4710918853059413,-0.10041902860005691
0.43778422474861145,0.8076882362365723,74.30206298828125,-0.5191787243955251,-0.7784139070225254,-0.4710918853059413,-0.10041902860005691
-2.195180892944336,0.1273399293422699,72.50785827636719,-0.5191787243955251,-0.7784139070225254,-0.4710918853059413,-0.10041902860005691
-1.4269733428955078,0.24613891541957855,71.15423583984375,-0.5191787243955251,-0.7784139070225254,-0.4710918853059413,-0.10041902860005691
-0.37582504749298096,1.2843055725097656,70.31192016601562,-0.5191787243955251,-0.7784139070225254,-0.4710918853059413,-0.10041902860005691
-0.5493540167808533,0.8594237565994263,69.7031021118164,-0.5191787243955251,-0.7784139070225254,-0.4710918853059413,-0.10041902860005691
-0.7714292407035828,0.48140019178390503,69.3558120727539,-0.5191787243955251,-0.7784139070225254,-0.4710918853059413,-0.10041902860005691
-0.2161886990070343,0.5623076558113098,69.26634216308594,-0.5191787243955251,-0.7784139070225254,-0.4710918853059413,-0.10041902860005691
-0.10300985723733902,-0.6710906624794006,69.35708618164062,-0.5191787243955251,-0.7784139070225254,-0.4710918853059413,-0.10041902860005691
0.25885480642318726,-0.3270436227321625,69.34281158447266,-0.5191787243955251,-0.7784139070225254,-0.4710918853059413,-0.10041902860005691
-0.042570725083351135,-0.2428983747959137,69.35945129394531,-0.5191787243955251,-0.7784139070225254,-0.4710918853059413,-0.10041902860005691
0.3838115334510803,0.36406373977661133,69.35681915283203,-0.5191787243955251,-0.7784139070225254,-0.4710918853059413,-0.10041902860005691
0.1762092113494873,0.31120648980140686,69.35560607910156,-0.5191787243955251,-0.7784139070225254,-0.4710918853059413,-0.10041902860005691
0.4072250723838806,0.14625978469848633,69.35879516601562,-0.5191787243955251,-0.7784139070225254,-0.4710918853059413,-0.10041902860005691
0.058757029473781586,-0.07338409870862961,69.36454010009766,-0.5191787243955251,-0.7784139070225254,-0.4710918853059413,-0.10041902860005691
0.2821234464645386,-0.018816731870174408,69.36101531982422,-0.5191787243955251,-0.7784139070225254,-0.4710918853059413,-0.10041902860005691
0.20324726402759552,0.09436221420764923,69.3640365600586,-0.5191787243955251,-0.7784139070225254,-0.4710918853059413,-0.10041902860005691
0.26094678044319153,0.20127630233764648,69.36237335205078,-0.5191787243955251,-0.7784139070225254,-0.4710918853059413,-0.10041902860005691
0.2348068207502365,0.11828859895467758,69.36409759521484,-0.5191787243955251,-0.7784139070225254,-0.4710918853059413,-0.10041902860005691
0.1984291821718216,0.019379984587430954,69.36589050292969,-0.5191787243955251,-0.7784139070225254,-0.4710918853059413,-0.10041902860005691
0.20280861854553223,0.039763905107975006,69.36490631103516,-0.5191787243955251,-0.7784139070225254,-0.4710918853059413,-0.10041902860005691
0.25540977716445923,0.11673615872859955,69.36526489257812,-0.5191787243955251,-0.7784139070225254,-0.4710918853059413,-0.10041902860005691
0.22168126702308655,0.14839135110378265,69.36711883544922,-0.5191787243955251,-0.7784139070225254,-0.4710918853059413,-0.10041902860005691
0.2222651094198227,0.07776222378015518,69.36711883544922,-0.5191787243955251,-0.7784139070225254,-0.4710918853059413,-0.10041902860005691
0.21430431306362152,0.04966331645846367,69.36770629882812,-0.5191787243955251,-0.7784139070225254,-0.4710918853059413,-0.10041902860005691
0.2296408712863922,0.07520554214715958,69.36729431152344,-0.5191787243955251,-0.7784139070225254,-0.4710918853059413,-0.10041902860005691
0.2277076542377472,0.10325700044631958,69.3677749633789,-0.5191787243955251,-0.7784139070225254,-0.4710918853059413,-0.10041902860005691
0.22782127559185028,0.11156696826219559,69.36792755126953,-0.5269986218638304,-0.7800726391680327,-0.46729581089069466,-0.09862882886081929
0.22147585451602936,0.06655300408601761,69.36858367919922,-0.5347556841890845,-0.7817040835398555,-0.46355166813979565,-0.09714449575791752
0.28729718923568726,0.29270362854003906,69.35600280761719,-0.5424462138633761,-0.7832982100918885,-0.459311892775198,-0.09415069048603371
0.5219449996948242,1.163232684135437,69.3546371459961,-0.5500452147020648,-0.7847662815782754,-0.45256820786744373,-0.08201788788040475
1.2837234735488892,2.7660045623779297,69.42338562011719,-0.5574626245225469,-0.7858603826786077,-0.4375209705904128,-0.04927424415946002
0.5649924874305725,2.581622362136841,69.44430541992188,-0.564626257646208,-0.7863102571003963,-0.4221150042489173,-0.004710686455170268
1.0810751914978027,0.6294111609458923,69.34107208251953,-0.5715471974615421,-0.7861657801022128,-0.40839777359118085,0.02204792623718584
1.2191660404205322,1.8031995296478271,69.27165222167969,-0.5781940880469564,-0.7856293833669685,-0.38922909665852806,0.0423196819921335
0.12670539319515228,1.7205758094787598,69.22916412353516,-0.5845877763639308,-0.7846793487129936,-0.37801350137839734,0.07168447648485506
0.7261743545532227,1.7937499284744263,69.3067398071289,-0.5908287736266438,-0.783240557039777,-0.3709061701471609,0.1009705243011316
0.4853513836860657,0.4853319525718689,69.38021087646484,-0.5969264093972743,-0.7813994453930189,-0.3608101223285001,0.11996287330985073
0.9167225360870361,1.512939453125,69.30857849121094,-0.6028425451916539,-0.7792612953235701,-0.3491261729970576,0.1366151350239913
0.47065016627311707,0.8014424443244934,69.36697387695312,-0.6085649694150521,-0.776823655441403,-0.337564733810723,0.1559016508360704
-0.21171395480632782,1.287415623664856,69.5377426147461,-0.6141730666305456,-0.7740802350060804,-0.33540693204849975,0.17330880140264832
0.8480849266052246,0.26442205905914307,69.64175415039062,-0.6197189897360901,-0.7710839884769581,-0.3301038406168423,0.18624078209201497
0.47722071409225464,1.8162519931793213,69.50086975097656,-0.6197189897360901,-0.7710839884769581,-0.3301038406168423,0.18624078209201497
0.7567492127418518,0.8336588144302368,69.48915100097656,-0.6251350280570073,-0.7677959538582294,-0.3198207578932247,0.20832337215542795
0.7780080437660217,-1.2187451124191284,69.41045379638672,-0.6303587936568591,-0.764350639759666,-0.3070311140889925,0.20511431967218718
-1.1268101930618286,0.7917241454124451,69.27865600585938,-0.6355002012631545,-0.7609617219989494,-0.30993779866645754,0.20155581161379815
-0.6353656053543091,-1.336682915687561,69.17071533203125,-0.6407882045602633,-0.7576403028310996,-0.324622596986592,0.1970144885281722
0.9593906998634338,-0.05409211292862892,69.25113677978516,-0.6461760794340322,-0.7544533096215063,-0.32192238786568267,0.18542469662303726
1.6911985874176025,0.5543282628059387,69.29590606689453,-0.6513573838646213,-0.7513281593896031,-0.2998341438050074,0.1895933312053482
0.12676765024662018,3.6788735389709473,69.39461517333984,-0.6562283719393114,-0.747874298188835,-0.2846844251578055,0.22487001288682223
1.107643723487854,0.35420849919319153,69.42337799072266,-0.6608873893465432,-0.7438463894991821,-0.2743976637100182,0.2584790298715234
0.8238990306854248,0.5160787105560303,69.4303207397461,-0.665326548828226,-0.7394779690562019,-0.25830147409190757,0.2657314232861002
-1.524133563041687,0.14636556804180145,69.54733276367188,-0.6696802007945047,-0.735003108926531,-0.2641367618615431,0.2712517922744155
0.7796581983566284,1.327215313911438,69.71144104003906,-0.6741341798369669,-0.7303799137162662,-0.2703407232339186,0.28353163295735917
0.2633518576622009,0.7688699960708618,69.78081512451172,-0.678567427303642,-0.7255088250204503,-0.26164897276709503,0.300999010540545
1.0110523700714111,0.25100618600845337,69.76055145263672,-0.6828397432228343,-0.7204213501099079,-0.2510289375359816,0.3094979787245393
0.7608164548873901,1.065801978111267,69.70409393310547,-0.6869005124022562,-0.7151716054531018,-0.23626336399465825,0.32047138009220366
0.27604880928993225,0.15346761047840118,69.6060791015625,-0.690766230603266,-0.7097457442856907,-0.2276228201265139,0.3306319599971176
0.795121431350708,-0.4656114876270294,69.52073669433594,-0.6944855574497746,-0.7042568882772074,-0.21869640145450855,0.328030761020879
-0.16045908629894257,0.2991240918636322,69.51249694824219,-0.6944855574497746,-0.7042568882772074,-0.21869640145450855,0.328030761020879
-0.8078595399856567,1.5644481182098389,69.5330581665039,-0.6981977418230639,-0.6986602941900488,-0.22676572334021355,0.34356052943815796
0.9945016503334045,0,69.4302749633789,-0.7019642092877378,-0.6928256431356483,-0.22521037242064898,0.3565975970899066
1.3672492504119873,-0.5299286246299744,69.35689544677734,-0.7055537050155303,-0.6869191504497492,-0.20552911491443737,0.3521815252179902
-0.5677891969680786,-1.196423053741455,69.24166870117188,-0.7089236722048373,-0.6811693438960029,-0.1988669478024048,0.3377952612315616
-0.4872495234012604,-1.0691907405853271,69.09072875976562,-0.7123113879126808,-0.6756967571667496,-0.20765893713881595,0.31891514627883844
0.6543442606925964,0.4592132568359375,69.10102844238281,-0.7157607663971269,-0.6704238642762516,-0.20626648099472147,0.31383200058092686
-1.2846587896347046,0,69.13677978515625,-0.7192423129226599,-0.6651614411237337,-0.21151910206923905,0.31765877772122636
0.7545718550682068,2.282714605331421,69.01323699951172,-0.7228044428831588,-0.6597086063141208,-0.21593649319062652,0.33668139943232156
0.7053229212760925,1.3889522552490234,68.90216827392578,-0.7263020028546453,-0.6538422727915973,-0.20377070338775735,0.36727862327049193
1.97890305519104,0.48143985867500305,68.72537994384766,-0.7295117766627421,-0.647591074062511,-0.18140215358386458,0.3828652242198588
-0.2942737936973572,-0.8556975722312927,68.79967498779297,-0.7324181577459806,-0.6412359771111771,-0.16736357640475055,0.3797464099402231
-0.1971549093723297,0.4657459259033203,68.9561538696289,-0.7352416776793286,-0.6349339502542795,-0.17145881559699794,0.37649681288749
0.7192233800888062,-0.6591756343841553,69.00933837890625,-0.7380630698510343,-0.6286724359914658,-0.16710824500769397,0.3748848986501497
-0.20780527591705322,0.5656349062919617,68.90643310546875,-0.7408126921217062,-0.6224308502311919,-0.16284642747292938,0.37410539258271475
0.851451575756073,0.22683215141296387,68.7786865234375,-0.7434821015865439,-0.6161407279202505,-0.15748270830760422,0.3807092847302558
0.39949387311935425,1.7938696146011353,68.75387573242188,-0.7434821015865439,-0.6161407279202505,-0.15748270830760422,0.3807092847302558
-0.46302539110183716,-0.35840436816215515,68.77835083007812,-0.7461112253026416,-0.609695888088188,-0.15801213762412492,0.3926714951172473
0.7900732159614563,-1.3218469619750977,68.75455474853516,-0.7487220492752062,-0.6032680472897156,-0.15528673908362808,0.3786694006994369
-0.7399385571479797,-1.4628173112869263,68.69754028320312,-0.751306680019738,-0.5971502700748127,-0.15486895026018244,0.35546386508892003
-0.3305604159832001,-1.4471919536590576,68.630126953125,-0.7539621693972085,-0.5914279563000631,-0.1637897750362756,0.33121378788103684
0.1018105149269104,0.9467862248420715,68.64476013183594,-0.756707884390942,-0.5859424768998803,-0.16569602421174467,0.32704374014089527
0.30465084314346313,0.5459107756614685,68.66683959960938,-0.7594412583112718,-0.5803880883836082,-0.1623088462278249,0.3394828818117581
1.4442986249923706,1.4706076383590698,68.68338012695312,-0.7620249509242262,-0.5745900043524386,-0.14773426732669295,0.3562872019285959
0,0.9339909553527832,68.66064453125,-0.7643868901973799,-0.5684848983068431,-0.13569844545175652,0.37632552354286136
0,0.2579785883426666,68.595947265625,-0.7666485309549093,-0.5621300305850389,-0.13569844545175652,0.3862586030736568
0.6566023826599121,-0.4335113763809204,68.52166748046875,-0.7688645743247539,-0.555704576977425,-0.1302267589295906,0.38479582984000466
0.5989305973052979,0.5090763568878174,68.5695571899414,-0.7709478305166383,-0.5492860655786675,-0.11976398409654718,0.38542553801089546
-0.6059319376945496,0.4004577100276947,68.61795806884766,-0.7729443831224411,-0.542799144523839,-0.11982232859979094,0.3930049885685247
1.207748293876648,0,68.61289978027344,-0.7748996291299249,-0.536221251817834,-0.11480719229827346,0.39634213615208885
0.6072685122489929,-0.2092800736427307,68.56493377685547,-0.7766870395011375,-0.5296300828870799,-0.09968205224722645,0.39459813553839945
0.13686616718769073,0.16368868947029114,68.52306365966797,-0.778296731019186,-0.5230566133631186,-0.09348092991858742,0.39421820733696245
-0.34529832005500793,0.16406741738319397,68.5260009765625,-0.7798692209728894,-0.5164635490667489,-0.09521786452581506,0.39694950822740815
-0.11937393993139267,0.02186671271920204,68.52945709228516,-0.7798692209728894,-0.5164635490667489,-0.09521786452581506,0.39694950822740815
0.4494524598121643,1.116410732269287,68.50392150878906,-0.7814332632622167,-0.5097686768848345,-0.0924672101934753,0.40643515360231225
-0.4808741509914398,-0.2028801143169403,68.42089080810547,-0.7829765654939954,-0.5029313180318826,-0.09272905761996926,0.41404790875191516
0.7503097653388977,-1.3960211277008057,68.36048889160156,-0.7845033389811097,-0.4961415543611575,-0.09048376083374045,0.4007237317351006
-0.9781829714775085,-1.8107349872589111,68.22689819335938,-0.7860272261898761,-0.489685516895778,-0.09238270421822888,0.3740007641104363
0.4925793707370758,-1.323684573173523,68.19515228271484,-0.7876006603991202,-0.48366983885230075,-0.09642940089106582,0.3478806011068327
0.5833302140235901,0.951509952545166,68.18434143066406,-0.7891331011372519,-0.4778976742936194,-0.08746348768472693,0.34477914593492975
0,1.966325044631958,68.1197738647461,-0.7905503168893568,-0.4719487277643444,-0.08260240256786368,0.3690944375780725
0.1802048534154892,1.891608715057373,68.205810546875,-0.7919145093728897,-0.46552924173806476,-0.08110069545606793,0.40124388557548357
0.4058172106742859,0.5357398390769958,68.39436340332031,-0.7932254916538178,-0.45867327777332517,-0.0762171782553198,0.42147179019326997
0.9258110523223877,-0.9769543409347534,68.538330078125,-0.7944033037731428,-0.45167938783273304,-0.06512027606368086,0.41779500267778863
0.9971762299537659,0.1979777067899704,68.51737976074219,-0.7953551009240462,-0.4447702333876966,-0.04909538204471291,0.4113035307265821
-0.7634950876235962,-0.8384632468223572,68.38512420654297,-0.7961571294343518,-0.43795965270475584,-0.04714803919196149,0.4059661512263122
0,0.42548996210098267,68.35860443115234,-0.7969959505797473,-0.4312222288846452,-0.05351049825549146,0.4025247071869674
-0.39265987277030945,1.39950430393219,68.46858978271484,-0.7979150602640589,-0.42438674805194343,-0.05678266386191071,0.41773299273724385
1.2560099363327026,-0.18434451520442963,68.5748519897461,-0.7988014831295656,-0.4173401454098833,-0.04958807999889076,0.4278593243099752
1.0470480918884277,0.11237422376871109,68.49897003173828,-0.7988014831295656,-0.4173401454098833,-0.04958807999889076,0.4278593243099752
-0.29998114705085754,0.5620752573013306,68.38043975830078,-0.7988014831295656,-0.4173401454098833,-0.04958807999889076,0.4278593243099752
-0.7638096213340759,-0.1120334342122078,68.33209991455078,-0.7988014831295656,-0.4173401454098833,-0.04958807999889076,0.4278593243099752
0.2691464126110077,-0.9461660981178284,68.30555725097656,-0.7988014831295656,-0.4173401454098833,-0.04958807999889076,0.4278593243099752
0.35101014375686646,-1.5435402393341064,68.06078338623047,-0.7988014831295656,-0.4173401454098833,-0.04958807999889076,0.4278593243099752
-1.7647815942764282,-2.3360931873321533,67.57199096679688,-0.7988014831295656,-0.4173401454098833,-0.04958807999889076,0.4278593243099752
0.06834738701581955,-1.6578444242477417,66.94639587402344,-0.7988014831295656,-0.4173401454098833,-0.04958807999889076,0.4278593243099752
0.03620646521449089,-1.3147059679031372,66.13002014160156,-0.7988014831295656,-0.4173401454098833,-0.04958807999889076,0.4278593243099752
-0.650343120098114,-1.6456605195999146,65.06011962890625,-0.7988014831295656,-0.4173401454098833,-0.04958807999889076,0.4278593243099752
-0.8478052020072937,-1.1414488554000854,63.754249572753906,-0.7988014831295656,-0.4173401454098833,-0.04958807999889076,0.4278593243099752
0.6456009149551392,-1.9172228574752808,62.420047760009766,-0.7988014831295656,-0.4173401454098833,-0.04958807999889076,0.4278593243099752
0.7655022144317627,-0.8152075409889221,60.981529235839844,-0.7988014831295656,-0.4173401454098833,-0.04958807999889076,0.4278593243099752
0.1342831254005432,-2.6469156742095947,59.434879302978516,-0.7988014831295656,-0.4173401454098833,-0.04958807999889076,0.4278593243099752
0.686642050743103,-0.8225701451301575,57.749488830566406,-0.7988014831295656,-0.4173401454098833,-0.04958807999889076,0.4278593243099752
-2.105134963989258,-2.8840932846069336,55.907470703125,-0.7988014831295656,-0.4173401454098833,-0.04958807999889076,0.4278593243099752
0.24975097179412842,-0.4310459494590759,53.954002380371094,-0.7988014831295656,-0.4173401454098833,-0.04958807999889076,0.4278593243099752
-0.32162246108055115,-0.6620322465896606,51.93171310424805,-0.7988014831295656,-0.4173401454098833,-0.04958807999889076,0.4278593243099752
-0.20536112785339355,-0.6387916207313538,49.84982681274414,-0.7988014831295656,-0.4173401454098833,-0.04958807999889076,0.4278593243099752
-0.7602636814117432,-1.279317021369934,47.71056365966797,-0.7988014831295656,-0.4173401454098833,-0.04958807999889076,0.4278593243099752
0.22176210582256317,-1.3410218954086304,45.59252166748047,-0.7988014831295656,-0.4173401454098833,-0.04958807999889076,0.4278593243099752
0.13016390800476074,-0.6326690316200256,43.50542068481445,-0.7988014831295656,-0.4173401454098833,-0.04958807999889076,0.4278593243099752
-0.01819215901196003,-0.5348751544952393,41.449119567871094,-0.7988014831295656,-0.4173401454098833,-0.04958807999889076,0.4278593243099752
0.8767505884170532,-0.8342915773391724,39.411441802978516,-0.7988014831295656,-0.4173401454098833,-0.04958807999889076,0.4278593243099752
-0.9775505661964417,-0.360872745513916,37.349037170410156,-0.7988014831295656,-0.4173401454098833,-0.04958807999889076,0.4278593243099752
0.942650556564331,-1.0794472694396973,35.311458587646484,-0.7988014831295656,-0.4173401454098833,-0.04958807999889076,0.4278593243099752
-1.116729974746704,-0.35476627945899963,33.247596740722656,-0.7988014831295656,-0.4173401454098833,-0.04958807999889076,0.4278593243099752
0.812158465385437,-1.3222039937973022,31.186237335205078,-0.7988014831295656,-0.4173401454098833,-0.04958807999889076,0.4278593243099752
-0.6774024367332458,-0.2699565887451172,29.129220962524414,-0.7988014831295656,-0.4173401454098833,-0.04958807999889076,0.4278593243099752
1.1455310583114624,-0.8536375164985657,27.076416015625,-0.7988014831295656,-0.4173401454098833,-0.04958807999889076,0.4278593243099752
0.3581946790218353,-0.4627966582775116,24.98657989501953,-0.7988014831295656,-0.4173401454098833,-0.04958807999889076,0.4278593243099752
-1.6122283935546875,-1.0726335048675537,22.819364547729492,-0.7988014831295656,-0.4173401454098833,-0.04958807999889076,0.4278593243099752
-1.1552082300186157,-0.33449307084083557,20.650360107421875,-0.7988014831295656,-0.4173401454098833,-0.04958807999889076,0.4278593243099752
0.5055230259895325,-0.7006234526634216,18.434581756591797,-0.7988014831295656,-0.4173401454098833,-0.04958807999889076,0.4278593243099752
0.03888186812400818,-0.24536922574043274,16.197147369384766,-0.7988014831295656,-0.4173401454098833,-0.04958807999889076,0.4278593243099752
0.014520489610731602,-0.6217020750045776,13.901131629943848,-0.7988014831295656,-0.4173401454098833,-0.04958807999889076,0.4278593243099752
-0.44027435779571533,-0.28622233867645264,11.522485733032227,-0.7988014831295656,-0.4173401454098833,-0.04958807999889076,0.4278593243099752
-1.0892845392227173,-0.6706386208534241,9.156815528869629,-0.7988014831295656,-0.4173401454098833,-0.04958807999889076,0.4278593243099752
0.4083179235458374,-0.42547622323036194,6.800785541534424,-0.7988014831295656,-0.4173401454098833,-0.04958807999889076,0.4278593243099752
0.3333718776702881,-0.6237783432006836,4.367480278015137,-0.7988014831295656,-0.4173401454098833,-0.04958807999889076,0.4278593243099752
-0.22401396930217743,-0.769775390625,1.9469343423843384,-0.7988014831295656,-0.4173401454098833,-0.04958807999889076,0.4278593243099752
-0.7404577136039734,0.5456300973892212,-0.35565727949142456,-0.7988014831295656,-0.4173401454098833,-0.04958807999889076,0.4278593243099752
0.23666487634181976,2.224578619003296,-2.6832337379455566,-0.7988014831295656,-0.4173401454098833,-0.04958807999889076,0.4278593243099752
0.7651475667953491,-1.6126117706298828,-4.801804542541504,-0.7988014831295656,-0.4173401454098833,-0.04958807999889076,0.4278593243099752
-1.3845553398132324,-0.7443934082984924,-7.090108394622803,-0.7988014831295656,-0.4173401454098833,-0.04958807999889076,0.4278593243099752
1.4687576293945312,1.0650811195373535,-9.155960083007812,-0.7988014831295656,-0.4173401454098833,-0.04958807999889076,0.4278593243099752
-1.194440245628357,-0.45546796917915344,-10.920055389404297,-0.7988014831295656,-0.4173401454098833,-0.04958807999889076,0.4278593243099752
0.8668749928474426,0.5773251056671143,-12.230283737182617,-0.7988014831295656,-0.4173401454098833,-0.04958807999889076,0.4278593243099752
0.7671743035316467,1.718735933303833,-13.249635696411133,-0.7988014831295656,-0.4173401454098833,-0.04958807999889076,0.4278593243099752
1.0386955738067627,0.8115255236625671,-13.91978931427002,-0.7988014831295656,-0.4173401454098833,-0.04958807999889076,0.4278593243099752
0.40164849162101746,0.7047561407089233,-14.263229370117188,-0.7988014831295656,-0.4173401454098833,-0.04958807999889076,0.4278593243099752
0.2899080514907837,0.5209879279136658,-14.287955284118652,-0.7988014831295656,-0.4173401454098833,-0.04958807999889076,0.4278593243099752
0.8040317893028259,0.3349640667438507,-14.14996337890625,-0.7988014831295656,-0.4173401454098833,-0.04958807999889076,0.4278593243099752
-0.3436848223209381,-0.6732257008552551,-14.061205863952637,-0.7988014831295656,-0.4173401454098833,-0.04958807999889076,0.4278593243099752
0.2937130630016327,-0.1367788314819336,-14.088184356689453,-0.7988014831295656,-0.4173401454098833,-0.04958807999889076,0.4278593243099752
0.5694727897644043,-0.07440003007650375,-14.083149909973145,-0.7988014831295656,-0.4173401454098833,-0.04958807999889076,0.4278593243099752
-0.040973663330078125,-0.2692427337169647,-14.073694229125977,-0.7988014831295656,-0.4173401454098833,-0.04958807999889076,0.4278593243099752
0.11796864122152328,0.042566392570734024,-14.074956893920898,-0.7988014831295656,-0.4173401454098833,-0.04958807999889076,0.4278593243099752
-0.039745159447193146,-0.23640261590480804,-14.074019432067871,-0.7988014831295656,-0.4173401454098833,-0.04958807999889076,0.4278593243099752
0.10931939631700516,-0.0964643731713295,-14.075654029846191,-0.7988014831295656,-0.4173401454098833,-0.04958807999889076,0.4278593243099752
0.16367727518081665,-0.1384429931640625,-14.072957038879395,-0.7988014831295656,-0.4173401454098833,-0.04958807999889076,0.4278593243099752
0.16805610060691833,-0.13211479783058167,-14.076943397521973,-0.7988014831295656,-0.4173401454098833,-0.04958807999889076,0.4278593243099752
0.10877303034067154,-0.13895781338214874,-14.071600914001465,-0.7988014831295656,-0.4173401454098833,-0.04958807999889076,0.4278593243099752
0.07997869700193405,-0.111606664955616,-14.072793006896973,-0.7988014831295656,-0.4173401454098833,-0.04958807999889076,0.4278593243099752
0.0741974487900734,-0.11623725295066833,-14.072720527648926,-0.7988014831295656,-0.4173401454098833,-0.04958807999889076,0.4278593243099752
0.12310229986906052,-0.1361546814441681,-14.0723876953125,-0.7988014831295656,-0.4173401454098833,-0.04958807999889076,0.4278593243099752
0.1600668877363205,-0.11408179253339767,-14.071789741516113,-0.7988014831295656,-0.4173401454098833,-0.04958807999889076,0.4278593243099752
0.09797137975692749,-0.14471010863780975,-14.071900367736816,-0.7988014831295656,-0.4173401454098833,-0.04958807999889076,0.4278593243099752
0.09464403986930847,-0.11494144052267075,-14.071651458740234,-0.7988014831295656,-0.4173401454098833,-0.04958807999889076,0.4278593243099752
0.08220291137695312,-0.13007624447345734,-14.071969985961914,-0.7988014831295656,-0.4173401454098833,-0.04958807999889076,0.4278593243099752
0.10657552629709244,-0.1344907432794571,-14.072578430175781,-0.7988014831295656,-0.4173401454098833,-0.04958807999889076,0.4278593243099752
0.12012162059545517,-0.15009191632270813,-14.07239818572998,-0.7988014831295656,-0.4173401454098833,-0.04958807999889076,0.4278593243099752
0.12153104692697525,-0.12775853276252747,-14.072381019592285,-0.7996111696943025,-0.41022845184145906,-0.04757430776953717,0.42554390390093155
0.2279946208000183,-0.1615852266550064,-14.078989028930664,-0.8003798022079803,-0.40315614675973643,-0.044661593871812226,0.42313270590578544
0.5639418363571167,-0.14566881954669952,-14.092378616333008,-0.8010691665185413,-0.3961252720811818,-0.038062123395502766,0.4205722555207712
2.1931796073913574,-0.9302812218666077,-13.994187355041504,-0.8015120684748728,-0.3891904532420449,-0.015086111364265482,0.4116060051756603
2.843474864959717,-0.7953187823295593,-13.950615882873535,-0.8014137359925861,-0.3824501864894086,0.02688600923866014,0.3972260051406923
2.112992763519287,-0.07569196075201035,-13.868768692016602,-0.8006214366977419,-0.3758902399275555,0.06818990614265184,0.3899675822816792
1.0943785905838013,-0.34236449003219604,-13.75745964050293,-0.7992622041402183,-0.36941981192083195,0.09491800076017758,0.38648377852514415
1.0051418542861938,0.12396367639303207,-13.614850997924805,-0.7975344374299883,-0.3629935823352489,0.11241400446742754,0.3846637717448178
1.284512996673584,-0.3762660622596741,-13.583417892456055,-0.7955018668797701,-0.3566000404718538,0.13149446155875902,0.38256125186259576
1.1621284484863281,-0.7359949946403503,-13.547720909118652,-0.7931403868645436,-0.3503012599586508,0.15188314026842495,0.37329240972176225
1.1702015399932861,-0.6246587038040161,-13.370083808898926,-0.7904470338330921,-0.3441742096367912,0.17131922350575507,0.36195362890139254
1.958346962928772,0.3721015751361847,-13.237733840942383,-0.7873744531286266,-0.33815918784459215,0.19739046103010555,0.35984898616249394
0.5472362041473389,-1.1034541130065918,-13.21921443939209,-0.7839106132804112,-0.33221249311256934,0.2182703207557398,0.35375438168024054
0.9520853757858276,0.06959299743175507,-13.250651359558105,-0.7801686550469868,-0.3263883826620358,0.23076466725518285,0.34513887238378355
0.5113674998283386,-0.2189081311225891,-13.27173900604248,-0.7762209485874828,-0.32064643722881236,0.2429601078853009,0.3438945796030266
1.9281349182128906,-0.31842920184135437,-13.180377960205078,-0.7720022035659194,-0.3149521759946622,0.26328929470231116,0.33941676849499375
0.22428689897060394,-0.42432159185409546,-13.218280792236328,-0.7720022035659194,-0.3149521759946622,0.26328929470231116,0.33941676849499375
1.161511778831482,0.1952209174633026,-13.237314224243164,-0.7675178126349225,-0.30931113962213386,0.27483761701732856,0.3375075962084038
0.8624618053436279,-1.4126592874526978,-13.255733489990234,-0.7627966319635104,-0.3037705573499097,0.29170406355212114,0.3273622764584922
-2.1523325443267822,0.22030514478683472,-13.173885345458984,-0.7580244719278489,-0.2983973217799533,0.2809551407272615,0.3174259919362767
-0.3867441713809967,0.7956916093826294,-13.283384323120117,-0.7535182110209854,-0.2930363332508647,0.25979616809636336,0.32589263155435555
-0.2678963840007782,-0.662905752658844,-13.32714557647705,-0.7492337360357253,-0.28759556815157516,0.25434083013484854,0.3269991803603871
0.9577226042747498,-1.037508487701416,-13.440827369689941,-0.7449468176015144,-0.2822636661344826,0.260089381970465,0.3128290616907183
2.8645880222320557,0.8374642729759216,-13.429235458374023,-0.7403465563307214,-0.27706374039899323,0.2919419705246884,0.31116202656800585
0.19072771072387695,0.2765098214149475,-13.32834243774414,-0.7352686821182991,-0.2718003473107493,0.3174029349659878,0.32044514402126306
0.9638588428497314,0,-13.285499572753906,-0.7298984535804234,-0.26644039283946336,0.32702448957910124,0.3227493925330543
0.22697220742702484,-1.8054171800613403,-13.270659446716309,-0.724365348820058,-0.2611866124903056,0.3369480816647409,0.3077042493658765
1.070631980895996,0.3174167573451996,-13.195626258850098,-0.7186594360570121,-0.2561615416968963,0.3477614499007661,0.295304245843242
1.1067858934402466,-0.2644925117492676,-13.222996711730957,-0.7127122023173926,-0.25123612897134256,0.3659065988535681,0.2957452812232081
0.33290624618530273,-0.2737167775630951,-13.37718391418457,-0.7065137803823591,-0.2463444165960469,0.37790403335044764,0.29126020381227175
0.2670028507709503,-0.6855273842811584,-13.49549674987793,-0.700173719472563,-0.24155669404374822,0.3829032758250831,0.28326650246356966
0.5280118584632874,0.1860577017068863,-13.477897644042969,-0.700173719472563,-0.24155669404374822,0.3829032758250831,0.28326650246356966
-0.1328754425048828,0.22974716126918793,-13.401912689208984,-0.6937645581799257,-0.2368067103316487,0.38619607929140315,0.2867315429883703
-0.7383397221565247,-0.4426453113555908,-13.252891540527344,-0.6873884579115037,-0.23204263587559854,0.37893595291922477,0.2849573917376503
-2.3153536319732666,-0.10050953179597855,-13.248285293579102,-0.6812849207346645,-0.22733106509963433,0.3534885083014765,0.2804311013780539
-0.16964253783226013,1.0535085201263428,-13.486322402954102,-0.6755660147747653,-0.22259103292469937,0.33278020688643045,0.2883727596141403
-0.14907081425189972,0,-13.613600730895996,-0.6700418108649973,-0.21771165995056604,0.3301242622857291,0.2971519972818598
2.9208006858825684,-0.20963573455810547,-13.621100425720215,-0.6643472585858163,-0.21277368469965713,0.3532220112159847,0.2954050328272089
1.6233776807785034,-1.3266615867614746,-13.655954360961914,-0.6581446571234206,-0.20795695479985085,0.3910901642714936,0.28260255514954574
-0.8042520880699158,-1.1020594835281372,-13.686775207519531,-0.6515696039971799,-0.20341557339946187,0.39791621087739854,0.2623632128971323
-0.34046807885169983,0.15337777137756348,-13.559239387512207,-0.6450171616052595,-0.19910873385896458,0.3883768761530517,0.2544575319625442
1.00386643409729,-0.14628596603870392,-13.353058815002441,-0.6384981443391499,-0.1948672825064403,0.3939051957800983,0.25451663034036803
0.36577555537223816,1.6451185941696167,-13.256217956542969,-0.6318379437157684,-0.19052125306825843,0.4053188790256777,0.26700690224145895
-0.18520134687423706,-1.1729345321655273,-13.269810676574707,-0.6250700891897503,-0.1860383474710394,0.4068236640964944,0.27094176942482634
0.8663246035575867,-0.3022072911262512,-13.207880020141602,-0.6182423945619835,-0.18162509171835423,0.4124996912355223,0.25864892089739483
0.5690081119537354,0.7428702712059021,-13.09218692779541,-0.6182423945619835,-0.18162509171835423,0.4124996912355223,0.25864892089739483
0.5617610812187195,-0.2705366015434265,-13.063902854919434,-0.6112888740696434,-0.1772814754207822,0.42192276784529276,0.2625850348112488
0.20850344002246857,-1.3204127550125122,-13.109471321105957,-0.6042033373471356,-0.17301554076813333,0.428341638855636,0.24932712350661596
0.2155337929725647,-0.1383468061685562,-13.223063468933105,-0.597034863002806,-0.16896139145699396,0.4318752824639279,0.23717079383010706
-1.4885642528533936,-0.6349454522132874,-13.422195434570312,-0.5899253465214545,-0.16506224574443537,0.42126669529825433,0.23072669167692503
-0.08969833701848984,0.5289580821990967,-13.60690689086914,-0.5830138365018913,-0.16122416111718205,0.40811450704932195,0.22984346359347343
-1.5198681354522705,-0.1308751404285431,-13.58713436126709,-0.5763237035005464,-0.15736579207522342,0.3947014531120656,0.2331608214415614
1.2568296194076538,-0.5824366807937622,-13.640218734741211,-0.5697636125122929,-0.15352931392767116,0.39250946547836046,0.22721655626470885
0.4856536388397217,-0.23212052881717682,-13.599157333374023,-0.5631007823058308,-0.149798937796149,0.4070301592970886,0.22042857951795103
1.2080904245376587,0.9596383571624756,-13.543976783752441,-0.5561993252020337,-0.14607460606610362,0.42114469315856673,0.2264912280874952
0,0.06634471565485,-13.51377010345459,-0.5490963518143537,-0.14222850344014415,0.4312121133630472,0.23504108702763957
0.7544500827789307,-0.7270265221595764,-13.50524616241455,-0.5418570908914433,-0.13835703267069077,0.43749919738620496,0.22953540530676686
0.9121196866035461,-0.8084861636161804,-13.673797607421875,-0.5344497035899105,-0.13463807540764575,0.4513872787977256,0.21673946625863555
-0.21764026582241058,-0.6056925058364868,-13.817319869995117,-0.5268783545390608,-0.13112395782204714,0.4571746073042351,0.20495464401319666
0.573062539100647,0.7560526132583618,-13.883703231811523,-0.5268783545390608,-0.13112395782204714,0.4571746073042351,0.20495464401319666
0.15378178656101227,-0.2623780071735382,-13.743803977966309,-0.5192083024502637,-0.12767376412973797,0.4632316433514156,0.20906859906390352
-0.3885631263256073,-1.054302453994751,-13.589069366455078,-0.5115040793207793,-0.1242807236218096,0.4612751321867106,0.1980962618875011
-1.826953649520874,0.8603915572166443,-13.563060760498047,-0.5039700157826569,-0.1209925852915164,0.4428124923879899,0.19648033774768353
-0.8719671368598938,0.21288996934890747,-13.759990692138672,-0.49677723263080015,-0.11764337955637684,0.4203214858348169,0.20542435046906313
-0.45717933773994446,0.8725239038467407,-13.895660400390625,-0.4898641763720671,-0.1141442644184761,0.4092452652131516,0.21446946607902687
0.39381739497184753,0.2387157827615738,-13.896208763122559,-0.48304782208676234,-0.11049260389447785,0.40871724902341744,0.22372979680076283
1.4553149938583374,-2.098158597946167,-13.845719337463379,-0.4761074559649255,-0.10689290192107517,0.42412668559700234,0.2082344400075579
0.6782262921333313,-0.5362351536750793,-13.67203426361084,-0.46889051528233716,-0.10360527193147846,0.44190619631359956,0.1862811587440475
0.682672381401062,-0.3327588140964508,-13.574749946594238,-0.4614309051581151,-0.10056093275572847,0.45324701859305283,0.1790395423459514
-0.07852154225111008,1.4875612258911133,-13.484482765197754,-0.45383483326217877,-0.09749674577136576,0.4582816089193024,0.18866289577757359
-0.7563810348510742,-0.37910738587379456,-13.420506477355957,-0.4462547857924892,-0.09427538821396055,0.45132408744345087,0.19790001111105124
0.08998747915029526,-0.3783552050590515,-13.322805404663086,-0.43877899499868867,-0.09102965626425781,0.445770807812611,0.19158782285327752
0.48202094435691833,0.7069780230522156,-13.271939277648926,-0.4313097587279571,-0.08781370485434255,0.45053754467517115,0.19432634633655388
0.3107192814350128,-0.32057487964630127,-13.280231475830078,-0.4313097587279571,-0.08781370485434255,0.45053754467517115,0.19432634633655388
0.6182613372802734,-0.7544655799865723,-13.271018028259277,-0.4313097587279571,-0.08781370485434255,0.45053754467517115,0.19432634633655388
0.8859595060348511,-0.3329913914203644,-13.322531700134277,-0.4313097587279571,-0.08781370485434255,0.45053754467517115,0.19432634633655388
-0.6464655995368958,-1.3711106777191162,-13.447505950927734,-0.4313097587279571,-0.08781370485434255,0.45053754467517115,0.19432634633655388
1.0848407745361328,-0.011243138462305069,-13.44504451751709,-0.4313097587279571,-0.08781370485434255,0.45053754467517115,0.19432634633655388
-2.8474137783050537,-0.03509398549795151,-13.53380298614502,-0.4313097587279571,-0.08781370485434255,0.45053754467517115,0.19432634633655388
-1.9594426155090332,0.9274572730064392,-13.932489395141602,-0.4313097587279571,-0.08781370485434255,0.45053754467517115,0.19432634633655388
-2.8374671936035156,-0.4151434004306793,-14.548130989074707,-0.4313097587279571,-0.08781370485434255,0.45053754467517115,0.19432634633655388
-1.7724260091781616,0.18454094231128693,-15.375848770141602,-0.4313097587279571,-0.08781370485434255,0.45053754467517115,0.19432634633655388
-1.4452826976776123,-0.8217315077781677,-16.43110466003418,-0.4313097587279571,-0.08781370485434255,0.45053754467517115,0.19432634633655388
-1.9479663372039795,0.2369619607925415,-17.762737274169922,-0.4313097587279571,-0.08781370485434255,0.45053754467517115,0.19432634633655388
-1.89022696018219,1.1034380197525024,-19.251203536987305,-0.4313097587279571,-0.08781370485434255,0.45053754467517115,0.19432634633655388
-2.2354896068573,0.15118156373500824,-20.817819595336914,-0.4313097587279571,-0.08781370485434255,0.45053754467517115,0.19432634633655388
-1.3115748167037964,-1.4226324558258057,-22.467172622680664,-0.4313097587279571,-0.08781370485434255,0.45053754467517115,0.19432634633655388
-1.6059532165527344,-0.17175953090190887,-24.21356773376465,-0.4313097587279571,-0.08781370485434255,0.45053754467517115,0.19432634633655388
-0.652612566947937,-1.29280686378479,-26.001436233520508,-0.4313097587279571,-0.08781370485434255,0.45053754467517115,0.19432634633655388
-1.3237717151641846,0.5894791483879089,-27.8319034576416,-0.4313097587279571,-0.08781370485434255,0.45053754467517115,0.19432634633655388
-0.7691647410392761,-0.3357923626899719,-29.742406845092773,-0.4313097587279571,-0.08781370485434255,0.45053754467517115,0.19432634633655388
-1.3046038150787354,0.034131698310375214,-31.694683074951172,-0.4313097587279571,-0.08781370485434255,0.45053754467517115,0.19432634633655388
-0.6549293398857117,0.3546108901500702,-33.69148635864258,-0.4313097587279571,-0.08781370485434255,0.45053754467517115,0.19432634633655388
-1.0593606233596802,-0.6611315608024597,-35.791229248046875,-0.4313097587279571,-0.08781370485434255,0.45053754467517115,0.19432634633655388
-0.7859922647476196,0.7896837592124939,-37.86279296875,-0.4313097587279571,-0.08781370485434255,0.45053754467517115,0.19432634633655388
-0.5183416604995728,0.36563554406166077,-39.998374938964844,-0.4313097587279571,-0.08781370485434255,0.45053754467517115,0.19432634633655388
-0.8076282143592834,0.20854441821575165,-42.12167739868164,-0.4313097587279571,-0.08781370485434255,0.45053754467517115,0.19432634633655388
-0.933390736579895,-0.07079571485519409,-44.28032684326172,-0.4313097587279571,-0.08781370485434255,0.45053754467517115,0.19432634633655388
-0.7273575663566589,0.14872930943965912,-46.483699798583984,-0.4313097587279571,-0.08781370485434255,0.45053754467517115,0.19432634633655388
-0.967985212802887,-0.5749431848526001,-48.70832824707031,-0.4313097587279571,-0.08781370485434255,0.45053754467517115,0.19432634633655388
-1.0472967624664307,0.2565726041793823,-51.00366973876953,-0.4313097587279571,-0.08781370485434255,0.45053754467517115,0.19432634633655388
-1.1107332706451416,-0.096273273229599,-53.360206604003906,-0.4313097587279571,-0.08781370485434255,0.45053754467517115,0.19432634633655388
-0.43902650475502014,0.079167440533638,-55.76078796386719,-0.4313097587279571,-0.08781370485434255,0.45053754467517115,0.19432634633655388
-1.0951613187789917,0.43064334988594055,-58.211509704589844,-0.4313097587279571,-0.08781370485434255,0.45053754467517115,0.19432634633655388
-0.6121343970298767,0.6516093611717224,-60.69623947143555,-0.4313097587279571,-0.08781370485434255,0.45053754467517115,0.19432634633655388
-0.90937739610672,0.09945826977491379,-63.186614990234375,-0.4313097587279571,-0.08781370485434255,0.45053754467517115,0.19432634633655388
-1.169680118560791,-0.3998548090457916,-65.66657257080078,-0.4313097587279571,-0.08781370485434255,0.45053754467517115,0.19432634633655388
0.2817304730415344,0.46698445081710815,-68.23187255859375,-0.4313097587279571,-0.08781370485434255,0.45053754467517115,0.19432634633655388
-1.1407949924468994,0.52817302942276,-70.9081802368164,-0.4313097587279571,-0.08781370485434255,0.45053754467517115,0.19432634633655388
-0.9299319386482239,0.13964486122131348,-73.60279083251953,-0.4313097587279571,-0.08781370485434255,0.45053754467517115,0.19432634633655388
-0.31753721833229065,-0.3850126266479492,-76.36530303955078,-0.4313097587279571,-0.08781370485434255,0.45053754467517115,0.19432634633655388
0.27715063095092773,0.8452684879302979,-79.19385528564453,-0.4313097587279571,-0.08781370485434255,0.45053754467517115,0.19432634633655388
0.5737183690071106,0.6079272031784058,-82.05524444580078,-0.4313097587279571,-0.08781370485434255,0.45053754467517115,0.19432634633655388
0.2593960165977478,-0.24300748109817505,-84.89862060546875,-0.4313097587279571,-0.08781370485434255,0.45053754467517115,0.19432634633655388
-0.261412650346756,-0.6070135831832886,-87.7501220703125,-0.4313097587279571,-0.08781370485434255,0.45053754467517115,0.19432634633655388
0.6448564529418945,1.249132513999939,-90.54421997070312,-0.4313097587279571,-0.08781370485434255,0.45053754467517115,0.19432634633655388
-0.2186920940876007,-0.14432783424854279,-93.3578872680664,-0.4313097587279571,-0.08781370485434255,0.45053754467517115,0.19432634633655388
0.42703408002853394,0.28889134526252747,-95.96488189697266,-0.4313097587279571,-0.08781370485434255,0.45053754467517115,0.19432634633655388
0.014980105683207512,-0.5508105158805847,-98.0486068725586,-0.4313097587279571,-0.08781370485434255,0.45053754467517115,0.19432634633655388
2.2159862518310547,0.11069455742835999,-99.80857849121094,-0.4313097587279571,-0.08781370485434255,0.45053754467517115,0.19432634633655388
0.6432687044143677,-0.9952386021614075,-101.208740234375,-0.4313097587279571,-0.08781370485434255,0.45053754467517115,0.19432634633655388
1.2866322994232178,-0.7460080981254578,-102.19976806640625,-0.4313097587279571,-0.08781370485434255,0.45053754467517115,0.19432634633655388
1.1534113883972168,-0.47106602787971497,-102.90245056152344,-0.4313097587279571,-0.08781370485434255,0.45053754467517115,0.19432634633655388
0.7285277843475342,-0.25347620248794556,-103.24374389648438,-0.4313097587279571,-0.08781370485434255,0.45053754467517115,0.19432634633655388
0.9997934699058533,-0.22329658269882202,-103.25852966308594,-0.4313097587279571,-0.08781370485434255,0.45053754467517115,0.19432634633655388
-0.6141526103019714,1.1034388542175293,-103.23363494873047,-0.4313097587279571,-0.08781370485434255,0.45053754467517115,0.19432634633655388
0.4185737371444702,0.4666682183742523,-103.25334167480469,-0.4313097587279571,-0.08781370485434255,0.45053754467517115,0.19432634633655388
-0.38979417085647583,-0.10709908604621887,-103.22650146484375,-0.4313097587279571,-0.08781370485434255,0.45053754467517115,0.19432634633655388
0.0841328352689743,-0.2993287146091461,-103.21160125732422,-0.4313097587279571,-0.08781370485434255,0.45053754467517115,0.19432634633655388
-0.3112858831882477,-0.5170402526855469,-103.21967315673828,-0.4313097587279571,-0.08781370485434255,0.45053754467517115,0.19432634633655388
-0.17885549366474152,-0.3731309175491333,-103.21745300292969,-0.4313097587279571,-0.08781370485434255,0.45053754467517115,0.19432634633655388
-0.11149917542934418,-0.09108174592256546,-103.21394348144531,-0.4313097587279571,-0.08781370485434255,0.45053754467517115,0.19432634633655388
-0.06312911212444305,0.15232817828655243,-103.2222671508789,-0.4313097587279571,-0.08781370485434255,0.45053754467517115,0.19432634633655388
-0.1170247420668602,0.11897613853216171,-103.2193603515625,-0.4313097587279571,-0.08781370485434255,0.45053754467517115,0.19432634633655388
-0.06775492429733276,-0.052728794515132904,-103.21695709228516,-0.4313097587279571,-0.08781370485434255,0.45053754467517115,0.19432634633655388
-0.15535381436347961,-0.2051125317811966,-103.21891784667969,-0.4313097587279571,-0.08781370485434255,0.45053754467517115,0.19432634633655388
-0.13597597181797028,-0.18306276202201843,-103.21600341796875,-0.4313097587279571,-0.08781370485434255,0.45053754467517115,0.19432634633655388
-0.09484760463237762,-0.0536334291100502,-103.21647644042969,-0.4313097587279571,-0.08781370485434255,0.45053754467517115,0.19432634633655388
-0.1029595136642456,0.016839874908328056,-103.21786499023438,-0.4313097587279571,-0.08781370485434255,0.45053754467517115,0.19432634633655388
-0.11459179222583771,-0.03974073752760887,-103.21695709228516,-0.4313097587279571,-0.08781370485434255,0.45053754467517115,0.19432634633655388
-0.11976630240678787,-0.1259719729423523,-103.21712493896484,-0.4313097587279571,-0.08781370485434255,0.45053754467517115,0.19432634633655388
-0.115381620824337,-0.13433170318603516,-103.21681213378906,-0.4313097587279571,-0.08781370485434255,0.45053754467517115,0.19432634633655388
-0.11832330375909805,-0.06512457132339478,-103.21649932861328,-0.4313097587279571,-0.08781370485434255,0.45053754467517115,0.19432634633655388
-0.11735817044973373,-0.031848710030317307,-103.21704864501953,-0.4313097587279571,-0.08781370485434255,0.45053754467517115,0.19432634633655388
-0.12261489033699036,-0.06719831377267838,-103.21641540527344,-0.4313097587279571,-0.08781370485434255,0.45053754467517115,0.19432634633655388
-0.11952739208936691,-0.10149744153022766,-103.21668243408203,-0.4238176150863172,-0.08458664739840713,0.4485196923216182,0.19292054837569633
-0.11675392836332321,-0.0960657000541687,-103.21617889404297,-0.41635869530598835,-0.08138502458808888,0.4465506813178458,0.19127418886249303
-0.07727314531803131,-0.28384390473365784,-103.21735382080078,-0.4089296580530299,-0.07822350405182427,0.44493378903716785,0.18810827548926115
-0.6073625087738037,-1.5696121454238892,-103.1839370727539,-0.4015616390450557,-0.07521707835270863,0.4392284919197359,0.17266280840461493
-0.5312318205833435,-3.1564643383026123,-103.2416763305664,-0.39432023323037657,-0.07266756463511273,0.42974020584175965,0.13327883770689408
-1.1649190187454224,-1.8126178979873657,-103.43671417236328,-0.3872756847190784,-0.07079132582862907,0.4156056155140199,0.09186981907114426
-0.09749569743871689,-1.697544813156128,-103.51500701904297,-0.38043659214913533,-0.0695039234768283,0.4050854928791521,0.06261846314494848
0.3698020875453949,-1.5777971744537354,-103.54476165771484,-0.3736662571018365,-0.06868773672910762,0.4073547127967077,0.035323946581532956
-0.45613473653793335,-1.5898748636245728,-103.59813690185547,-0.3668830072114047,-0.06831898151094862,0.40663527405510325,0.008926679597547057
-1.1045174598693848,-1.7653729915618896,-103.60579681396484,-0.36021413126857016,-0.068403206840933,0.3936298390850423,-0.01903371919567346
-0.3421054482460022,-1.1006447076797485,-103.45807647705078,-0.3537540938746608,-0.068919464501086,0.3815746481840807,-0.04291720002268711
0.165225088596344,-0.8862774968147278,-103.47361755371094,-0.34740679976323513,-0.06977273187677624,0.3801006451870002,-0.05947488506014108
-0.7415281534194946,-0.9616618156433105,-103.44412994384766,-0.3411118100562867,-0.07089230908003262,0.37529811964680726,-0.07487437933062473
-0.45421940088272095,-1.56984281539917,-103.29186248779297,-0.3349398794201109,-0.07231601433492098,0.3653335566942888,-0.09597025125597873
0.4437357485294342,-1.3235310316085815,-103.20047760009766,-0.32885171483995285,-0.07411644726189616,0.3652461929246781,-0.12008169998104333
-0.277893602848053,0.17080891132354736,-103.28401184082031,-0.32885171483995285,-0.07411644726189616,0.3652461929246781,-0.12008169998104333
-2.0963573455810547,-1.6146601438522339,-103.27519226074219,-0.3229291568292936,-0.07621807637495026,0.3454607683544355,-0.13211379358544906
1.2436002492904663,0.6765152215957642,-103.20841217041016,-0.3172306965995176,-0.07848512188764223,0.3383544592186806,-0.1399316679375863
0.8951195478439331,0.468450129032135,-103.24183654785156,-0.3114429334044052,-0.08073780487058617,0.35617712419480063,-0.13039029001568714
-1.2352739572525024,1.4710392951965332,-103.32626342773438,-0.30553026983514525,-0.08277628960527618,0.3533425041163959,-0.11422787814711491
0.28526559472084045,0.3618994951248169,-103.30497741699219,-0.2997072009028256,-0.08455280015840022,0.3454257677619654,-0.09895338822777032
-0.8937171697616577,-1.0515326261520386,-103.17886352539062,-0.29399235835505955,-0.08624991448518439,0.34035533796995854,-0.1047003309863305
0.3218117356300354,-2.88322114944458,-103.10221862792969,-0.2883594850440416,-0.08826816679159522,0.33558945935219503,-0.13748994578296897
-0.6659098267555237,-1.5590566396713257,-103.16163635253906,-0.28279022308894425,-0.09086815740111108,0.3327219752594826,-0.17450892735893486
0.502355694770813,-0.3290811777114868,-103.07735443115234,-0.2772562147604518,-0.09390776020552269,0.33135902415961,-0.1902434091704583
0.21868407726287842,0.9478044509887695,-102.96421813964844,-0.2716834921514004,-0.0970355167977194,0.33736768892655744,-0.1850873818931476
-0.8689848184585571,-1.3691171407699585,-102.90914154052734,-0.26610585710965196,-0.10014956432161778,0.3319485160832601,-0.1885983209746575
-0.7809433937072754,0.06296175718307495,-102.84297180175781,-0.26068796018966467,-0.10338357490616672,0.3181991143152115,-0.19948294917121487
-0.2533813416957855,0,-102.7029800415039,-0.2554564697243697,-0.10670391838143814,0.30957974152018597,-0.1989582678613559
0.4517989456653595,-1.641196846961975,-102.63883209228516,-0.25028302836542426,-0.11013386151572199,0.31123322155326577,-0.2126349082527057
-0.42239171266555786,-0.531289279460907,-102.63471221923828,-0.24509376583724485,-0.11382864374537979,0.3114782818282641,-0.23073895930622973
-1.0159008502960205,-1.0007935762405396,-102.68364715576172,-0.24000234256809055,-0.11778068770990734,0.29949251047025094,-0.24350631643707513
0.3430722653865814,-0.17634081840515137,-102.71427154541016,-0.2350575249342051,-0.12192087176126454,0.29388560559600563,-0.25331576972578923
0.08622369915246964,-1.207507848739624,-102.7961196899414,-0.2350575249342051,-0.12192087176126454,0.29388560559600563,-0.25331576972578923
-0.05769539996981621,0.057872265577316284,-102.88334655761719,-0.2301574503757173,-0.12622263706108064,0.2941233414225277,-0.2628960662521418
0.5592852234840393,-0.08727569133043289,-102.9708023071289,-0.2252205620587089,-0.1306062800698492,0.29830325661847956,-0.2631410948000844
0.13620774447917938,1.8953614234924316,-102.9427261352539,-0.22020054299229236,-0.13486640347400602,0.3040990313515064,-0.24807371369873443
-1.1206107139587402,2.032066583633423,-103.01620483398438,-0.21520058712042556,-0.13872822731293452,0.29589567327251004,-0.21534514697268564
0.47984784841537476,0.1911812424659729,-103.18604278564453,-0.210313489987102,-0.14216292088566682,0.29055598272631533,-0.19681808175519067
-0.5362488031387329,-1.1311440467834473,-103.29612731933594,-0.20547480700796364,-0.1455084974429976,0.29008597477028736,-0.20465110512450296
-0.4742737114429474,-1.1399036645889282,-103.33214569091797,-0.20071021593641591,-0.14907706084169572,0.28166495381544004,-0.22357650271927276
-0.23488275706768036,-3.560596227645874,-103.32086181640625,-0.19606504701647182,-0.15312975949064436,0.27575531657785146,-0.2627473351545628
0,1.2701692581176758,-103.38973999023438,-0.19148543637608176,-0.15766793917165986,0.27379796026895414,-0.2818342265672978
-0.2969387173652649,-0.5968488454818726,-103.3786849975586,-0.18694275778252734,-0.1623184179191262,0.2713234709575769,-0.2762232231286661
0.053784843534231186,1.3051460981369019,-103.28433990478516,-0.1824375856189171,-0.16687295099539182,0.2692971886756516,-0.2703207460232075
-0.5272518396377563,-0.43480828404426575,-103.24360656738281,-0.17798217879349676,-0.17131785663646662,0.2653516303747889,-0.26306793090576885
-0.3984031081199646,0.12239277362823486,-103.26225280761719,-0.1736239332141779,-0.17572401767311943,0.2576378391434746,-0.26567139349256913
0.30248552560806274,-0.623957633972168,-103.333251953125,-0.16933663017168332,-0.18018670512440835,0.2568385259558754,-0.2698511006621019
0.11007767915725708,-1.2791056632995605,-103.37246704101562,-0.1650273378498656,-0.18481638064219835,0.2602765526622531,-0.2857099614726996
-0.46205681562423706,-1.002205491065979,-103.25265502929688,-0.16071383830108268,-0.18973663771912985,0.2573433931916949,-0.30472088775907913
-0.5553709268569946,1.0077167749404907,-103.18478393554688,-0.16071383830108268,-0.18973663771912985,0.2573433931916949,-0.30472088775907913
-0.0911325216293335,-0.27067655324935913,-103.17234802246094,-0.15646967782069932,-0.19476413583305263,0.25195586445430884,-0.29857888591165305
1.2436463832855225,-0.6689751744270325,-103.24315643310547,-0.15219037772829028,-0.1998057041904466,0.26156014663477706,-0.30640931697562296
0,0.7692470550537109,-103.15657043457031,-0.1477446776188714,-0.2049055628149968,0.2719238664954897,-0.3055737179704006
-1.1257195472717285,1.0461434125900269,-103.0487289428711,-0.14329078814584043,-0.20987238933202823,0.2625428702682253,-0.29044546407336946
-0.07235412299633026,0.8571276068687439,-102.96448516845703,-0.13899827320180527,-0.21458097546801086,0.2525589230159915,-0.27458487224454636
0.06626944988965988,-0.1038227453827858,-102.94412994384766,-0.13478938036494895,-0.21910507716781677,0.2525082174067692,-0.26830733173216337
-0.2987407147884369,-0.9064526557922363,-102.92655944824219,-0.13059705391267631,-0.22364702404398998,0.25057095686594605,-0.27672629340862187
-0.4768655002117157,-0.7723793387413025,-102.85283660888672,-0.12647473284095223,-0.22837571448930963,0.24410757174094477,-0.29071656002973467
0.10846640914678574,-1.8806058168411255,-102.77317810058594,-0.12243185658214933,-0.233405225570054,0.24103757931540368,-0.3128247696595882
-0.1169789582490921,-0.7962047457695007,-102.85127258300781,-0.1184151547428025,-0.23880486135345064,0.2409666414062178,-0.3351315243480101
0.15558446943759918,0.9968656301498413,-103.01964569091797,-0.11439636311442189,-0.24437645197561328,0.24128835399945536,-0.33345935031150725
0.23729537427425385,-0.49871429800987244,-102.9896011352539,-0.1103476072252843,-0.24989951397162868,0.24456235269705415,-0.3293080892103408
-0.6897390484809875,0.5776473879814148,-102.99911499023438,-0.10630298771326442,-0.255382500660553,0.24079198874533136,-0.328650313460578
-1.3277400732040405,1.0713012218475342,-103.09040832519531,-0.10242989061762592,-0.26074549556476895,0.22397966273128947,-0.3149090750453368
1.0855412483215332,-0.5949955582618713,-103.22332763671875,-0.09871371560161016,-0.26596090336666445,0.2219613391906019,-0.3109398611821229
0.0937340259552002,-1.9231986999511719,-103.30956268310547,-0.09493246583216425,-0.2713181089876313,0.231788633142908,-0.3319248133338983
-0.12702737748622894,-1.0587522983551025,-103.30229949951172,-0.09493246583216425,-0.2713181089876313,0.231788633142908,-0.3319248133338983
-0.51002436876297,0,-103.29412841796875,-0.09111356165104975,-0.2769237136750265,0.22647986859083136,-0.3407477491535241
-0.06441634893417358,1.252864122390747,-103.30668640136719,-0.08737878889104264,-0.28251583837464145,0.22169286261002183,-0.3303072148002679
0.6669573783874512,3.1111366748809814,-103.2890853881836,-0.08364206472049691,-0.2877179030103909,0.22671403785546582,-0.2939405414896702
-0.35462039709091187,1.750775933265686,-103.41753387451172,-0.07984180735476022,-0.2922792792152086,0.22931684603293698,-0.25342460308844794
0.38544291257858276,-0.45806050300598145,-103.5574722290039,-0.07601771946841351,-0.2964132506951369,0.22957370032866756,-0.2426519745029504
0.057099808007478714,0.8445372581481934,-103.7358627319336,-0.07216075899622836,-0.30043061160663453,0.2332615563335514,-0.2394313348767653
-1.4830796718597412,-2.482173442840576,-103.76345825195312,-0.06837209277010335,-0.3045348585896287,0.2213783908014492,-0.25307830308253515
-0.5425150394439697,-1.4887131452560425,-103.71470642089844,-0.06482311922280862,-0.3090285863207332,0.20449843487391828,-0.286169024650007
-0.315377414226532,0.1202276349067688,-103.7157974243164,-0.06147438783974821,-0.31389310378089647,0.19734933109333078,-0.29757307056958426
1.6521384716033936,0.06625758856534958,-103.66900634765625,-0.058092401692541526,-0.3188397045943151,0.2084890065714713,-0.2960190270406499
-0.2287517488002777,-0.4749112129211426,-103.56359100341797,-0.05451873861615568,-0.3238017337689062,0.2203505625948306,-0.29942447391028154
-0.9967988133430481,0.8638806939125061,-103.4136734008789,-0.05093133691750179,-0.3287651298978976,0.2101376412436362,-0.29618306156868685
0.33383527398109436,-0.4078602194786072,-103.3436050415039,-0.04747508203145243,-0.33366984616887335,0.20461294508228658,-0.29238289094840436
-0.8175922632217407,0.4563954770565033,-103.318359375,-0.04409846051544492,-0.3385395238473483,0.20058163683861452,-0.29197843046858857
-0.43687018752098083,-0.5594906806945801,-103.22429656982422,-0.04084254868276959,-0.34341299041096635,0.19012778308242517,-0.2928375571655725
0,-1.2662622928619385,-103.11795806884766,-0.03770409050552924,-0.3484204047646673,0.18648719818641699,-0.3080521652785435
0.13051089644432068,-0.5678169131278992,-103.08602905273438,-0.0345869072790581,-0.35368197413083674,0.18757478899011965,-0.32333615866179216
-0.3823772072792053,-0.700237512588501,-103.16791534423828,-0.0345869072790581,-0.35368197413083674,0.18757478899011965,-0.32333615866179216
0.700107753276825,-0.258616179227829,-103.29467010498047,-0.0345869072790581,-0.35368197413083674,0.18757478899011965,-0.32333615866179216
0.12526772916316986,1.2547870874404907,-103.32035827636719,-0.0345869072790581,-0.35368197413083674,0.18757478899011965,-0.32333615866179216
-0.055140476673841476,1.6572353839874268,-103.47103881835938,-0.0345869072790581,-0.35368197413083674,0.18757478899011965,-0.32333615866179216
-0.27757635712623596,3.233664035797119,-103.7410659790039,-0.0345869072790581,-0.35368197413083674,0.18757478899011965,-0.32333615866179216
1.1306742429733276,1.2068302631378174,-104.21910858154297,-0.0345869072790581,-0.35368197413083674,0.18757478899011965,-0.32333615866179216
-1.0615426301956177,1.8981728553771973,-104.80374908447266,-0.0345869072790581,-0.35368197413083674,0.18757478899011965,-0.32333615866179216
0.15001030266284943,0.696577250957489,-105.648681640625,-0.0345869072790581,-0.35368197413083674,0.18757478899011965,-0.32333615866179216
0.16375739872455597,2.774467945098877,-106.83633422851562,-0.0345869072790581,-0.35368197413083674,0.18757478899011965,-0.32333615866179216
-0.6221391558647156,0.7681329250335693,-108.22944641113281,-0.0345869072790581,-0.35368197413083674,0.18757478899011965,-0.32333615866179216
-0.5000056624412537,1.3898099660873413,-109.7077865600586,-0.0345869072790581,-0.35368197413083674,0.18757478899011965,-0.32333615866179216
-0.39301419258117676,1.3316534757614136,-111.29315185546875,-0.0345869072790581,-0.35368197413083674,0.18757478899011965,-0.32333615866179216
-0.10941100120544434,2.012603521347046,-112.96529388427734,-0.0345869072790581,-0.35368197413083674,0.18757478899011965,-0.32333615866179216
-0.8361541032791138,0.7909136414527893,-114.61851501464844,-0.0345869072790581,-0.35368197413083674,0.18757478899011965,-0.32333615866179216
0.4544296860694885,1.0317251682281494,-116.31914520263672,-0.0345869072790581,-0.35368197413083674,0.18757478899011965,-0.32333615866179216
-0.6862872838973999,1.0040302276611328,-118.08866119384766,-0.0345869072790581,-0.35368197413083674,0.18757478899011965,-0.32333615866179216
0.1973429173231125,0.8915369510650635,-119.92076110839844,-0.0345869072790581,-0.35368197413083674,0.18757478899011965,-0.32333615866179216
-0.32363900542259216,0.44729524850845337,-121.84757232666016,-0.0345869072790581,-0.35368197413083674,0.18757478899011965,-0.32333615866179216
0.5069913268089294,1.040029764175415,-123.86248779296875,-0.0345869072790581,-0.35368197413083674,0.18757478899011965,-0.32333615866179216
0.004105270374566317,1.7091772556304932,-125.92332458496094,-0.0345869072790581,-0.35368197413083674,0.18757478899011965,-0.32333615866179216
-0.6525664925575256,0.6408091187477112,-127.99998474121094,-0.0345869072790581,-0.35368197413083674,0.18757478899011965,-0.32333615866179216
-0.2959546446800232,1.4583152532577515,-130.13333129882812,-0.0345869072790581,-0.35368197413083674,0.18757478899011965,-0.32333615866179216
-0.5327215790748596,0.8820801377296448,-132.23301696777344,-0.0345869072790581,-0.35368197413083674,0.18757478899011965,-0.32333615866179216
-0.3313976526260376,0.6834038496017456,-134.3199920654297,-0.0345869072790581,-0.35368197413083674,0.18757478899011965,-0.32333615866179216
-0.09646821767091751,1.185304045677185,-136.465576171875,-0.0345869072790581,-0.35368197413083674,0.18757478899011965,-0.32333615866179216
-0.4845167398452759,0.6597427725791931,-138.61050415039062,-0.0345869072790581,-0.35368197413083674,0.18757478899011965,-0.32333615866179216
0.7885296940803528,-0.10869448632001877,-140.85330200195312,-0.0345869072790581,-0.35368197413083674,0.18757478899011965,-0.32333615866179216
-0.4497672915458679,0.8916364312171936,-143.1892852783203,-0.0345869072790581,-0.35368197413083674,0.18757478899011965,-0.32333615866179216
0.5083601474761963,0.5216290950775146,-145.55967712402344,-0.0345869072790581,-0.35368197413083674,0.18757478899011965,-0.32333615866179216
-0.918632447719574,1.4174898862838745,-147.95285034179688,-0.0345869072790581,-0.35368197413083674,0.18757478899011965,-0.32333615866179216
1.4406179189682007,1.3185548782348633,-150.4379425048828,-0.0345869072790581,-0.35368197413083674,0.18757478899011965,-0.32333615866179216
-0.4313773512840271,0.5055733919143677,-152.83203125,-0.0345869072790581,-0.35368197413083674,0.18757478899011965,-0.32333615866179216
0.769871175289154,0.8926414847373962,-155.35232543945312,-0.0345869072790581,-0.35368197413083674,0.18757478899011965,-0.32333615866179216
0.23373077809810638,-0.40248343348503113,-157.94888305664062,-0.0345869072790581,-0.35368197413083674,0.18757478899011965,-0.32333615866179216
0.6091914772987366,0.824562132358551,-160.50265502929688,-0.0345869072790581,-0.35368197413083674,0.18757478899011965,-0.32333615866179216
-0.9462506771087646,0.8644044995307922,-163.05032348632812,-0.0345869072790581,-0.35368197413083674,0.18757478899011965,-0.32333615866179216
0.18001754581928253,0.6700127720832825,-165.73890686035156,-0.0345869072790581,-0.35368197413083674,0.18757478899011965,-0.32333615866179216
0.9543657898902893,0.13419537246227264,-168.43783569335938,-0.0345869072790581,-0.35368197413083674,0.18757478899011965,-0.32333615866179216
0.4011954665184021,0.3706596791744232,-170.97616577148438,-0.0345869072790581,-0.35368197413083674,0.18757478899011965,-0.32333615866179216
0.7826741933822632,-0.8520681262016296,-173.41009521484375,-0.0345869072790581,-0.35368197413083674,0.18757478899011965,-0.32333615866179216
1.220420241355896,-1.161441445350647,-175.92079162597656,-0.0345869072790581,-0.35368197413083674,0.18757478899011965,-0.32333615866179216
-0.02803838439285755,0.6063172817230225,-178.3842315673828,-0.0345869072790581,-0.35368197413083674,0.18757478899011965,-0.32333615866179216
0.1018901988863945,0.1878189891576767,179.119140625,-0.0345869072790581,-0.35368197413083674,0.18757478899011965,-0.32333615866179216
0.10290060192346573,1.5353237390518188,176.58250427246094,-0.0345869072790581,-0.35368197413083674,0.18757478899011965,-0.32333615866179216
0.07606566697359085,-0.7086625695228577,173.99586486816406,-0.0345869072790581,-0.35368197413083674,0.18757478899011965,-0.32333615866179216
0.9173645973205566,-0.18656371533870697,171.31092834472656,-0.0345869072790581,-0.35368197413083674,0.18757478899011965,-0.32333615866179216
-0.5421815514564514,1.1680593490600586,168.68096923828125,-0.0345869072790581,-0.35368197413083674,0.18757478899011965,-0.32333615866179216
0.1114385575056076,-0.050670038908720016,165.96630859375,-0.0345869072790581,-0.35368197413083674,0.18757478899011965,-0.32333615866179216
0.8005350828170776,0.20116053521633148,163.20864868164062,-0.0345869072790581,-0.35368197413083674,0.18757478899011965,-0.32333615866179216
0.5394150018692017,0.07070954144001007,160.51058959960938,-0.0345869072790581,-0.35368197413083674,0.18757478899011965,-0.32333615866179216
0.4571937918663025,0.4839789867401123,157.82728576660156,-0.0345869072790581,-0.35368197413083674,0.18757478899011965,-0.32333615866179216
-0.07483983039855957,-0.42834895849227905,155.14463806152344,-0.0345869072790581,-0.35368197413083674,0.18757478899011965,-0.32333615866179216
0.19837766885757446,0.249128520488739,152.37240600585938,-0.0345869072790581,-0.35368197413083674,0.18757478899011965,-0.32333615866179216
0.5873656868934631,0.060923267155885696,149.51858520507812,-0.0345869072790581,-0.35368197413083674,0.18757478899011965,-0.32333615866179216
0.6992346048355103,-1.3055481910705566,146.62765502929688,-0.0345869072790581,-0.35368197413083674,0.18757478899011965,-0.32333615866179216
0.635529637336731,0.5199564099311829,143.76870727539062,-0.0345869072790581,-0.35368197413083674,0.18757478899011965,-0.32333615866179216
0.08693747967481613,-0.14643898606300354,140.85955810546875,-0.0345869072790581,-0.35368197413083674,0.18757478899011965,-0.32333615866179216
0.8916148543357849,-0.6285480856895447,137.93780517578125,-0.0345869072790581,-0.35368197413083674,0.18757478899011965,-0.32333615866179216
0.45041537284851074,0.5052869915962219,134.97621154785156,-0.0345869072790581,-0.35368197413083674,0.18757478899011965,-0.32333615866179216
0.046677764505147934,-0.47511640191078186,131.94789123535156,-0.0345869072790581,-0.35368197413083674,0.18757478899011965,-0.32333615866179216
0.4890822768211365,-0.9675458073616028,128.92864990234375,-0.0345869072790581,-0.35368197413083674,0.18757478899011965,-0.32333615866179216
-0.5712956786155701,-1.280707597732544,125.92325592041016,-0.0345869072790581,-0.35368197413083674,0.18757478899011965,-0.32333615866179216
0.2784506380558014,1.656506896018982,123.02606201171875,-0.0345869072790581,-0.35368197413083674,0.18757478899011965,-0.32333615866179216
-0.6870020031929016,-0.5750972032546997,120.12715911865234,-0.0345869072790581,-0.35368197413083674,0.18757478899011965,-0.32333615866179216
-0.039403364062309265,0.26972058415412903,117.32077026367188,-0.0345869072790581,-0.35368197413083674,0.18757478899011965,-0.32333615866179216
-1.095434546470642,-2.8949356079101562,114.65209197998047,-0.0345869072790581,-0.35368197413083674,0.18757478899011965,-0.32333615866179216
1.1688694953918457,1.019148588180542,112.01953125,-0.0345869072790581,-0.35368197413083674,0.18757478899011965,-0.32333615866179216
-1.2404732704162598,-1.4252556562423706,109.34406280517578,-0.0345869072790581,-0.35368197413083674,0.18757478899011965,-0.32333615866179216
1.6808347702026367,0.7915164828300476,106.67845916748047,-0.0345869072790581,-0.35368197413083674,0.18757478899011965,-0.32333615866179216
-0.19545061886310577,-0.33492451906204224,104.06898498535156,-0.0345869072790581,-0.35368197413083674,0.18757478899011965,-0.32333615866179216
-0.015768183395266533,-0.7388447523117065,101.43946838378906,-0.0345869072790581,-0.35368197413083674,0.18757478899011965,-0.32333615866179216
-0.3508795499801636,0.3033974766731262,98.78302764892578,-0.0345869072790581,-0.35368197413083674,0.18757478899011965,-0.32333615866179216
-0.0020366364624351263,-0.4504561126232147,96.07701873779297,-0.0345869072790581,-0.35368197413083674,0.18757478899011965,-0.32333615866179216
0.45476675033569336,-0.9041253924369812,93.37445068359375,-0.0345869072790581,-0.35368197413083674,0.18757478899011965,-0.32333615866179216
0.028448978438973427,0.15111981332302094,90.61881256103516,-0.0345869072790581,-0.35368197413083674,0.18757478899011965,-0.32333615866179216
0.3617688715457916,0.27042797207832336,87.85738372802734,-0.0345869072790581,-0.35368197413083674,0.18757478899011965,-0.32333615866179216
0.7270334959030151,0.38347840309143066,85.12123107910156,-0.0345869072790581,-0.35368197413083674,0.18757478899011965,-0.32333615866179216
0.5839198231697083,-0.5124800205230713,82.31768798828125,-0.0345869072790581,-0.35368197413083674,0.18757478899011965,-0.32333615866179216
-0.9906976222991943,-1.4115636348724365,79.54407501220703,-0.0345869072790581,-0.35368197413083674,0.18757478899011965,-0.32333615866179216
0.4883435070514679,0.24972666800022125,76.81449127197266,-0.0345869072790581,-0.35368197413083674,0.18757478899011965,-0.32333615866179216
-0.25375527143478394,-0.3712790608406067,74.07328796386719,-0.0345869072790581,-0.35368197413083674,0.18757478899011965,-0.32333615866179216
-0.8398587703704834,-0.18978996574878693,71.35126495361328,-0.0345869072790581,-0.35368197413083674,0.18757478899011965,-0.32333615866179216
0.5038019418716431,-0.09324681013822556,68.625244140625,-0.0345869072790581,-0.35368197413083674,0.18757478899011965,-0.32333615866179216
0.08442068845033646,-0.3931993246078491,65.88016510009766,-0.0345869072790581,-0.35368197413083674,0.18757478899011965,-0.32333615866179216
-0.4478049874305725,-0.9234874248504639,63.16086959838867,-0.0345869072790581,-0.35368197413083674,0.18757478899011965,-0.32333615866179216
0.443764328956604,0.3253501057624817,60.463470458984375,-0.0345869072790581,-0.35368197413083674,0.18757478899011965,-0.32333615866179216
-0.671136736869812,-0.17979981005191803,57.74210739135742,-0.0345869072790581,-0.35368197413083674,0.18757478899011965,-0.32333615866179216
0.2248746007680893,-0.4359371066093445,55.054874420166016,-0.0345869072790581,-0.35368197413083674,0.18757478899011965,-0.32333615866179216
-0.2840144634246826,-0.29097944498062134,52.408935546875,-0.0345869072790581,-0.35368197413083674,0.18757478899011965,-0.32333615866179216
-1.5490647554397583,0.146156445145607,49.7335090637207,-0.0345869072790581,-0.35368197413083674,0.18757478899011965,-0.32333615866179216
0.5427238345146179,-0.364152729511261,47.0649299621582,-0.0345869072790581,-0.35368197413083674,0.18757478899011965,-0.32333615866179216
1.2324210405349731,0.02393045276403427,44.47169876098633,-0.0345869072790581,-0.35368197413083674,0.18757478899011965,-0.32333615866179216
0.512908935546875,-0.4386405348777771,41.8679313659668,-0.0345869072790581,-0.35368197413083674,0.18757478899011965,-0.32333615866179216
-0.15672667324543,0.5041588544845581,39.35527038574219,-0.0345869072790581,-0.35368197413083674,0.18757478899011965,-0.32333615866179216
-0.5742982625961304,-0.6909055709838867,36.70233154296875,-0.0345869072790581,-0.35368197413083674,0.18757478899011965,-0.32333615866179216
-0.7696795463562012,-0.8200454115867615,34.15242004394531,-0.0345869072790581,-0.35368197413083674,0.18757478899011965,-0.32333615866179216
-0.4810088276863098,-0.41276320815086365,31.591442108154297,-0.0345869072790581,-0.35368197413083674,0.18757478899011965,-0.32333615866179216
-0.34078288078308105,0.059132713824510574,28.945775985717773,-0.0345869072790581,-0.35368197413083674,0.18757478899011965,-0.32333615866179216
-0.800171434879303,0.2821979522705078,26.2225284576416,-0.0345869072790581,-0.35368197413083674,0.18757478899011965,-0.32333615866179216
-0.19633494317531586,-0.5784997344017029,23.555139541625977,-0.0345869072790581,-0.35368197413083674,0.18757478899011965,-0.32333615866179216
-0.7423855066299438,0.2875062823295593,20.88632583618164,-0.0345869072790581,-0.35368197413083674,0.18757478899011965,-0.32333615866179216
-0.13153976202011108,0.01382850669324398,18.23759651184082,-0.0345869072790581,-0.35368197413083674,0.18757478899011965,-0.32333615866179216
-0.8560437560081482,-0.21458955109119415,15.520638465881348,-0.0345869072790581,-0.35368197413083674,0.18757478899011965,-0.32333615866179216
0.17546874284744263,0.319625586271286,12.788179397583008,-0.0345869072790581,-0.35368197413083674,0.18757478899011965,-0.32333615866179216
-0.580760657787323,-0.13935516774654388,10.02191162109375,-0.0345869072790581,-0.35368197413083674,0.18757478899011965,-0.32333615866179216
-1.0946626663208008,-0.3463064134120941,7.320995330810547,-0.0345869072790581,-0.35368197413083674,0.18757478899011965,-0.32333615866179216
-0.5086120963096619,0.8687319159507751,4.610665321350098,-0.0345869072790581,-0.35368197413083674,0.18757478899011965,-0.32333615866179216
-0.6216375231742859,0.0002702926576603204,1.8422127962112427,-0.0345869072790581,-0.35368197413083674,0.18757478899011965,-0.32333615866179216
0.32281985878944397,0.41291889548301697,-0.9925494194030762,-0.0345869072790581,-0.35368197413083674,0.18757478899011965,-0.32333615866179216
-0.04303974285721779,-1.1219145059585571,-3.7437214851379395,-0.0345869072790581,-0.35368197413083674,0.18757478899011965,-0.32333615866179216
0.24554714560508728,-0.04733873903751373,-6.466907978057861,-0.0345869072790581,-0.35368197413083674,0.18757478899011965,-0.32333615866179216
-0.39655137062072754,1.0335931777954102,-9.231340408325195,-0.0345869072790581,-0.35368197413083674,0.18757478899011965,-0.32333615866179216
-0.3299817442893982,-0.7254201769828796,-11.979378700256348,-0.0345869072790581,-0.35368197413083674,0.18757478899011965,-0.32333615866179216
0.2871520519256592,0.24219006299972534,-14.697500228881836,-0.0345869072790581,-0.35368197413083674,0.18757478899011965,-0.32333615866179216
-0.5564436316490173,1.0371642112731934,-17.45130729675293,-0.0345869072790581,-0.35368197413083674,0.18757478899011965,-0.32333615866179216
-1.0500568151474,0.15980641543865204,-20.131784439086914,-0.0345869072790581,-0.35368197413083674,0.18757478899011965,-0.32333615866179216
0.692114531993866,-0.8162279725074768,-22.863536834716797,-0.0345869072790581,-0.35368197413083674,0.18757478899011965,-0.32333615866179216
-0.12416348606348038,-0.3914075493812561,-25.626712799072266,-0.0345869072790581,-0.35368197413083674,0.18757478899011965,-0.32333615866179216
0.20749129354953766,0.10356801003217697,-28.352336883544922,-0.0345869072790581,-0.35368197413083674,0.18757478899011965,-0.32333615866179216
-0.16237249970436096,-1.249462604522705,-31.112689971923828,-0.0345869072790581,-0.35368197413083674,0.18757478899011965,-0.32333615866179216
-1.1474636793136597,1.5634868144989014,-33.831851959228516,-0.0345869072790581,-0.35368197413083674,0.18757478899011965,-0.32333615866179216
-0.23352350294589996,-0.14221440255641937,-36.49017333984375,-0.0345869072790581,-0.35368197413083674,0.18757478899011965,-0.32333615866179216
-0.07473853975534439,1.7218599319458008,-39.19884490966797,-0.0345869072790581,-0.35368197413083674,0.18757478899011965,-0.32333615866179216
0.4496612548828125,-0.11596941947937012,-41.897953033447266,-0.0345869072790581,-0.35368197413083674,0.18757478899011965,-0.32333615866179216
-0.1691880226135254,-1.377866268157959,-44.541038513183594,-0.0345869072790581,-0.35368197413083674,0.18757478899011965,-0.32333615866179216
-1.17129647731781,-0.18236877024173737,-47.26388931274414,-0.0345869072790581,-0.35368197413083674,0.18757478899011965,-0.32333615866179216
-0.06872419267892838,2.799316883087158,-49.976016998291016,-0.0345869072790581,-0.35368197413083674,0.18757478899011965,-0.32333615866179216
-0.6711302995681763,-0.8994030952453613,-52.65534973144531,-0.0345869072790581,-0.35368197413083674,0.18757478899011965,-0.32333615866179216
0.07550035417079926,0.23903881013393402,-55.35332489013672,-0.0345869072790581,-0.35368197413083674,0.18757478899011965,-0.32333615866179216
-0.09543097764253616,0.015332762151956558,-58.15937423706055,-0.0345869072790581,-0.35368197413083674,0.18757478899011965,-0.32333615866179216
0.4147956669330597,0.8743482828140259,-60.94028854370117,-0.0345869072790581,-0.35368197413083674,0.18757478899011965,-0.32333615866179216
0.07604499906301498,-0.19880914688110352,-63.75905227661133,-0.0345869072790581,-0.35368197413083674,0.18757478899011965,-0.32333615866179216
-0.054277412593364716,0.7224122881889343,-66.6019058227539,-0.0345869072790581,-0.35368197413083674,0.18757478899011965,-0.32333615866179216
-0.1812182068824768,1.0170246362686157,-69.44718933105469,-0.0345869072790581,-0.35368197413083674,0.18757478899011965,-0.32333615866179216
0.16378219425678253,-1.136491298675537,-72.26758575439453,-0.0345869072790581,-0.35368197413083674,0.18757478899011965,-0.32333615866179216
-0.13012506067752838,0.20995022356510162,-75.19038391113281,-0.0345869072790581,-0.35368197413083674,0.18757478899011965,-0.32333615866179216
0.3103998601436615,0.92547607421875,-78.10798645019531,-0.0345869072790581,-0.35368197413083674,0.18757478899011965,-0.32333615866179216
0.18583981692790985,0.41078177094459534,-80.95067596435547,-0.0345869072790581,-0.35368197413083674,0.18757478899011965,-0.32333615866179216
0.3718823790550232,0.6435918211936951,-83.81558227539062,-0.0345869072790581,-0.35368197413083674,0.18757478899011965,-0.32333615866179216
-0.36720219254493713,-0.4900689125061035,-86.68220520019531,-0.0345869072790581,-0.35368197413083674,0.18757478899011965,-0.32333615866179216
-0.304604709148407,0.6542301177978516,-89.54840087890625,-0.0345869072790581,-0.35368197413083674,0.18757478899011965,-0.32333615866179216
0.09475981444120407,0.19137807190418243,-92.39775085449219,-0.0345869072790581,-0.35368197413083674,0.18757478899011965,-0.32333615866179216
0.27094629406929016,0.6902578473091125,-95.28316497802734,-0.0345869072790581,-0.35368197413083674,0.18757478899011965,-0.32333615866179216
0.19144445657730103,0.42943185567855835,-98.13654327392578,-0.0345869072790581,-0.35368197413083674,0.18757478899011965,-0.32333615866179216
-0.761259138584137,0.4952228367328644,-100.95935821533203,-0.0345869072790581,-0.35368197413083674,0.18757478899011965,-0.32333615866179216
-0.4798688590526581,-0.013162458315491676,-103.7709732055664,-0.0345869072790581,-0.35368197413083674,0.18757478899011965,-0.32333615866179216
0.8760027885437012,0.21462218463420868,-106.63494110107422,-0.0345869072790581,-0.35368197413083674,0.18757478899011965,-0.32333615866179216
-0.44749367237091064,0.3225337564945221,-109.50811004638672,-0.0345869072790581,-0.35368197413083674,0.18757478899011965,-0.32333615866179216
0.10659027844667435,-0.8799055814743042,-112.42720794677734,-0.0345869072790581,-0.35368197413083674,0.18757478899011965,-0.32333615866179216
-0.2352733463048935,0.6532115936279297,-115.41402435302734,-0.0345869072790581,-0.35368197413083674,0.18757478899011965,-0.32333615866179216
0.6713815331459045,0.31072232127189636,-118.17694854736328,-0.0345869072790581,-0.35368197413083674,0.18757478899011965,-0.32333615866179216
0.35094302892684937,0.6106670498847961,-121.12993621826172,-0.0345869072790581,-0.35368197413083674,0.18757478899011965,-0.32333615866179216
0.34558695554733276,0.6124162673950195,-124.10441589355469,-0.0345869072790581,-0.35368197413083674,0.18757478899011965,-0.32333615866179216
0.10434233397245407,0.5330551266670227,-127.0383529663086,-0.0345869072790581,-0.35368197413083674,0.18757478899011965,-0.32333615866179216
-0.3151697516441345,0.23740103840827942,-129.98684692382812,-0.0345869072790581,-0.35368197413083674,0.18757478899011965,-0.32333615866179216
0.9924176335334778,0.6732498407363892,-132.92529296875,-0.0345869072790581,-0.35368197413083674,0.18757478899011965,-0.32333615866179216
-1.2838432788848877,0.6095287799835205,-135.84739685058594,-0.0345869072790581,-0.35368197413083674,0.18757478899011965,-0.32333615866179216
0.091891810297966,-0.16757969558238983,-138.78799438476562,-0.0345869072790581,-0.35368197413083674,0.18757478899011965,-0.32333615866179216
-0.675126850605011,0.6020046472549438,-141.78323364257812,-0.0345869072790581,-0.35368197413083674,0.18757478899011965,-0.32333615866179216
0.6511275768280029,0.4029735028743744,-144.80465698242188,-0.0345869072790581,-0.35368197413083674,0.18757478899011965,-0.32333615866179216
0.19250275194644928,0.35720449686050415,-147.80401611328125,-0.0345869072790581,-0.35368197413083674,0.18757478899011965,-0.32333615866179216
1.2708985805511475,0.5448523759841919,-150.83071899414062,-0.0345869072790581,-0.35368197413083674,0.18757478899011965,-0.32333615866179216
-0.5932746529579163,-0.34966492652893066,-153.90274047851562,-0.0345869072790581,-0.35368197413083674,0.18757478899011965,-0.32333615866179216
0.19088377058506012,0.046561721712350845,-157.0736541748047,-0.0345869072790581,-0.35368197413083674,0.18757478899011965,-0.32333615866179216
0.1682765930891037,0.5844940543174744,-160.20083618164062,-0.0345869072790581,-0.35368197413083674,0.18757478899011965,-0.32333615866179216
-0.6101824045181274,0.7153093218803406,-163.30699157714844,-0.0345869072790581,-0.35368197413083674,0.18757478899011965,-0.32333615866179216
1.0018218755722046,0.1005767285823822,-166.53163146972656,-0.0345869072790581,-0.35368197413083674,0.18757478899011965,-0.32333615866179216
1.5930521488189697,-0.9738876223564148,-169.7009735107422,-0.0345869072790581,-0.35368197413083674,0.18757478899011965,-0.32333615866179216
