faccX,faccY,yaw,posX,posY,velX,velY
0,0,-157.34649658203125,0.0,0.0,0.0,0.0
0,0,-157.3473358154297,0.0,0.0,0.0,0.0
0,0,-157.3476104736328,0.0,0.0,0.0,0.0
-0.10089528560638428,-0.16151012480258942,-157.35316467285156,-7.006617055998907e-06,-1.121598088906871e-05,-0.0008407940467198689,-0.0013459177066882451
-0.9158780574798584,0,-157.3101348876953,-9.162911110454134e-05,-4.486392355627484e-05,-0.009313905239105224,-0.0026918354133764902
-2.6983909606933594,-1.0223586559295654,-157.437744140625,-0.0004978517691294352,-0.00016072497599654728,-0.03943281372388204,-0.011211490879456203
-2.9304513931274414,-1.5379188060760498,-157.39598083496094,-0.0015459571613205803,-0.0005253802032934295,-0.08633983333905537,-0.032547136396169664
-1.4731982946395874,-0.8573253750801086,-157.22369384765625,-0.0032907633897331025,-0.0012341688780321016,-0.12303691407044728,-0.052507504572470984
-0.6804031729698181,-1.0385375022888184,-157.1740264892578,-0.005490934281713432,-0.002240951098501682,-0.14098359296719232,-0.0683063618838787
-1.0381063222885132,0.3778652548789978,-157.06491088867188,-0.007960001768337355,-0.003425270480414231,-0.1553045054276784,-0.07381196394562721
-1.741231083869934,-0.542008638381958,-156.94207763671875,-0.010741419734226331,-0.004666868725584613,-0.1784656504789988,-0.07517982547481855
-1.397442102432251,-1.327056646347046,-156.8123779296875,-0.013933810657925073,-0.006049662017159991,-0.20462126036485034,-0.09075536951422691
-1.3226457834243774,0.24766506254673004,-156.60504150390625,-0.01753305998941262,-0.007637209257938795,-0.22728865941365559,-0.09975029937922955
-0.834559440612793,-0.16953684389591217,-156.4177703857422,-0.021471010231309463,-0.009294288676852981,-0.24526536961396533,-0.09909923089047273
-0.713579535484314,0.29441797733306885,-156.3865203857422,-0.025666276042660075,-0.010937270224094391,-0.2581665277481079,-0.09805855477849643
-0.6011454463005066,-1.598914623260498,-156.33868408203125,-0.03006035185108582,-0.012662169515258736,-0.2691225692629814,-0.10892936016122501
-1.6258373260498047,0.22698380053043365,-156.3871612548828,-0.03470037958688206,-0.014572931825079852,-0.2876807590325673,-0.12036211701730888
-0.6047586798667908,-1.2783950567245483,-156.43255615234375,-0.03964996140450239,-0.016651981779270703,-0.30626905908187224,-0.12912387748559317
-0.7184855937957764,-1.4630275964736938,-156.4922332763672,-0.04484633768598238,-0.018994422977169356,-0.31729609469572695,-0.15196906626224518
-0.9991204738616943,-0.27115482091903687,-156.61044311523438,-0.05025388413005404,-0.021647670082747938,-0.33160947859287254,-0.1664205864071846
-0.32009607553482056,-0.478450208902359,-156.56820678710938,-0.05587232103364334,-0.02447340242771639,-0.3426029498378435,-0.17266729498902958
-1.247271180152893,1.3214311599731445,-156.46017456054688,-0.06169121514591905,-0.027292650333709187,-0.35566434363524113,-0.16564245373010636
-0.8706034421920776,-0.3712615668773651,-156.30555725097656,-0.06776602883305813,-0.029987373896357087,-0.3733132988214492,-0.15772437378764154
0,-0.18233071267604828,-156.12168884277344,-0.0740483757191234,-0.03265455736778677,-0.3805683275063832,-0.16233764278392
-0.44400137662887573,0.9347391128540039,-156.1225128173828,-0.08042201460649567,-0.03530793416417308,-0.3842683389782905,-0.15606757278243702
-0.6491049528121948,-0.965657651424408,-156.300537109375,-0.08690239708456726,-0.03791120749794775,-0.3933775583902994,-0.15632522727052373
-0.29201000928878784,-1.475589394569397,-156.46185302734375,-0.09352404493010705,-0.04068615899731716,-0.40122018307447427,-0.17666895265380544
0.5973358154296875,0.8755215406417847,-156.52830505371094,-0.10018984480036627,-0.04367231292029222,-0.39867580135663344,-0.18166951810320223
-0.40558958053588867,-0.07181021571159363,-156.5052947998047,-0.10682112577888699,-0.04664432493555877,-0.3970779160658518,-0.17497192372878398
0,0.10577463358640671,-156.55682373046875,-0.11346725698974396,-0.04955816502424164,-0.4004578292369842,-0.17468888691316053
-1.0367474555969238,-0.2974873483181,-156.54920959472656,-0.1202135504947768,-0.05248295985576179,-0.40909739136695855,-0.176286492869258
-1.0179026126861572,-0.14410753548145294,-156.4584503173828,-0.12717452438341245,-0.055451734381624394,-0.4262194752693176,-0.17996645023425425
0.44018012285232544,-0.7286142110824585,-156.3436737060547,-0.13431830192191732,-0.05851178089570668,-0.43103382935126616,-0.18723913145562018
-0.16170407831668854,0.5900341272354126,-156.3197784423828,-0.1414828604635679,-0.06164205670356751,-0.42871319564680255,-0.1883939654876789
0.32621291279792786,-0.6149064302444458,-156.28363037109375,-0.14861665616639785,-0.06478368337162667,-0.4273422886927922,-0.18860123467942083
-0.8432089686393738,0.1880795657634735,-156.26759338378906,-0.15577493014848892,-0.06795667803742819,-0.4316505891581376,-0.19215812521676226
0.05080781877040863,-0.09628526866436005,-156.26695251464844,-0.16302413449208766,-0.07115293885374235,-0.43825393207371227,-0.1913931727409363
0.09714636951684952,-0.9110352396965027,-156.27342224121094,-0.17031809209690738,-0.0744127778791719,-0.43702098050465177,-0.19978751031061018
-0.25975924730300903,0.3076190948486328,-156.24671936035156,-0.1776130676662756,-0.07778447361662984,-0.4383760878195364,-0.20481597818434244
0.40850064158439636,0.13408765196800232,-156.11378479003906,-0.18490900653310946,-0.0811673991733955,-0.4371365762005249,-0.20113508862753715
-0.4700952470302582,0,-155.9527130126953,-0.1921988935396075,-0.08451033900802334,-0.4376498645792404,-0.2000176915278038
-0.2829422950744629,0.5541203022003174,-155.70538330078125,-0.19954535222301878,-0.0878054866236117,-0.44392517743011306,-0.19540002234280116
-0.36488261818885803,0.20143121480941772,-155.45510864257812,-0.20698909302138618,-0.09100968480731049,-0.44932371837397406,-0.18910375970105336
-0.14763712882995605,-0.1653222292661667,-155.49652099609375,-0.21451341331005094,-0.09415890656722088,-0.4535947162657975,-0.18880285148819295
-0.5811208486557007,-0.7743754386901855,-155.64830017089844,-0.22212393344069517,-0.09737087754118773,-0.4596676994115113,-0.19663366538782923
-0.4489782750606537,-2.284149408340454,-155.77569580078125,-0.22985659642558956,-0.10086050285647312,-0.46825185877581427,-0.2221213724464179
0.8747597336769104,0.0598154254257679,-155.78453063964844,-0.23763122591500477,-0.1047169933682825,-0.4647036799540121,-0.24065748897070693
0,0.979066789150238,-155.74526977539062,-0.24531554004384407,-0.10865580691955984,-0.4574140155067045,-0.23200013718257356
-0.818134069442749,0.912969172000885,-155.6998748779297,-0.25299592183488934,-0.11239108448641168,-0.46423179941872744,-0.21623317083964755
0.23804442584514618,0.6827132105827332,-155.67398071289062,-0.2607734024948957,-0.11588415939050416,-0.4690658797820408,-0.20293581765145075
-0.5753762722015381,-1.090613842010498,-155.78721618652344,-0.26861459298059337,-0.11929474945076637,-0.47187697850167737,-0.20633498958001545
-0.114517942070961,-0.5877996683120728,-155.98121643066406,-0.2765271186093903,-0.12285022243753903,-0.4776260969539482,-0.22032176883270355
0.2820485532283783,0.5321586728096008,-156.05618286132812,-0.2844759194884035,-0.1265261158761051,-0.47623000852763636,-0.22078544379522413
-0.38519877195358276,-0.06247996538877487,-156.0760498046875,-0.29242024950683115,-0.13017325669578794,-0.47708959368367976,-0.21687145456671725
0.2665754556655884,0.1983308494091034,-156.1153564453125,-0.30037998046519027,-0.1337783468493985,-0.478078121319413,-0.21573936386654785
-0.8191554546356201,-0.44474005699157715,-156.07859802246094,-0.30838632276488676,-0.13739111466436751,-0.4826829546441633,-0.21779277392973515
-0.13863347470760345,0,-155.9635009765625,-0.3164975517957161,-0.14105187895604307,-0.4906645290553568,-0.2214989410713316
0.5360721349716187,1.1568883657455444,-155.9207305908203,-0.3246476940396759,-0.14466318850405516,-0.4873525402198233,-0.21185820469011873
0.9914719462394714,-1.5048692226409912,-155.8795623779297,-0.33266415692658885,-0.1482183239195082,-0.4746230062097309,-0.21475804516424746
-0.4219433665275574,1.1580144166946411,-155.92657470703125,-0.3405349897676044,-0.1518217118115475,-0.46987693471213166,-0.21764850188046705
0.12383417040109634,-0.7768805027008057,-155.9463653564453,-0.3483869740403154,-0.15542271920997236,-0.4723611780131855,-0.21447238593051843
0.4665544033050537,-0.17628973722457886,-155.8587646484375,-0.3562186611340278,-0.1590634513532536,-0.4674412732323009,-0.22241547126322997
-0.07444042712450027,0.7468896508216858,-155.71376037597656,-0.363982118883998,-0.1627307508803076,-0.46417365676412964,-0.21766047198325408
-0.14381043612957,0,-155.58021545410156,-0.3717335028066817,-0.16630655807649922,-0.4659924139579136,-0.21143639155974003
-0.3165120482444763,0.48993486166000366,-155.39564514160156,-0.3717335028066817,-0.16630655807649922,-0.4659924139579136,-0.21143639155974003
-0.370670348405838,0.5465511679649353,-155.19566345214844,-0.3717335028066817,-0.16630655807649922,-0.4659924139579136,-0.21143639155974003
-0.11130028963088989,-0.5254389643669128,-155.18397521972656,-0.3717335028066817,-0.16630655807649922,-0.4659924139579136,-0.21143639155974003
1.2499860525131226,-0.6125943064689636,-155.35101318359375,-0.3717335028066817,-0.16630655807649922,-0.4659924139579136,-0.21143639155974003
1.5109039545059204,0.36762452125549316,-155.82388305664062,-0.3717335028066817,-0.16630655807649922,-0.4659924139579136,-0.21143639155974003
3.207425832748413,1.3975136280059814,-156.59437561035156,-0.3717335028066817,-0.16630655807649922,-0.4659924139579136,-0.21143639155974003
1.5841420888900757,1.5339884757995605,-157.53297424316406,-0.3717335028066817,-0.16630655807649922,-0.4659924139579136,-0.21143639155974003
0.7119531035423279,1.9054803848266602,-158.5391082763672,-0.3717335028066817,-0.16630655807649922,-0.4659924139579136,-0.21143639155974003
1.2826836109161377,1.90342116355896,-159.62722778320312,-0.3717335028066817,-0.16630655807649922,-0.4659924139579136,-0.21143639155974003
1.5545845031738281,1.2331560850143433,-160.92552185058594,-0.3717335028066817,-0.16630655807649922,-0.4659924139579136,-0.21143639155974003
0.814568817615509,0.9665518403053284,-162.37188720703125,-0.3717335028066817,-0.16630655807649922,-0.4659924139579136,-0.21143639155974003
1.6730144023895264,0.5472651124000549,-163.95852661132812,-0.3717335028066817,-0.16630655807649922,-0.4659924139579136,-0.21143639155974003
1.075393795967102,0.8022106885910034,-165.64610290527344,-0.3717335028066817,-0.16630655807649922,-0.4659924139579136,-0.21143639155974003
-0.38501429557800293,0.6747279763221741,-167.36595153808594,-0.3717335028066817,-0.16630655807649922,-0.4659924139579136,-0.21143639155974003
2.044962167739868,0.334215372800827,-169.1612091064453,-0.3717335028066817,-0.16630655807649922,-0.4659924139579136,-0.21143639155974003
0.5446646809577942,0.9692756533622742,-171.1155548095703,-0.3717335028066817,-0.16630655807649922,-0.4659924139579136,-0.21143639155974003
2.8463451862335205,-0.06536512821912766,-173.1442108154297,-0.3717335028066817,-0.16630655807649922,-0.4659924139579136,-0.21143639155974003
0.6573989987373352,0.7084471583366394,-175.3113250732422,-0.3717335028066817,-0.16630655807649922,-0.4659924139579136,-0.21143639155974003
0.43721261620521545,-0.19649262726306915,-177.59800720214844,-0.3717335028066817,-0.16630655807649922,-0.4659924139579136,-0.21143639155974003
1.4291534423828125,0.11952491104602814,-179.9498291015625,-0.3717335028066817,-0.16630655807649922,-0.4659924139579136,-0.21143639155974003
0.672677755355835,1.2801316976547241,177.67930603027344,-0.3717335028066817,-0.16630655807649922,-0.4659924139579136,-0.21143639155974003
1.5792514085769653,-0.40234649181365967,175.27394104003906,-0.3717335028066817,-0.16630655807649922,-0.4659924139579136,-0.21143639155974003
1.2326140403747559,0.29939132928848267,172.8535919189453,-0.3717335028066817,-0.16630655807649922,-0.4659924139579136,-0.21143639155974003
-0.0076276869513094425,0.5622105002403259,170.42649841308594,-0.3717335028066817,-0.16630655807649922,-0.4659924139579136,-0.21143639155974003
1.1689691543579102,-0.7292938232421875,167.9626007080078,-0.3717335028066817,-0.16630655807649922,-0.4659924139579136,-0.21143639155974003
-0.4248640239238739,3.0306646823883057,165.51800537109375,-0.3717335028066817,-0.16630655807649922,-0.4659924139579136,-0.21143639155974003
1.9641178846359253,-2.96014142036438,163.04759216308594,-0.3717335028066817,-0.16630655807649922,-0.4659924139579136,-0.21143639155974003
0.011476409621536732,2.517756938934326,160.5695037841797,-0.3717335028066817,-0.16630655807649922,-0.4659924139579136,-0.21143639155974003
0.09928438067436218,-0.1605045348405838,157.99440002441406,-0.3717335028066817,-0.16630655807649922,-0.4659924139579136,-0.21143639155974003
0.449113130569458,0.21630381047725677,155.3500213623047,-0.3717335028066817,-0.16630655807649922,-0.4659924139579136,-0.21143639155974003
1.6353882551193237,-0.16534295678138733,152.72825622558594,-0.3717335028066817,-0.16630655807649922,-0.4659924139579136,-0.21143639155974003
0.6006969213485718,-0.4874870777130127,150.0502471923828,-0.3717335028066817,-0.16630655807649922,-0.4659924139579136,-0.21143639155974003
1.0137450695037842,1.6849567890167236,147.37522888183594,-0.3717335028066817,-0.16630655807649922,-0.4659924139579136,-0.21143639155974003
0.9817280173301697,-0.9252011179924011,144.77835083007812,-0.3717335028066817,-0.16630655807649922,-0.4659924139579136,-0.21143639155974003
0.9464185833930969,-0.10648593306541443,142.15399169921875,-0.3717335028066817,-0.16630655807649922,-0.4659924139579136,-0.21143639155974003
0.48237866163253784,0.8236188292503357,139.54612731933594,-0.3717335028066817,-0.16630655807649922,-0.4659924139579136,-0.21143639155974003
0.3935795724391937,0.008963272906839848,136.9566192626953,-0.3717335028066817,-0.16630655807649922,-0.4659924139579136,-0.21143639155974003
-0.19640760123729706,-0.19885161519050598,134.3546905517578,-0.3717335028066817,-0.16630655807649922,-0.4659924139579136,-0.21143639155974003
1.014512062072754,0.1299208104610443,131.6978302001953,-0.3717335028066817,-0.16630655807649922,-0.4659924139579136,-0.21143639155974003
0.2891189157962799,-1.0241649150848389,129.01199340820312,-0.3717335028066817,-0.16630655807649922,-0.4659924139579136,-0.21143639155974003
1.1557680368423462,0.43740174174308777,126.29521179199219,-0.3717335028066817,-0.16630655807649922,-0.4659924139579136,-0.21143639155974003
1.1132556200027466,0.669381856918335,123.56257629394531,-0.3717335028066817,-0.16630655807649922,-0.4659924139579136,-0.21143639155974003
0.19220750033855438,-0.009414500556886196,120.86801147460938,-0.3717335028066817,-0.16630655807649922,-0.4659924139579136,-0.21143639155974003
0.6132346987724304,-0.4821662902832031,118.26888275146484,-0.3717335028066817,-0.16630655807649922,-0.4659924139579136,-0.21143639155974003
-0.3119427263736725,-0.03884226828813553,115.70276641845703,-0.3717335028066817,-0.16630655807649922,-0.4659924139579136,-0.21143639155974003
0.6021056175231934,-0.09603750705718994,113.08509826660156,-0.3717335028066817,-0.16630655807649922,-0.4659924139579136,-0.21143639155974003
0.6435061097145081,-0.2537270784378052,110.51146697998047,-0.3717335028066817,-0.16630655807649922,-0.4659924139579136,-0.21143639155974003
-0.2599159777164459,0.1968008130788803,107.85472106933594,-0.3717335028066817,-0.16630655807649922,-0.4659924139579136,-0.21143639155974003
1.1549534797668457,-0.2060423344373703,105.11498260498047,-0.3717335028066817,-0.16630655807649922,-0.4659924139579136,-0.21143639155974003
0.3786652684211731,0.026193629950284958,102.48065185546875,-0.3717335028066817,-0.16630655807649922,-0.4659924139579136,-0.21143639155974003
0.18867477774620056,-1.286304235458374,100.04348754882812,-0.3717335028066817,-0.16630655807649922,-0.4659924139579136,-0.21143639155974003
-0.010379689745604992,0.3196672201156616,97.99968719482422,-0.3717335028066817,-0.16630655807649922,-0.4659924139579136,-0.21143639155974003
-1.3852460384368896,-0.6640132069587708,96.22869110107422,-0.3717335028066817,-0.16630655807649922,-0.4659924139579136,-0.21143639155974003
-1.1603083610534668,0.5455943942070007,94.85302734375,-0.3717335028066817,-0.16630655807649922,-0.4659924139579136,-0.21143639155974003
-1.2072691917419434,0.17958559095859528,93.84056091308594,-0.3717335028066817,-0.16630655807649922,-0.4659924139579136,-0.21143639155974003
-1.254045844078064,0.32737550139427185,93.23756408691406,-0.3717335028066817,-0.16630655807649922,-0.4659924139579136,-0.21143639155974003
-1.0247982740402222,0.7246156930923462,92.94994354248047,-0.3717335028066817,-0.16630655807649922,-0.4659924139579136,-0.21143639155974003
-0.6077721118927002,0.34875255823135376,92.95420837402344,-0.3717335028066817,-0.16630655807649922,-0.4659924139579136,-0.21143639155974003
0.6218756437301636,-0.42227864265441895,93.03819274902344,-0.3717335028066817,-0.16630655807649922,-0.4659924139579136,-0.21143639155974003
0.15780673921108246,-0.6258572936058044,93.01480865478516,-0.3717335028066817,-0.16630655807649922,-0.4659924139579136,-0.21143639155974003
0.22363054752349854,-0.2809467911720276,92.99330139160156,-0.3717335028066817,-0.16630655807649922,-0.4659924139579136,-0.21143639155974003
0.21815915405750275,-0.0645633414387703,93.02709197998047,-0.3717335028066817,-0.16630655807649922,-0.4659924139579136,-0.21143639155974003
0.19203121960163116,0.19132086634635925,93.01995849609375,-0.3717335028066817,-0.16630655807649922,-0.4659924139579136,-0.21143639155974003
0.21906690299510956,0.22387078404426575,93.01034545898438,-0.3717335028066817,-0.16630655807649922,-0.4659924139579136,-0.21143639155974003
0.1172853484749794,0.2899271249771118,93.01802825927734,-0.3717335028066817,-0.16630655807649922,-0.4659924139579136,-0.21143639155974003
0.2751776874065399,0.14707264304161072,93.01766204833984,-0.3717335028066817,-0.16630655807649922,-0.4659924139579136,-0.21143639155974003
0.15006203949451447,0.014781243167817593,93.02096557617188,-0.3717335028066817,-0.16630655807649922,-0.4659924139579136,-0.21143639155974003
0.23067866265773773,-0.05864998698234558,93.02123260498047,-0.3717335028066817,-0.16630655807649922,-0.4659924139579136,-0.21143639155974003
0.19564442336559296,-0.06181967258453369,93.02204132080078,-0.3717335028066817,-0.16630655807649922,-0.4659924139579136,-0.21143639155974003
0.20415806770324707,0.06342744827270508,93.0232162475586,-0.3717335028066817,-0.16630655807649922,-0.4659924139579136,-0.21143639155974003
0.18713855743408203,0.11726246774196625,93.02276611328125,-0.3717335028066817,-0.16630655807649922,-0.4659924139579136,-0.21143639155974003
0.19239504635334015,0.1266898810863495,93.02462005615234,-0.3717335028066817,-0.16630655807649922,-0.4659924139579136,-0.21143639155974003
0.20382361114025116,0.05634942650794983,93.02421569824219,-0.3717335028066817,-0.16630655807649922,-0.4659924139579136,-0.21143639155974003
0.21119937300682068,0.01019153743982315,93.02518463134766,-0.3717335028066817,-0.16630655807649922,-0.4659924139579136,-0.21143639155974003
0.20559372007846832,0.007612152956426144,93.02565002441406,-0.3717335028066817,-0.16630655807649922,-0.4659924139579136,-0.21143639155974003
0.1978660672903061,0.07393976300954819,93.0262451171875,-0.3717335028066817,-0.16630655807649922,-0.4659924139579136,-0.21143639155974003
0.2040039598941803,0.09440676122903824,93.02667236328125,-0.3794721353985369,-0.16981880720497833,-0.46264349706470953,-0.21003350385775182
0.19905336201190948,0.07306326925754547,93.02598571777344,-0.38715487025781636,-0.1733077357393793,-0.45928468604882544,-0.20863792027036362
0.058878105133771896,0.8696555495262146,93.03797149658203,-0.3947917031178561,-0.17671956782591428,-0.4571352571559448,-0.2007819301138323
-0.2679142653942108,2.9987611770629883,93.2170181274414,-0.4024251404704733,-0.1797972932773539,-0.4588772251581151,-0.16854512405892227
-0.5856062173843384,2.2304463386535645,93.4613265991211,-0.41013236647885704,-0.18224323926752228,-0.4659898958479363,-0.12496839476128434
1.4957891702651978,1.3868094682693481,93.38331604003906,-0.4178356575934837,-0.18407484752695183,-0.4584050379072625,-0.09482459637026007
0,1.9161770343780518,93.35350036621094,-0.4253718673106696,-0.1854258834037723,-0.4459401281550525,-0.0672997088481984
-0.7066037058830261,1.4723974466323853,93.43364715576172,-0.4328532724817179,-0.18631222754561655,-0.4518284923707444,-0.03906158817311142
0.35378727316856384,1.4542230367660522,93.53789520263672,-0.44040824849572435,-0.18676001648159907,-0.4547686293100316,-0.014673084144791109
-0.8037567138671875,1.836458444595337,93.59115600585938,-0.44801897352871783,-0.18677604833669548,-0.45851837464918677,0.012749261533220466
1.0229828357696533,1.5335415601730347,93.64151763916016,-0.4556457224032944,-0.18632953286636622,-0.45669149029999956,0.04083259490629022
0.34509995579719543,1.6055102348327637,93.74897766113281,-0.46316224149221336,-0.18543099990994152,-0.4452908003702758,0.06699135986467188
0.7173756957054138,0.8729764223098755,93.78833770751953,-0.4705099718003636,-0.1841423601165621,-0.43643683660775406,0.08764541534086054
-0.256222665309906,0.8290234208106995,93.9570083618164,-0.4777518945611598,-0.18256340876066438,-0.4325938946877915,0.10182874736686533
-0.09396885335445404,1.2777005434036255,94.08562469482422,-0.48498611166141914,-0.18071996269592397,-0.4355121573433279,0.1193847804019847
-0.1884363740682602,0.7490878701210022,94.15876770019531,-0.49226425909126786,-0.17858946716050725,-0.43786553423851715,0.13627468384802327
0.6003836989402771,0,94.1631851196289,-0.499533410542127,-0.17626620243872623,-0.4344326398645837,0.1425170827656983
0.39346611499786377,1.4630640745162964,94.15835571289062,-0.50670493719168,-0.17378931605412318,-0.42615055808176583,0.15470928338666742
-0.9864527583122253,1.0714408159255981,94.23979949951172,-0.5138486261210506,-0.17103482071362025,-0.43109211344271886,0.17583015747368322
0.09537389874458313,1.0457316637039185,94.20960998535156,-0.5210953751547882,-0.16795729222241793,-0.43851777060578256,0.19347326147059585
0.44650015234947205,0.11138881742954254,94.19534301757812,-0.5283663745224475,-0.16465238227560705,-0.4340021535133321,0.20311593214670803
0.446353942155838,0.8695224523544312,94.22386932373047,-0.5355377399911069,-0.16119899790164915,-0.42656170272578786,0.21129019272824115
-0.2735889256000519,0.3205955922603607,94.21487426757812,-0.5426351041326092,-0.1575948476030802,-0.42512199425448965,0.22120784310003108
0.8201964497566223,0.5488326549530029,94.2211685180664,-0.5496825118476731,-0.15384767325646764,-0.4205669315531849,0.2284530784934758
0.2832801938056946,0.6106054782867432,94.4139404296875,-0.5566153303844232,-0.1499596054112125,-0.41137129285683227,0.23811506293714035
-0.8067978620529175,0.34135445952415466,94.56269836425781,-0.563507873992332,-0.14592491269991217,-0.4157339400922258,0.24604806241889784
1.052714228630066,0.9366050362586975,94.51742553710938,-0.5704196954684124,-0.14173536447239007,-0.41368463703741626,0.256697724883755
-0.05147659778594971,-0.09023626148700714,94.42918395996094,-0.5772449090280052,-0.13739829344830168,-0.40534099011371527,0.2637507980068524
-0.1374536156654358,-0.07222265005111694,94.40033721923828,-0.584013712350279,-0.13301372868371095,-0.4069154085591435,0.2623969737440347
0,-0.0576845221221447,94.4190902709961,-0.5908051812162415,-0.12864946711937797,-0.40806085535635545,0.2613144139759242
0.5094014406204224,0.15599945187568665,94.42047119140625,-0.5975708203721376,-0.12428739946076857,-0.40381584335118526,0.26213370505720374
-0.5933670997619629,0.7981474995613098,94.39354705810547,-0.6043069153765421,-0.11985224417152093,-0.40451555717736476,0.270084929652512
1.415724754333496,1.248490810394287,94.36495208740234,-0.6109917331590419,-0.11520870101689881,-0.39766257672260197,0.287140248902142
-0.25338926911354065,0.39077964425086975,94.41515350341797,-0.617538725029056,-0.11030919197584609,-0.38797644767910233,0.300800836024185
-0.24259836971759796,0.29281067848205566,94.44107818603516,-0.624039442743071,-0.10524837315858655,-0.39210967800269514,0.3064974220469594
1.4940423965454102,-0.4440491795539856,94.35398864746094,-0.6304876982079195,-0.10015058546482278,-0.38168097777913,0.30523710120469333
0,-0.5728505253791809,94.25171661376953,-0.6367452948933672,-0.09513391847980936,-0.36923062447458493,0.2967629369969169
-0.40448564291000366,-0.06868612766265869,94.19734954833984,-0.6429272279153679,-0.09023242068632198,-0.3726013381655016,0.29141679822156824
0.21385490894317627,0.6263472437858582,94.19938659667969,-0.6491504884635406,-0.0853367475828984,-0.3741899276152252,0.29606397418926156
-1.1330139636993408,1.4594172239303589,94.19267272949219,-0.6554508177470413,-0.08025750325837486,-0.3818495864048599,0.31344534475356334
1.6194177865982056,0.3208045959472656,94.23846435546875,-0.6617811994771987,-0.07490978766387953,-0.377796221214036,0.32828052658587686
0.34579408168792725,0.11245401203632355,94.35978698730469,-0.6679413301176905,-0.06940835815078272,-0.3614194556449849,0.3318910149857401
-0.3598574101924896,-0.09105677157640457,94.46004486083984,-0.6739659643318087,-0.06387535531487734,-0.3615366500491896,0.33206932532290606
0.197038471698761,-0.5935295820236206,94.50506591796875,-0.6800028820366906,-0.05838840727849558,-0.36289347453663734,0.32636443904290585
-0.27748700976371765,0.905960738658905,94.40274047851562,-0.6860566933163335,-0.05292730335301414,-0.36356387902051196,0.3289680320148666
-0.13720643520355225,0.5863135457038879,94.37078094482422,-0.6921448894559091,-0.04734087266079673,-0.36701965772857253,0.34140365105122317
0.5240182876586914,0.44035857915878296,94.46402740478516,-0.6982350218171871,-0.041579515134605324,-0.3637962256247797,0.34995925209174544
0.7510215044021606,-0.7208094000816345,94.47604370117188,-0.7042097478142626,-0.03576633668452921,-0.3531708940242726,0.3476221619173884
0.09592136740684509,-0.3871040940284729,94.47126770019531,-0.7100371139041248,-0.030049572422997047,-0.3461130367591975,0.3383895494664708
0.22517050802707672,1.4996142387390137,94.66002655029297,-0.715783366469873,-0.024332488949617634,-0.34343727113058153,0.34766046733905864
-0.8669303059577942,0.5783591866493225,94.7811279296875,-0.72155188764135,-0.018393844117203576,-0.3487852694466708,0.3649769125506281
0.6121457815170288,-1.1695178747177124,94.76282501220703,-0.7273826688352141,-0.012351948261364524,-0.3509084738170105,0.3600505901500582
0.5032217502593994,-0.07421903312206268,94.73933410644531,-0.7331536873202353,-0.006437475710796871,-0.34161374438554026,0.3496861159180601
0,-0.7525284886360168,94.76173400878906,-0.7388123037717819,-0.0006667868011735138,-0.33742022980004527,0.34279655323674274
0.7584802508354187,-0.17897310853004456,94.79994201660156,-0.7388123037717819,-0.0006667868011735138,-0.33742022980004527,0.34279655323674274
-0.6262606978416443,0.7161053419113159,94.80784606933594,-0.7388123037717819,-0.0006667868011735138,-0.33742022980004527,0.34279655323674274
1.4853640794754028,0.7663930058479309,94.75801849365234,-0.7388123037717819,-0.0006667868011735138,-0.33742022980004527,0.34279655323674274
-0.9024799466133118,-0.7063265442848206,94.74877166748047,-0.7388123037717819,-0.0006667868011735138,-0.33742022980004527,0.34279655323674274
0.7851150631904602,-2.8498306274414062,94.29972839355469,-0.7388123037717819,-0.0006667868011735138,-0.33742022980004527,0.34279655323674274
1.0631684064865112,-2.99918532371521,93.5327377319336,-0.7388123037717819,-0.0006667868011735138,-0.33742022980004527,0.34279655323674274
0.053937532007694244,-2.95410418510437,92.58744812011719,-0.7388123037717819,-0.0006667868011735138,-0.33742022980004527,0.34279655323674274
0.7809497117996216,-1.974180817604065,91.4066162109375,-0.7388123037717819,-0.0006667868011735138,-0.33742022980004527,0.34279655323674274
0.1552937626838684,-0.5751842856407166,90.03290557861328,-0.7388123037717819,-0.0006667868011735138,-0.33742022980004527,0.34279655323674274
1.116907000541687,-0.9115000367164612,88.42433166503906,-0.7388123037717819,-0.0006667868011735138,-0.33742022980004527,0.34279655323674274
0.12133427709341049,-1.8396130800247192,86.66651153564453,-0.7388123037717819,-0.0006667868011735138,-0.33742022980004527,0.34279655323674274
1.026950716972351,-1.439488410949707,84.8482666015625,-0.7388123037717819,-0.0006667868011735138,-0.33742022980004527,0.34279655323674274
0.5561439394950867,-1.3021738529205322,82.9580307006836,-0.7388123037717819,-0.0006667868011735138,-0.33742022980004527,0.34279655323674274
-0.3950916826725006,-1.9107297658920288,81.0177001953125,-0.7388123037717819,-0.0006667868011735138,-0.33742022980004527,0.34279655323674274
1.50340735912323,-0.890231192111969,79.02417755126953,-0.7388123037717819,-0.0006667868011735138,-0.33742022980004527,0.34279655323674274
0.25206586718559265,-0.43496018648147583,77.08650970458984,-0.7388123037717819,-0.0006667868011735138,-0.33742022980004527,0.34279655323674274
-0.9577556848526001,-1.388437032699585,75.16519165039062,-0.7388123037717819,-0.0006667868011735138,-0.33742022980004527,0.34279655323674274
0.19688302278518677,-1.2689800262451172,73.19612121582031,-0.7388123037717819,-0.0006667868011735138,-0.33742022980004527,0.34279655323674274
0.22082486748695374,-1.3162403106689453,71.16476440429688,-0.7388123037717819,-0.0006667868011735138,-0.33742022980004527,0.34279655323674274
0.7955103516578674,-0.4438054859638214,69.21971893310547,-0.7388123037717819,-0.0006667868011735138,-0.33742022980004527,0.34279655323674274
0.9131834506988525,-0.2594640552997589,67.3131103515625,-0.7388123037717819,-0.0006667868011735138,-0.33742022980004527,0.34279655323674274
-0.27522724866867065,-1.1493507623672485,65.26140594482422,-0.7388123037717819,-0.0006667868011735138,-0.33742022980004527,0.34279655323674274
0.27013105154037476,-1.1470260620117188,63.23600769042969,-0.7388123037717819,-0.0006667868011735138,-0.33742022980004527,0.34279655323674274
0.10014569014310837,-0.8796223402023315,61.154876708984375,-0.7388123037717819,-0.0006667868011735138,-0.33742022980004527,0.34279655323674274
0.5881721377372742,-1.1931791305541992,59.10299301147461,-0.7388123037717819,-0.0006667868011735138,-0.33742022980004527,0.34279655323674274
0.5745896100997925,-0.3989856541156769,57.054534912109375,-0.7388123037717819,-0.0006667868011735138,-0.33742022980004527,0.34279655323674274
-0.44066333770751953,-1.202458381652832,54.992210388183594,-0.7388123037717819,-0.0006667868011735138,-0.33742022980004527,0.34279655323674274
0.8728703856468201,-0.22676873207092285,52.972450256347656,-0.7388123037717819,-0.0006667868011735138,-0.33742022980004527,0.34279655323674274
-0.8232799768447876,-0.06140698492527008,50.97578048706055,-0.7388123037717819,-0.0006667868011735138,-0.33742022980004527,0.34279655323674274
0.9013614654541016,-1.0680322647094727,48.963890075683594,-0.7388123037717819,-0.0006667868011735138,-0.33742022980004527,0.34279655323674274
-0.6047441959381104,-0.7021016478538513,46.88200378417969,-0.7388123037717819,-0.0006667868011735138,-0.33742022980004527,0.34279655323674274
0.10304602980613708,-0.6324226260185242,44.7302131652832,-0.7388123037717819,-0.0006667868011735138,-0.33742022980004527,0.34279655323674274
0.9496328830718994,0.13552236557006836,42.50053405761719,-0.7388123037717819,-0.0006667868011735138,-0.33742022980004527,0.34279655323674274
-0.1593669354915619,-1.013625979423523,40.1817626953125,-0.7388123037717819,-0.0006667868011735138,-0.33742022980004527,0.34279655323674274
0.39893677830696106,-1.3593140840530396,37.85768127441406,-0.7388123037717819,-0.0006667868011735138,-0.33742022980004527,0.34279655323674274
-1.1974185705184937,0.43865662813186646,35.54568862915039,-0.7388123037717819,-0.0006667868011735138,-0.33742022980004527,0.34279655323674274
1.8924940824508667,-1.1414803266525269,33.14234161376953,-0.7388123037717819,-0.0006667868011735138,-0.33742022980004527,0.34279655323674274
-0.45733359456062317,0.14185254275798798,30.658830642700195,-0.7388123037717819,-0.0006667868011735138,-0.33742022980004527,0.34279655323674274
0.522713840007782,-0.5313602089881897,28.15894889831543,-0.7388123037717819,-0.0006667868011735138,-0.33742022980004527,0.34279655323674274
0.47503727674484253,-1.4855462312698364,25.567907333374023,-0.7388123037717819,-0.0006667868011735138,-0.33742022980004527,0.34279655323674274
-0.312601774930954,0.33031243085861206,22.992605209350586,-0.7388123037717819,-0.0006667868011735138,-0.33742022980004527,0.34279655323674274
-0.38991671800613403,-0.7252745628356934,20.36893653869629,-0.7388123037717819,-0.0006667868011735138,-0.33742022980004527,0.34279655323674274
-0.38517624139785767,-0.2181498408317566,17.71476936340332,-0.7388123037717819,-0.0006667868011735138,-0.33742022980004527,0.34279655323674274
1.292847990989685,-0.935165524482727,15.026455879211426,-0.7388123037717819,-0.0006667868011735138,-0.33742022980004527,0.34279655323674274
-1.0305278301239014,0.5285714268684387,12.503494262695312,-0.7388123037717819,-0.0006667868011735138,-0.33742022980004527,0.34279655323674274
0.16494688391685486,-0.1286204606294632,10.264708518981934,-0.7388123037717819,-0.0006667868011735138,-0.33742022980004527,0.34279655323674274
-0.9352692365646362,1.081565260887146,8.363423347473145,-0.7388123037717819,-0.0006667868011735138,-0.33742022980004527,0.34279655323674274
1.0861456394195557,-0.050010472536087036,6.837157249450684,-0.7388123037717819,-0.0006667868011735138,-0.33742022980004527,0.34279655323674274
-0.39697912335395813,2.882681131362915,5.654085636138916,-0.7388123037717819,-0.0006667868011735138,-0.33742022980004527,0.34279655323674274
0.9540965557098389,0.9113514423370361,4.893722057342529,-0.7388123037717819,-0.0006667868011735138,-0.33742022980004527,0.34279655323674274
1.2781471014022827,1.2724711894989014,4.6339430809021,-0.7388123037717819,-0.0006667868011735138,-0.33742022980004527,0.34279655323674274
0.07510919868946075,1.1157838106155396,4.636067867279053,-0.7388123037717819,-0.0006667868011735138,-0.33742022980004527,0.34279655323674274
-0.24673572182655334,-1.179809808731079,4.640192031860352,-0.7388123037717819,-0.0006667868011735138,-0.33742022980004527,0.34279655323674274
-0.2826308012008667,0.5755214691162109,4.630428314208984,-0.7388123037717819,-0.0006667868011735138,-0.33742022980004527,0.34279655323674274
-0.1301984190940857,-0.6814786791801453,4.646337985992432,-0.7388123037717819,-0.0006667868011735138,-0.33742022980004527,0.34279655323674274
0.5459256172180176,0.24863114953041077,4.640814781188965,-0.7388123037717819,-0.0006667868011735138,-0.33742022980004527,0.34279655323674274
0.3799743056297302,-0.3618817627429962,4.654841423034668,-0.7388123037717819,-0.0006667868011735138,-0.33742022980004527,0.34279655323674274
0.36859288811683655,0.07625381648540497,4.64399528503418,-0.7388123037717819,-0.0006667868011735138,-0.33742022980004527,0.34279655323674274
0.06307003647089005,-0.21654582023620605,4.651993751525879,-0.7388123037717819,-0.0006667868011735138,-0.33742022980004527,0.34279655323674274
0.020105572417378426,-0.1358698457479477,4.641733169555664,-0.7388123037717819,-0.0006667868011735138,-0.33742022980004527,0.34279655323674274
0.099396713078022,-0.13681930303573608,4.6488037109375,-0.7388123037717819,-0.0006667868011735138,-0.33742022980004527,0.34279655323674274
0.2757124900817871,-0.07854608446359634,4.646358966827393,-0.7388123037717819,-0.0006667868011735138,-0.33742022980004527,0.34279655323674274
0.29743003845214844,-0.13893763720989227,4.648820877075195,-0.7388123037717819,-0.0006667868011735138,-0.33742022980004527,0.34279655323674274
0.15749169886112213,-0.11304352432489395,4.646852493286133,-0.7388123037717819,-0.0006667868011735138,-0.33742022980004527,0.34279655323674274
0.10537423938512802,-0.13053551316261292,4.648184299468994,-0.7388123037717819,-0.0006667868011735138,-0.33742022980004527,0.34279655323674274
0.13948072493076324,-0.13452810049057007,4.647311210632324,-0.7388123037717819,-0.0006667868011735138,-0.33742022980004527,0.34279655323674274
0.2490643709897995,-0.11865692585706711,4.648678779602051,-0.7388123037717819,-0.0006667868011735138,-0.33742022980004527,0.34279655323674274
0.21546456217765808,-0.12187331914901733,4.648547172546387,-0.7388123037717819,-0.0006667868011735138,-0.33742022980004527,0.34279655323674274
0.1515009105205536,-0.1224365308880806,4.649649620056152,-0.7388123037717819,-0.0006667868011735138,-0.33742022980004527,0.34279655323674274
0.1284305602312088,-0.1344180554151535,4.650287628173828,-0.7388123037717819,-0.0006667868011735138,-0.33742022980004527,0.34279655323674274
0.1725948452949524,-0.13597652316093445,4.649622440338135,-0.7444150697263988,0.005027711684815525,-0.3349116847539939,0.340543265081942
0.21390821039676666,-0.10631658136844635,4.64925479888916,-0.7499700906489868,0.010686606859477796,-0.3316908259565629,0.3385241558775305
0.5091829895973206,0.056751664727926254,4.643710136413574,-0.75544805641493,0.016325234116003267,-0.32566506595661215,0.33811111490552614
1.456568717956543,-0.08555477857589722,4.698972702026367,-0.76073929697896,0.02195841914818926,-0.30928380172699665,0.3378710889567931
2.943833351135254,0.36683979630470276,4.8593878746032715,-0.7655884435307231,0.027609137645922533,-0.272613784484565,0.3402151307711998
2.987203598022461,-0.14306151866912842,4.887347221374512,-0.7697201290395521,0.033294929983611665,-0.22318847657491742,0.34207994975149625
1.3919256925582886,-0.8827430605888367,4.787355422973633,-0.7731358307817326,0.0389250260503548,-0.1866957324867445,0.3335315782576799
1.2352131605148315,0.8136290311813354,4.743299961090088,-0.7760649861250483,0.04447908610260728,-0.16480290871113518,0.33295562801261736
1.4479769468307495,-0.47231265902519226,4.716362476348877,-0.7786253686238904,0.05005204909532841,-0.142442991149922,0.33579993111391854
2.109320878982544,-0.1429712176322937,4.773819446563721,-0.7807523839051521,0.05560598656690362,-0.1127988426014779,0.33067256547510615
1.9400792121887207,1.0425490140914917,4.823703765869141,-0.7823511562755121,0.06117966667179839,-0.07905384184171738,0.33816904711226614
1.0300391912460327,-0.9371958374977112,4.84399938583374,-0.7834624620837467,0.06682313364982184,-0.05430285514642776,0.33904699025054763
0.5351536273956299,-0.1468827724456787,4.9694294929504395,-0.7842588157237815,0.07239863358386267,-0.04125958165774724,0.3300130018343527
1.6059552431106567,1.713758945465088,4.9581708908081055,-0.78479778730207,0.07800766112645045,-0.02341700773686152,0.34307030327618115
1.6481757164001465,-1.4271876811981201,4.956253528594971,-0.7849620894477183,0.08374540029662757,0.0037007502590618406,0.34545839714507254
1.0629876852035522,-0.6630814075469971,4.993645668029785,-0.7847121350405114,0.08935788267343814,0.02629377860575933,0.32803948807219657
0.5304726362228394,1.1635187864303589,5.021286487579346,-0.7841632484303164,0.09485996007039721,0.039572614617645926,0.33220979956289126
0.9753473997116089,-0.5775237083435059,5.129220485687256,-0.7833991340175268,0.10043748416575699,0.05212111491709966,0.3370930918802817
-0.38546666502952576,-0.39387381076812744,5.171029090881348,-0.782489484829,0.10598824420271226,0.057036787706117024,0.3289981125543514
1.9765805006027222,0.2041279375553131,5.120296001434326,-0.7814283776842055,0.11145836928186723,0.070296069669227,0.32741689694424464
0,-1.0560290813446045,5.069360256195068,-0.7801195139882876,0.11685615776261926,0.08676757384091635,0.32031772074600057
1.4092472791671753,1.5794978141784668,5.01137113571167,-0.778575523363219,0.12223113843705495,0.09851130116730948,0.32467996018628276
0.2134580910205841,0.4615269899368286,5.065158843994141,-0.7768209804708341,0.12778420894044545,0.11203384591887414,0.3416885002205769
0.8294143080711365,0,5.235556125640869,-0.7748813280111382,0.13351106776286734,0.12072444924463847,0.3455345584700505
0.617942214012146,-0.6371533870697021,5.4116387367248535,-0.7727687429874718,0.13922573030771057,0.13278575359533248,0.3402249469111363
0.7245097160339355,-1.0110836029052734,5.612990856170654,-0.7704624212657408,0.14478168518748125,0.14397285301238316,0.32648963866134484
0.7692152261734009,0.23498906195163727,5.8770551681518555,-0.76795914281677,0.15016928371093743,0.15642056086411096,0.3200221841533979
0.654017984867096,0.1377771496772766,6.033382415771484,-0.7652532978293792,0.15552887332263496,0.16828083762278176,0.32312856925030553
0.45056045055389404,0.09297457337379456,6.052425384521484,-0.7623719103665397,0.1609303739020186,0.17748565791795667,0.3250515002757311
0.7476727962493896,0.595467746257782,6.022101879119873,-0.759330605425768,0.16639570740103296,0.1874709349746507,0.33078851960599426
0.5942772626876831,-0.1785796880722046,5.957852363586426,-0.7561128988665421,0.17193779995406241,0.19865385213245965,0.3342625867575407
0.20396772027015686,-0.3499465882778168,5.9134345054626465,-0.7527465676516291,0.17747213985305269,0.2053058936571083,0.32985820112129055
0.1931324452161789,0.160114586353302,5.877364635467529,-0.7492972263569629,0.1829565937604961,0.20861506170282776,0.3282762677719196
0.762027382850647,-0.31682267785072327,5.824069023132324,-0.7457539781183,0.1884169823836741,0.21657472693671798,0.3269703670094411
0.6214033961296082,-0.3442114591598511,5.796621322631836,-0.7420483277541478,0.19382058335209462,0.22810331676155343,0.32146174920101966
0.7722277641296387,-1.076457142829895,5.887249946594238,-0.7381498258664372,0.19907962163030676,0.23971690976371382,0.3096228441844385
0.3058813214302063,0.37459591031074524,5.745964527130127,-0.7340796753505447,0.2041912620033447,0.2487011521433792,0.3037740005801122
0.3307836651802063,-0.21392248570919037,5.582854270935059,-0.7298904433018627,0.20926531988972166,0.25400669369846596,0.30511294578512516
-0.13260750472545624,-0.622913122177124,5.464358806610107,-0.7256432361735233,0.2142924220689261,0.2556581617022555,0.2981393157194059
-0.1354704201221466,0.3987909257411957,5.39915132522583,-0.7214008833343779,0.21924584662283036,0.25342417899519215,0.2962716307491065
0.7293524146080017,0,5.477453708648682,-0.7171359052126187,0.22421140094960307,0.2583731956159076,0.2995948884636165
-0.1741967499256134,0.540378987789154,5.584668159484863,-0.7127911328089729,0.2292421754092598,0.2629994928215942,0.30409804669519275
0.36749523878097534,0.2613992989063263,5.548756122589111,-0.7083943844224425,0.2343661552352002,0.26461031356205555,0.3107795324176551
0.4086490571498871,-0.6807406544685364,5.51770544052124,-0.7039303136203019,0.2395166931813582,0.27107818269481276,0.30728502112130335
0.7844175100326538,-0.10917176306247711,5.655305862426758,-0.6993294920637785,0.2445832551710514,0.2810204040880006,0.3007024176418782
-0.0980629101395607,-0.9311781525611877,5.73716926574707,-0.6945981551484304,0.24952271560983105,0.2867400257537764,0.29203283501168104
0,0,5.705844879150391,-0.689825964643516,0.254325264377209,0.2859228348359467,0.28427301707367114
0.2232305407524109,0.887877881526947,5.638718128204346,-0.6850450819420313,0.25912480618132067,0.2877830893422168,0.29167199941972904
0.731782853603363,1.2016574144363403,5.73297643661499,-0.680182376745053,0.2641311127894247,0.2957415342951816,0.3090847935527564
0,-1.3219571113586426,5.87597131729126,-0.6752025329197442,0.2692741718696844,0.30183972474187626,0.3080822960784039
0.31063196063041687,-0.6998285055160522,6.0814971923828125,-0.6701502991767803,0.2742684750253748,0.3044283244137964,0.29123408260444816
0.23657278716564178,-0.5252395272254944,6.341196060180664,-0.6650384934401756,0.27903730223317524,0.30898836397876356,0.28102518233160195
-0.12883293628692627,-0.3810695707798004,6.497832298278809,-0.6598812054397741,0.28365811714022937,0.30988619606941953,0.27347260651489114
0.42083340883255005,0.11125941574573517,6.503625869750977,-0.6546961576946904,0.2881972570991557,0.31231953334063306,0.27122418855627395
1.480515480041504,1.4710016250610352,6.453663349151611,-0.6493587940217302,0.2928275394807052,0.3281641074145835,0.2844096972296637
-0.4138258099555969,-1.269601821899414,6.4201436042785645,-0.6438153165599534,0.2975816871986414,0.33705318799863276,0.2860880289226772
-0.5253783464431763,1.382577657699585,6.409348011016846,-0.6382629859375039,0.30235766655817214,0.32922648669530963,0.287029494221012
0,-0.2565057873725891,6.313917636871338,-0.6328123624333073,0.30721969089729506,0.32484833380828315,0.296413426473737
-0.34827908873558044,-0.6865108013153076,6.290073871612549,-0.6274224095843315,0.31209442740875404,0.32194600806881996,0.2885549549013378
0.5283716320991516,-1.479168176651001,6.249218940734863,-0.622044136356562,0.3167532822836398,0.3234467792635164,0.27050763008495193
0.814362108707428,0.8290660381317139,6.2185869216918945,-0.6165601113035029,0.32121659680321407,0.3346362271035712,0.2650901122639579
-0.062042560428380966,0.16927172243595123,6.187891006469727,-0.6109305964387017,0.32570409435209724,0.3409055566725633,0.27340959360202177
-0.2202339470386505,-1.0900894403457642,6.030933380126953,-0.6052684396960665,0.3301969752372761,0.33855325244367135,0.26573611261944
-0.08851800858974457,-0.1628105342388153,6.088916301727295,-0.5996473265967017,0.3345389035049206,0.3359803194801014,0.2552952794979019
-0.3819148540496826,0.4183717370033264,6.246941566467285,-0.5940803235541611,0.3388115721356332,0.3320600456247728,0.25742495618760614
0.7085283398628235,0.8320375084877014,6.342360019683838,-0.5885233079683445,0.3431888220474746,0.33478182467321566,0.2678450332333647
0,-0.5857978463172913,6.315418720245361,-0.5828944075335226,0.3476700059112369,0.34068622750540584,0.26989703041811813
0.44928640127182007,-1.1661585569381714,6.477847099304199,-0.577185103297233,0.35204662611242393,0.3444302808493377,0.2552973937243226
0.9222678542137146,0.459578275680542,6.601700305938721,-0.5713493517931132,0.35625251459940865,0.3558598996450505,0.24940922471384233
-0.5677297711372375,-1.131563663482666,6.654971122741699,-0.565393732765482,0.36036266935937533,0.3588143836706878,0.24380934648215796
0.3324219584465027,1.9349876642227173,6.624032974243164,-0.565393732765482,0.36036266935937533,0.3588143836706878,0.24380934648215796
0.21558859944343567,0.6993338465690613,6.650501251220703,-0.565393732765482,0.36036266935937533,0.3588143836706878,0.24380934648215796
-0.4070308208465576,-0.28542041778564453,6.734227657318115,-0.565393732765482,0.36036266935937533,0.3588143836706878,0.24380934648215796
-0.4370276629924774,-0.917934775352478,6.882188320159912,-0.565393732765482,0.36036266935937533,0.3588143836706878,0.24380934648215796
-3.01666522026062,-1.3507905006408691,6.685492992401123,-0.565393732765482,0.36036266935937533,0.3588143836706878,0.24380934648215796
-2.4730310440063477,-0.6341183185577393,6.120312213897705,-0.565393732765482,0.36036266935937533,0.3588143836706878,0.24380934648215796
-0.9754732251167297,-1.8781983852386475,5.33131742477417,-0.565393732765482,0.36036266935937533,0.3588143836706878,0.24380934648215796
-1.6229352951049805,-0.7901060581207275,4.3658013343811035,-0.565393732765482,0.36036266935937533,0.3588143836706878,0.24380934648215796
-0.8233930468559265,-0.9567159414291382,3.1323904991149902,-0.565393732765482,0.36036266935937533,0.3588143836706878,0.24380934648215796
-2.3126683235168457,-0.2570194602012634,1.767797827720642,-0.565393732765482,0.36036266935937533,0.3588143836706878,0.24380934648215796
-1.1104894876480103,0.0166301466524601,0.3123835623264313,-0.565393732765482,0.36036266935937533,0.3588143836706878,0.24380934648215796
-1.9609668254852295,-0.34387144446372986,-1.2022716999053955,-0.565393732765482,0.36036266935937533,0.3588143836706878,0.24380934648215796
-0.7794561982154846,-1.3236366510391235,-2.827002763748169,-0.565393732765482,0.36036266935937533,0.3588143836706878,0.24380934648215796
-1.7716351747512817,0.5346674919128418,-4.555202960968018,-0.565393732765482,0.36036266935937533,0.3588143836706878,0.24380934648215796
-0.825779378414154,-0.7167890667915344,-6.3472771644592285,-0.565393732765482,0.36036266935937533,0.3588143836706878,0.24380934648215796
-0.5264008045196533,-0.9791919589042664,-8.223161697387695,-0.565393732765482,0.36036266935937533,0.3588143836706878,0.24380934648215796
-2.2317562103271484,0.8627201914787292,-10.22980785369873,-0.565393732765482,0.36036266935937533,0.3588143836706878,0.24380934648215796
-0.5451076030731201,-1.8133585453033447,-12.338116645812988,-0.565393732765482,0.36036266935937533,0.3588143836706878,0.24380934648215796
-1.0055185556411743,1.6363482475280762,-14.514742851257324,-0.565393732765482,0.36036266935937533,0.3588143836706878,0.24380934648215796
-1.1783243417739868,-1.674046516418457,-16.728858947753906,-0.565393732765482,0.36036266935937533,0.3588143836706878,0.24380934648215796
-0.6483530402183533,1.0408790111541748,-18.88706398010254,-0.565393732765482,0.36036266935937533,0.3588143836706878,0.24380934648215796
-0.9688194990158081,-0.23990623652935028,-21.027999877929688,-0.565393732765482,0.36036266935937533,0.3588143836706878,0.24380934648215796
-0.8878939151763916,-0.7293144464492798,-23.164621353149414,-0.565393732765482,0.36036266935937533,0.3588143836706878,0.24380934648215796
-0.6035984754562378,-0.2245383858680725,-25.47124481201172,-0.565393732765482,0.36036266935937533,0.3588143836706878,0.24380934648215796
-0.5919265747070312,0.16281116008758545,-27.888755798339844,-0.565393732765482,0.36036266935937533,0.3588143836706878,0.24380934648215796
-0.7466087341308594,0.42857956886291504,-30.42600440979004,-0.565393732765482,0.36036266935937533,0.3588143836706878,0.24380934648215796
-0.6531403064727783,-1.9700109958648682,-32.974300384521484,-0.565393732765482,0.36036266935937533,0.3588143836706878,0.24380934648215796
-1.1421726942062378,1.1318451166152954,-35.5447883605957,-0.565393732765482,0.36036266935937533,0.3588143836706878,0.24380934648215796
-0.7795895338058472,0.34609997272491455,-38.096168518066406,-0.565393732765482,0.36036266935937533,0.3588143836706878,0.24380934648215796
-0.5424605011940002,-0.033565301448106766,-40.5557861328125,-0.565393732765482,0.36036266935937533,0.3588143836706878,0.24380934648215796
-0.6770825386047363,-0.468861848115921,-43.007347106933594,-0.565393732765482,0.36036266935937533,0.3588143836706878,0.24380934648215796
-0.12358799576759338,-0.15342272818088531,-45.44643783569336,-0.565393732765482,0.36036266935937533,0.3588143836706878,0.24380934648215796
-0.2763516306877136,-0.4474039673805237,-47.903228759765625,-0.565393732765482,0.36036266935937533,0.3588143836706878,0.24380934648215796
-1.2359905242919922,0.28269141912460327,-50.37952423095703,-0.565393732765482,0.36036266935937533,0.3588143836706878,0.24380934648215796
0.14842021465301514,1.3790619373321533,-52.83936309814453,-0.565393732765482,0.36036266935937533,0.3588143836706878,0.24380934648215796
-1.3230366706848145,-1.1951959133148193,-55.319480895996094,-0.565393732765482,0.36036266935937533,0.3588143836706878,0.24380934648215796
0.2311960607767105,0.799559473991394,-57.780941009521484,-0.565393732765482,0.36036266935937533,0.3588143836706878,0.24380934648215796
0.0276199821382761,-0.19705890119075775,-60.266822814941406,-0.565393732765482,0.36036266935937533,0.3588143836706878,0.24380934648215796
-0.7589063048362732,-0.1662522405385971,-62.758724212646484,-0.565393732765482,0.36036266935937533,0.3588143836706878,0.24380934648215796
0.4611247479915619,0.8959141969680786,-65.28672790527344,-0.565393732765482,0.36036266935937533,0.3588143836706878,0.24380934648215796
-0.6789421439170837,-1.2425416707992554,-67.74249267578125,-0.565393732765482,0.36036266935937533,0.3588143836706878,0.24380934648215796
0.1222754716873169,1.2059905529022217,-70.11261749267578,-0.565393732765482,0.36036266935937533,0.3588143836706878,0.24380934648215796
-0.08590375632047653,0.027064157649874687,-72.22262573242188,-0.565393732765482,0.36036266935937533,0.3588143836706878,0.24380934648215796
0.12748964130878448,-0.5603816509246826,-73.90913391113281,-0.565393732765482,0.36036266935937533,0.3588143836706878,0.24380934648215796
2.299149990081787,0.8134766817092896,-75.2214126586914,-0.565393732765482,0.36036266935937533,0.3588143836706878,0.24380934648215796
0.7394242286682129,-0.958681583404541,-76.15497589111328,-0.565393732765482,0.36036266935937533,0.3588143836706878,0.24380934648215796
1.4218510389328003,0.1444353312253952,-76.69709014892578,-0.565393732765482,0.36036266935937533,0.3588143836706878,0.24380934648215796
1.9919052124023438,-0.9355744123458862,-76.87662506103516,-0.565393732765482,0.36036266935937533,0.3588143836706878,0.24380934648215796
0.25436967611312866,-1.0147830247879028,-76.80315399169922,-0.565393732765482,0.36036266935937533,0.3588143836706878,0.24380934648215796
-0.4363267719745636,0.1652943193912506,-76.78273010253906,-0.565393732765482,0.36036266935937533,0.3588143836706878,0.24380934648215796
0.06043786182999611,0.3004852831363678,-76.83589935302734,-0.565393732765482,0.36036266935937533,0.3588143836706878,0.24380934648215796
-0.3837590217590332,0.2473333179950714,-76.80389404296875,-0.565393732765482,0.36036266935937533,0.3588143836706878,0.24380934648215796
0.24910575151443481,-0.14123068749904633,-76.81430053710938,-0.565393732765482,0.36036266935937533,0.3588143836706878,0.24380934648215796
-0.21338418126106262,-0.5477747321128845,-76.8093032836914,-0.565393732765482,0.36036266935937533,0.3588143836706878,0.24380934648215796
0.15369626879692078,-0.21728554368019104,-76.80351257324219,-0.565393732765482,0.36036266935937533,0.3588143836706878,0.24380934648215796
-0.17633973062038422,0.016364986076951027,-76.81155395507812,-0.565393732765482,0.36036266935937533,0.3588143836706878,0.24380934648215796
-0.059224702417850494,0.034151170402765274,-76.80500793457031,-0.565393732765482,0.36036266935937533,0.3588143836706878,0.24380934648215796
-0.03171789273619652,-0.20920079946517944,-76.80867767333984,-0.565393732765482,0.36036266935937533,0.3588143836706878,0.24380934648215796
-0.022982878610491753,-0.288398414850235,-76.80509948730469,-0.565393732765482,0.36036266935937533,0.3588143836706878,0.24380934648215796
-0.022095102816820145,-0.1182304173707962,-76.80447387695312,-0.565393732765482,0.36036266935937533,0.3588143836706878,0.24380934648215796
-0.12450245767831802,-0.025707490742206573,-76.80450439453125,-0.565393732765482,0.36036266935937533,0.3588143836706878,0.24380934648215796
-0.04526115208864212,-0.12779241800308228,-76.80278015136719,-0.565393732765482,0.36036266935937533,0.3588143836706878,0.24380934648215796
-0.04943839833140373,-0.22165070474147797,-76.80387878417969,-0.565393732765482,0.36036266935937533,0.3588143836706878,0.24380934648215796
-0.035420916974544525,-0.1542043834924698,-76.80169677734375,-0.565393732765482,0.36036266935937533,0.3588143836706878,0.24380934648215796
-0.0701206848025322,-0.07830770313739777,-76.8036117553711,-0.565393732765482,0.36036266935937533,0.3588143836706878,0.24380934648215796
-0.06509695202112198,-0.11512875556945801,-76.8030014038086,-0.565393732765482,0.36036266935937533,0.3588143836706878,0.24380934648215796
-0.026254020631313324,-0.1823538988828659,-76.80301666259766,-0.565393732765482,0.36036266935937533,0.3588143836706878,0.24380934648215796
-0.057690639048814774,-0.1684449315071106,-76.802734375,-0.565393732765482,0.36036266935937533,0.3588143836706878,0.24380934648215796
-0.06414231657981873,-0.09839140623807907,-76.80196380615234,-0.565393732765482,0.36036266935937533,0.3588143836706878,0.24380934648215796
-0.06743954122066498,-0.12255427986383438,-76.8023681640625,-0.5594226306666511,0.3644108150169876,0.3577178681890171,0.24196813243130869
0,-0.255005419254303,-76.8017578125,-0.5534653494983078,0.3684173978006262,0.3571558720121782,0.2388218016053242
0.2731764316558838,-1.2631398439407349,-76.72628021240234,-0.5474937810459065,0.3722923344063264,0.3594323422759772,0.22617059107869888
0.6254271864891052,-2.30245041847229,-76.68727111816406,-0.5414408389789357,0.37581423382274826,0.3669207057605188,0.19645733889192368
0.09349358081817627,-1.0363380908966064,-76.6865463256836,-0.5352755688296418,0.3788566624911297,0.3729117121547461,0.16863410131384954
0.10285607725381851,-2.5231926441192627,-76.79651641845703,-0.5290467382341411,0.3814200412119844,0.37454795930534607,0.1389713451887173
-0.19432121515274048,-2.3245999813079834,-76.87832641601562,-0.5228106239914061,0.3833995780328084,0.37378574982285506,0.09857307331015691
1.2079399824142456,-1.5104387998580933,-76.77472686767578,-0.5165104713021875,0.3847761404503967,0.3822325728833676,0.06661441680043961
0.5919679999351501,-1.744474172592163,-76.6602554321289,-0.5100149348109126,0.3856603451073172,0.39723180606961256,0.03949014203002081
-0.3682485520839691,-1.425713300704956,-76.47815704345703,-0.503378868636985,0.38609836223328303,0.39909613480170575,0.013071913085878153
-0.10291609168052673,-1.3658514022827148,-76.37996673583984,-0.496759986157218,0.3861223687914513,0.39516976277033494,-0.010191126105685771
-0.059926196932792664,-0.48233816027641296,-76.34091186523438,-0.4901851319366439,0.38582417019228993,0.3938127436985573,-0.0255927057936785
0.5857531428337097,-2.130155563354492,-76.30853271484375,-0.48358507044820265,0.38521620192047645,0.39819463491439827,-0.04736348682393604
0.24035698175430298,-1.3354823589324951,-76.21708679199219,-0.4768911244409774,0.38418614117325206,0.4050788859526317,-0.07624380284299427
-0.24150793254375458,-0.15300042927265167,-76.24607849121094,-0.4701398896022384,0.3828120442655768,0.4050692946960529,-0.08864782607803716
1.556075096130371,-1.6785178184509277,-76.26092529296875,-0.46329744530427736,0.38120739173040646,0.4160240210592747,-0.10391047814240031
0.3239292800426483,-1.1488207578659058,-76.29215240478516,-0.45623315576049966,0.37927920747134447,0.43169072419404986,-0.1274716329450406
0.5781010389328003,-0.9369783997535706,-76.28739166259766,-0.4489756693628922,0.3770098330918702,0.4392076435188453,-0.14485329259186958
-0.25305917859077454,-0.7544317245483398,-76.26202392578125,-0.44163296961949877,0.3744781525122625,0.44191632568836214,-0.15894837696105216
-1.2940001487731934,-1.5630501508712769,-76.22675323486328,-0.43437513220020413,0.3716680766548964,0.4290241646269957,-0.1782607259228823
1.4946191310882568,0,-76.01862335205078,-0.42721079758264896,0.3685885194068156,0.43069598947962123,-0.19128614384680961
-0.32156792283058167,-0.5410411357879639,-75.9311752319336,-0.4199510692018596,0.36536284470827235,0.4404714162151019,-0.19579481997837597
1.0829763412475586,-1.2211620807647705,-75.89988708496094,-0.41255700334699563,0.36197722248526104,0.4468164863685767,-0.2104798467829821
-1.8841140270233154,0.33804774284362793,-76.0122299194336,-0.40516569646903156,0.35840789765430014,0.440140338987112,-0.21783913293232496
1.3032505512237549,-1.2644444704055786,-76.0824966430664,-0.39787036189395464,0.3547129123326807,0.4352998100221157,-0.22555910566200787
-0.09602038562297821,0,-76.12530517578125,-0.390531529632086,0.35086578526120243,0.4453600614021222,-0.2360961429153877
-0.05601241812109947,-0.2937701642513275,-76.01663208007812,-0.38311941977564395,0.3469104488400952,0.44409312137092155,-0.2385442276174821
-0.34229713678359985,0.1353592723608017,-75.95616149902344,-0.37574552813855255,0.3429237109567559,0.44077387508004906,-0.23986431838323646
0,-0.5815160870552063,-75.89300537109375,-0.3684230675217173,0.33889498920490374,0.4379213989401857,-0.24358229183902316
-0.06397880613803864,-1.3027948141098022,-75.82638549804688,-0.3611288205120293,0.334704429417228,0.4373882422223687,-0.2592848826820649
0.13621142506599426,-0.8981001973152161,-75.7304458618164,-0.3538340003208976,0.3302301747745113,0.43799018071343504,-0.27762567444394004
-1.2238062620162964,-0.5460171699523926,-75.77635955810547,-0.3466096913949064,0.3255027942721631,0.42892689040551585,-0.28965998583783675
0.7854316830635071,-0.0759737566113472,-75.81739807128906,-0.3394913525672417,0.3206319340271878,0.4252737689142426,-0.2948432435592013
0.11248575896024704,-0.1944609433412552,-75.91691589355469,-0.3323411010407527,0.3156990997803711,0.43275641426444056,-0.2970968660588063
0.5335320830345154,0.556937038898468,-75.8995590209961,-0.32508363178620686,0.310772657297138,0.4381398962810636,-0.2940762319291629
-0.330010324716568,0.051579155027866364,-75.82361602783203,-0.31776716672608374,0.30591364483400796,0.43983591093371316,-0.2890052636464434
-0.4189571142196655,-0.969906747341156,-75.75574493408203,-0.31048857983822575,0.3010331176904344,0.43359451560924456,-0.2966579935823875
0.23200759291648865,-0.7734658122062683,-75.7544937133789,-0.3032749871837177,0.29596775025853717,0.4320366029317181,-0.3111860982452827
-0.7698737382888794,-1.3627411127090454,-75.80166625976562,-0.2961117289505066,0.29063296758466334,0.4275543850536148,-0.328987822619577
0,0.4291311800479889,-75.68125915527344,-0.2890392859869942,0.2850850031845689,0.42113877056787413,-0.33676790539175244
0.07023444026708603,0.06157151982188225,-75.51118469238281,-0.2820154290858444,0.2795062813377529,0.42172405757009984,-0.3326787162261702
0.18300169706344604,-0.07751433551311493,-75.5104751586914,-0.27496910895013926,0.2739605289273382,0.42383435871452096,-0.3328115730235971
1.016161322593689,0.15981100499629974,-75.59144592285156,-0.2678219277618655,0.26841938442343677,0.4338273838783304,-0.33212576744457056
0.7442267537117004,-0.9740111231803894,-75.72144317626953,-0.26046922219192764,0.2628274132911534,0.44849728451420867,-0.33891076842943796
0,-0.8582838177680969,-75.73914337158203,-0.25294258503657197,0.2570516577797636,0.4546991741284728,-0.35417989293734203
-0.82826828956604,0.40352949500083923,-75.7322006225586,-0.24542178409898394,0.25111707940283795,0.44779693838208917,-0.35796951229373586
-0.4685700833797455,-1.0849906206130981,-75.68492889404297,-0.23804856001295924,0.2451035971753304,0.4369899519408743,-0.36364835500717135
-0.5635231137275696,0.9050789475440979,-75.56090545654297,-0.230837067285966,0.23903029739235887,0.42838917529831333,-0.365147618949413
0.8777436017990112,-0.6362727880477905,-75.5352783203125,-0.2236754268304336,0.23296317083761145,0.4310076793655753,-0.3629075676202771
0.893984854221344,1.0294530391693115,-75.67643737792969,-0.21636892880933925,0.22694201556137916,0.44577208316574496,-0.35963106552759777
-0.7472348809242249,-0.813649594783783,-75.64634704589844,-0.2089292031195423,0.22096315081955709,0.44699499960988764,-0.3578327034910517
-0.05100250244140625,-0.19299013912677765,-75.58540344238281,-0.2015347196110001,0.21492936689096243,0.44034302141517406,-0.36622136794030635
-0.5863575339317322,0.282991498708725,-75.56049346923828,-0.19423993036771756,0.20883192751970606,0.43503168777873125,-0.36547135661045677
-0.024043038487434387,-0.5895843505859375,-75.52587890625,-0.19423993036771756,0.20883192751970606,0.43503168777873125,-0.36547135661045677
-0.21266764402389526,-0.7397794127464294,-75.50882720947266,-0.19423993036771756,0.20883192751970606,0.43503168777873125,-0.36547135661045677
-1.1160868406295776,0.17956611514091492,-75.57147216796875,-0.19423993036771756,0.20883192751970606,0.43503168777873125,-0.36547135661045677
0.12463441491127014,0.7811069488525391,-75.63421630859375,-0.19423993036771756,0.20883192751970606,0.43503168777873125,-0.36547135661045677
-0.7186629772186279,0.954814612865448,-75.80281829833984,-0.19423993036771756,0.20883192751970606,0.43503168777873125,-0.36547135661045677
0.32583165168762207,3.6273624897003174,-76.36925506591797,-0.19423993036771756,0.20883192751970606,0.43503168777873125,-0.36547135661045677
-1.2518936395645142,1.1024123430252075,-77.19065856933594,-0.19423993036771756,0.20883192751970606,0.43503168777873125,-0.36547135661045677
-1.3788478374481201,1.5656332969665527,-78.17001342773438,-0.19423993036771756,0.20883192751970606,0.43503168777873125,-0.36547135661045677
-0.13119013607501984,2.751325845718384,-79.35384368896484,-0.19423993036771756,0.20883192751970606,0.43503168777873125,-0.36547135661045677
-1.2122724056243896,0.5320042967796326,-80.76629638671875,-0.19423993036771756,0.20883192751970606,0.43503168777873125,-0.36547135661045677
-0.9611570239067078,1.127046823501587,-82.38480377197266,-0.19423993036771756,0.20883192751970606,0.43503168777873125,-0.36547135661045677
-0.6675235033035278,1.4769048690795898,-84.12183380126953,-0.19423993036771756,0.20883192751970606,0.43503168777873125,-0.36547135661045677
-1.3006072044372559,0.5330430269241333,-86.00265502929688,-0.19423993036771756,0.20883192751970606,0.43503168777873125,-0.36547135661045677
0.30455806851387024,2.222961187362671,-88.03070068359375,-0.19423993036771756,0.20883192751970606,0.43503168777873125,-0.36547135661045677
-1.1244181394577026,0.5659650564193726,-90.14822387695312,-0.19423993036771756,0.20883192751970606,0.43503168777873125,-0.36547135661045677
-0.26999807357788086,1.4148743152618408,-92.36225128173828,-0.19423993036771756,0.20883192751970606,0.43503168777873125,-0.36547135661045677
-0.9048903584480286,0.6514168381690979,-94.65785217285156,-0.19423993036771756,0.20883192751970606,0.43503168777873125,-0.36547135661045677
-0.7889302968978882,0.7193765044212341,-96.92627716064453,-0.19423993036771756,0.20883192751970606,0.43503168777873125,-0.36547135661045677
-0.31867846846580505,0.7857754230499268,-99.2770004272461,-0.19423993036771756,0.20883192751970606,0.43503168777873125,-0.36547135661045677
0.04105178639292717,1.2179324626922607,-101.61548614501953,-0.19423993036771756,0.20883192751970606,0.43503168777873125,-0.36547135661045677
-1.3640165328979492,0.8227684497833252,-103.90518951416016,-0.19423993036771756,0.20883192751970606,0.43503168777873125,-0.36547135661045677
0.8145169615745544,0.8803989887237549,-106.1650390625,-0.19423993036771756,0.20883192751970606,0.43503168777873125,-0.36547135661045677
-1.9129713773727417,0.566079318523407,-108.43696594238281,-0.19423993036771756,0.20883192751970606,0.43503168777873125,-0.36547135661045677
0.939921498298645,1.0624991655349731,-110.71446990966797,-0.19423993036771756,0.20883192751970606,0.43503168777873125,-0.36547135661045677
-0.21693693101406097,0.3069804012775421,-112.93350982666016,-0.19423993036771756,0.20883192751970606,0.43503168777873125,-0.36547135661045677
-0.7175145745277405,0.7664014101028442,-115.10848236083984,-0.19423993036771756,0.20883192751970606,0.43503168777873125,-0.36547135661045677
-0.12337881326675415,0.6085973978042603,-117.35882568359375,-0.19423993036771756,0.20883192751970606,0.43503168777873125,-0.36547135661045677
-0.7591784596443176,1.2320398092269897,-119.68688201904297,-0.19423993036771756,0.20883192751970606,0.43503168777873125,-0.36547135661045677
0.42117610573768616,0.5261307954788208,-122.09877014160156,-0.19423993036771756,0.20883192751970606,0.43503168777873125,-0.36547135661045677
0.74315345287323,1.0970834493637085,-124.59396362304688,-0.19423993036771756,0.20883192751970606,0.43503168777873125,-0.36547135661045677
-0.23624944686889648,-0.32471543550491333,-127.16281127929688,-0.19423993036771756,0.20883192751970606,0.43503168777873125,-0.36547135661045677
1.1389601230621338,1.2670871019363403,-129.77273559570312,-0.19423993036771756,0.20883192751970606,0.43503168777873125,-0.36547135661045677
-0.9027673602104187,0.8120154738426208,-132.479248046875,-0.19423993036771756,0.20883192751970606,0.43503168777873125,-0.36547135661045677
-0.23643624782562256,0.26288652420043945,-135.18263244628906,-0.19423993036771756,0.20883192751970606,0.43503168777873125,-0.36547135661045677
-0.1565343290567398,0.3696270287036896,-137.91281127929688,-0.19423993036771756,0.20883192751970606,0.43503168777873125,-0.36547135661045677
0.10314857214689255,0.4233688414096832,-140.65066528320312,-0.19423993036771756,0.20883192751970606,0.43503168777873125,-0.36547135661045677
0.24369746446609497,0.3892545700073242,-143.41749572753906,-0.19423993036771756,0.20883192751970606,0.43503168777873125,-0.36547135661045677
-0.7434660792350769,0.802842378616333,-146.13616943359375,-0.19423993036771756,0.20883192751970606,0.43503168777873125,-0.36547135661045677
0.9854947924613953,0.5775133371353149,-148.9605712890625,-0.19423993036771756,0.20883192751970606,0.43503168777873125,-0.36547135661045677
-0.9478219151496887,0.4746219515800476,-151.78640747070312,-0.19423993036771756,0.20883192751970606,0.43503168777873125,-0.36547135661045677
0.7761542797088623,-0.3458588123321533,-154.66981506347656,-0.19423993036771756,0.20883192751970606,0.43503168777873125,-0.36547135661045677
-0.6378512978553772,1.3726328611373901,-157.5540313720703,-0.19423993036771756,0.20883192751970606,0.43503168777873125,-0.36547135661045677
-0.4002704620361328,-0.2841903865337372,-160.44354248046875,-0.19423993036771756,0.20883192751970606,0.43503168777873125,-0.36547135661045677
0.8787246942520142,0.31982654333114624,-163.14244079589844,-0.19423993036771756,0.20883192751970606,0.43503168777873125,-0.36547135661045677
-1.326187014579773,0.1903866082429886,-165.3496856689453,-0.19423993036771756,0.20883192751970606,0.43503168777873125,-0.36547135661045677
0.3242229223251343,-1.7737599611282349,-167.10910034179688,-0.19423993036771756,0.20883192751970606,0.43503168777873125,-0.36547135661045677
0.009173598140478134,-1.2248787879943848,-168.48849487304688,-0.19423993036771756,0.20883192751970606,0.43503168777873125,-0.36547135661045677
-0.27390459179878235,-0.8351380825042725,-169.45693969726562,-0.19423993036771756,0.20883192751970606,0.43503168777873125,-0.36547135661045677
0.37805160880088806,-2.102123737335205,-170.00051879882812,-0.19423993036771756,0.20883192751970606,0.43503168777873125,-0.36547135661045677
-0.4546053409576416,-1.1027418375015259,-170.1741180419922,-0.19423993036771756,0.20883192751970606,0.43503168777873125,-0.36547135661045677
0.21039369702339172,0.007963414303958416,-170.09066772460938,-0.19423993036771756,0.20883192751970606,0.43503168777873125,-0.36547135661045677
1.2258245944976807,0.4627552926540375,-170.08216857910156,-0.19423993036771756,0.20883192751970606,0.43503168777873125,-0.36547135661045677
0.653648316860199,-0.014991745352745056,-170.12989807128906,-0.19423993036771756,0.20883192751970606,0.43503168777873125,-0.36547135661045677
-0.30581846833229065,0.1911536306142807,-170.08755493164062,-0.19423993036771756,0.20883192751970606,0.43503168777873125,-0.36547135661045677
-0.18287238478660583,-0.030520282685756683,-170.0475311279297,-0.19423993036771756,0.20883192751970606,0.43503168777873125,-0.36547135661045677
-0.6130021214485168,0.018004238605499268,-170.06494140625,-0.19423993036771756,0.20883192751970606,0.43503168777873125,-0.36547135661045677
-0.47736063599586487,0.052364517003297806,-170.05665588378906,-0.19423993036771756,0.20883192751970606,0.43503168777873125,-0.36547135661045677
-0.12492650747299194,0.015857700258493423,-170.05101013183594,-0.19423993036771756,0.20883192751970606,0.43503168777873125,-0.36547135661045677
0.1430901437997818,0.16122691333293915,-170.06455993652344,-0.19423993036771756,0.20883192751970606,0.43503168777873125,-0.36547135661045677
0.02623176947236061,0.09350214898586273,-170.0631561279297,-0.19423993036771756,0.20883192751970606,0.43503168777873125,-0.36547135661045677
-0.11907370388507843,0.0622452013194561,-170.05935668945312,-0.19423993036771756,0.20883192751970606,0.43503168777873125,-0.36547135661045677
-0.27804794907569885,0.03372807428240776,-170.06321716308594,-0.19423993036771756,0.20883192751970606,0.43503168777873125,-0.36547135661045677
-0.2014141082763672,0.0643463283777237,-170.0586395263672,-0.19423993036771756,0.20883192751970606,0.43503168777873125,-0.36547135661045677
-0.04511794075369835,0.06724260747432709,-170.06072998046875,-0.19423993036771756,0.20883192751970606,0.43503168777873125,-0.36547135661045677
-0.027422988787293434,0.12383637577295303,-170.0614776611328,-0.19423993036771756,0.20883192751970606,0.43503168777873125,-0.36547135661045677
-0.15669789910316467,0.0407794825732708,-170.06082153320312,-0.19423993036771756,0.20883192751970606,0.43503168777873125,-0.36547135661045677
-0.20171144604682922,0.05722947046160698,-170.06288146972656,-0.19423993036771756,0.20883192751970606,0.43503168777873125,-0.36547135661045677
-0.1132722795009613,0.07771870493888855,-170.0605926513672,-0.19423993036771756,0.20883192751970606,0.43503168777873125,-0.36547135661045677
-0.06717902421951294,0.07607737183570862,-170.06106567382812,-0.19423993036771756,0.20883192751970606,0.43503168777873125,-0.36547135661045677
-0.1087111383676529,0.07445009052753448,-170.060791015625,-0.19423993036771756,0.20883192751970606,0.43503168777873125,-0.36547135661045677
-0.162029430270195,0.06265568733215332,-170.0607452392578,-0.18700820366644966,0.2027502594774387,0.4327755163734158,-0.364328808461626
-0.42357006669044495,-0.0778622254729271,-170.05715942382812,-0.17983594502529276,0.1966770566601518,0.42789552056541047,-0.36445552961279915
-1.6683269739151,0.11604652553796768,-170.0345001220703,-0.17284962364368908,0.19060544952077635,0.4104630452270309,-0.36413732711225716
-2.933063268661499,-0.48634764552116394,-169.91574096679688,-0.16632811387897306,0.184510778713351,0.3721181265388926,-0.3672231697787838
-3.231898307800293,-0.4435557723045349,-169.94371032714844,-0.16055426743502357,0.17832581592413338,0.32074344673504435,-0.37497236492733127
-1.7596213817596436,-0.16113290190696716,-169.90182495117188,-0.15555517663454782,0.1720342842396354,0.2791474493220449,-0.38001143721242714
-1.0301194190979004,-1.0641051530838013,-169.76544189453125,-0.1510964511459066,0.16561567431005392,0.2558996093148987,-0.39022175433735024
-1.5401570796966553,0.46965867280960083,-169.6178741455078,-0.14700994908085238,0.15907069739885682,0.23448063849161072,-0.3951754750063019
-1.60309636592865,0,-169.55162048339844,-0.14332021992860508,0.1525170546676969,0.2082868597780665,-0.39126165273288854
-1.1653242111206055,-0.2864193022251129,-169.5148468017578,-0.14004102369459906,0.14597613689282757,0.18521668830265603,-0.3936484802514312
-2.06475567817688,-0.7846841216087341,-169.4756622314453,-0.13717838999297824,0.13934094670642636,0.15829935589184366,-0.4025743421167132
-1.2957323789596558,-0.17351427674293518,-169.34625244140625,-0.13477343462097088,0.13256483278237338,0.1302952887490392,-0.4105593287696438
-0.21201106905937195,0.8256123661994934,-169.295654296875,-0.13270655088126598,0.1257674618924249,0.1177307600155473,-0.40512517802417247
-1.6982332468032837,-0.6045197248458862,-169.2436981201172,-0.13087702740294177,0.1190307292476716,0.10181205738335851,-0.40328273934622577
-0.6387876272201538,-0.4083613157272339,-169.18128967285156,-0.1293424528961374,0.11223901129741692,0.0823368834331632,-0.4117234146843351
0,0.3595270812511444,-169.08619689941406,-0.128014531757475,0.10537356311972827,0.07701365320632858,-0.4121303666383025
-1.5452861785888672,0,-169.06155395507812,-0.12683828241088263,0.09852969083417679,0.06413626838475468,-0.4091343076278763
-0.914185106754303,-0.5070896148681641,-169.11932373046875,-0.12594014122150776,0.09167557115045745,0.043640674340228267,-0.4133600544184443
-1.8613648414611816,0.5215011835098267,-169.0912628173828,-0.12540554317335226,0.08478723771352793,0.020511091438432563,-0.4132399580130971
-0.13622942566871643,-0.9758417010307312,-169.0701446533203,-0.12520241347348463,0.07786835365514848,0.0038644725456834124,-0.41702612899243796
-0.827156662940979,-0.24394309520721436,-169.11004638671875,-0.12520490740943224,0.07083321089442465,-0.004163744859397384,-0.42719100229442086
-1.1107964515686035,0.8012719750404358,-169.10528564453125,-0.12540888323448537,0.06375206425061716,-0.020313354146977238,-0.4225465949624774
-0.5787144303321838,-0.2819458842277527,-169.10536193847656,-0.12586476628151144,0.05674568531310453,-0.034392611496150464,-0.41821887753903836
0.9813048839569092,-0.45616576075553894,-169.09671020507812,-0.12641001880272335,0.04972411293433005,-0.031037691049277755,-0.4243698079138991
-1.1116950511932373,-0.4175060987472534,-168.9895782470703,-0.12693636852626938,0.04259061114552182,-0.03212427577624716,-0.431650406743089
-0.8466998338699341,-0.3973484933376312,-168.91087341308594,-0.12760777276733623,0.035339850575353327,-0.04844423315177358,-0.4384408616771297
-1.0222933292388916,0.46768441796302795,-168.96075439453125,-0.12854496784508168,0.028037387319944596,-0.06401917617768046,-0.4378547289719181
-0.6060612201690674,1.3623977899551392,-169.01654052734375,-0.12972503429175192,0.0208668975459625,-0.0775887974227468,-0.42260404390593337
0,0.4264719784259796,-169.13734436035156,-0.13106026850019833,0.013947723881445634,-0.08263930759082236,-0.4076967958360907
-0.8718593716621399,0.32909873127937317,-169.2049102783203,-0.13249813608307748,0.007205247472351438,-0.08990480235467352,-0.4014003732552128
-0.4761984348297119,-1.5495997667312622,-169.11961364746094,-0.1340901645811062,0.00043048423508039967,-0.10113861740877228,-0.4115712152173118
-0.5918344855308533,-0.9566761255264282,-168.95779418945312,-0.13584997715738856,-0.006603082955503804,-0.11003889174511032,-0.4324568476527926
0.5504498481750488,0.26101142168045044,-168.94642639160156,-0.13768683261962344,-0.01385900713192854,-0.11038376372307536,-0.4382540535181757
0.12897607684135437,0.5366052389144897,-168.88836669921875,-0.13947937965910412,-0.02110785131135682,-0.10472188101460533,-0.43160724801321787
-1.5563219785690308,0.6046651005744934,-168.9165496826172,-0.1413238655858564,-0.028222050560223717,-0.11661643019566931,-0.4220966618508097
0.26547423005104065,0,-168.90977478027344,-0.14335711496054243,-0.03521500429241954,-0.12737349476665255,-0.4170577860126889
-1.1056452989578247,0.2880503535270691,-168.91746520996094,-0.14553835175310517,-0.04214596389585831,-0.13437492034087575,-0.4146573663999633
0.2807265818119049,0.27649691700935364,-168.89361572265625,-0.14783521978081046,-0.04901771533095934,-0.1412492429837584,-0.4099528058121598
0.14982286095619202,-0.11648259311914444,-168.8295135498047,-0.15015947456368087,-0.05583914998866963,-0.13766133096069094,-0.40861935311307473
-0.20426449179649353,0.07500418275594711,-168.78285217285156,-0.15245761074850073,-0.06265235298571832,-0.13811501121769346,-0.40896500653276807
-0.5727932453155518,0.1588357836008072,-168.76535034179688,-0.15481348994498395,-0.06945219754137857,-0.14459049236029384,-0.40701634014646176
-0.3683309853076935,-0.7053648829460144,-168.67149353027344,-0.15728868733367102,-0.07627375662016302,-0.1524331942821542,-0.41157074930767185
0.05139107257127762,0.08377833664417267,-168.70306396484375,-0.15985125028786917,-0.08317643484100629,-0.15507436022162435,-0.4167506371935205
-0.3996347188949585,-0.23744697868824005,-168.8980712890625,-0.16246000654477982,-0.09013295022770691,-0.15797639060765503,-0.4180312092105544
-0.9885679483413696,0.24073979258537292,-168.91555786132812,-0.16518934935124327,-0.09709990838025108,-0.16954474616795775,-0.41800376909474496
-0.3969637155532837,0.09281925112009048,-168.7871856689453,-0.16811131259736858,-0.10404347404268395,-0.18109084336707987,-0.4152241103971994
-0.6363413333892822,-0.17790916562080383,-168.7649688720703,-0.1712012506152187,-0.1109697849044776,-0.18970171877493458,-0.4159331930180387
1.8476513624191284,-0.4874644875526428,-168.80616760253906,-0.1742788271761183,-0.11794821129180419,-0.1796074685330192,-0.4214779734611508
-0.16511574387550354,0.11061292141675949,-168.76287841796875,-0.1771554422337142,-0.12499901443047169,-0.165586338378489,-0.42461840317894983
-0.46019747853279114,-0.8206781148910522,-168.681884765625,-0.17995863906935627,-0.13212529789966768,-0.1707972818985581,-0.43053561312456895
0.11423911154270172,1.242847204208374,-168.75616455078125,-0.18282928532092876,-0.13927157415387456,-0.1736802682901422,-0.42701753738025794
-0.6714231967926025,0.7518032193183899,-168.78260803222656,-0.18576264979835128,-0.1462500157196895,-0.17832346900055804,-0.4103954505175349
-0.38246867060661316,0.4921264052391052,-168.82650756835938,-0.1888078945502633,-0.15300355589327638,-0.18710590122888485,-0.4000293703128891
-0.6953645944595337,0,-168.77720642089844,-0.19200117576970765,-0.1596365366203496,-0.19608784510443608,-0.39592831693589653
-0.17823724448680878,-1.2089461088180542,-168.70101928710938,-0.19532997331581953,-0.1663192964935047,-0.20336786042898894,-0.40600286784271367
0.27887430787086487,-0.5757880210876465,-168.57046508789062,-0.19871244897134546,-0.17320995082768226,-0.20252921823412182,-0.4208756522585945
0.2912604510784149,0.3925155699253082,-168.43943786621094,-0.20204834325032045,-0.18023727228554512,-0.19777809524287782,-0.42240292268494734
-0.9156934022903442,0.931656539440155,-168.4369354248047,-0.20538800823709147,-0.1871853646004772,-0.2029817031696439,-0.41136815510690183
0.06632596999406815,0.2787819802761078,-168.51397705078125,-0.20883002047271723,-0.1939574422883897,-0.2100597651054462,-0.4012811674425996
0.026248030364513397,-0.46374332904815674,-168.49288940429688,-0.20883002047271723,-0.1939574422883897,-0.2100597651054462,-0.4012811674425996
-0.5169417858123779,0.04093913733959198,-168.36129760742188,-0.20883002047271723,-0.1939574422883897,-0.2100597651054462,-0.4012811674425996
0.5805938243865967,0.2926839292049408,-168.35494995117188,-0.20883002047271723,-0.1939574422883897,-0.2100597651054462,-0.4012811674425996
2.2484891414642334,1.1881736516952515,-168.7327423095703,-0.20883002047271723,-0.1939574422883897,-0.2100597651054462,-0.4012811674425996
1.96683669090271,-0.4193263351917267,-169.41717529296875,-0.20883002047271723,-0.1939574422883897,-0.2100597651054462,-0.4012811674425996
2.481228828430176,2.7916042804718018,-170.31405639648438,-0.20883002047271723,-0.1939574422883897,-0.2100597651054462,-0.4012811674425996
2.6431312561035156,-1.1258552074432373,-171.41107177734375,-0.20883002047271723,-0.1939574422883897,-0.2100597651054462,-0.4012811674425996
1.4706430435180664,1.0722060203552246,-172.70925903320312,-0.20883002047271723,-0.1939574422883897,-0.2100597651054462,-0.4012811674425996
2.235469102859497,0.23892271518707275,-174.30532836914062,-0.20883002047271723,-0.1939574422883897,-0.2100597651054462,-0.4012811674425996
1.805538296699524,-0.46127235889434814,-176.0524139404297,-0.20883002047271723,-0.1939574422883897,-0.2100597651054462,-0.4012811674425996
0.7364330291748047,0.895325243473053,-177.88511657714844,-0.20883002047271723,-0.1939574422883897,-0.2100597651054462,-0.4012811674425996
1.610437273979187,-0.035935550928115845,-179.78338623046875,-0.20883002047271723,-0.1939574422883897,-0.2100597651054462,-0.4012811674425996
1.3644251823425293,0.24916613101959229,178.17767333984375,-0.20883002047271723,-0.1939574422883897,-0.2100597651054462,-0.4012811674425996
0.5399687886238098,0.45054706931114197,176.07984924316406,-0.20883002047271723,-0.1939574422883897,-0.2100597651054462,-0.4012811674425996
0.7788130044937134,0.7223029732704163,173.8936309814453,-0.20883002047271723,-0.1939574422883897,-0.2100597651054462,-0.4012811674425996
1.5284117460250854,0.5692444443702698,171.69007873535156,-0.20883002047271723,-0.1939574422883897,-0.2100597651054462,-0.4012811674425996
1.0186731815338135,0.41314151883125305,169.4637908935547,-0.20883002047271723,-0.1939574422883897,-0.2100597651054462,-0.4012811674425996
0.917814314365387,1.2848777770996094,167.2628631591797,-0.20883002047271723,-0.1939574422883897,-0.2100597651054462,-0.4012811674425996
-0.29755425453186035,0.45635032653808594,165.1132049560547,-0.20883002047271723,-0.1939574422883897,-0.2100597651054462,-0.4012811674425996
1.8193660974502563,-0.007982335053384304,162.86328125,-0.20883002047271723,-0.1939574422883897,-0.2100597651054462,-0.4012811674425996
0.1987513154745102,1.0660672187805176,160.59378051757812,-0.20883002047271723,-0.1939574422883897,-0.2100597651054462,-0.4012811674425996
0.9112856984138489,1.9566714763641357,158.2523651123047,-0.20883002047271723,-0.1939574422883897,-0.2100597651054462,-0.4012811674425996
0.7201261520385742,-0.6757478713989258,155.85206604003906,-0.20883002047271723,-0.1939574422883897,-0.2100597651054462,-0.4012811674425996
1.3098158836364746,0.6426255702972412,153.40829467773438,-0.20883002047271723,-0.1939574422883897,-0.2100597651054462,-0.4012811674425996
0.30795952677726746,-0.2669856548309326,150.93081665039062,-0.20883002047271723,-0.1939574422883897,-0.2100597651054462,-0.4012811674425996
0.6566892266273499,1.0003831386566162,148.44659423828125,-0.20883002047271723,-0.1939574422883897,-0.2100597651054462,-0.4012811674425996
0.8130723237991333,-0.7722598314285278,145.91226196289062,-0.20883002047271723,-0.1939574422883897,-0.2100597651054462,-0.4012811674425996
0.6707561612129211,0.16474154591560364,143.40234375,-0.20883002047271723,-0.1939574422883897,-0.2100597651054462,-0.4012811674425996
-0.23013611137866974,-0.46213001012802124,140.85891723632812,-0.20883002047271723,-0.1939574422883897,-0.2100597651054462,-0.4012811674425996
0.9627077579498291,0.44186466932296753,138.30238342285156,-0.20883002047271723,-0.1939574422883897,-0.2100597651054462,-0.4012811674425996
0.23477575182914734,0.7164235711097717,135.82960510253906,-0.20883002047271723,-0.1939574422883897,-0.2100597651054462,-0.4012811674425996
0.3983319103717804,-1.6100518703460693,133.3854522705078,-0.20883002047271723,-0.1939574422883897,-0.2100597651054462,-0.4012811674425996
0.6199880242347717,2.0880062580108643,131.00067138671875,-0.20883002047271723,-0.1939574422883897,-0.2100597651054462,-0.4012811674425996
0.6329505443572998,-0.746235728263855,128.60914611816406,-0.20883002047271723,-0.1939574422883897,-0.2100597651054462,-0.4012811674425996
0.1493121236562729,0.5175277590751648,126.27294921875,-0.20883002047271723,-0.1939574422883897,-0.2100597651054462,-0.4012811674425996
1.1193490028381348,-1.3004872798919678,123.88856506347656,-0.20883002047271723,-0.1939574422883897,-0.2100597651054462,-0.4012811674425996
-0.6322938203811646,-0.7939696907997131,121.42790985107422,-0.20883002047271723,-0.1939574422883897,-0.2100597651054462,-0.4012811674425996
1.24711275100708,0.2484758049249649,118.95011138916016,-0.20883002047271723,-0.1939574422883897,-0.2100597651054462,-0.4012811674425996
-0.37673670053482056,-0.06439084559679031,116.51304626464844,-0.20883002047271723,-0.1939574422883897,-0.2100597651054462,-0.4012811674425996
0.8514692783355713,-0.20170198380947113,114.034912109375,-0.20883002047271723,-0.1939574422883897,-0.2100597651054462,-0.4012811674425996
-0.015211397781968117,0.48866766691207886,111.55477905273438,-0.20883002047271723,-0.1939574422883897,-0.2100597651054462,-0.4012811674425996
-0.2680451571941376,-1.196089506149292,109.0914306640625,-0.20883002047271723,-0.1939574422883897,-0.2100597651054462,-0.4012811674425996
0.7574073076248169,0.14586329460144043,106.9140396118164,-0.20883002047271723,-0.1939574422883897,-0.2100597651054462,-0.4012811674425996
-1.0070744752883911,-0.10112330317497253,105.0971908569336,-0.20883002047271723,-0.1939574422883897,-0.2100597651054462,-0.4012811674425996
0.4316505789756775,0.2983623743057251,103.75162506103516,-0.20883002047271723,-0.1939574422883897,-0.2100597651054462,-0.4012811674425996
-1.1446137428283691,-0.6047122478485107,102.84436798095703,-0.20883002047271723,-0.1939574422883897,-0.2100597651054462,-0.4012811674425996
-1.2141214609146118,0.031916312873363495,102.24244689941406,-0.20883002047271723,-0.1939574422883897,-0.2100597651054462,-0.4012811674425996
-1.24370276927948,-0.1763850599527359,101.98187255859375,-0.20883002047271723,-0.1939574422883897,-0.2100597651054462,-0.4012811674425996
-0.8085371851921082,1.5045469999313354,101.97456359863281,-0.20883002047271723,-0.1939574422883897,-0.2100597651054462,-0.4012811674425996
-0.1000048965215683,1.5350573062896729,102.00569152832031,-0.20883002047271723,-0.1939574422883897,-0.2100597651054462,-0.4012811674425996
0.14067044854164124,1.126112937927246,102.01162719726562,-0.20883002047271723,-0.1939574422883897,-0.2100597651054462,-0.4012811674425996
-0.07397175580263138,-0.12720488011837006,102.05079650878906,-0.20883002047271723,-0.1939574422883897,-0.2100597651054462,-0.4012811674425996
0.22585110366344452,-0.27477243542671204,102.07418823242188,-0.20883002047271723,-0.1939574422883897,-0.2100597651054462,-0.4012811674425996
0.09498775005340576,-0.6849207282066345,102.08795928955078,-0.20883002047271723,-0.1939574422883897,-0.2100597651054462,-0.4012811674425996
0.20922765135765076,-0.42599672079086304,102.08454895019531,-0.20883002047271723,-0.1939574422883897,-0.2100597651054462,-0.4012811674425996
0.02513153851032257,0.09009288251399994,102.08052825927734,-0.20883002047271723,-0.1939574422883897,-0.2100597651054462,-0.4012811674425996
0.031531188637018204,0.3711265027523041,102.06208038330078,-0.20883002047271723,-0.1939574422883897,-0.2100597651054462,-0.4012811674425996
0.020092269405722618,0.4740416407585144,102.06163787841797,-0.20883002047271723,-0.1939574422883897,-0.2100597651054462,-0.4012811674425996
0.0003724498674273491,0.33022844791412354,102.06747436523438,-0.20883002047271723,-0.1939574422883897,-0.2100597651054462,-0.4012811674425996
0.09713385999202728,0.023041345179080963,102.07088470458984,-0.20883002047271723,-0.1939574422883897,-0.2100597651054462,-0.4012811674425996
0.1127658486366272,-0.08584633469581604,102.07521057128906,-0.20883002047271723,-0.1939574422883897,-0.2100597651054462,-0.4012811674425996
0.06120345741510391,-0.018863743171095848,102.07431030273438,-0.20883002047271723,-0.1939574422883897,-0.2100597651054462,-0.4012811674425996
0.06781569123268127,0.15544836223125458,102.07162475585938,-0.20883002047271723,-0.1939574422883897,-0.2100597651054462,-0.4012811674425996
0.03953349217772484,0.22950415313243866,102.07209777832031,-0.20883002047271723,-0.1939574422883897,-0.2100597651054462,-0.4012811674425996
0.05111084505915642,0.15323524177074432,102.07218170166016,-0.20883002047271723,-0.1939574422883897,-0.2100597651054462,-0.4012811674425996
0.08094578981399536,0.055872540920972824,102.07366943359375,-0.20883002047271723,-0.1939574422883897,-0.2100597651054462,-0.4012811674425996
0.05876513198018074,0.04115071892738342,102.07501220703125,-0.20883002047271723,-0.1939574422883897,-0.2100597651054462,-0.4012811674425996
0.07288715243339539,0.12467728555202484,102.07429504394531,-0.20883002047271723,-0.1939574422883897,-0.2100597651054462,-0.4012811674425996
0,0.1744837611913681,102.07376098632812,-0.21232595495000012,-0.20062468667307587,-0.20945237216850124,-0.398788158719738
0.06069696694612503,0.14808213710784912,102.07437133789062,-0.2158126127523261,-0.2072487555754674,-0.20894656411061685,-0.3961001095672445
0,0.28083547949790955,102.06696319580078,-0.21929084042035402,-0.2138206381226572,-0.20844075605273246,-0.39252579609552984
0.06545231491327286,1.6923706531524658,102.06797790527344,-0.22276030772158614,-0.2202257065205931,-0.20789532009512185,-0.3760824116567767
-0.9621865153312683,1.9358108043670654,102.24358367919922,-0.22628750293153388,-0.22624178966921163,-0.21536810509860516,-0.3458475661774473
-0.3099861443042755,2.0871427059173584,102.56472778320312,-0.22996531667342976,-0.23172654400062156,-0.22596954392890134,-0.3123229535917437
-1.1795551776885986,1.967897891998291,102.82547760009766,-0.23383491610849427,-0.23665032651896203,-0.23838238827884195,-0.2785309486091133
0.22155334055423737,1.9439822435379028,102.91106414794922,-0.23787448381849818,-0.24102085065303502,-0.2463657369216283,-0.24593194747964503
0.06088649481534958,1.8054389953613281,102.96522521972656,-0.24196096555640242,-0.24485933996943887,-0.24401207162688174,-0.2146867704888181
0,1.356176733970642,103.0634536743164,-0.24602360518804384,-0.2482178961630489,-0.24350468417008717,-0.18833997274438502
-1.339820384979248,1.3200196027755737,103.04573822021484,-0.25017505967316883,-0.2511710487409591,-0.2546698540449142,-0.16603833660483322
-0.4952680468559265,1.8351179361343384,103.10179901123047,-0.2545469939372393,-0.25371924757750425,-0.26996225764354065,-0.13974552378058394
-0.06597227603197098,1.6012871265411377,103.29151916503906,-0.25908533992038774,-0.2558097004000504,-0.2746392603342731,-0.11110881492495497
0.09118039906024933,0.5385599136352539,103.32613372802734,-0.2636609103618598,-0.25751291349323185,-0.2744291926423708,-0.09327675625681837
0.27720293402671814,1.55454683303833,103.39046478271484,-0.2682091480633238,-0.2589221714623265,-0.27135933153331276,-0.0758342000345385
-1.0835942029953003,0.3132234215736389,103.4777603149414,-0.2727878029825574,-0.26005636852855407,-0.2780792587747176,-0.06026944791277209
0.15802261233329773,0.214725062251091,103.4699935913086,-0.2774867331003764,-0.26102419623794576,-0.2857923553635676,-0.05586987721423267
0.8860233426094055,1.4106591939926147,103.52812957763672,-0.28217743583178706,-0.26184248695149936,-0.27709197240571176,-0.04232500841220179
-0.33409038186073303,0.8110654950141907,103.57169342041016,-0.28675730669405247,-0.2623936173216328,-0.27249253106613947,-0.023810636003811746
-0.9823623299598694,0.4604613780975342,103.52169799804688,-0.2913902692056979,-0.26270216077773023,-0.2834629703313111,-0.013214578727880705
-0.16801579296588898,1.4038077592849731,103.4336166381836,-0.2961945394142007,-0.26279294062198777,-0.29304945468902577,0.0023209974169735234
0.31365156173706055,1.7860945463180542,103.40968322753906,-0.3010685833972976,-0.26253273633826024,-0.2918358232825993,0.028903516630332086
0.49341854453086853,0,103.47596740722656,-0.3058764672501834,-0.26192697671759374,-0.2851102390636999,0.0437876378496492
0,0.5649121403694153,103.48424530029297,-0.3105940393912082,-0.26115795274368503,-0.28099841785927604,0.04849523901939433
0.40939489006996155,-0.26135948300361633,103.44120788574219,-0.3152489161548302,-0.26032861871437807,-0.2775867937753597,0.051024844497442656
-0.10023195296525955,1.118165373802185,103.45504760742188,-0.3198538930693428,-0.25941870423033747,-0.2750104359661539,0.05816489358743073
-1.1411261558532715,0.09786387532949448,103.55123901367188,-0.3245236057596689,-0.25836484286157946,-0.28535508687297495,0.06829847066352807
0.463712215423584,0.5020132660865784,103.5223159790039,-0.3293265665089705,-0.25718487688236674,-0.2910002030432223,0.07329744684199534
0.7971804141998291,0.1323958784341812,103.49954986572266,-0.3340890079048559,-0.25591919657774176,-0.28049276446302723,0.07858418971300167
-0.6354143619537354,0.933834433555603,103.48173522949219,-0.33875265355894485,-0.25453541631085913,-0.2791447140276431,0.08746944231291653
0.3236801028251648,0.941500723361969,103.46207427978516,-0.3434267136718451,-0.25294736066419127,-0.2817424995203812,0.10309723528722964
0.7228105664253235,1.1949806213378906,103.43950653076172,-0.34804974903404234,-0.2510807066493555,-0.2730217439432938,0.1209012464930618
-0.9453955292701721,-0.7042981386184692,103.43791961669922,-0.3526155687221837,-0.24903161070206006,-0.2748766186336676,0.12499026718239031
0,0.18798215687274933,103.44168853759766,-0.3572624981667219,-0.24698429485886367,-0.282754914710919,0.12068763400117598
-0.8147028684616089,0.8085602521896362,103.44783782958984,-0.36203165666665815,-0.24490362995821474,-0.28954410528143243,0.12899215407669587
0.10570529103279114,0.6213371753692627,103.5228500366211,-0.36690662769755905,-0.24265446229113377,-0.2954524184266726,0.14090796597302002
0.4503850042819977,-0.37981143593788147,103.60197448730469,-0.37179221728971784,-0.24028922357078958,-0.29081833263238266,0.14292068046828152
0.12295566499233246,-0.2082359343767166,103.57794189453125,-0.37659937417600237,-0.23794804885259008,-0.28604049372176327,0.13802028571565986
0,-0.07471802830696106,103.36607360839844,-0.38135817715018505,-0.235667360338071,-0.2850158631801605,0.13566233602662922
-0.19761385023593903,1.5554778575897217,103.30354309082031,-0.3861221647205652,-0.23330349086059365,-0.28666264526546,0.14800200127065222
-1.8199410438537598,0.8362550735473633,103.45547485351562,-0.3910399834537458,-0.2306706982747538,-0.3034756027162075,0.16793310903012793
0.5084277987480164,0.5826756954193115,103.59172058105469,-0.3961889874743705,-0.22777327626529567,-0.31440487975875536,0.1797575321048502
0.24607804417610168,-0.5013570785522461,103.66253662109375,-0.40137667256459114,-0.22477167027071018,-0.30811733106772105,0.18043518724540908
1.004013180732727,-0.9611634612083435,103.7131118774414,-0.40642514952510117,-0.22186598107632563,-0.2976999041934808,0.1682475160807375
0.3546621799468994,-0.18991008400917053,103.76795959472656,-0.41129246213938975,-0.21914179147117566,-0.2863776095211506,0.15865523653725824
-0.528032124042511,0.23521986603736877,103.71874237060547,-0.4160774618775267,-0.21649439101624718,-0.2878223590552807,0.1590328180541599
0,1.2193161249160767,103.61132049560547,-0.42091117009261764,-0.21374283460486163,-0.29222262675563493,0.17115395131210526
0.12098770588636398,1.1735069751739502,103.6576156616211,-0.42577314528119165,-0.2107241004788203,-0.29121439587324854,0.19109414381285547
0.6849168539047241,-0.09649506211280823,103.67049407958984,-0.43057075295131586,-0.2074644055879768,-0.28449852454165614,0.200069243088365
-0.13460847735404968,-0.49429506063461304,103.7201156616211,-0.4352741791675274,-0.20417094529502816,-0.27991262140373385,0.19514599206546981
-0.6961197853088379,0.32233983278274536,103.75904083251953,-0.43999707898694124,-0.2009304534292045,-0.2868353569259246,0.1937130318333709
-0.35626304149627686,-0.3739299178123474,103.82684326171875,-0.44485075040979033,-0.19770548554344203,-0.2956052138159672,0.1932831144581242
1.4520268440246582,-0.7324199080467224,103.85252380371094,-0.4497014092648809,-0.19456093015149128,-0.28647384879489735,0.1840635325759653
-0.23780222237110138,1.1888073682785034,103.80735778808594,-0.45439165225718103,-0.1914615110349313,-0.2763553102811177,0.18786676141123015
0.37191906571388245,0,103.76725006103516,-0.4589882604255231,-0.18824784227750258,-0.2752376699199279,0.19777348948021767
-0.1539614200592041,1.4060144424438477,103.80200958251953,-0.46356041897657363,-0.1848539775609959,-0.2734213562061389,0.20949027650058305
0.2534526586532593,-0.8403005599975586,103.86082458496094,-0.46811053246621803,-0.18132318726637184,-0.2725922625511884,0.21420455885430212
-1.0284790992736816,0.2899942100048065,103.93978881835938,-0.4727075581226698,-0.1777913270042163,-0.27905081622302524,0.2096186726043625
0,0.05277608707547188,104.01244354248047,-0.477429827219392,-0.17427387896795746,-0.28762147538363925,0.21247509174669815
0.11019160598516464,0,104.14459991455078,-0.4822158662809259,-0.17072896243279892,-0.28670321200042953,0.2129148924723271
0.4358212351799011,-0.2822182774543762,104.19377136230469,-0.4869563355891855,-0.16719997938308334,-0.28215310499072066,0.21056307349354061
0,-0.5051537156105042,104.02969360351562,-0.4916286219754767,-0.16374527343548717,-0.2785212613642215,0.20400164021799994
0.05346732959151268,1.032601237297058,103.95909881591797,-0.4962669299892143,-0.16030861779840339,-0.27807570028429224,0.20839703623205455
-1.1702561378479004,1.5443222522735596,104.0621337890625,-0.5009790797723036,-0.1566563808410934,-0.2873822736864288,0.22987139864514303
0.0638980120420456,0.2784828543663025,104.20600128173828,-0.5058456147591472,-0.15269860717571326,-0.29660192473481095,0.2450614412004752
-0.16233471035957336,-1.6279808282852173,104.38477325439453,-0.5107958160532217,-0.1487079649594497,-0.2974222305541237,0.23381562475115092
0.7976506352424622,0.18779510259628296,104.42060852050781,-0.5157087340676735,-0.14491105077788116,-0.2921279311800996,0.22181407703707648
0,-0.15694977343082428,104.46749114990234,-0.52052214051545,-0.1412120074571823,-0.2854808425530791,0.22207112144678864
-1.1742987632751465,0.52727210521698,104.4074478149414,-0.5253617030832287,-0.13748510527113955,-0.29526666558037196,0.22515714087833993
0.8965882658958435,0.8142492771148682,104.2991714477539,-0.5303020996274418,-0.1336393250493942,-0.29758091972519946,0.23633648573110533
0.39221489429473877,0.9052777886390686,104.40536499023438,-0.5351722814034041,-0.12958097201875396,-0.28684089339027796,0.2506658779457215
1.4072762727737427,-0.8091919422149658,104.51470184326172,-0.539827998295529,-0.12539653475810136,-0.2718451336647073,0.25146659333258903
-0.6405434012413025,-0.2922719717025757,104.5672607421875,-0.5443055051849732,-0.12128191541880248,-0.2654556930686036,0.2422877273832762
-0.9740687012672424,-0.6554294228553772,104.60529327392578,-0.5488418925765686,-0.11730959922592551,-0.2789107939228415,0.23439021576195992
0.7905688285827637,0,104.60621643066406,-0.5535031488553301,-0.11344861156203559,-0.2804399595285455,0.2289283039048318
-0.16093939542770386,1.0271620750427246,104.59227752685547,-0.5581334239146146,-0.10956180913063265,-0.27519304758558666,0.23748798786352115
0.37814629077911377,0.2559514045715332,104.51871490478516,-0.5627048908955306,-0.10551457089682298,-0.27338299012432493,0.24818060019363997
-0.17216117680072784,0.710753858089447,104.49445343017578,-0.5672469695424652,-0.1013110952503553,-0.27166644750783836,0.25623647738248145
0,-0.26633700728416443,104.5552978515625,-0.5717866993048737,-0.09700962501267468,-0.27310112398117775,0.25993995113919216
0.11281450092792511,-0.6763269901275635,104.62349700927734,-0.5763305503642178,-0.09274275527128618,-0.2721610031401117,0.25208441782742774
-0.15812452137470245,0.35031282901763916,104.67111206054688,-0.5808697136124173,-0.08856398817979502,-0.27253858664383485,0.2493676331515117
0.3152226507663727,-0.1965239942073822,104.77656555175781,-0.5854011137974957,-0.08439718118040801,-0.27122943556557094,0.2506492067749305
0.656151533126831,-0.33882761001586914,104.8918685913086,-0.5898541478497071,-0.08025687159556356,-0.26313465069979425,0.24618794340640343
-0.5441064238548279,0.24391265213489532,104.76898193359375,-0.5942319444510042,-0.07616033052197635,-0.26220094145586087,0.245396985424062
-0.5166601538658142,0.1088499128818512,104.59624481201172,-0.5942319444510042,-0.07616033052197635,-0.26220094145586087,0.245396985424062
-0.32504162192344666,1.3230680227279663,104.63109588623047,-0.5942319444510042,-0.07616033052197635,-0.26220094145586087,0.245396985424062
-0.014991902746260166,0.36693304777145386,104.80256652832031,-0.5942319444510042,-0.07616033052197635,-0.26220094145586087,0.245396985424062
-0.549341082572937,-2.380052089691162,104.94579315185547,-0.5942319444510042,-0.07616033052197635,-0.26220094145586087,0.245396985424062
1.1526713371276855,-0.6906558275222778,104.79019927978516,-0.5942319444510042,-0.07616033052197635,-0.26220094145586087,0.245396985424062
1.9183440208435059,-2.8160674571990967,104.23028564453125,-0.5942319444510042,-0.07616033052197635,-0.26220094145586087,0.245396985424062
0.5273386240005493,-1.0363068580627441,103.47914123535156,-0.5942319444510042,-0.07616033052197635,-0.26220094145586087,0.245396985424062
0.9114585518836975,-2.0707709789276123,102.4906234741211,-0.5942319444510042,-0.07616033052197635,-0.26220094145586087,0.245396985424062
0.9344637989997864,-2.984907865524292,101.27642059326172,-0.5942319444510042,-0.07616033052197635,-0.26220094145586087,0.245396985424062
0.2155202478170395,-1.5219529867172241,99.8619155883789,-0.5942319444510042,-0.07616033052197635,-0.26220094145586087,0.245396985424062
1.4546148777008057,-0.9720185995101929,98.19274139404297,-0.5942319444510042,-0.07616033052197635,-0.26220094145586087,0.245396985424062
-0.14073657989501953,-0.7462891340255737,96.36653900146484,-0.5942319444510042,-0.07616033052197635,-0.26220094145586087,0.245396985424062
0.5882524251937866,-2.3805603981018066,94.42823028564453,-0.5942319444510042,-0.07616033052197635,-0.26220094145586087,0.245396985424062
0.09632416069507599,-1.6957430839538574,92.38672637939453,-0.5942319444510042,-0.07616033052197635,-0.26220094145586087,0.245396985424062
-0.26130321621894836,-1.8216326236724854,90.23225402832031,-0.5942319444510042,-0.07616033052197635,-0.26220094145586087,0.245396985424062
1.82676100730896,-0.798075795173645,87.98811340332031,-0.5942319444510042,-0.07616033052197635,-0.26220094145586087,0.245396985424062
-0.3132818639278412,-1.2211754322052002,85.66936492919922,-0.5942319444510042,-0.07616033052197635,-0.26220094145586087,0.245396985424062
1.5102041959762573,-0.2482510358095169,83.27002716064453,-0.5942319444510042,-0.07616033052197635,-0.26220094145586087,0.245396985424062
-0.6124507784843445,-0.6252453923225403,80.84195709228516,-0.5942319444510042,-0.07616033052197635,-0.26220094145586087,0.245396985424062
0.17215995490550995,-1.791884183883667,78.2633285522461,-0.5942319444510042,-0.07616033052197635,-0.26220094145586087,0.245396985424062
0.5804640650749207,-0.769823431968689,75.61433410644531,-0.5942319444510042,-0.07616033052197635,-0.26220094145586087,0.245396985424062
1.0721880197525024,-0.18320903182029724,73.02091979980469,-0.5942319444510042,-0.07616033052197635,-0.26220094145586087,0.245396985424062
-0.253627747297287,-0.9492721557617188,70.38290405273438,-0.5942319444510042,-0.07616033052197635,-0.26220094145586087,0.245396985424062
-0.5917057991027832,-1.111449122428894,67.71929168701172,-0.5942319444510042,-0.07616033052197635,-0.26220094145586087,0.245396985424062
1.2413345575332642,-0.8500442504882812,65.07368469238281,-0.5942319444510042,-0.07616033052197635,-0.26220094145586087,0.245396985424062
-0.9145631194114685,-0.42449894547462463,62.39922332763672,-0.5942319444510042,-0.07616033052197635,-0.26220094145586087,0.245396985424062
1.171139121055603,-0.41738224029541016,59.7531852722168,-0.5942319444510042,-0.07616033052197635,-0.26220094145586087,0.245396985424062
0.49021491408348083,-1.2007502317428589,57.04252243041992,-0.5942319444510042,-0.07616033052197635,-0.26220094145586087,0.245396985424062
0.604040801525116,0.40433013439178467,54.388221740722656,-0.5942319444510042,-0.07616033052197635,-0.26220094145586087,0.245396985424062
1.0267504453659058,-1.665380835533142,51.687374114990234,-0.5942319444510042,-0.07616033052197635,-0.26220094145586087,0.245396985424062
-0.3619006872177124,-0.024138635024428368,49.011566162109375,-0.5942319444510042,-0.07616033052197635,-0.26220094145586087,0.245396985424062
0.28313302993774414,-1.305637001991272,46.4063606262207,-0.5942319444510042,-0.07616033052197635,-0.26220094145586087,0.245396985424062
-0.007849280722439289,-0.7019274830818176,43.788944244384766,-0.5942319444510042,-0.07616033052197635,-0.26220094145586087,0.245396985424062
-0.5987941026687622,-0.153157576918602,41.146785736083984,-0.5942319444510042,-0.07616033052197635,-0.26220094145586087,0.245396985424062
1.0913538932800293,-1.1326258182525635,38.572635650634766,-0.5942319444510042,-0.07616033052197635,-0.26220094145586087,0.245396985424062
-1.072121262550354,-0.19872380793094635,35.99635314941406,-0.5942319444510042,-0.07616033052197635,-0.26220094145586087,0.245396985424062
1.773302674293518,0.10131044685840607,33.39704513549805,-0.5942319444510042,-0.07616033052197635,-0.26220094145586087,0.245396985424062
-1.2533758878707886,-1.1608126163482666,30.693880081176758,-0.5942319444510042,-0.07616033052197635,-0.26220094145586087,0.245396985424062
0.15771959722042084,-0.7289645671844482,28.010557174682617,-0.5942319444510042,-0.07616033052197635,-0.26220094145586087,0.245396985424062
-1.0676965713500977,-0.08553717285394669,25.25920867919922,-0.5942319444510042,-0.07616033052197635,-0.26220094145586087,0.245396985424062
0.27644678950309753,-0.32718774676322937,22.510961532592773,-0.5942319444510042,-0.07616033052197635,-0.26220094145586087,0.245396985424062
-2.149296283721924,0.6219274401664734,20.003490447998047,-0.5942319444510042,-0.07616033052197635,-0.26220094145586087,0.245396985424062
1.0036646127700806,-0.09345968812704086,17.904712677001953,-0.5942319444510042,-0.07616033052197635,-0.26220094145586087,0.245396985424062
0.011492826975882053,0.40465518832206726,16.207815170288086,-0.5942319444510042,-0.07616033052197635,-0.26220094145586087,0.245396985424062
-0.6195983290672302,0.0538070946931839,14.95094108581543,-0.5942319444510042,-0.07616033052197635,-0.26220094145586087,0.245396985424062
0.1615036278963089,1.493992805480957,14.093653678894043,-0.5942319444510042,-0.07616033052197635,-0.26220094145586087,0.245396985424062
0.3648907542228699,1.6736358404159546,13.538152694702148,-0.5942319444510042,-0.07616033052197635,-0.26220094145586087,0.245396985424062
0.4293285608291626,1.495820164680481,13.360578536987305,-0.5942319444510042,-0.07616033052197635,-0.26220094145586087,0.245396985424062
0.5405093431472778,0.2785784900188446,13.452467918395996,-0.5942319444510042,-0.07616033052197635,-0.26220094145586087,0.245396985424062
0.992186963558197,-0.07966112345457077,13.597254753112793,-0.5942319444510042,-0.07616033052197635,-0.26220094145586087,0.245396985424062
0.5059592723846436,-0.29428738355636597,13.617915153503418,-0.5942319444510042,-0.07616033052197635,-0.26220094145586087,0.245396985424062
-0.09361772984266281,-0.09913957864046097,13.615470886230469,-0.5942319444510042,-0.07616033052197635,-0.26220094145586087,0.245396985424062
-0.26832106709480286,-0.15090517699718475,13.62374210357666,-0.5942319444510042,-0.07616033052197635,-0.26220094145586087,0.245396985424062
-0.4122939705848694,-0.22462652623653412,13.612248420715332,-0.5942319444510042,-0.07616033052197635,-0.26220094145586087,0.245396985424062
-0.235365092754364,-0.17664188146591187,13.620774269104004,-0.5942319444510042,-0.07616033052197635,-0.26220094145586087,0.245396985424062
0.05442778021097183,-0.09179875254631042,13.627074241638184,-0.5942319444510042,-0.07616033052197635,-0.26220094145586087,0.245396985424062
0.2801130712032318,-0.04422670602798462,13.627800941467285,-0.5942319444510042,-0.07616033052197635,-0.26220094145586087,0.245396985424062
0.42943906784057617,-0.003247510641813278,13.62586784362793,-0.5942319444510042,-0.07616033052197635,-0.26220094145586087,0.245396985424062
0.17866426706314087,-0.06928039342164993,13.6274995803833,-0.5942319444510042,-0.07616033052197635,-0.26220094145586087,0.245396985424062
-0.048345357179641724,-0.13534952700138092,13.625823974609375,-0.5942319444510042,-0.07616033052197635,-0.26220094145586087,0.245396985424062
-0.05936294421553612,-0.1289537250995636,13.624969482421875,-0.5942319444510042,-0.07616033052197635,-0.26220094145586087,0.245396985424062
0.06281202286481857,-0.11160145699977875,13.626641273498535,-0.5942319444510042,-0.07616033052197635,-0.26220094145586087,0.245396985424062
0.1924116164445877,-0.06975650787353516,13.626890182495117,-0.5942319444510042,-0.07616033052197635,-0.26220094145586087,0.245396985424062
0.14217060804367065,-0.08070284873247147,13.626608848571777,-0.5942319444510042,-0.07616033052197635,-0.26220094145586087,0.245396985424062
0.06206022948026657,-0.08282363414764404,13.626631736755371,-0.5942319444510042,-0.07616033052197635,-0.26220094145586087,0.245396985424062
0.032961804419755936,-0.12181103974580765,13.626941680908203,-0.5942319444510042,-0.07616033052197635,-0.26220094145586087,0.245396985424062
0.09349963814020157,-0.08242657780647278,13.627191543579102,-0.5942319444510042,-0.07616033052197635,-0.26220094145586087,0.245396985424062
0.13350467383861542,-0.066746287047863,13.626816749572754,-0.5942319444510042,-0.07616033052197635,-0.26220094145586087,0.245396985424062
0.1121867224574089,-0.07670793682336807,13.62674617767334,-0.5985848982394147,-0.0720803428637886,-0.260153513153394,0.2442015335584684
0.5049113035202026,-0.13435903191566467,13.601076126098633,-0.6028779360957228,-0.06802497473286545,-0.2550110296035806,0.2424426421523098
1.383936882019043,0,13.55655574798584,-0.6069969499095645,-0.06399359451865443,-0.2392706280574202,0.24132298355301257
2.9544966220855713,0.9102541208267212,13.567485809326172,-0.6106835136060699,-0.059908332701046806,-0.20311701552321507,0.24890843455990191
2.594120502471924,1.2688145637512207,13.681794166564941,-0.6136834765644736,-0.055608534577508306,-0.15687853948523595,0.2670673402647181
1.1891978979110718,-0.11226357519626617,13.731328010559082,-0.6160353884447566,-0.051077096198891135,-0.12535088614871098,0.27670526516934274
0.9252981543540955,-0.5761224627494812,13.718873023986816,-0.6179777298769389,-0.046513146365370545,-0.10773008571316792,0.2709687148531282
1.487646460533142,0.5830407738685608,13.693686485290527,-0.6196056657072356,-0.04199652067954625,-0.08762221392244093,0.2710263674457872
2.2025866508483887,0.6774145364761353,13.676965713500977,-0.6208097697509859,-0.037391882936675856,-0.05687027132759484,0.28153016169865963
1.0465449094772339,-0.7538283467292786,13.691729545593262,-0.6215319734703121,-0.03270502008963244,-0.029794174991547986,0.2808933799465501
0.23096737265586853,0.9622609615325928,13.659457206726074,-0.6219398269228008,-0.02800898927005082,-0.019148239307105464,0.2826303184032444
0.4343717396259308,0.41683313250541687,13.526773452758789,-0.6222127601395663,-0.023202713540132997,-0.013603746704757136,0.29412276918689445
2.170335054397583,-1.1769777536392212,13.601179122924805,-0.6222586068350606,-0.018353455207930157,0.008102143245438813,0.2877882306774461
0.6989697217941284,0.6300907135009766,13.748640060424805,-0.6219243138381789,-0.013594962963315655,0.03201301638036974,0.28323083867629406
0.7671959400177002,0.5309768319129944,13.739253997802734,-0.6212889465053247,-0.008793819294723674,0.04423106356213498,0.29290640155474384
1.671083927154541,-0.3333185911178589,13.812407493591309,-0.6203824371218466,-0.003898319668756059,0.06455006245523699,0.29455355356137
0.4239718019962311,0.7232290506362915,13.939371109008789,-0.6191611127664016,0.0010379833391777763,0.08200886019816009,0.29780280739069026
1.064831018447876,-0.5300619602203369,13.812297821044922,-0.6176909093450126,0.006014777843634833,0.09441555036852764,0.29941253314415656
0.5751636028289795,-0.34464582800865173,13.784211158752441,-0.616003428323504,0.010944243132965985,0.10808217221250144,0.29212330157558164
-0.0672449842095375,0.2424309253692627,13.718379020690918,-0.614166786660336,0.01580586656876461,0.11231482736766345,0.2912715107202534
1.1333087682724,0.05581694841384888,13.672409057617188,-0.6122208406636483,0.020681103405337107,0.12119869223485397,0.29375690966844603
1.0973058938980103,0.28413042426109314,13.731643676757812,-0.6100459586637501,0.025600659356246967,0.1397871477529407,0.29658980444073724
0.9909695982933044,1.0718826055526733,13.764966011047363,-0.6075711537364656,0.030637990335107432,0.15718944352120168,0.3078899130225186
0.9357595443725586,-0.09139169752597809,13.94727897644043,-0.6048175290428716,0.035837578531873485,0.17324551971008387,0.31606067058940773
0.13744938373565674,-0.4672103524208069,14.088854789733887,-0.6018555753165848,0.0410664645660062,0.182188927444319,0.31140565350651783
-0.1710888147354126,0,14.129303932189941,-0.5988214292641101,0.04622411362775227,0.18190859885265437,0.30751223390301113
0.1939397156238556,0.7873815894126892,14.165168762207031,-0.5957880324151152,0.05140399680317834,0.18209902302672473,0.31407374714811687
0.4975362718105316,-0.6378790736198425,14.246248245239258,-0.5927050295322092,0.056648941374799235,0.1878613229220113,0.3153196014463906
0.3976944386959076,-0.5050868988037109,14.2527494430542,-0.5895118386841682,0.06182489542859855,0.1953215788428983,0.3057948850095277
0.9739463925361633,0.2282085120677948,14.181934356689453,-0.5861612262012844,0.06690224917967846,0.20675191910316557,0.3034875651200617
1.1302047967910767,0.12706223130226135,14.2742280960083,-0.5825692392725283,0.07198504684441352,0.22428651234755922,0.3064481546481455
-1.2029666900634766,0.6990240216255188,14.470949172973633,-0.5788361836426574,0.07714988318944704,0.2236801632369559,0.31333220675587703
0.5447545647621155,0.8248485922813416,14.53046989440918,-0.5751538900974097,0.08247791112245519,0.21819506219277787,0.32603114520510085
0.6264024376869202,-0.8330367803573608,14.464221954345703,-0.5714359753801378,0.08791119491836825,0.22795470387985317,0.32596291030446733
1.0390299558639526,0.25929737091064453,14.491938591003418,-0.5675210752881437,0.09330406707556446,0.2418333071594438,0.32118174855907805
0.31537142395973206,-0.7042325735092163,14.548595428466797,-0.563396464517443,0.09862619794025752,0.25311998532464114,0.31747395520408994
-0.29531794786453247,-0.9413430094718933,14.550248146057129,-0.559176405492859,0.1038031544448409,0.25328709762543444,0.30376082534591403
0.16168051958084106,0.4745553731918335,14.438422203063965,-0.5549642342427326,0.10883341905919779,0.25217345238973704,0.29987092837691354
0.9033999443054199,0.74073326587677,14.296611785888672,-0.550687379448467,0.11391566290985944,0.26104912292212257,0.30999833370248525
0.38353368639945984,-0.5460686683654785,14.178997993469238,-0.5462471903420771,0.11909582017972803,0.2717735698446632,0.311620538681746
0.3215833008289337,0.34325990080833435,14.245137214660645,-0.5416686643872197,0.12427541188223233,0.27764954473823317,0.3099304656187698
-0.40967077016830444,0.5125479102134705,14.281905174255371,-0.5370472891602867,0.1295003507405328,0.27691548249373843,0.31706219737728486
0.5368912220001221,-2.099905014038086,14.351758003234863,-0.5324231963651249,0.13467448756461084,0.2779756529256702,0.3038342215120797
-0.30526497960090637,1.5421677827835083,14.461949348449707,-0.5277741836606415,0.13969965950430838,0.2799058716123304,0.29918641125162493
-0.7529134154319763,-0.24330709874629974,14.490158081054688,-0.5231825704112022,0.14477629835044917,0.2710877183203897,0.31001025028526835
0.6419090628623962,-2.1570260524749756,14.477450370788574,-0.5186721504081242,0.1497764460530355,0.27016268204897653,0.2900074740250911
0.23628811538219452,0.9455075263977051,14.39407730102539,-0.5141084531254854,0.15452577072247609,0.27748099186768144,0.2799114863077805
1.2173651456832886,0.13828347623348236,14.344690322875977,-0.5093828217845612,0.1592662254250107,0.2895947690432271,0.28894307799637375
0.4927939772605896,1.0809496641159058,14.396723747253418,-0.504437481250303,0.16416661235969676,0.30384609506775945,0.29910335416595196
-0.4369291663169861,-0.4127384126186371,14.581521987915039,-0.49936950016508036,0.16919807182159438,0.30431163515895615,0.30467178126176253
0,-0.13848303258419037,14.68651008605957,-0.4943279818823142,0.17423765557559578,0.30067055877298127,0.30007826921840564
-0.34616491198539734,0.3404570519924164,14.7023286819458,-0.4893408451327635,0.17925298603613923,0.29778585117310297,0.3017613860468075
-0.20705129206180573,-0.6986822485923767,14.71534252166748,-0.48441616540515947,0.18425746572048882,0.29317571613937626,0.2987761760751412
0.7739922404289246,-0.4453936219215393,14.804028511047363,-0.47949053257031105,0.18915761894184438,0.2979002240424356,0.2892422104875252
0.5780681371688843,0.08675435185432434,14.794652938842773,-0.4744316357544928,0.193953416945104,0.30916739385575065,0.2862535499036317
-2.1273117065429688,1.2113840579986572,14.87633991241455,-0.4693864322158813,0.19881445794418212,0.29625703077763327,0.2970713699857399
0.8732345104217529,-0.4694395661354065,15.036989212036133,-0.46453590373042913,0.2038171713669905,0.2858063874766231,0.303254240751267
1.22733473777771,1.962638258934021,15.013702392578125,-0.4596265910746938,0.20897510306651154,0.3033111312116186,0.31569756319125547
