faccX,faccY,yaw,posX,posY,velX,velY
0,0,-91.40109252929688,0.0,0.0,0.0,0.0
0,0,-91.40251922607422,0.0,0.0,0.0,0.0
0,0,-91.40280151367188,0.0,0.0,0.0,0.0
0.09269974380731583,-0.41657066345214844,-91.3937759399414,6.437482208841376e-06,-2.8928518295288084e-05,0.0007724978650609652,-0.00347142219543457
0,-2.2225699424743652,-91.40995025634766,2.5749928835365504e-05,-0.00027005920807520546,0.0015449957301219303,-0.025464260578155515
-0.8019608855247498,-1.625121831893921,-91.19181060791016,-4.191870490709945e-06,-0.0009616643687089283,-0.005138011649250984,-0.05752835869789123
1.3164138793945312,-2.2542035579681396,-91.01996612548828,-5.409949562615819e-05,-0.002189867943525314,-0.000850903367002805,-0.08985607028007507
-0.3105238080024719,-2.2806222438812256,-90.99610137939453,1.5722587704658481e-06,-0.004002387573321661,0.007531513894597689,-0.12764628529548644
-1.0347105264663696,-1.8622843027114868,-90.97869110107422,3.367843934231334e-05,-0.006417527505093151,-0.00367877222597599,-0.16217050651709236
0.4037565290927887,-0.4543192684650421,-90.86145782470703,-7.14506809082296e-05,-0.009281244528376394,-0.008936722204089163,-0.18147553627689678
0.75367271900177,-1.781844139099121,-90.86651611328125,-0.00014001901985870465,-0.012461125925183296,0.0007085215300321589,-0.20011023133993147
-0.9735581874847412,-1.302217960357666,-90.82611083984375,-0.00014348015189170833,-0.016010467426644432,-0.001123857373992601,-0.2258107488354047
0.8870342969894409,-2.087892532348633,-90.86632537841797,-0.0001682197116315364,-0.020009404247005782,-0.00184488979478677,-0.2540616696079572
-0.6526678800582886,-0.5375506281852722,-90.96727752685547,-0.00018269242925776367,-0.024426087848842145,0.0001081636796394995,-0.2759403626124064
0.8904536366462708,-0.8111186027526855,-90.93526458740234,-0.0001643768015007177,-0.029118751477864052,0.0020897116512060172,-0.2871792728702227
-1.2241575717926025,-0.596453070640564,-90.97210693359375,-0.00015272215836577933,-0.03400282072524229,-0.0006911544750134143,-0.29890903681516645
0.7579662203788757,-0.6934279799461365,-91.12281036376953,-0.00019661579901973392,-0.03907421307845248,-0.004576082403461138,-0.3096580455700556
-1.0931789875030518,-0.4566308259963989,-91.2646713256836,-0.0002961625034610429,-0.04431504569947719,-0.007369522129495938,-0.31924186895291007
-0.3325069844722748,-1.1597448587417603,-91.30384063720703,-0.0005179938425620396,-0.049747991826799176,-0.01925023856262366,-0.3327116663257281
0.6524786949157715,0.2836225926876068,-91.28225708007812,-0.0008166108942694132,-0.05535402808959285,-0.016583807642261188,-0.34001268520951267
-0.25752192735671997,-1.9964430332183838,-91.22171783447266,-0.0010655801350043879,-0.061139852040343806,-0.013292501245935758,-0.3542861888806025
0.7655836939811707,0.4295652508735657,-91.14118194580078,-0.0012518397553099526,-0.0671534328121278,-0.009058653190732003,-0.36734350373347596
0.2815796732902527,-1.55687415599823,-90.99861145019531,-0.0013300976302060817,-0.07335410988165272,-0.0003322917968034758,-0.3767377446095148
-1.0259920358657837,-0.22909443080425262,-90.91075134277344,-0.001387331129776107,-0.07975709788811704,-0.006535728151599567,-0.39162081616620215
1.111698865890503,-1.5037741661071777,-90.82467651367188,-0.0014903080691066055,-0.08640444958789481,-0.00582150456806024,-0.40606138780713075
-0.069710873067379,-0.3411429524421692,-90.80838775634766,-0.0015149728679615592,-0.09330025862902402,0.0028617287054657917,-0.4214356971283753
-0.6022000908851624,-0.11833063513040543,-90.74861145019531,-0.0015139378731449447,-0.10035609480252282,-0.0027375293274720528,-0.4252646436914801
-0.4431230127811432,0.12883850932121277,-90.74871826171875,-0.0016321552441351946,-0.10744310915056202,-0.011448555191357932,-0.42517707807322336
-0.7968992590904236,-0.14265337586402893,-90.83261108398438,-0.0019090771550933521,-0.11453035315084788,-0.021782074123620987,-0.42529220196108014
0.8883081078529358,-0.5106282830238342,-90.90412139892578,-0.0022657638871007497,-0.12166392329873309,-0.021020333717266717,-0.43073621578514565
0.33879998326301575,-1.0675709247589111,-90.86028289794922,-0.0025308869427276984,-0.12895245739569264,-0.01079443295796712,-0.44388787585000183
0.24285535514354706,-0.8732504844665527,-90.668701171875,-0.002670401426860028,-0.13648536792438887,-0.0059473051379124306,-0.46006138759354737
-0.5365030765533447,-0.4956790804862976,-90.45651245117188,-0.002789915382034249,-0.14424812227073638,-0.008394369482994078,-0.47146913396815443
0.12026585638523102,0.3157205581665039,-90.32556915283203,-0.0029587269025958245,-0.15211843828981117,-0.011863012984395025,-0.4729687883208194
1.0585027933120728,0.6042595505714417,-90.43785858154297,-0.003074584851662318,-0.15993736392094024,-0.0020399409035841594,-0.46530228741466984
0.0945441797375679,-1.32916259765625,-90.5658187866211,-0.003028511160260273,-0.16774274253389895,0.007568783871829512,-0.4713431461403766
-0.1590571105480194,-0.4298456609249115,-90.72431945800781,-0.0029068448270360625,-0.17572061498752892,0.007031176115075749,-0.4860015482952196
-1.0005725622177124,-0.9256946444511414,-90.78519439697266,-0.0028701883968379758,-0.18391477553587812,-0.0026324044913053485,-0.49729771750668667
0,0.17912180721759796,-90.67252349853516,-0.0029835460107359617,-0.19225491616357523,-0.010970509176452951,-0.5035191578169662
0.3610915243625641,0.7990121841430664,-90.56370544433594,-0.003141312030040555,-0.20057897615556908,-0.00796141314009825,-0.495368041222294
-0.6189703345298767,-0.26479700207710266,-90.56500244140625,-0.0032919104997482557,-0.20879801189940828,-0.010110403224825855,-0.49091624803841094
1.4031480550765991,0,-90.63099670410156,-0.003405960434012942,-0.21699833804741492,-0.003575588886936501,-0.49312288972238677
-0.25655514001846313,-0.5508150458335876,-90.71977233886719,-0.0033859290741384018,-0.22525530392097093,0.005979352071881298,-0.49771301510433336
-1.213910698890686,-0.39589664340019226,-90.67595672607422,-0.0033883888895312932,-0.2336162647066844,-0.006274529919028278,-0.5056022791812815
0,0.21789585053920746,-90.7802963256836,-0.0035772637422713956,-0.24205533052587666,-0.016390452409783995,-0.5070856191217897
0.1324010193347931,1.2070960998535156,-90.92822265625,-0.003841243433869546,-0.25040779973690697,-0.015287110581994053,-0.4952106862018504
0.1875152587890625,-0.88409423828125,-90.96861267089844,-0.004073812202033068,-0.25863888048877304,-0.01262114159762859,-0.4925190040220815
0.9227040410041809,-0.5741522312164307,-90.83849334716797,-0.004207065999507902,-0.26694879767174506,-0.0033693140993515617,-0.5046710579345621
0,0,-90.70906829833984,-0.004199144564982916,-0.2753998536533778,0.004319886242349946,-0.5094556598613658
-0.3850524425506592,-0.6597175598144531,-90.59293365478516,-0.0041538862138986565,-0.2839365950371655,0.0011111158877611196,-0.5149533061931528
0.6901807188987732,-0.5931816697120667,-90.59393310546875,-0.0041141781521340185,-0.2926061570313241,0.003653851523995403,-0.5253941331058738
-1.5303152799606323,0.3943520188331604,-90.65837097167969,-0.004111623304585613,-0.30137653353106636,-0.003347269818186756,-0.527051046863198
-0.9905930161476135,0.41881346702575684,-90.73893737792969,-0.004342474211007354,-0.31010424782004614,-0.024354838952422138,-0.5202746678143737
0.6697235107421875,0.9832023978233337,-90.77508544921875,-0.0047706707980897664,-0.3186781300707823,-0.027028751497467356,-0.5085912022739646
0.9705604314804077,-0.8955867290496826,-90.71785736083984,-0.005107241382615431,-0.32714856568723905,-0.013359718645612396,-0.5078610717008508
0.990181028842926,0.2449125349521637,-90.44989776611328,-0.0051937407586309615,-0.33565810259017664,0.0029797935237487194,-0.5132833566516635
-1.5718351602554321,0,-90.12757110595703,-0.005184470181249907,-0.3441958173861105,-0.0018673242380221645,-0.5112424188603955
0.416770339012146,-0.7782292366027832,-90.06733703613281,-0.005295805086692171,-0.3527705680641034,-0.011492864415049549,-0.517727662498752
1.1515947580337524,0.2836025655269623,-90.220458984375,-0.005378438584092587,-0.3614337115134629,0.0015768447269996055,-0.5218495514243838
-0.2900714874267578,-0.4710652828216553,-90.36315155029297,-0.00529232983373933,-0.37014422228145916,0.008756205315391227,-0.5234117407351729
-0.2792901396751404,0.12559276819229126,-90.49324035644531,-0.0051859320803648865,-0.3788917424405613,0.004011525089542075,-0.5262906783570843
-0.5283555388450623,-0.37840789556503296,-90.42469787597656,-0.005175159834325311,-0.38768081035258023,-0.002718855564792947,-0.5283974710851905
-0.15488485991954803,1.1874338388442993,-90.30394744873047,-0.005267921343652736,-0.3964312525134946,-0.008412525554498031,-0.52165558822453
0.5196192264556885,-0.20664040744304657,-90.31578063964844,-0.005382801327440471,-0.4050574016622783,-0.005373072500030194,-0.5134823096295195
0.8528730869293213,-0.017943238839507103,-90.35155487060547,-0.005382801327440471,-0.4050574016622783,-0.005373072500030194,-0.5134823096295195
-0.30200839042663574,-0.062144674360752106,-90.41261291503906,-0.005382801327440471,-0.4050574016622783,-0.005373072500030194,-0.5134823096295195
-0.9210072159767151,-0.2980683147907257,-90.42598724365234,-0.005382801327440471,-0.4050574016622783,-0.005373072500030194,-0.5134823096295195
-1.0440746545791626,1.1672276258468628,-90.63833618164062,-0.005382801327440471,-0.4050574016622783,-0.005373072500030194,-0.5134823096295195
-0.01847056858241558,2.6369969844818115,-91.18421173095703,-0.005382801327440471,-0.4050574016622783,-0.005373072500030194,-0.5134823096295195
0.22425921261310577,2.6098296642303467,-92.10746002197266,-0.005382801327440471,-0.4050574016622783,-0.005373072500030194,-0.5134823096295195
1.0497617721557617,3.3185579776763916,-93.15340423583984,-0.005382801327440471,-0.4050574016622783,-0.005373072500030194,-0.5134823096295195
-1.0015265941619873,1.7643043994903564,-94.40434265136719,-0.005382801327440471,-0.4050574016622783,-0.005373072500030194,-0.5134823096295195
0.7119067311286926,1.8288806676864624,-95.85888671875,-0.005382801327440471,-0.4050574016622783,-0.005373072500030194,-0.5134823096295195
-0.18195773661136627,1.3430627584457397,-97.5471420288086,-0.005382801327440471,-0.4050574016622783,-0.005373072500030194,-0.5134823096295195
-0.7350859642028809,1.7627513408660889,-99.35994720458984,-0.005382801327440471,-0.4050574016622783,-0.005373072500030194,-0.5134823096295195
0.4596359431743622,1.7995550632476807,-101.29265594482422,-0.005382801327440471,-0.4050574016622783,-0.005373072500030194,-0.5134823096295195
-1.3398808240890503,1.8015435934066772,-103.32051849365234,-0.005382801327440471,-0.4050574016622783,-0.005373072500030194,-0.5134823096295195
0.760785698890686,0.7944751381874084,-105.45879364013672,-0.005382801327440471,-0.4050574016622783,-0.005373072500030194,-0.5134823096295195
-0.9555596709251404,1.085747480392456,-107.67694854736328,-0.005382801327440471,-0.4050574016622783,-0.005373072500030194,-0.5134823096295195
-1.0585792064666748,0.8026492595672607,-110.07112121582031,-0.005382801327440471,-0.4050574016622783,-0.005373072500030194,-0.5134823096295195
1.1001040935516357,1.7393122911453247,-112.49962615966797,-0.005382801327440471,-0.4050574016622783,-0.005373072500030194,-0.5134823096295195
-0.862350583076477,1.3936808109283447,-115.01376342773438,-0.005382801327440471,-0.4050574016622783,-0.005373072500030194,-0.5134823096295195
1.7005201578140259,1.2661988735198975,-117.51802062988281,-0.005382801327440471,-0.4050574016622783,-0.005373072500030194,-0.5134823096295195
-1.5709656476974487,0.8341231346130371,-120.01844787597656,-0.005382801327440471,-0.4050574016622783,-0.005373072500030194,-0.5134823096295195
0.5234561562538147,0.4365367591381073,-122.56494903564453,-0.005382801327440471,-0.4050574016622783,-0.005373072500030194,-0.5134823096295195
-0.25174757838249207,1.46259605884552,-125.18160247802734,-0.005382801327440471,-0.4050574016622783,-0.005373072500030194,-0.5134823096295195
-1.7259719371795654,1.1365872621536255,-127.84687042236328,-0.005382801327440471,-0.4050574016622783,-0.005373072500030194,-0.5134823096295195
0.9796178340911865,0.7720596790313721,-130.5097198486328,-0.005382801327440471,-0.4050574016622783,-0.005373072500030194,-0.5134823096295195
0.8577985763549805,1.1031873226165771,-133.20738220214844,-0.005382801327440471,-0.4050574016622783,-0.005373072500030194,-0.5134823096295195
-1.0654807090759277,1.0349550247192383,-135.8809051513672,-0.005382801327440471,-0.4050574016622783,-0.005373072500030194,-0.5134823096295195
-0.18440651893615723,0.06505201756954193,-138.49114990234375,-0.005382801327440471,-0.4050574016622783,-0.005373072500030194,-0.5134823096295195
0.18890362977981567,1.0949816703796387,-141.09609985351562,-0.005382801327440471,-0.4050574016622783,-0.005373072500030194,-0.5134823096295195
-0.24320223927497864,0.8565131425857544,-143.67002868652344,-0.005382801327440471,-0.4050574016622783,-0.005373072500030194,-0.5134823096295195
1.3097970485687256,0.06696653366088867,-146.2416534423828,-0.005382801327440471,-0.4050574016622783,-0.005373072500030194,-0.5134823096295195
-1.4145891666412354,1.1640440225601196,-148.8214569091797,-0.005382801327440471,-0.4050574016622783,-0.005373072500030194,-0.5134823096295195
1.5360172986984253,-0.019718952476978302,-151.454833984375,-0.005382801327440471,-0.4050574016622783,-0.005373072500030194,-0.5134823096295195
0.2109871804714203,0.9094074368476868,-154.158935546875,-0.005382801327440471,-0.4050574016622783,-0.005373072500030194,-0.5134823096295195
-0.028405524790287018,0.6970933675765991,-156.93838500976562,-0.005382801327440471,-0.4050574016622783,-0.005373072500030194,-0.5134823096295195
0.5513816475868225,0.2159520983695984,-159.7671661376953,-0.005382801327440471,-0.4050574016622783,-0.005373072500030194,-0.5134823096295195
-0.7854218482971191,0.9792122840881348,-162.64024353027344,-0.005382801327440471,-0.4050574016622783,-0.005373072500030194,-0.5134823096295195
1.1997886896133423,0.5881969332695007,-165.553466796875,-0.005382801327440471,-0.4050574016622783,-0.005373072500030194,-0.5134823096295195
0.15565860271453857,0.20669390261173248,-168.44754028320312,-0.005382801327440471,-0.4050574016622783,-0.005373072500030194,-0.5134823096295195
0.6026053428649902,0.20284131169319153,-171.3498992919922,-0.005382801327440471,-0.4050574016622783,-0.005373072500030194,-0.5134823096295195
0.401188462972641,1.0139954090118408,-174.26344299316406,-0.005382801327440471,-0.4050574016622783,-0.005373072500030194,-0.5134823096295195
-0.07379812747240067,0.09438154846429825,-177.2065887451172,-0.005382801327440471,-0.4050574016622783,-0.005373072500030194,-0.5134823096295195
0.17258326709270477,0.07298330962657928,179.8736572265625,-0.005382801327440471,-0.4050574016622783,-0.005373072500030194,-0.5134823096295195
0.8700443506240845,0.2403971552848816,177.0104522705078,-0.005382801327440471,-0.4050574016622783,-0.005373072500030194,-0.5134823096295195
0.6264052987098694,-1.0267378091812134,174.12213134765625,-0.005382801327440471,-0.4050574016622783,-0.005373072500030194,-0.5134823096295195
-1.3762421607971191,1.996875286102295,171.34783935546875,-0.005382801327440471,-0.4050574016622783,-0.005373072500030194,-0.5134823096295195
0.9389582872390747,-0.40046027302742004,168.51730346679688,-0.005382801327440471,-0.4050574016622783,-0.005373072500030194,-0.5134823096295195
0.83880615234375,0.1663530170917511,165.63140869140625,-0.005382801327440471,-0.4050574016622783,-0.005373072500030194,-0.5134823096295195
1.2334997653961182,0.7378829121589661,162.73318481445312,-0.005382801327440471,-0.4050574016622783,-0.005373072500030194,-0.5134823096295195
0.021743226796388626,-1.3707082271575928,159.8341064453125,-0.005382801327440471,-0.4050574016622783,-0.005373072500030194,-0.5134823096295195
0.28733575344085693,1.8513355255126953,156.87928771972656,-0.005382801327440471,-0.4050574016622783,-0.005373072500030194,-0.5134823096295195
0.3559522330760956,-1.2559475898742676,153.83474731445312,-0.005382801327440471,-0.4050574016622783,-0.005373072500030194,-0.5134823096295195
0.49070772528648376,1.4144585132598877,150.87171936035156,-0.005382801327440471,-0.4050574016622783,-0.005373072500030194,-0.5134823096295195
-0.4808416962623596,-1.3905895948410034,147.94046020507812,-0.005382801327440471,-0.4050574016622783,-0.005373072500030194,-0.5134823096295195
0.8700385689735413,1.0817633867263794,145.01686096191406,-0.005382801327440471,-0.4050574016622783,-0.005373072500030194,-0.5134823096295195
0.5605924725532532,-1.583877444267273,142.13192749023438,-0.005382801327440471,-0.4050574016622783,-0.005373072500030194,-0.5134823096295195
0.055007148534059525,-0.7539244890213013,139.310546875,-0.005382801327440471,-0.4050574016622783,-0.005373072500030194,-0.5134823096295195
0.04844658821821213,1.2343672513961792,136.5358123779297,-0.005382801327440471,-0.4050574016622783,-0.005373072500030194,-0.5134823096295195
0.11521335691213608,-0.5902743935585022,133.81639099121094,-0.005382801327440471,-0.4050574016622783,-0.005373072500030194,-0.5134823096295195
0.358936607837677,-0.41336244344711304,131.1788330078125,-0.005382801327440471,-0.4050574016622783,-0.005373072500030194,-0.5134823096295195
0.19155727326869965,0.41685134172439575,128.5814971923828,-0.005382801327440471,-0.4050574016622783,-0.005373072500030194,-0.5134823096295195
0.14080291986465454,-0.8607533574104309,126.00804138183594,-0.005382801327440471,-0.4050574016622783,-0.005373072500030194,-0.5134823096295195
0.44825074076652527,1.6538732051849365,123.59724426269531,-0.005382801327440471,-0.4050574016622783,-0.005373072500030194,-0.5134823096295195
0.004392207600176334,-1.1825664043426514,121.10142517089844,-0.005382801327440471,-0.4050574016622783,-0.005373072500030194,-0.5134823096295195
0.6709258556365967,1.951721429824829,118.59969329833984,-0.005382801327440471,-0.4050574016622783,-0.005373072500030194,-0.5134823096295195
-0.059977054595947266,-1.7519810199737549,116.01589965820312,-0.005382801327440471,-0.4050574016622783,-0.005373072500030194,-0.5134823096295195
1.0677913427352905,0.7235972285270691,113.3101577758789,-0.005382801327440471,-0.4050574016622783,-0.005373072500030194,-0.5134823096295195
-0.9806506037712097,-0.9564428925514221,110.49108123779297,-0.005382801327440471,-0.4050574016622783,-0.005373072500030194,-0.5134823096295195
1.5460504293441772,1.0656328201293945,107.64778137207031,-0.005382801327440471,-0.4050574016622783,-0.005373072500030194,-0.5134823096295195
-0.2917007803916931,-1.116986632347107,104.83336639404297,-0.005382801327440471,-0.4050574016622783,-0.005373072500030194,-0.5134823096295195
0.7862192988395691,0.7294996976852417,102.14176177978516,-0.005382801327440471,-0.4050574016622783,-0.005373072500030194,-0.5134823096295195
-0.6227919459342957,-0.6581759452819824,99.50917053222656,-0.005382801327440471,-0.4050574016622783,-0.005373072500030194,-0.5134823096295195
0.42468416690826416,0.02884732186794281,96.87248229980469,-0.005382801327440471,-0.4050574016622783,-0.005373072500030194,-0.5134823096295195
-0.1732771098613739,-0.9855553507804871,94.26519012451172,-0.005382801327440471,-0.4050574016622783,-0.005373072500030194,-0.5134823096295195
0.5571122169494629,1.4870883226394653,91.68556213378906,-0.005382801327440471,-0.4050574016622783,-0.005373072500030194,-0.5134823096295195
0.5623398423194885,-0.24069744348526,89.05304718017578,-0.005382801327440471,-0.4050574016622783,-0.005373072500030194,-0.5134823096295195
-0.5201253890991211,-0.20074231922626495,86.54319763183594,-0.005382801327440471,-0.4050574016622783,-0.005373072500030194,-0.5134823096295195
0.7957080006599426,0.01207671221345663,83.8001937866211,-0.005382801327440471,-0.4050574016622783,-0.005373072500030194,-0.5134823096295195
-1.4341473579406738,-1.6209899187088013,80.98126983642578,-0.005382801327440471,-0.4050574016622783,-0.005373072500030194,-0.5134823096295195
-0.4064943790435791,-0.7203864455223083,78.1334457397461,-0.005382801327440471,-0.4050574016622783,-0.005373072500030194,-0.5134823096295195
1.5787845849990845,0.6611326932907104,75.2596664428711,-0.005382801327440471,-0.4050574016622783,-0.005373072500030194,-0.5134823096295195
-0.7650322318077087,-0.4523240923881531,72.2690658569336,-0.005382801327440471,-0.4050574016622783,-0.005373072500030194,-0.5134823096295195
-1.3611466884613037,-0.25025683641433716,69.26152038574219,-0.005382801327440471,-0.4050574016622783,-0.005373072500030194,-0.5134823096295195
1.222245693206787,-0.15400326251983643,66.22649383544922,-0.005382801327440471,-0.4050574016622783,-0.005373072500030194,-0.5134823096295195
-0.989987850189209,0.2502709925174713,63.12123489379883,-0.005382801327440471,-0.4050574016622783,-0.005373072500030194,-0.5134823096295195
0.37993597984313965,-0.538231372833252,60.02760314941406,-0.005382801327440471,-0.4050574016622783,-0.005373072500030194,-0.5134823096295195
0.7250927090644836,-0.31628409028053284,56.87786102294922,-0.005382801327440471,-0.4050574016622783,-0.005373072500030194,-0.5134823096295195
-1.3097338676452637,0.21611428260803223,53.76266860961914,-0.005382801327440471,-0.4050574016622783,-0.005373072500030194,-0.5134823096295195
1.215264916419983,-1.5138623714447021,50.74900817871094,-0.005382801327440471,-0.4050574016622783,-0.005373072500030194,-0.5134823096295195
-1.3637728691101074,0.9750562906265259,47.688228607177734,-0.005382801327440471,-0.4050574016622783,-0.005373072500030194,-0.5134823096295195
-0.045491546392440796,-0.39452818036079407,44.64993667602539,-0.005382801327440471,-0.4050574016622783,-0.005373072500030194,-0.5134823096295195
-0.7302675843238831,-0.6080282926559448,41.53776931762695,-0.005382801327440471,-0.4050574016622783,-0.005373072500030194,-0.5134823096295195
0.12249290943145752,0.15360431373119354,38.50543212890625,-0.005382801327440471,-0.4050574016622783,-0.005373072500030194,-0.5134823096295195
1.01040780544281,0.45745015144348145,35.38304138183594,-0.005382801327440471,-0.4050574016622783,-0.005373072500030194,-0.5134823096295195
-1.1664907932281494,-0.799733579158783,32.25444793701172,-0.005382801327440471,-0.4050574016622783,-0.005373072500030194,-0.5134823096295195
-0.5173315405845642,0.17671458423137665,29.126201629638672,-0.005382801327440471,-0.4050574016622783,-0.005373072500030194,-0.5134823096295195
0.2231491208076477,-0.17777642607688904,26.08306884765625,-0.005382801327440471,-0.4050574016622783,-0.005373072500030194,-0.5134823096295195
-0.10445301979780197,0.5194845199584961,23.062068939208984,-0.005382801327440471,-0.4050574016622783,-0.005373072500030194,-0.5134823096295195
-0.7051149606704712,-0.2168145775794983,20.023305892944336,-0.005382801327440471,-0.4050574016622783,-0.005373072500030194,-0.5134823096295195
-0.4385592043399811,-0.017610620707273483,17.050846099853516,-0.005382801327440471,-0.4050574016622783,-0.005373072500030194,-0.5134823096295195
-0.22112850844860077,-0.1251954734325409,14.104646682739258,-0.005382801327440471,-0.4050574016622783,-0.005373072500030194,-0.5134823096295195
0.005481905769556761,-0.07664051651954651,11.164938926696777,-0.005382801327440471,-0.4050574016622783,-0.005373072500030194,-0.5134823096295195
-0.17244994640350342,-0.44487425684928894,8.23659610748291,-0.005382801327440471,-0.4050574016622783,-0.005373072500030194,-0.5134823096295195
-0.7045028805732727,0.3273414969444275,5.336737632751465,-0.005382801327440471,-0.4050574016622783,-0.005373072500030194,-0.5134823096295195
0.16769950091838837,-0.21690727770328522,2.3291330337524414,-0.005382801327440471,-0.4050574016622783,-0.005373072500030194,-0.5134823096295195
-2.0733609199523926,0.7475613355636597,-0.5948960781097412,-0.005382801327440471,-0.4050574016622783,-0.005373072500030194,-0.5134823096295195
0.5215291380882263,0.3918013274669647,-3.5149006843566895,-0.005382801327440471,-0.4050574016622783,-0.005373072500030194,-0.5134823096295195
0.5638691186904907,-0.25520479679107666,-6.485535621643066,-0.005382801327440471,-0.4050574016622783,-0.005373072500030194,-0.5134823096295195
-0.5489135384559631,0.15509764850139618,-9.507097244262695,-0.005382801327440471,-0.4050574016622783,-0.005373072500030194,-0.5134823096295195
-0.6578340530395508,0.20470386743545532,-12.542593002319336,-0.005382801327440471,-0.4050574016622783,-0.005373072500030194,-0.5134823096295195
-0.16962401568889618,0.31443703174591064,-15.598244667053223,-0.005382801327440471,-0.4050574016622783,-0.005373072500030194,-0.5134823096295195
-0.12433718144893646,-0.04913843795657158,-18.731082916259766,-0.005382801327440471,-0.4050574016622783,-0.005373072500030194,-0.5134823096295195
-0.3056107759475708,0.3314184248447418,-21.898025512695312,-0.005382801327440471,-0.4050574016622783,-0.005373072500030194,-0.5134823096295195
-0.43387869000434875,0.6960042119026184,-25.07657241821289,-0.005382801327440471,-0.4050574016622783,-0.005373072500030194,-0.5134823096295195
-1.0942802429199219,0.15249544382095337,-28.25292205810547,-0.005382801327440471,-0.4050574016622783,-0.005373072500030194,-0.5134823096295195
-0.12834979593753815,0.9256117343902588,-31.493606567382812,-0.005382801327440471,-0.4050574016622783,-0.005373072500030194,-0.5134823096295195
0.5055028796195984,-0.29327404499053955,-34.737796783447266,-0.005382801327440471,-0.4050574016622783,-0.005373072500030194,-0.5134823096295195
-0.6437205076217651,0.37643685936927795,-38.041812896728516,-0.005382801327440471,-0.4050574016622783,-0.005373072500030194,-0.5134823096295195
-0.33141523599624634,-2.122938871383667,-41.366371154785156,-0.005382801327440471,-0.4050574016622783,-0.005373072500030194,-0.5134823096295195
0.2556685209274292,2.1003081798553467,-44.649044036865234,-0.005382801327440471,-0.4050574016622783,-0.005373072500030194,-0.5134823096295195
-1.1910309791564941,-0.7334270477294922,-47.893497467041016,-0.005382801327440471,-0.4050574016622783,-0.005373072500030194,-0.5134823096295195
0.03181420639157295,1.5784927606582642,-51.101863861083984,-0.005382801327440471,-0.4050574016622783,-0.005373072500030194,-0.5134823096295195
-0.3457189202308655,0.8846525549888611,-54.358150482177734,-0.005382801327440471,-0.4050574016622783,-0.005373072500030194,-0.5134823096295195
0.3756321668624878,0.5636798143386841,-57.49486541748047,-0.005382801327440471,-0.4050574016622783,-0.005373072500030194,-0.5134823096295195
0.11333192884922028,0.4565461575984955,-60.63280487060547,-0.005382801327440471,-0.4050574016622783,-0.005373072500030194,-0.5134823096295195
-0.054875973612070084,0.057587701827287674,-63.71479797363281,-0.005382801327440471,-0.4050574016622783,-0.005373072500030194,-0.5134823096295195
-0.1757301241159439,0.9518998861312866,-66.7479248046875,-0.005382801327440471,-0.4050574016622783,-0.005373072500030194,-0.5134823096295195
0.6579951047897339,-0.22441351413726807,-69.7034912109375,-0.005382801327440471,-0.4050574016622783,-0.005373072500030194,-0.5134823096295195
0.05159524083137512,0.8445096015930176,-72.76932525634766,-0.005382801327440471,-0.4050574016622783,-0.005373072500030194,-0.5134823096295195
-0.7000257968902588,-0.28246212005615234,-75.72793579101562,-0.005382801327440471,-0.4050574016622783,-0.005373072500030194,-0.5134823096295195
1.1813099384307861,1.53902268409729,-78.68590545654297,-0.005382801327440471,-0.4050574016622783,-0.005373072500030194,-0.5134823096295195
-0.6709396243095398,-0.4162631332874298,-81.81220245361328,-0.005382801327440471,-0.4050574016622783,-0.005373072500030194,-0.5134823096295195
1.8651270866394043,3.076249122619629,-84.98066711425781,-0.005382801327440471,-0.4050574016622783,-0.005373072500030194,-0.5134823096295195
-1.457972526550293,-0.47430679202079773,-88.16090393066406,-0.005382801327440471,-0.4050574016622783,-0.005373072500030194,-0.5134823096295195
0.5631956458091736,-0.24226698279380798,-91.4540786743164,-0.005382801327440471,-0.4050574016622783,-0.005373072500030194,-0.5134823096295195
0.032673850655555725,0.5359981656074524,-94.7711410522461,-0.005382801327440471,-0.4050574016622783,-0.005373072500030194,-0.5134823096295195
-0.7985474467277527,-0.010796294547617435,-98.00773620605469,-0.005382801327440471,-0.4050574016622783,-0.005373072500030194,-0.5134823096295195
1.2610681056976318,0.8604310154914856,-101.3523178100586,-0.005382801327440471,-0.4050574016622783,-0.005373072500030194,-0.5134823096295195
-0.7085084915161133,0.9304298758506775,-104.53556823730469,-0.005382801327440471,-0.4050574016622783,-0.005373072500030194,-0.5134823096295195
0.4998382329940796,0.8635247945785522,-107.80342102050781,-0.005382801327440471,-0.4050574016622783,-0.005373072500030194,-0.5134823096295195
0.5367239117622375,-0.1413571685552597,-111.06731414794922,-0.005382801327440471,-0.4050574016622783,-0.005373072500030194,-0.5134823096295195
-0.868099570274353,0.6274685263633728,-114.2789535522461,-0.005382801327440471,-0.4050574016622783,-0.005373072500030194,-0.5134823096295195
1.3787248134613037,0.07517584413290024,-117.44412231445312,-0.005382801327440471,-0.4050574016622783,-0.005373072500030194,-0.5134823096295195
-0.18343012034893036,0.9853471517562866,-120.60995483398438,-0.005382801327440471,-0.4050574016622783,-0.005373072500030194,-0.5134823096295195
0.3886754810810089,-0.6316693425178528,-123.8349380493164,-0.005382801327440471,-0.4050574016622783,-0.005373072500030194,-0.5134823096295195
0.29141104221343994,1.7183479070663452,-127.13434600830078,-0.005382801327440471,-0.4050574016622783,-0.005373072500030194,-0.5134823096295195
-0.7635120749473572,-0.3718123137950897,-130.42025756835938,-0.005382801327440471,-0.4050574016622783,-0.005373072500030194,-0.5134823096295195
0.877873957157135,0.7733988761901855,-133.74024963378906,-0.005382801327440471,-0.4050574016622783,-0.005373072500030194,-0.5134823096295195
0.20606984198093414,0.3836590647697449,-137.07730102539062,-0.005382801327440471,-0.4050574016622783,-0.005373072500030194,-0.5134823096295195
0.829116702079773,0.015022044070065022,-140.41195678710938,-0.005382801327440471,-0.4050574016622783,-0.005373072500030194,-0.5134823096295195
1.4664307832717896,0.7147282361984253,-143.7084197998047,-0.005382801327440471,-0.4050574016622783,-0.005373072500030194,-0.5134823096295195
-0.6587813496589661,0.8834831714630127,-146.93003845214844,-0.005382801327440471,-0.4050574016622783,-0.005373072500030194,-0.5134823096295195
1.478799819946289,-0.7076443433761597,-150.1684112548828,-0.005382801327440471,-0.4050574016622783,-0.005373072500030194,-0.5134823096295195
-0.7397983074188232,0.3932992219924927,-153.269287109375,-0.005382801327440471,-0.4050574016622783,-0.005373072500030194,-0.5134823096295195
0.8623477220535278,0.2431744635105133,-156.34786987304688,-0.005382801327440471,-0.4050574016622783,-0.005373072500030194,-0.5134823096295195
0.6549956798553467,-0.026442082598805428,-159.2860870361328,-0.005382801327440471,-0.4050574016622783,-0.005373072500030194,-0.5134823096295195
0.9725633263587952,-0.4608939290046692,-162.117431640625,-0.005382801327440471,-0.4050574016622783,-0.005373072500030194,-0.5134823096295195
-0.7310607433319092,1.0544902086257935,-165.0321502685547,-0.005382801327440471,-0.4050574016622783,-0.005373072500030194,-0.5134823096295195
1.6801329851150513,-1.488651156425476,-168.01133728027344,-0.005382801327440471,-0.4050574016622783,-0.005373072500030194,-0.5134823096295195
-0.3939477205276489,2.2486093044281006,-170.73849487304688,-0.005382801327440471,-0.4050574016622783,-0.005373072500030194,-0.5134823096295195
1.3925182819366455,-1.4943912029266357,-173.4258575439453,-0.005382801327440471,-0.4050574016622783,-0.005373072500030194,-0.5134823096295195
-2.259467601776123,0.8430448174476624,-176.2071990966797,-0.005382801327440471,-0.4050574016622783,-0.005373072500030194,-0.5134823096295195
1.6950573921203613,0.03397492691874504,-179.1015167236328,-0.005382801327440471,-0.4050574016622783,-0.005373072500030194,-0.5134823096295195
-0.008707335218787193,0.3857409358024597,178.0171356201172,-0.005382801327440471,-0.4050574016622783,-0.005373072500030194,-0.5134823096295195
1.3460028171539307,-0.4203302264213562,175.04925537109375,-0.005382801327440471,-0.4050574016622783,-0.005373072500030194,-0.5134823096295195
-0.7360260486602783,1.1124207973480225,172.00558471679688,-0.005382801327440471,-0.4050574016622783,-0.005373072500030194,-0.5134823096295195
0.6471605896949768,-1.2127605676651,168.9000701904297,-0.005382801327440471,-0.4050574016622783,-0.005373072500030194,-0.5134823096295195
0.6140576004981995,1.6788749694824219,165.84608459472656,-0.005382801327440471,-0.4050574016622783,-0.005373072500030194,-0.5134823096295195
0.86064612865448,-1.314037799835205,162.75799560546875,-0.005382801327440471,-0.4050574016622783,-0.005373072500030194,-0.5134823096295195
0.7554075717926025,0.7227321267127991,159.76699829101562,-0.005382801327440471,-0.4050574016622783,-0.005373072500030194,-0.5134823096295195
0.06644818931818008,-0.38059577345848083,156.720458984375,-0.005382801327440471,-0.4050574016622783,-0.005373072500030194,-0.5134823096295195
0.5779348015785217,-0.9910422563552856,153.66773986816406,-0.005382801327440471,-0.4050574016622783,-0.005373072500030194,-0.5134823096295195
0.4771949052810669,0.9573150277137756,150.61009216308594,-0.005382801327440471,-0.4050574016622783,-0.005373072500030194,-0.5134823096295195
-0.3937928378582001,-0.6615884900093079,147.56105041503906,-0.005382801327440471,-0.4050574016622783,-0.005373072500030194,-0.5134823096295195
0.8990266919136047,0.07080022990703583,144.5414581298828,-0.005382801327440471,-0.4050574016622783,-0.005373072500030194,-0.5134823096295195
0.44515344500541687,0.3013513684272766,141.57467651367188,-0.005382801327440471,-0.4050574016622783,-0.005373072500030194,-0.5134823096295195
0.0995287075638771,-1.393627405166626,138.51727294921875,-0.005382801327440471,-0.4050574016622783,-0.005373072500030194,-0.5134823096295195
0.5470289587974548,0.15101219713687897,135.48367309570312,-0.005382801327440471,-0.4050574016622783,-0.005373072500030194,-0.5134823096295195
0.3111903965473175,-1.384671926498413,132.39222717285156,-0.005382801327440471,-0.4050574016622783,-0.005373072500030194,-0.5134823096295195
-0.19795094430446625,0.2054298371076584,129.33489990234375,-0.005382801327440471,-0.4050574016622783,-0.005373072500030194,-0.5134823096295195
0.3200286328792572,-0.814632773399353,126.25012969970703,-0.005382801327440471,-0.4050574016622783,-0.005373072500030194,-0.5134823096295195
0.34523844718933105,0.19131195545196533,123.1854248046875,-0.005382801327440471,-0.4050574016622783,-0.005373072500030194,-0.5134823096295195
0.4330088794231415,-0.40341439843177795,120.11468505859375,-0.005382801327440471,-0.4050574016622783,-0.005373072500030194,-0.5134823096295195
-0.3671514689922333,-1.1033971309661865,117.0685043334961,-0.005382801327440471,-0.4050574016622783,-0.005373072500030194,-0.5134823096295195
1.223435401916504,0.985158383846283,114.09982299804688,-0.005382801327440471,-0.4050574016622783,-0.005373072500030194,-0.5134823096295195
-0.9304791688919067,-0.9784455299377441,111.24314880371094,-0.005382801327440471,-0.4050574016622783,-0.005373072500030194,-0.5134823096295195
0.2815815508365631,-0.44407370686531067,108.47686004638672,-0.005382801327440471,-0.4050574016622783,-0.005373072500030194,-0.5134823096295195
0.8393628001213074,-0.8317182660102844,105.56182098388672,-0.005382801327440471,-0.4050574016622783,-0.005373072500030194,-0.5134823096295195
-1.3684256076812744,-1.3982561826705933,102.6261978149414,-0.005382801327440471,-0.4050574016622783,-0.005373072500030194,-0.5134823096295195
0.7483466267585754,0.2205478549003601,99.61903381347656,-0.005382801327440471,-0.4050574016622783,-0.005373072500030194,-0.5134823096295195
0.3734799325466156,1.0836234092712402,96.5732650756836,-0.005382801327440471,-0.4050574016622783,-0.005373072500030194,-0.5134823096295195
-0.3158932030200958,-0.4194870591163635,93.46275329589844,-0.005382801327440471,-0.4050574016622783,-0.005373072500030194,-0.5134823096295195
0.9004647731781006,-0.6723477840423584,90.40673065185547,-0.005382801327440471,-0.4050574016622783,-0.005373072500030194,-0.5134823096295195
-0.3900532126426697,-0.059824444353580475,87.35539245605469,-0.005382801327440471,-0.4050574016622783,-0.005373072500030194,-0.5134823096295195
0.7874994277954102,0.17946884036064148,84.36112976074219,-0.005382801327440471,-0.4050574016622783,-0.005373072500030194,-0.5134823096295195
-1.389292597770691,-1.224326491355896,81.35778045654297,-0.005382801327440471,-0.4050574016622783,-0.005373072500030194,-0.5134823096295195
1.0714024305343628,0.596541166305542,78.35398864746094,-0.005382801327440471,-0.4050574016622783,-0.005373072500030194,-0.5134823096295195
-0.25206300616264343,0.23822329938411713,75.33100891113281,-0.005382801327440471,-0.4050574016622783,-0.005373072500030194,-0.5134823096295195
0.5570819973945618,-1.4151660203933716,72.30829620361328,-0.005382801327440471,-0.4050574016622783,-0.005373072500030194,-0.5134823096295195
-0.27698755264282227,-0.5932433009147644,69.3803482055664,-0.005382801327440471,-0.4050574016622783,-0.005373072500030194,-0.5134823096295195
-0.23975366353988647,0.0917537584900856,66.42634582519531,-0.005382801327440471,-0.4050574016622783,-0.005373072500030194,-0.5134823096295195
0.6928540468215942,-0.3392619788646698,63.45058059692383,-0.005382801327440471,-0.4050574016622783,-0.005373072500030194,-0.5134823096295195
-0.6029642224311829,-0.5321735739707947,60.45734405517578,-0.005382801327440471,-0.4050574016622783,-0.005373072500030194,-0.5134823096295195
0.8601585030555725,-0.04754725471138954,57.4902229309082,-0.005382801327440471,-0.4050574016622783,-0.005373072500030194,-0.5134823096295195
-1.0307973623275757,0.12531985342502594,54.467952728271484,-0.005382801327440471,-0.4050574016622783,-0.005373072500030194,-0.5134823096295195
0.8025323748588562,-0.8017433285713196,51.42987060546875,-0.005382801327440471,-0.4050574016622783,-0.005373072500030194,-0.5134823096295195
-1.5082443952560425,0.04038197919726372,48.2666130065918,-0.005382801327440471,-0.4050574016622783,-0.005373072500030194,-0.5134823096295195
0.2749262750148773,-0.7136803865432739,45.07463836669922,-0.005382801327440471,-0.4050574016622783,-0.005373072500030194,-0.5134823096295195
-0.8042635917663574,-0.054753683507442474,41.899986267089844,-0.005382801327440471,-0.4050574016622783,-0.005373072500030194,-0.5134823096295195
0.9629282355308533,-0.3759315013885498,38.71816635131836,-0.005382801327440471,-0.4050574016622783,-0.005373072500030194,-0.5134823096295195
-0.6080631017684937,0.4424867630004883,35.556488037109375,-0.005382801327440471,-0.4050574016622783,-0.005373072500030194,-0.5134823096295195
-0.574156641960144,-0.026902109384536743,32.36090087890625,-0.005382801327440471,-0.4050574016622783,-0.005373072500030194,-0.5134823096295195
0.921047031879425,-0.8538815975189209,29.247802734375,-0.005382801327440471,-0.4050574016622783,-0.005373072500030194,-0.5134823096295195
-1.087941288948059,0.45192956924438477,26.175874710083008,-0.005382801327440471,-0.4050574016622783,-0.005373072500030194,-0.5134823096295195
-0.18135006725788116,-1.0211654901504517,23.051532745361328,-0.005382801327440471,-0.4050574016622783,-0.005373072500030194,-0.5134823096295195
-1.4588782787322998,1.076797366142273,19.824832916259766,-0.005382801327440471,-0.4050574016622783,-0.005373072500030194,-0.5134823096295195
-0.6247712969779968,0.33076557517051697,16.627534866333008,-0.005382801327440471,-0.4050574016622783,-0.005373072500030194,-0.5134823096295195
0.04299570620059967,-1.2791415452957153,13.408700942993164,-0.005382801327440471,-0.4050574016622783,-0.005373072500030194,-0.5134823096295195
-0.3937329351902008,0.3819296658039093,10.283348083496094,-0.005382801327440471,-0.4050574016622783,-0.005373072500030194,-0.5134823096295195
-0.7204012870788574,0.6254010200500488,7.123112201690674,-0.005382801327440471,-0.4050574016622783,-0.005373072500030194,-0.5134823096295195
-0.05224490165710449,-0.8083495497703552,3.975604295730591,-0.005382801327440471,-0.4050574016622783,-0.005373072500030194,-0.5134823096295195
-0.20420566201210022,0.7239289879798889,0.8415993452072144,-0.005382801327440471,-0.4050574016622783,-0.005373072500030194,-0.5134823096295195
-0.49520671367645264,0.014751079492270947,-2.282155990600586,-0.005382801327440471,-0.4050574016622783,-0.005373072500030194,-0.5134823096295195
-0.9846758246421814,0.20663116872310638,-5.437896728515625,-0.005382801327440471,-0.4050574016622783,-0.005373072500030194,-0.5134823096295195
-1.1139354705810547,0.5461494326591492,-8.617568016052246,-0.005382801327440471,-0.4050574016622783,-0.005373072500030194,-0.5134823096295195
-0.028686590492725372,0.05308176204562187,-11.788938522338867,-0.005382801327440471,-0.4050574016622783,-0.005373072500030194,-0.5134823096295195
0.2655108869075775,0.08081011474132538,-14.997958183288574,-0.005382801327440471,-0.4050574016622783,-0.005373072500030194,-0.5134823096295195
-0.22813598811626434,0.8789381384849548,-18.213911056518555,-0.005382801327440471,-0.4050574016622783,-0.005373072500030194,-0.5134823096295195
-0.6600614786148071,0.29199403524398804,-21.386873245239258,-0.005382801327440471,-0.4050574016622783,-0.005373072500030194,-0.5134823096295195
0.17119137942790985,-0.5106421113014221,-24.53514862060547,-0.005382801327440471,-0.4050574016622783,-0.005373072500030194,-0.5134823096295195
-0.14004573225975037,-0.09804952144622803,-27.741865158081055,-0.005382801327440471,-0.4050574016622783,-0.005373072500030194,-0.5134823096295195
-0.7840578556060791,0.118306465446949,-31.007911682128906,-0.005382801327440471,-0.4050574016622783,-0.005373072500030194,-0.5134823096295195
-0.3949161469936371,0.11737774312496185,-34.25959396362305,-0.005382801327440471,-0.4050574016622783,-0.005373072500030194,-0.5134823096295195
-0.0069804564118385315,0.5209890007972717,-37.5440673828125,-0.005382801327440471,-0.4050574016622783,-0.005373072500030194,-0.5134823096295195
-0.8137645125389099,-0.050620608031749725,-40.751548767089844,-0.005382801327440471,-0.4050574016622783,-0.005373072500030194,-0.5134823096295195
-0.24874694645404816,0.8081480860710144,-43.94208526611328,-0.005382801327440471,-0.4050574016622783,-0.005373072500030194,-0.5134823096295195
0.09731877595186234,-0.02033398672938347,-47.17980194091797,-0.005382801327440471,-0.4050574016622783,-0.005373072500030194,-0.5134823096295195
-0.7498761415481567,1.1959826946258545,-50.40687561035156,-0.005382801327440471,-0.4050574016622783,-0.005373072500030194,-0.5134823096295195
-0.15142855048179626,0.5605225563049316,-53.665645599365234,-0.005382801327440471,-0.4050574016622783,-0.005373072500030194,-0.5134823096295195
0.853801429271698,0.6417205929756165,-56.94355392456055,-0.005382801327440471,-0.4050574016622783,-0.005373072500030194,-0.5134823096295195
-0.1060941070318222,-1.3129949569702148,-60.329586029052734,-0.005382801327440471,-0.4050574016622783,-0.005373072500030194,-0.5134823096295195
-1.0925617218017578,-0.9491528868675232,-63.706172943115234,-0.005382801327440471,-0.4050574016622783,-0.005373072500030194,-0.5134823096295195
0.8732352256774902,2.9128048419952393,-67.03981018066406,-0.005382801327440471,-0.4050574016622783,-0.005373072500030194,-0.5134823096295195
-1.06199049949646,-0.5079038143157959,-70.31979370117188,-0.005382801327440471,-0.4050574016622783,-0.005373072500030194,-0.5134823096295195
0.8772392272949219,0.9139786958694458,-73.53864288330078,-0.005382801327440471,-0.4050574016622783,-0.005373072500030194,-0.5134823096295195
-0.10158000141382217,0.6048455238342285,-76.82422637939453,-0.005382801327440471,-0.4050574016622783,-0.005373072500030194,-0.5134823096295195
-0.5759406089782715,0.30503547191619873,-80.12496948242188,-0.005382801327440471,-0.4050574016622783,-0.005373072500030194,-0.5134823096295195
0.7978598475456238,1.184948205947876,-83.41880798339844,-0.005382801327440471,-0.4050574016622783,-0.005373072500030194,-0.5134823096295195
-0.3799532353878021,-0.20919492840766907,-86.63489532470703,-0.005382801327440471,-0.4050574016622783,-0.005373072500030194,-0.5134823096295195
0.02279522642493248,0.9557997584342957,-89.89317321777344,-0.005382801327440471,-0.4050574016622783,-0.005373072500030194,-0.5134823096295195
0.4084556996822357,0.1329597681760788,-93.07666778564453,-0.005382801327440471,-0.4050574016622783,-0.005373072500030194,-0.5134823096295195
0.02194622904062271,0.6877326369285583,-96.27489471435547,-0.005382801327440471,-0.4050574016622783,-0.005373072500030194,-0.5134823096295195
-0.3304413855075836,-0.12727193534374237,-99.43546295166016,-0.005382801327440471,-0.4050574016622783,-0.005373072500030194,-0.5134823096295195
-0.06095866113901138,0.23323728144168854,-102.60594940185547,-0.005382801327440471,-0.4050574016622783,-0.005373072500030194,-0.5134823096295195
1.0869441032409668,1.1440833806991577,-105.73019409179688,-0.005382801327440471,-0.4050574016622783,-0.005373072500030194,-0.5134823096295195
0.14387649297714233,0.07304613292217255,-108.8818588256836,-0.005382801327440471,-0.4050574016622783,-0.005373072500030194,-0.5134823096295195
0.11230151355266571,0.037686605006456375,-112.031005859375,-0.005382801327440471,-0.4050574016622783,-0.005373072500030194,-0.5134823096295195
0.3083733022212982,0.4479258060455322,-115.2908935546875,-0.005382801327440471,-0.4050574016622783,-0.005373072500030194,-0.5134823096295195
-1.3865933418273926,-0.026847518980503082,-118.50920867919922,-0.005382801327440471,-0.4050574016622783,-0.005373072500030194,-0.5134823096295195
1.1248841285705566,0.5181012749671936,-121.69284057617188,-0.005382801327440471,-0.4050574016622783,-0.005373072500030194,-0.5134823096295195
-0.2489144504070282,0.15781885385513306,-124.81151580810547,-0.005382801327440471,-0.4050574016622783,-0.005373072500030194,-0.5134823096295195
0.8688629865646362,0.6713718175888062,-127.87006378173828,-0.005382801327440471,-0.4050574016622783,-0.005373072500030194,-0.5134823096295195
0.27531471848487854,-0.2612136900424957,-130.90997314453125,-0.005382801327440471,-0.4050574016622783,-0.005373072500030194,-0.5134823096295195
0.32510125637054443,0.07186067849397659,-133.80128479003906,-0.005382801327440471,-0.4050574016622783,-0.005373072500030194,-0.5134823096295195
0.8642428517341614,-0.5450958013534546,-136.91036987304688,-0.005382801327440471,-0.4050574016622783,-0.005373072500030194,-0.5134823096295195
-0.8430494666099548,1.0972836017608643,-140.0358123779297,-0.005382801327440471,-0.4050574016622783,-0.005373072500030194,-0.5134823096295195
0.44645097851753235,0.026708316057920456,-142.98094177246094,-0.005382801327440471,-0.4050574016622783,-0.005373072500030194,-0.5134823096295195
0.019574826583266258,0.13321147859096527,-145.82839965820312,-0.005382801327440471,-0.4050574016622783,-0.005373072500030194,-0.5134823096295195
1.1071321964263916,0.25152915716171265,-148.71566772460938,-0.005382801327440471,-0.4050574016622783,-0.005373072500030194,-0.5134823096295195
-0.5357275605201721,0.6320822238922119,-151.7172088623047,-0.005382801327440471,-0.4050574016622783,-0.005373072500030194,-0.5134823096295195
3.0540597438812256,-1.6244404315948486,-154.74041748046875,-0.005382801327440471,-0.4050574016622783,-0.005373072500030194,-0.5134823096295195
0.22309742867946625,0.6720051169395447,-157.77049255371094,-0.005382801327440471,-0.4050574016622783,-0.005373072500030194,-0.5134823096295195
-0.6706982254981995,0.5275858044624329,-160.87600708007812,-0.005382801327440471,-0.4050574016622783,-0.005373072500030194,-0.5134823096295195
0.7860423922538757,-0.38978978991508484,-164.02052307128906,-0.005382801327440471,-0.4050574016622783,-0.005373072500030194,-0.5134823096295195
-0.436845988035202,0.5979322195053101,-167.23899841308594,-0.005382801327440471,-0.4050574016622783,-0.005373072500030194,-0.5134823096295195
1.1273994445800781,-0.5417632460594177,-170.438232421875,-0.005382801327440471,-0.4050574016622783,-0.005373072500030194,-0.5134823096295195
-0.497173935174942,0.35940155386924744,-173.57095336914062,-0.005382801327440471,-0.4050574016622783,-0.005373072500030194,-0.5134823096295195
1.299678921699524,0.35432058572769165,-176.78457641601562,-0.005382801327440471,-0.4050574016622783,-0.005373072500030194,-0.5134823096295195
0.10174474865198135,-0.6853730082511902,-179.98049926757812,-0.005382801327440471,-0.4050574016622783,-0.005373072500030194,-0.5134823096295195
0.374822735786438,0.45304927229881287,176.8115234375,-0.005382801327440471,-0.4050574016622783,-0.005373072500030194,-0.5134823096295195
0.2385609894990921,0.2620427906513214,173.66244506835938,-0.005382801327440471,-0.4050574016622783,-0.005373072500030194,-0.5134823096295195
0.4348849952220917,-0.5233401656150818,170.6029815673828,-0.005382801327440471,-0.4050574016622783,-0.005373072500030194,-0.5134823096295195
0.5459632277488708,0.7931864857673645,167.44644165039062,-0.005382801327440471,-0.4050574016622783,-0.005373072500030194,-0.5134823096295195
0.20951633155345917,-2.036992073059082,164.3132781982422,-0.005382801327440471,-0.4050574016622783,-0.005373072500030194,-0.5134823096295195
0.662344217300415,1.2246887683868408,161.176025390625,-0.005382801327440471,-0.4050574016622783,-0.005373072500030194,-0.5134823096295195
-0.07779807597398758,0.20756745338439941,158.00234985351562,-0.005382801327440471,-0.4050574016622783,-0.005373072500030194,-0.5134823096295195
0.828880250453949,-0.9966936707496643,154.82696533203125,-0.005382801327440471,-0.4050574016622783,-0.005373072500030194,-0.5134823096295195
0.7907781004905701,0.6715396642684937,151.5826873779297,-0.005382801327440471,-0.4050574016622783,-0.005373072500030194,-0.5134823096295195
0.18718606233596802,-1.3991678953170776,148.35987854003906,-0.005382801327440471,-0.4050574016622783,-0.005373072500030194,-0.5134823096295195
0.385458767414093,-0.2711086571216583,145.13099670410156,-0.005382801327440471,-0.4050574016622783,-0.005373072500030194,-0.5134823096295195
0.16070494055747986,1.4125169515609741,141.96563720703125,-0.005382801327440471,-0.4050574016622783,-0.005373072500030194,-0.5134823096295195
0.286760151386261,-1.3974732160568237,138.87290954589844,-0.005382801327440471,-0.4050574016622783,-0.005373072500030194,-0.5134823096295195
0.1802428811788559,0.4230957627296448,135.97447204589844,-0.005382801327440471,-0.4050574016622783,-0.005373072500030194,-0.5134823096295195
0.28798019886016846,-1.0280916690826416,133.21224975585938,-0.005382801327440471,-0.4050574016622783,-0.005373072500030194,-0.5134823096295195
-0.0032889058347791433,-1.6185158491134644,130.6589813232422,-0.005382801327440471,-0.4050574016622783,-0.005373072500030194,-0.5134823096295195
-0.5492297410964966,0.17008259892463684,128.0968780517578,-0.005382801327440471,-0.4050574016622783,-0.005373072500030194,-0.5134823096295195
-0.8821561932563782,2.006443500518799,125.57860565185547,-0.005382801327440471,-0.4050574016622783,-0.005373072500030194,-0.5134823096295195
0.6314939856529236,-1.1795735359191895,122.92486572265625,-0.005382801327440471,-0.4050574016622783,-0.005373072500030194,-0.5134823096295195
-0.09705694764852524,-2.3896443843841553,120.34288024902344,-0.005382801327440471,-0.4050574016622783,-0.005373072500030194,-0.5134823096295195
0.44620537757873535,0.5265198349952698,117.78034210205078,-0.005382801327440471,-0.4050574016622783,-0.005373072500030194,-0.5134823096295195
0.3671620190143585,-0.13013754785060883,115.18199920654297,-0.005382801327440471,-0.4050574016622783,-0.005373072500030194,-0.5134823096295195
-0.11127036809921265,-1.1151434183120728,112.53379821777344,-0.005382801327440471,-0.4050574016622783,-0.005373072500030194,-0.5134823096295195
0.497042179107666,-0.10166409611701965,109.7711410522461,-0.005382801327440471,-0.4050574016622783,-0.005373072500030194,-0.5134823096295195
-0.1785055547952652,-0.8374385833740234,106.94766998291016,-0.005382801327440471,-0.4050574016622783,-0.005373072500030194,-0.5134823096295195
0.7890451550483704,0.973471999168396,104.05182647705078,-0.005382801327440471,-0.4050574016622783,-0.005373072500030194,-0.5134823096295195
-0.5334303379058838,-0.2455666959285736,101.12925720214844,-0.005382801327440471,-0.4050574016622783,-0.005373072500030194,-0.5134823096295195
0.7097066044807434,-0.48663029074668884,98.18671417236328,-0.005382801327440471,-0.4050574016622783,-0.005373072500030194,-0.5134823096295195
0.5999736189842224,0.30910179018974304,95.22796630859375,-0.005382801327440471,-0.4050574016622783,-0.005373072500030194,-0.5134823096295195
-0.6018596291542053,-1.347432255744934,92.27301788330078,-0.005382801327440471,-0.4050574016622783,-0.005373072500030194,-0.5134823096295195
0.6584235429763794,0.4210737347602844,89.34489440917969,-0.005382801327440471,-0.4050574016622783,-0.005373072500030194,-0.5134823096295195
0.2514966130256653,0.1531946063041687,86.39213562011719,-0.005382801327440471,-0.4050574016622783,-0.005373072500030194,-0.5134823096295195
-0.6172624826431274,-1.4922189712524414,83.4381103515625,-0.005382801327440471,-0.4050574016622783,-0.005373072500030194,-0.5134823096295195
0.7724520564079285,-0.1646646410226822,80.4546890258789,-0.005382801327440471,-0.4050574016622783,-0.005373072500030194,-0.5134823096295195
-1.539786696434021,-0.7972307801246643,77.38008880615234,-0.005382801327440471,-0.4050574016622783,-0.005373072500030194,-0.5134823096295195
1.3106085062026978,0.05128946900367737,74.3221664428711,-0.005382801327440471,-0.4050574016622783,-0.005373072500030194,-0.5134823096295195
0.639839231967926,-0.015982922166585922,71.18389892578125,-0.005382801327440471,-0.4050574016622783,-0.005373072500030194,-0.5134823096295195
-2.658860921859741,-0.8577292561531067,68.08936309814453,-0.005382801327440471,-0.4050574016622783,-0.005373072500030194,-0.5134823096295195
1.6319721937179565,-0.6562674641609192,65.00816345214844,-0.005382801327440471,-0.4050574016622783,-0.005373072500030194,-0.5134823096295195
-1.8719569444656372,0.0490642674267292,61.92969512939453,-0.005382801327440471,-0.4050574016622783,-0.005373072500030194,-0.5134823096295195
0.2933051586151123,-0.9027692079544067,58.826602935791016,-0.005382801327440471,-0.4050574016622783,-0.005373072500030194,-0.5134823096295195
0.6331404447555542,-0.9286762475967407,55.723487854003906,-0.005382801327440471,-0.4050574016622783,-0.005373072500030194,-0.5134823096295195
-1.7709966897964478,0.5829586386680603,52.665340423583984,-0.005382801327440471,-0.4050574016622783,-0.005373072500030194,-0.5134823096295195
0.7578638195991516,-0.46564704179763794,49.60626983642578,-0.005382801327440471,-0.4050574016622783,-0.005373072500030194,-0.5134823096295195
-1.2225911617279053,-0.37024056911468506,46.57537078857422,-0.005382801327440471,-0.4050574016622783,-0.005373072500030194,-0.5134823096295195
-0.03370118513703346,-0.5943979620933533,43.561336517333984,-0.005382801327440471,-0.4050574016622783,-0.005373072500030194,-0.5134823096295195
0.8205100297927856,-0.5065945386886597,40.57905578613281,-0.005382801327440471,-0.4050574016622783,-0.005373072500030194,-0.5134823096295195
-2.3923661708831787,0.6882638335227966,37.58921813964844,-0.005382801327440471,-0.4050574016622783,-0.005373072500030194,-0.5134823096295195
0.32611680030822754,-1.1381093263626099,34.713443756103516,-0.005382801327440471,-0.4050574016622783,-0.005373072500030194,-0.5134823096295195
-0.9073625206947327,0.5225446224212646,31.77460479736328,-0.005382801327440471,-0.4050574016622783,-0.005373072500030194,-0.5134823096295195
0.7704371809959412,-0.4767894446849823,28.825313568115234,-0.005382801327440471,-0.4050574016622783,-0.005373072500030194,-0.5134823096295195
-1.3528367280960083,0.9745704531669617,25.75547981262207,-0.005382801327440471,-0.4050574016622783,-0.005373072500030194,-0.5134823096295195
-0.3269108831882477,-0.8511877655982971,22.713590621948242,-0.005382801327440471,-0.4050574016622783,-0.005373072500030194,-0.5134823096295195
1.3485239744186401,-1.3278203010559082,19.637126922607422,-0.005382801327440471,-0.4050574016622783,-0.005373072500030194,-0.5134823096295195
-1.0927501916885376,0.6510070562362671,16.51785659790039,-0.005382801327440471,-0.4050574016622783,-0.005373072500030194,-0.5134823096295195
0.727741003036499,-1.2902729511260986,13.404709815979004,-0.005382801327440471,-0.4050574016622783,-0.005373072500030194,-0.5134823096295195
-0.3775051236152649,0.1699669361114502,10.284679412841797,-0.005382801327440471,-0.4050574016622783,-0.005373072500030194,-0.5134823096295195
-1.2439829111099243,-0.1800970882177353,7.155298233032227,-0.005382801327440471,-0.4050574016622783,-0.005373072500030194,-0.5134823096295195
-1.2520540952682495,0.3580792248249054,4.037185192108154,-0.005382801327440471,-0.4050574016622783,-0.005373072500030194,-0.5134823096295195
0.2687373459339142,-1.2182728052139282,0.8953089714050293,-0.005382801327440471,-0.4050574016622783,-0.005373072500030194,-0.5134823096295195
0.1737833321094513,0.39974671602249146,-2.2955164909362793,-0.005382801327440471,-0.4050574016622783,-0.005373072500030194,-0.5134823096295195
-0.5545985102653503,-0.026828238740563393,-5.490939617156982,-0.005382801327440471,-0.4050574016622783,-0.005373072500030194,-0.5134823096295195
0.16944769024848938,-0.5553586483001709,-8.673651695251465,-0.005382801327440471,-0.4050574016622783,-0.005373072500030194,-0.5134823096295195
-0.46545496582984924,0.09440315514802933,-11.894887924194336,-0.005382801327440471,-0.4050574016622783,-0.005373072500030194,-0.5134823096295195
-1.0521636009216309,0.24799130856990814,-14.952271461486816,-0.005382801327440471,-0.4050574016622783,-0.005373072500030194,-0.5134823096295195
-0.5106006860733032,0.9410361647605896,-18.015501022338867,-0.005382801327440471,-0.4050574016622783,-0.005373072500030194,-0.5134823096295195
-0.05633586645126343,-0.19848868250846863,-21.057456970214844,-0.005382801327440471,-0.4050574016622783,-0.005373072500030194,-0.5134823096295195
-0.4029776155948639,0.8118240833282471,-24.15711212158203,-0.005382801327440471,-0.4050574016622783,-0.005373072500030194,-0.5134823096295195
-0.6239384412765503,-0.4385370910167694,-27.1640567779541,-0.005382801327440471,-0.4050574016622783,-0.005373072500030194,-0.5134823096295195
-0.1537303477525711,1.2836560010910034,-30.108060836791992,-0.005382801327440471,-0.4050574016622783,-0.005373072500030194,-0.5134823096295195
0.2719099521636963,1.0804085731506348,-33.05623245239258,-0.005382801327440471,-0.4050574016622783,-0.005373072500030194,-0.5134823096295195
-0.16005852818489075,-1.5576930046081543,-35.93142318725586,-0.005382801327440471,-0.4050574016622783,-0.005373072500030194,-0.5134823096295195
0.4938628375530243,0.9153091311454773,-38.871742248535156,-0.005382801327440471,-0.4050574016622783,-0.005373072500030194,-0.5134823096295195
-0.8266540765762329,-0.9497779607772827,-41.83407974243164,-0.005382801327440471,-0.4050574016622783,-0.005373072500030194,-0.5134823096295195
-0.0619703084230423,0.6337506175041199,-44.880374908447266,-0.005382801327440471,-0.4050574016622783,-0.005373072500030194,-0.5134823096295195
-1.564949631690979,1.5927265882492065,-47.94783401489258,-0.005382801327440471,-0.4050574016622783,-0.005373072500030194,-0.5134823096295195
0.062344230711460114,0.024556007236242294,-51.07426834106445,-0.005382801327440471,-0.4050574016622783,-0.005373072500030194,-0.5134823096295195
-0.05452409014105797,0.051621925085783005,-54.17779541015625,-0.005382801327440471,-0.4050574016622783,-0.005373072500030194,-0.5134823096295195
-0.03781601041555405,0.854499101638794,-57.335506439208984,-0.005382801327440471,-0.4050574016622783,-0.005373072500030194,-0.5134823096295195
-0.003701109206303954,0.029642609879374504,-60.407039642333984,-0.005382801327440471,-0.4050574016622783,-0.005373072500030194,-0.5134823096295195
0.2349790334701538,-0.08269913494586945,-63.51830291748047,-0.005382801327440471,-0.4050574016622783,-0.005373072500030194,-0.5134823096295195
0.16854281723499298,-0.3297923803329468,-66.58462524414062,-0.005382801327440471,-0.4050574016622783,-0.005373072500030194,-0.5134823096295195
-0.657692551612854,1.8130511045455933,-69.67510986328125,-0.005382801327440471,-0.4050574016622783,-0.005373072500030194,-0.5134823096295195
-0.09928081184625626,-0.33001214265823364,-72.79271697998047,-0.005382801327440471,-0.4050574016622783,-0.005373072500030194,-0.5134823096295195
0.5013608932495117,0.286863774061203,-76.05474853515625,-0.005382801327440471,-0.4050574016622783,-0.005373072500030194,-0.5134823096295195
-0.6260454058647156,0.000686128914821893,-79.33981323242188,-0.005382801327440471,-0.4050574016622783,-0.005373072500030194,-0.5134823096295195
-0.5239307284355164,-0.18892276287078857,-82.54434204101562,-0.005382801327440471,-0.4050574016622783,-0.005373072500030194,-0.5134823096295195
1.2679998874664307,1.4684128761291504,-85.7693862915039,-0.005382801327440471,-0.4050574016622783,-0.005373072500030194,-0.5134823096295195
-1.092254877090454,-0.024440279230475426,-88.9493637084961,-0.005382801327440471,-0.4050574016622783,-0.005373072500030194,-0.5134823096295195
-0.23885583877563477,0.49203604459762573,-92.1822509765625,-0.005382801327440471,-0.4050574016622783,-0.005373072500030194,-0.5134823096295195
0.2317875325679779,-0.13654039800167084,-95.43010711669922,-0.005382801327440471,-0.4050574016622783,-0.005373072500030194,-0.5134823096295195
-0.11158645153045654,0.7359979748725891,-98.7394027709961,-0.005382801327440471,-0.4050574016622783,-0.005373072500030194,-0.5134823096295195
0.3552996516227722,0.6441535353660583,-102.41537475585938,-0.005382801327440471,-0.4050574016622783,-0.005373072500030194,-0.5134823096295195
0.05386384576559067,-0.27092528343200684,-105.65108489990234,-0.005382801327440471,-0.4050574016622783,-0.005373072500030194,-0.5134823096295195
0.8286033868789673,1.195152759552002,-108.82881164550781,-0.005382801327440471,-0.4050574016622783,-0.005373072500030194,-0.5134823096295195
-0.21713881194591522,-0.5906955599784851,-111.99066925048828,-0.005382801327440471,-0.4050574016622783,-0.005373072500030194,-0.5134823096295195
0.12121550738811493,0.292784184217453,-115.18164825439453,-0.005382801327440471,-0.4050574016622783,-0.005373072500030194,-0.5134823096295195
-0.5584284067153931,0.32416030764579773,-118.16252136230469,-0.005382801327440471,-0.4050574016622783,-0.005373072500030194,-0.5134823096295195
0.889838695526123,-0.033069051802158356,-121.42901611328125,-0.005382801327440471,-0.4050574016622783,-0.005373072500030194,-0.5134823096295195
0.5635939836502075,0.16445553302764893,-124.46244049072266,-0.005382801327440471,-0.4050574016622783,-0.005373072500030194,-0.5134823096295195
0.7906745076179504,0.5319727063179016,-127.5608901977539,-0.005382801327440471,-0.4050574016622783,-0.005373072500030194,-0.5134823096295195
-0.8409414291381836,0.4249233305454254,-130.74566650390625,-0.005382801327440471,-0.4050574016622783,-0.005373072500030194,-0.5134823096295195
1.5543962717056274,-1.03328537940979,-133.92752075195312,-0.005382801327440471,-0.4050574016622783,-0.005373072500030194,-0.5134823096295195
0.03186400234699249,1.1787941455841064,-137.11764526367188,-0.005382801327440471,-0.4050574016622783,-0.005373072500030194,-0.5134823096295195
-0.8536275625228882,-0.33617305755615234,-140.28970336914062,-0.005382801327440471,-0.4050574016622783,-0.005373072500030194,-0.5134823096295195
1.5750951766967773,-0.31026309728622437,-143.4735565185547,-0.005382801327440471,-0.4050574016622783,-0.005373072500030194,-0.5134823096295195
-0.34535056352615356,1.8816196918487549,-146.61148071289062,-0.005382801327440471,-0.4050574016622783,-0.005373072500030194,-0.5134823096295195
1.1775002479553223,-1.041038155555725,-149.7901611328125,-0.005382801327440471,-0.4050574016622783,-0.005373072500030194,-0.5134823096295195
-0.6069921851158142,0.4526435434818268,-153.00888061523438,-0.005382801327440471,-0.4050574016622783,-0.005373072500030194,-0.5134823096295195
0.04061967134475708,0.3701827824115753,-156.23646545410156,-0.005382801327440471,-0.4050574016622783,-0.005373072500030194,-0.5134823096295195
0.12357252091169357,-0.6636620163917542,-159.49148559570312,-0.005382801327440471,-0.4050574016622783,-0.005373072500030194,-0.5134823096295195
0.7621269822120667,0.93095463514328,-162.6500701904297,-0.005382801327440471,-0.4050574016622783,-0.005373072500030194,-0.5134823096295195
1.0440599918365479,-0.7996917963027954,-165.7856903076172,-0.005382801327440471,-0.4050574016622783,-0.005373072500030194,-0.5134823096295195
-0.8175774812698364,0.6125252842903137,-168.8030242919922,-0.005382801327440471,-0.4050574016622783,-0.005373072500030194,-0.5134823096295195
0.5236741304397583,-0.47010597586631775,-171.80604553222656,-0.005382801327440471,-0.4050574016622783,-0.005373072500030194,-0.5134823096295195
-0.5277986526489258,0.15586698055267334,-174.6720733642578,-0.005382801327440471,-0.4050574016622783,-0.005373072500030194,-0.5134823096295195
0.34574228525161743,-1.1025043725967407,-177.53976440429688,-0.005382801327440471,-0.4050574016622783,-0.005373072500030194,-0.5134823096295195
-0.4226835370063782,0.8629295229911804,179.594482421875,-0.005382801327440471,-0.4050574016622783,-0.005373072500030194,-0.5134823096295195
0.07041026651859283,0.16500705480575562,176.6844482421875,-0.005382801327440471,-0.4050574016622783,-0.005373072500030194,-0.5134823096295195
1.70181143283844,-0.8771423697471619,173.70858764648438,-0.005382801327440471,-0.4050574016622783,-0.005373072500030194,-0.5134823096295195
-0.7695501446723938,1.7434595823287964,170.74122619628906,-0.005382801327440471,-0.4050574016622783,-0.005373072500030194,-0.5134823096295195
1.3588184118270874,-1.7870025634765625,167.68359375,-0.005382801327440471,-0.4050574016622783,-0.005373072500030194,-0.5134823096295195
-0.0884336531162262,0.9757253527641296,164.71798706054688,-0.005382801327440471,-0.4050574016622783,-0.005373072500030194,-0.5134823096295195
0.9811308979988098,-1.377906084060669,161.72120666503906,-0.005382801327440471,-0.4050574016622783,-0.005373072500030194,-0.5134823096295195
0.2243635207414627,1.2390843629837036,158.76329040527344,-0.005382801327440471,-0.4050574016622783,-0.005373072500030194,-0.5134823096295195
0.23917599022388458,-1.5662950277328491,155.7938232421875,-0.005382801327440471,-0.4050574016622783,-0.005373072500030194,-0.5134823096295195
0.2466413527727127,-0.5708855390548706,152.85997009277344,-0.005382801327440471,-0.4050574016622783,-0.005373072500030194,-0.5134823096295195
-0.3003092110157013,-0.09655695408582687,149.866455078125,-0.005382801327440471,-0.4050574016622783,-0.005373072500030194,-0.5134823096295195
-0.6258338689804077,0.4852067232131958,146.91664123535156,-0.005382801327440471,-0.4050574016622783,-0.005373072500030194,-0.5134823096295195
1.2631165981292725,0.1508280336856842,143.96044921875,-0.005382801327440471,-0.4050574016622783,-0.005373072500030194,-0.5134823096295195
0.5099331736564636,-1.6525700092315674,141.01449584960938,-0.005382801327440471,-0.4050574016622783,-0.005373072500030194,-0.5134823096295195
0.6147122383117676,-1.2349835634231567,138.04563903808594,-0.005382801327440471,-0.4050574016622783,-0.005373072500030194,-0.5134823096295195
-0.20507919788360596,-0.08350113034248352,135.03097534179688,-0.005382801327440471,-0.4050574016622783,-0.005373072500030194,-0.5134823096295195
0.13811278343200684,-0.6554148197174072,132.00003051757812,-0.005382801327440471,-0.4050574016622783,-0.005373072500030194,-0.5134823096295195
-0.02785148285329342,1.2935118675231934,128.91835021972656,-0.005382801327440471,-0.4050574016622783,-0.005373072500030194,-0.5134823096295195
0.4586780071258545,-0.7381910681724548,125.878173828125,-0.005382801327440471,-0.4050574016622783,-0.005373072500030194,-0.5134823096295195
-0.06956733763217926,-0.34698280692100525,122.80799102783203,-0.005382801327440471,-0.4050574016622783,-0.005373072500030194,-0.5134823096295195
1.0744510889053345,-0.7020909190177917,119.81714630126953,-0.005382801327440471,-0.4050574016622783,-0.005373072500030194,-0.5134823096295195
-0.13924549520015717,-0.3115067481994629,116.83475494384766,-0.005382801327440471,-0.4050574016622783,-0.005373072500030194,-0.5134823096295195
-0.3468705713748932,-1.020832896232605,113.8487548828125,-0.005382801327440471,-0.4050574016622783,-0.005373072500030194,-0.5134823096295195
1.0758864879608154,-0.24420519173145294,110.88591003417969,-0.005382801327440471,-0.4050574016622783,-0.005373072500030194,-0.5134823096295195
-0.8984488844871521,-0.42931637167930603,107.97077941894531,-0.005382801327440471,-0.4050574016622783,-0.005373072500030194,-0.5134823096295195
0.2493613064289093,-0.5884122848510742,105.00106811523438,-0.005382801327440471,-0.4050574016622783,-0.005373072500030194,-0.5134823096295195
0.17698641121387482,-0.2960159480571747,102.07682037353516,-0.005382801327440471,-0.4050574016622783,-0.005373072500030194,-0.5134823096295195
-0.0006533563137054443,-0.48373377323150635,99.14817810058594,-0.005382801327440471,-0.4050574016622783,-0.005373072500030194,-0.5134823096295195
0.3218788206577301,-0.25488126277923584,96.2164535522461,-0.005382801327440471,-0.4050574016622783,-0.005373072500030194,-0.5134823096295195
0.19145895540714264,0.2928049862384796,93.2951889038086,-0.005382801327440471,-0.4050574016622783,-0.005373072500030194,-0.5134823096295195
-0.3056122064590454,-0.3558891713619232,90.41128540039062,-0.005382801327440471,-0.4050574016622783,-0.005373072500030194,-0.5134823096295195
0.11895571649074554,-0.798845112323761,87.545654296875,-0.005382801327440471,-0.4050574016622783,-0.005373072500030194,-0.5134823096295195
-0.7364581823348999,-0.9161772727966309,84.64698028564453,-0.005382801327440471,-0.4050574016622783,-0.005373072500030194,-0.5134823096295195
-0.25288161635398865,-0.061511602252721786,81.78134155273438,-0.005382801327440471,-0.4050574016622783,-0.005373072500030194,-0.5134823096295195
-0.33446988463401794,0.09514712542295456,78.87629699707031,-0.005382801327440471,-0.4050574016622783,-0.005373072500030194,-0.5134823096295195
0.2214527577161789,-0.4559342861175537,75.9609375,-0.005382801327440471,-0.4050574016622783,-0.005373072500030194,-0.5134823096295195
0.581081211566925,-0.15682564675807953,73.08042907714844,-0.005382801327440471,-0.4050574016622783,-0.005373072500030194,-0.5134823096295195
-1.104617953300476,-1.0570850372314453,70.2881088256836,-0.005382801327440471,-0.4050574016622783,-0.005373072500030194,-0.5134823096295195
0.2375033050775528,-0.1419808715581894,67.50848388671875,-0.005382801327440471,-0.4050574016622783,-0.005373072500030194,-0.5134823096295195
-0.8175504207611084,-0.4265281856060028,64.67841339111328,-0.005382801327440471,-0.4050574016622783,-0.005373072500030194,-0.5134823096295195
0.5627309679985046,0.4573671817779541,62.026363372802734,-0.005382801327440471,-0.4050574016622783,-0.005373072500030194,-0.5134823096295195
0.2727758288383484,-0.4283447861671448,59.22054672241211,-0.005382801327440471,-0.4050574016622783,-0.005373072500030194,-0.5134823096295195
-0.6174020171165466,-0.5638189911842346,56.34634780883789,-0.005382801327440471,-0.4050574016622783,-0.005373072500030194,-0.5134823096295195
-0.5762219429016113,-1.3604029417037964,53.4036750793457,-0.005382801327440471,-0.4050574016622783,-0.005373072500030194,-0.5134823096295195
-1.2377108335494995,0.2924153506755829,50.539817810058594,-0.005382801327440471,-0.4050574016622783,-0.005373072500030194,-0.5134823096295195
1.1343082189559937,-0.06463424861431122,47.68271255493164,-0.005382801327440471,-0.4050574016622783,-0.005373072500030194,-0.5134823096295195
-1.1307240724563599,-0.023635996505618095,44.799102783203125,-0.005382801327440471,-0.4050574016622783,-0.005373072500030194,-0.5134823096295195
0.8691053986549377,0.034940287470817566,41.949546813964844,-0.005382801327440471,-0.4050574016622783,-0.005373072500030194,-0.5134823096295195
-1.6033235788345337,-0.10947006940841675,38.99000549316406,-0.005382801327440471,-0.4050574016622783,-0.005373072500030194,-0.5134823096295195
0.8893411159515381,-1.2956355810165405,36.018741607666016,-0.005382801327440471,-0.4050574016622783,-0.005373072500030194,-0.5134823096295195
-0.40495333075523376,-0.21039940416812897,32.981441497802734,-0.005382801327440471,-0.4050574016622783,-0.005373072500030194,-0.5134823096295195
-0.6804248690605164,-0.3521111011505127,29.913558959960938,-0.005382801327440471,-0.4050574016622783,-0.005373072500030194,-0.5134823096295195
-0.1147574782371521,-0.3957516849040985,26.80156898498535,-0.005382801327440471,-0.4050574016622783,-0.005373072500030194,-0.5134823096295195
-0.3050633370876312,0.24066975712776184,23.784500122070312,-0.005382801327440471,-0.4050574016622783,-0.005373072500030194,-0.5134823096295195
0.157742440700531,-0.2574841380119324,20.733243942260742,-0.005382801327440471,-0.4050574016622783,-0.005373072500030194,-0.5134823096295195
-1.1532527208328247,-0.9173312187194824,17.752729415893555,-0.005382801327440471,-0.4050574016622783,-0.005373072500030194,-0.5134823096295195
-0.7083298563957214,0.815802812576294,14.696541786193848,-0.005382801327440471,-0.4050574016622783,-0.005373072500030194,-0.5134823096295195
-0.2930598556995392,-0.3540199100971222,11.63720417022705,-0.005382801327440471,-0.4050574016622783,-0.005373072500030194,-0.5134823096295195
-0.41563519835472107,-0.12118565291166306,8.525936126708984,-0.005382801327440471,-0.4050574016622783,-0.005373072500030194,-0.5134823096295195
-0.2293969839811325,-0.3258414566516876,5.367118835449219,-0.005382801327440471,-0.4050574016622783,-0.005373072500030194,-0.5134823096295195
-0.31496524810791016,0.10768484324216843,2.190147638320923,-0.005382801327440471,-0.4050574016622783,-0.005373072500030194,-0.5134823096295195
-1.181082010269165,0.2754848301410675,-0.9832944273948669,-0.005382801327440471,-0.4050574016622783,-0.005373072500030194,-0.5134823096295195
-0.039147790521383286,-0.0848441869020462,-4.0572919845581055,-0.005382801327440471,-0.4050574016622783,-0.005373072500030194,-0.5134823096295195
-0.8005123138427734,0.3601307272911072,-7.14046573638916,-0.005382801327440471,-0.4050574016622783,-0.005373072500030194,-0.5134823096295195
-0.013295109383761883,-0.0952109768986702,-10.197305679321289,-0.005382801327440471,-0.4050574016622783,-0.005373072500030194,-0.5134823096295195
-1.2311054468154907,1.5345219373703003,-13.214445114135742,-0.005382801327440471,-0.4050574016622783,-0.005373072500030194,-0.5134823096295195
1.2336734533309937,-0.42824840545654297,-16.279577255249023,-0.005382801327440471,-0.4050574016622783,-0.005373072500030194,-0.5134823096295195
-0.6468057036399841,-0.11281044781208038,-19.532258987426758,-0.005382801327440471,-0.4050574016622783,-0.005373072500030194,-0.5134823096295195
-0.8003931641578674,0.7966321706771851,-22.771652221679688,-0.005382801327440471,-0.4050574016622783,-0.005373072500030194,-0.5134823096295195
0.5760499238967896,-2.927616834640503,-25.86885643005371,-0.005382801327440471,-0.4050574016622783,-0.005373072500030194,-0.5134823096295195
-1.2788221836090088,2.1294422149658203,-28.97687339782715,-0.005382801327440471,-0.4050574016622783,-0.005373072500030194,-0.5134823096295195
-0.5027779936790466,-0.42245370149612427,-32.01143264770508,-0.005382801327440471,-0.4050574016622783,-0.005373072500030194,-0.5134823096295195
-0.8431165218353271,1.7856050729751587,-35.158721923828125,-0.005382801327440471,-0.4050574016622783,-0.005373072500030194,-0.5134823096295195
-0.049828238785266876,-1.6747665405273438,-38.288429260253906,-0.005382801327440471,-0.4050574016622783,-0.005373072500030194,-0.5134823096295195
-0.32406556606292725,1.416831374168396,-41.48247146606445,-0.005382801327440471,-0.4050574016622783,-0.005373072500030194,-0.5134823096295195
-0.9788585901260376,0.16040150821208954,-44.576698303222656,-0.005382801327440471,-0.4050574016622783,-0.005373072500030194,-0.5134823096295195
0.0628291442990303,-0.15655680000782013,-47.69185256958008,-0.005382801327440471,-0.4050574016622783,-0.005373072500030194,-0.5134823096295195
0.5211499929428101,1.3417942523956299,-50.9184455871582,-0.005382801327440471,-0.4050574016622783,-0.005373072500030194,-0.5134823096295195
-0.4287513196468353,-1.2128407955169678,-54.09157180786133,-0.005382801327440471,-0.4050574016622783,-0.005373072500030194,-0.5134823096295195
-0.24172654747962952,2.563194513320923,-57.342567443847656,-0.005382801327440471,-0.4050574016622783,-0.005373072500030194,-0.5134823096295195
-0.09634557366371155,-0.7666318416595459,-60.528564453125,-0.005382801327440471,-0.4050574016622783,-0.005373072500030194,-0.5134823096295195
-0.04560479521751404,-0.3147086501121521,-63.8358039855957,-0.005382801327440471,-0.4050574016622783,-0.005373072500030194,-0.5134823096295195
0.14256682991981506,0.8193482160568237,-67.15751647949219,-0.005382801327440471,-0.4050574016622783,-0.005373072500030194,-0.5134823096295195
-0.6967628002166748,0.3563452959060669,-70.46192932128906,-0.005382801327440471,-0.4050574016622783,-0.005373072500030194,-0.5134823096295195
0.11997588723897934,0.5029674172401428,-73.77810668945312,-0.005382801327440471,-0.4050574016622783,-0.005373072500030194,-0.5134823096295195
-0.26172271370887756,-0.4461631178855896,-77.0826644897461,-0.005382801327440471,-0.4050574016622783,-0.005373072500030194,-0.5134823096295195
-0.409715473651886,1.3804171085357666,-80.4328842163086,-0.005382801327440471,-0.4050574016622783,-0.005373072500030194,-0.5134823096295195
0.748135507106781,0.1852078139781952,-83.73091888427734,-0.005382801327440471,-0.4050574016622783,-0.005373072500030194,-0.5134823096295195
-0.7309154868125916,0.5608888268470764,-86.9048843383789,-0.005382801327440471,-0.4050574016622783,-0.005373072500030194,-0.5134823096295195
0.5602259039878845,0.32541972398757935,-90.11443328857422,-0.005382801327440471,-0.4050574016622783,-0.005373072500030194,-0.5134823096295195
-0.04429146647453308,0.3027963638305664,-93.28376007080078,-0.005382801327440471,-0.4050574016622783,-0.005373072500030194,-0.5134823096295195
0.6451454162597656,1.106519341468811,-96.32002258300781,-0.005382801327440471,-0.4050574016622783,-0.005373072500030194,-0.5134823096295195
1.3188354969024658,0.2740590274333954,-99.33293914794922,-0.005382801327440471,-0.4050574016622783,-0.005373072500030194,-0.5134823096295195
-0.06384310871362686,-1.0075029134750366,-102.35548400878906,-0.005382801327440471,-0.4050574016622783,-0.005373072500030194,-0.5134823096295195
-0.5905718803405762,0.005034384783357382,-105.21553039550781,-0.005382801327440471,-0.4050574016622783,-0.005373072500030194,-0.5134823096295195
0.8393377065658569,1.1809473037719727,-107.84778594970703,-0.005382801327440471,-0.4050574016622783,-0.005373072500030194,-0.5134823096295195
0.35714656114578247,-1.2118314504623413,-110.66012573242188,-0.005382801327440471,-0.4050574016622783,-0.005373072500030194,-0.5134823096295195
1.2673141956329346,0.6311412453651428,-113.35292053222656,-0.005382801327440471,-0.4050574016622783,-0.005373072500030194,-0.5134823096295195
-0.0394703671336174,0.4790591299533844,-115.97940063476562,-0.005382801327440471,-0.4050574016622783,-0.005373072500030194,-0.5134823096295195
-0.01543482206761837,-0.49146202206611633,-118.58206939697266,-0.005382801327440471,-0.4050574016622783,-0.005373072500030194,-0.5134823096295195
-0.07659164816141129,0.6247510313987732,-121.24606323242188,-0.005382801327440471,-0.4050574016622783,-0.005373072500030194,-0.5134823096295195
-0.11761044710874557,0.11781775951385498,-123.90855407714844,-0.005382801327440471,-0.4050574016622783,-0.005373072500030194,-0.5134823096295195
1.254034399986267,0.3664834797382355,-126.57217407226562,-0.005382801327440471,-0.4050574016622783,-0.005373072500030194,-0.5134823096295195
-0.9608094692230225,0.13500060141086578,-129.2118377685547,-0.005382801327440471,-0.4050574016622783,-0.005373072500030194,-0.5134823096295195
0.9627737998962402,0.5302690863609314,-131.8553466796875,-0.005382801327440471,-0.4050574016622783,-0.005373072500030194,-0.5134823096295195
-0.8257125616073608,0.03339778631925583,-134.5663604736328,-0.005382801327440471,-0.4050574016622783,-0.005373072500030194,-0.5134823096295195
0.345281720161438,0.00502695981413126,-137.42662048339844,-0.005382801327440471,-0.4050574016622783,-0.005373072500030194,-0.5134823096295195
-0.3694627285003662,0.3467561602592468,-140.29034423828125,-0.005382801327440471,-0.4050574016622783,-0.005373072500030194,-0.5134823096295195
0.5025119781494141,0.5171020030975342,-143.24960327148438,-0.005382801327440471,-0.4050574016622783,-0.005373072500030194,-0.5134823096295195
0.12096624821424484,-0.13087670505046844,-146.1851348876953,-0.005382801327440471,-0.4050574016622783,-0.005373072500030194,-0.5134823096295195
0.5217839479446411,0.3527596592903137,-149.167724609375,-0.005382801327440471,-0.4050574016622783,-0.005373072500030194,-0.5134823096295195
-0.630961000919342,0.26563289761543274,-152.146484375,-0.005382801327440471,-0.4050574016622783,-0.005373072500030194,-0.5134823096295195
0.6696546077728271,-0.2560400366783142,-155.11988830566406,-0.005382801327440471,-0.4050574016622783,-0.005373072500030194,-0.5134823096295195
0.31423601508140564,-0.5553233623504639,-158.1250457763672,-0.005382801327440471,-0.4050574016622783,-0.005373072500030194,-0.5134823096295195
0.37360379099845886,0.6725193858146667,-161.21836853027344,-0.005382801327440471,-0.4050574016622783,-0.005373072500030194,-0.5134823096295195
-0.18792757391929626,0.08718720078468323,-164.37823486328125,-0.005382801327440471,-0.4050574016622783,-0.005373072500030194,-0.5134823096295195
1.7478077411651611,-0.6193097829818726,-167.49771118164062,-0.005382801327440471,-0.4050574016622783,-0.005373072500030194,-0.5134823096295195
0.1426895558834076,0.7297918796539307,-170.68601989746094,-0.005382801327440471,-0.4050574016622783,-0.005373072500030194,-0.5134823096295195
0.2119143009185791,-0.8814724683761597,-173.78489685058594,-0.005382801327440471,-0.4050574016622783,-0.005373072500030194,-0.5134823096295195
0.12763820588588715,0.4011760652065277,-176.9107666015625,-0.005382801327440471,-0.4050574016622783,-0.005373072500030194,-0.5134823096295195
-0.03456921502947807,1.031444787979126,179.9171142578125,-0.005382801327440471,-0.4050574016622783,-0.005373072500030194,-0.5134823096295195
0.8238008618354797,-0.7586085796356201,176.76492309570312,-0.005382801327440471,-0.4050574016622783,-0.005373072500030194,-0.5134823096295195
1.0835857391357422,-0.6410089135169983,173.618408203125,-0.005382801327440471,-0.4050574016622783,-0.005373072500030194,-0.5134823096295195
0.0775897279381752,-0.15607647597789764,170.43218994140625,-0.005382801327440471,-0.4050574016622783,-0.005373072500030194,-0.5134823096295195
0.36955931782722473,0.1274031400680542,167.280029296875,-0.005382801327440471,-0.4050574016622783,-0.005373072500030194,-0.5134823096295195
-0.5107061266899109,0.21772654354572296,164.16661071777344,-0.005382801327440471,-0.4050574016622783,-0.005373072500030194,-0.5134823096295195
1.0913478136062622,-1.8934112787246704,161.02919006347656,-0.005382801327440471,-0.4050574016622783,-0.005373072500030194,-0.5134823096295195
0.683881402015686,0.3449750244617462,157.9962615966797,-0.005382801327440471,-0.4050574016622783,-0.005373072500030194,-0.5134823096295195
-0.10113620012998581,-0.08595792949199677,154.91717529296875,-0.005382801327440471,-0.4050574016622783,-0.005373072500030194,-0.5134823096295195
-0.03456846997141838,-0.25256404280662537,151.83538818359375,-0.005382801327440471,-0.4050574016622783,-0.005373072500030194,-0.5134823096295195
0.4944765865802765,-0.3045652210712433,148.69679260253906,-0.005382801327440471,-0.4050574016622783,-0.005373072500030194,-0.5134823096295195
-0.49337485432624817,0.38498666882514954,145.5919647216797,-0.005382801327440471,-0.4050574016622783,-0.005373072500030194,-0.5134823096295195
0.02412167191505432,0.3488975763320923,142.46778869628906,-0.005382801327440471,-0.4050574016622783,-0.005373072500030194,-0.5134823096295195
0.3318648934364319,-0.6072190999984741,139.32809448242188,-0.005382801327440471,-0.4050574016622783,-0.005373072500030194,-0.5134823096295195
0.3506145477294922,0.023948252201080322,136.28878784179688,-0.005382801327440471,-0.4050574016622783,-0.005373072500030194,-0.5134823096295195
-0.06108197569847107,0.30165284872055054,133.2395477294922,-0.005382801327440471,-0.4050574016622783,-0.005373072500030194,-0.5134823096295195
0.88917475938797,-0.4493618607521057,130.23577880859375,-0.005382801327440471,-0.4050574016622783,-0.005373072500030194,-0.5134823096295195
-0.43627604842185974,-0.4011891186237335,127.23345947265625,-0.005382801327440471,-0.4050574016622783,-0.005373072500030194,-0.5134823096295195
1.081892728805542,-0.5159159302711487,124.19525909423828,-0.005382801327440471,-0.4050574016622783,-0.005373072500030194,-0.5134823096295195
-0.8130517601966858,-0.8536627292633057,121.20479583740234,-0.005382801327440471,-0.4050574016622783,-0.005373072500030194,-0.5134823096295195
0.6387295722961426,-0.343464195728302,118.15381622314453,-0.005382801327440471,-0.4050574016622783,-0.005373072500030194,-0.5134823096295195
0.0037102573551237583,0.8401577472686768,115.0995101928711,-0.005382801327440471,-0.4050574016622783,-0.005373072500030194,-0.5134823096295195
0.08863618224859238,-0.04656961187720299,112.00357055664062,-0.005382801327440471,-0.4050574016622783,-0.005373072500030194,-0.5134823096295195
0.2198457568883896,-0.7636067867279053,108.96736145019531,-0.005382801327440471,-0.4050574016622783,-0.005373072500030194,-0.5134823096295195
0.2499692589044571,-0.32567623257637024,105.94457244873047,-0.005382801327440471,-0.4050574016622783,-0.005373072500030194,-0.5134823096295195
-0.2820584177970886,-0.973724365234375,102.95726776123047,-0.005382801327440471,-0.4050574016622783,-0.005373072500030194,-0.5134823096295195
0.6815701127052307,-0.35523322224617004,100.01029205322266,-0.005382801327440471,-0.4050574016622783,-0.005373072500030194,-0.5134823096295195
-0.5357579588890076,-0.09417352825403214,97.14461517333984,-0.005382801327440471,-0.4050574016622783,-0.005373072500030194,-0.5134823096295195
-0.28022029995918274,-0.3836837708950043,94.22268676757812,-0.005382801327440471,-0.4050574016622783,-0.005373072500030194,-0.5134823096295195
0.4438362121582031,-0.0983567014336586,91.37688446044922,-0.005382801327440471,-0.4050574016622783,-0.005373072500030194,-0.5134823096295195
-0.5365050435066223,-0.9103249907493591,88.54205322265625,-0.005382801327440471,-0.4050574016622783,-0.005373072500030194,-0.5134823096295195
-0.10761052370071411,-0.15225018560886383,85.79083251953125,-0.005382801327440471,-0.4050574016622783,-0.005373072500030194,-0.5134823096295195
-1.0869696140289307,-0.9545443654060364,83.1087417602539,-0.005382801327440471,-0.4050574016622783,-0.005373072500030194,-0.5134823096295195
1.6811273097991943,1.1633912324905396,80.36164855957031,-0.005382801327440471,-0.4050574016622783,-0.005373072500030194,-0.5134823096295195
-2.946542978286743,-1.8499680757522583,77.556396484375,-0.005382801327440471,-0.4050574016622783,-0.005373072500030194,-0.5134823096295195
1.8556135892868042,0.5709434151649475,74.83396911621094,-0.005382801327440471,-0.4050574016622783,-0.005373072500030194,-0.5134823096295195
-1.5950431823730469,-1.0569685697555542,72.04835510253906,-0.005382801327440471,-0.4050574016622783,-0.005373072500030194,-0.5134823096295195
0.37296298146247864,-0.8540681004524231,69.18484497070312,-0.005382801327440471,-0.4050574016622783,-0.005373072500030194,-0.5134823096295195
0.00540271308273077,-0.15802161395549774,66.29645538330078,-0.005382801327440471,-0.4050574016622783,-0.005373072500030194,-0.5134823096295195
-0.2613101601600647,-0.13493400812149048,63.3510627746582,-0.005382801327440471,-0.4050574016622783,-0.005373072500030194,-0.5134823096295195
-0.7611549496650696,-0.45256707072257996,60.34151077270508,-0.005382801327440471,-0.4050574016622783,-0.005373072500030194,-0.5134823096295195
-0.04183746874332428,-0.24362336099147797,57.3548469543457,-0.005382801327440471,-0.4050574016622783,-0.005373072500030194,-0.5134823096295195
0.03043866530060768,-0.14316827058792114,54.26806640625,-0.005382801327440471,-0.4050574016622783,-0.005373072500030194,-0.5134823096295195
-0.5772844552993774,-0.5492184162139893,51.1779670715332,-0.005382801327440471,-0.4050574016622783,-0.005373072500030194,-0.5134823096295195
-0.5861687064170837,-0.5560445785522461,48.05167770385742,-0.005382801327440471,-0.4050574016622783,-0.005373072500030194,-0.5134823096295195
0.8628068566322327,-0.3893794119358063,44.92823028564453,-0.005382801327440471,-0.4050574016622783,-0.005373072500030194,-0.5134823096295195
0.643352210521698,0.5826063752174377,41.80903244018555,-0.005382801327440471,-0.4050574016622783,-0.005373072500030194,-0.5134823096295195
-0.9033804535865784,-0.371755450963974,38.66987609863281,-0.005382801327440471,-0.4050574016622783,-0.005373072500030194,-0.5134823096295195
0.5992058515548706,-0.8781867027282715,35.605133056640625,-0.005382801327440471,-0.4050574016622783,-0.005373072500030194,-0.5134823096295195
-0.857007622718811,0.13831722736358643,32.564151763916016,-0.005382801327440471,-0.4050574016622783,-0.005373072500030194,-0.5134823096295195
-0.006754044443368912,-1.3192650079727173,29.618289947509766,-0.005382801327440471,-0.4050574016622783,-0.005373072500030194,-0.5134823096295195
-0.4960309565067291,0.2602151930332184,26.672863006591797,-0.005382801327440471,-0.4050574016622783,-0.005373072500030194,-0.5134823096295195
-1.2131881713867188,0.2026599794626236,23.63649559020996,-0.005382801327440471,-0.4050574016622783,-0.005373072500030194,-0.5134823096295195
0.09883362799882889,-0.8522398471832275,20.650360107421875,-0.005382801327440471,-0.4050574016622783,-0.005373072500030194,-0.5134823096295195
-1.0161360502243042,0.6048039793968201,17.603010177612305,-0.005382801327440471,-0.4050574016622783,-0.005373072500030194,-0.5134823096295195
-0.3903970420360565,-0.12303902208805084,14.563669204711914,-0.005382801327440471,-0.4050574016622783,-0.005373072500030194,-0.5134823096295195
-0.21831457316875458,-0.4458787441253662,11.467560768127441,-0.005382801327440471,-0.4050574016622783,-0.005373072500030194,-0.5134823096295195
0.5644151568412781,-0.5184327960014343,8.487215042114258,-0.005382801327440471,-0.4050574016622783,-0.005373072500030194,-0.5134823096295195
-1.3070446252822876,0.48580223321914673,5.513144016265869,-0.005382801327440471,-0.4050574016622783,-0.005373072500030194,-0.5134823096295195
0.936073899269104,-0.09136725962162018,2.5763392448425293,-0.005382801327440471,-0.4050574016622783,-0.005373072500030194,-0.5134823096295195
-2.0509517192840576,1.1832455396652222,-0.4247072637081146,-0.005382801327440471,-0.4050574016622783,-0.005373072500030194,-0.5134823096295195
0.5469176769256592,-0.8777325749397278,-3.4502100944519043,-0.005382801327440471,-0.4050574016622783,-0.005373072500030194,-0.5134823096295195
-1.0866966247558594,1.1839503049850464,-6.465770721435547,-0.005382801327440471,-0.4050574016622783,-0.005373072500030194,-0.5134823096295195
-0.9416929483413696,-1.0437756776809692,-9.546699523925781,-0.005382801327440471,-0.4050574016622783,-0.005373072500030194,-0.5134823096295195
0.2571769058704376,0.6233563423156738,-12.61601734161377,-0.005382801327440471,-0.4050574016622783,-0.005373072500030194,-0.5134823096295195
-0.011629078537225723,-0.532310962677002,-15.751486778259277,-0.005382801327440471,-0.4050574016622783,-0.005373072500030194,-0.5134823096295195
-1.135916829109192,1.241400957107544,-18.90374183654785,-0.005382801327440471,-0.4050574016622783,-0.005373072500030194,-0.5134823096295195
-0.38104307651519775,0.1966453641653061,-21.89703941345215,-0.005382801327440471,-0.4050574016622783,-0.005373072500030194,-0.5134823096295195
-0.017734795808792114,-1.1597107648849487,-24.954051971435547,-0.005382801327440471,-0.4050574016622783,-0.005373072500030194,-0.5134823096295195
-0.4350809156894684,1.316312551498413,-28.042924880981445,-0.005382801327440471,-0.4050574016622783,-0.005373072500030194,-0.5134823096295195
-0.6692631840705872,0.0048274993896484375,-31.191009521484375,-0.005382801327440471,-0.4050574016622783,-0.005373072500030194,-0.5134823096295195
-0.582127034664154,0.3473975360393524,-34.30698013305664,-0.005382801327440471,-0.4050574016622783,-0.005373072500030194,-0.5134823096295195
0.2328566610813141,0.3032991588115692,-37.48972702026367,-0.005382801327440471,-0.4050574016622783,-0.005373072500030194,-0.5134823096295195
0.11468680948019028,-0.2983075976371765,-40.718936920166016,-0.005382801327440471,-0.4050574016622783,-0.005373072500030194,-0.5134823096295195
-0.7829023003578186,0.5878305435180664,-44.02457809448242,-0.005382801327440471,-0.4050574016622783,-0.005373072500030194,-0.5134823096295195
-0.24150368571281433,-0.5143840312957764,-47.26652908325195,-0.005382801327440471,-0.4050574016622783,-0.005373072500030194,-0.5134823096295195
-0.41980671882629395,-0.3027888834476471,-50.422691345214844,-0.005382801327440471,-0.4050574016622783,-0.005373072500030194,-0.5134823096295195
0.2414834201335907,0.15268664062023163,-53.587398529052734,-0.005382801327440471,-0.4050574016622783,-0.005373072500030194,-0.5134823096295195
-0.3987738788127899,0.0462447889149189,-56.779537200927734,-0.005382801327440471,-0.4050574016622783,-0.005373072500030194,-0.5134823096295195
0.1588926613330841,1.492581844329834,-60.04745101928711,-0.005382801327440471,-0.4050574016622783,-0.005373072500030194,-0.5134823096295195
-0.281614750623703,-0.02869037166237831,-63.2255859375,-0.005382801327440471,-0.4050574016622783,-0.005373072500030194,-0.5134823096295195
-0.40768346190452576,0.9454600214958191,-66.4232177734375,-0.005382801327440471,-0.4050574016622783,-0.005373072500030194,-0.5134823096295195
0.006494581233710051,0.12823700904846191,-69.55532836914062,-0.005382801327440471,-0.4050574016622783,-0.005373072500030194,-0.5134823096295195
0.39960500597953796,0.9797549843788147,-72.7473373413086,-0.005382801327440471,-0.4050574016622783,-0.005373072500030194,-0.5134823096295195
0.3528434634208679,0.11811522394418716,-75.87694549560547,-0.005382801327440471,-0.4050574016622783,-0.005373072500030194,-0.5134823096295195
-0.7178794741630554,0.027695665135979652,-79.03421020507812,-0.005382801327440471,-0.4050574016622783,-0.005373072500030194,-0.5134823096295195
1.8919739723205566,1.002198576927185,-82.00354766845703,-0.005382801327440471,-0.4050574016622783,-0.005373072500030194,-0.5134823096295195
-1.0356502532958984,-0.6274272799491882,-85.06501007080078,-0.005382801327440471,-0.4050574016622783,-0.005373072500030194,-0.5134823096295195
0.3601258099079132,1.1261438131332397,-88.14998626708984,-0.005382801327440471,-0.4050574016622783,-0.005373072500030194,-0.5134823096295195
0.8005945086479187,1.2461702823638916,-91.23422241210938,-0.005382801327440471,-0.4050574016622783,-0.005373072500030194,-0.5134823096295195
0.8439546823501587,0.4700925648212433,-94.36195373535156,-0.005382801327440471,-0.4050574016622783,-0.005373072500030194,-0.5134823096295195
-1.4234415292739868,0.1395246535539627,-97.43116760253906,-0.005382801327440471,-0.4050574016622783,-0.005373072500030194,-0.5134823096295195
1.595413327217102,0.7032024264335632,-100.60212707519531,-0.005382801327440471,-0.4050574016622783,-0.005373072500030194,-0.5134823096295195
-1.1665055751800537,-0.18658225238323212,-103.71050262451172,-0.005382801327440471,-0.4050574016622783,-0.005373072500030194,-0.5134823096295195
0.4215391278266907,0.27817946672439575,-106.87747192382812,-0.005382801327440471,-0.4050574016622783,-0.005373072500030194,-0.5134823096295195
0.1924700140953064,0.24293293058872223,-109.99436950683594,-0.005382801327440471,-0.4050574016622783,-0.005373072500030194,-0.5134823096295195
-0.11361347883939743,0.168441042304039,-113.79972839355469,-0.005382801327440471,-0.4050574016622783,-0.005373072500030194,-0.5134823096295195
1.1272168159484863,0.8987854719161987,-116.98301696777344,-0.005382801327440471,-0.4050574016622783,-0.005373072500030194,-0.5134823096295195
-0.8480565547943115,0.015065733343362808,-120.17506408691406,-0.005382801327440471,-0.4050574016622783,-0.005373072500030194,-0.5134823096295195
1.5724610090255737,0.44644618034362793,-123.32073211669922,-0.005382801327440471,-0.4050574016622783,-0.005373072500030194,-0.5134823096295195
-1.5895650386810303,0.31489062309265137,-126.25019073486328,-0.005382801327440471,-0.4050574016622783,-0.005373072500030194,-0.5134823096295195
1.155111312866211,-0.2612403929233551,-129.0592498779297,-0.005382801327440471,-0.4050574016622783,-0.005373072500030194,-0.5134823096295195
0.37290263175964355,-0.5797621607780457,-131.9993896484375,-0.005382801327440471,-0.4050574016622783,-0.005373072500030194,-0.5134823096295195
-0.2645189166069031,0.5749092698097229,-134.84243774414062,-0.005382801327440471,-0.4050574016622783,-0.005373072500030194,-0.5134823096295195
0.6058577299118042,0.38345420360565186,-137.61766052246094,-0.005382801327440471,-0.4050574016622783,-0.005373072500030194,-0.5134823096295195
-0.41367268562316895,-0.23775005340576172,-140.3277130126953,-0.005382801327440471,-0.4050574016622783,-0.005373072500030194,-0.5134823096295195
0.12020525336265564,0.5168066024780273,-143.06871032714844,-0.005382801327440471,-0.4050574016622783,-0.005373072500030194,-0.5134823096295195
0.9506609439849854,0.01989917643368244,-145.68154907226562,-0.005382801327440471,-0.4050574016622783,-0.005373072500030194,-0.5134823096295195
0.16125617921352386,0.28961607813835144,-148.18927001953125,-0.005382801327440471,-0.4050574016622783,-0.005373072500030194,-0.5134823096295195
-0.03672773391008377,-0.033069122582674026,-150.74407958984375,-0.005382801327440471,-0.4050574016622783,-0.005373072500030194,-0.5134823096295195
0.7713334560394287,-0.5618149042129517,-153.30328369140625,-0.005382801327440471,-0.4050574016622783,-0.005373072500030194,-0.5134823096295195
0.05708669498562813,0.06563246995210648,-155.89407348632812,-0.005382801327440471,-0.4050574016622783,-0.005373072500030194,-0.5134823096295195
0.24243973195552826,-0.20674583315849304,-158.543701171875,-0.005382801327440471,-0.4050574016622783,-0.005373072500030194,-0.5134823096295195
0.11656448245048523,0.7426986694335938,-161.23440551757812,-0.005382801327440471,-0.4050574016622783,-0.005373072500030194,-0.5134823096295195
0.21459442377090454,-0.751634418964386,-163.94412231445312,-0.005382801327440471,-0.4050574016622783,-0.005373072500030194,-0.5134823096295195
1.4135208129882812,-0.09799542278051376,-166.65316772460938,-0.005382801327440471,-0.4050574016622783,-0.005373072500030194,-0.5134823096295195
-0.6712137460708618,0.5402390360832214,-169.2902374267578,-0.005382801327440471,-0.4050574016622783,-0.005373072500030194,-0.5134823096295195
-0.755425751209259,0.5833979249000549,-172.1158905029297,-0.005382801327440471,-0.4050574016622783,-0.005373072500030194,-0.5134823096295195
1.0982600450515747,-0.5167601108551025,-174.9967498779297,-0.005382801327440471,-0.4050574016622783,-0.005373072500030194,-0.5134823096295195
0.43340128660202026,0.22262682020664215,-177.90707397460938,-0.005382801327440471,-0.4050574016622783,-0.005373072500030194,-0.5134823096295195
1.1136128902435303,-0.39679059386253357,179.14112854003906,-0.005382801327440471,-0.4050574016622783,-0.005373072500030194,-0.5134823096295195
-0.4584042429924011,0.9889705181121826,176.1632843017578,-0.005382801327440471,-0.4050574016622783,-0.005373072500030194,-0.5134823096295195
0.9855611324310303,-1.256192922592163,173.1665496826172,-0.005382801327440471,-0.4050574016622783,-0.005373072500030194,-0.5134823096295195
-0.6358630657196045,1.0921247005462646,170.2033233642578,-0.005382801327440471,-0.4050574016622783,-0.005373072500030194,-0.5134823096295195
0.1681869477033615,-1.2822637557983398,167.14768981933594,-0.005382801327440471,-0.4050574016622783,-0.005373072500030194,-0.5134823096295195
0.40604856610298157,0.7209982872009277,164.00062561035156,-0.005382801327440471,-0.4050574016622783,-0.005373072500030194,-0.5134823096295195
0.8951941132545471,-0.030658172443509102,160.8275909423828,-0.005382801327440471,-0.4050574016622783,-0.005373072500030194,-0.5134823096295195
-0.14608623087406158,0.8491255044937134,157.6180419921875,-0.005382801327440471,-0.4050574016622783,-0.005373072500030194,-0.5134823096295195
0.5060203075408936,-0.060575202107429504,154.43482971191406,-0.005382801327440471,-0.4050574016622783,-0.005373072500030194,-0.5134823096295195
-0.29830148816108704,-0.7594926357269287,151.2411346435547,-0.005382801327440471,-0.4050574016622783,-0.005373072500030194,-0.5134823096295195
0.47313380241394043,-0.13289126753807068,148.0477294921875,-0.005382801327440471,-0.4050574016622783,-0.005373072500030194,-0.5134823096295195
-0.038824886083602905,0.8976486921310425,144.90440368652344,-0.005382801327440471,-0.4050574016622783,-0.005373072500030194,-0.5134823096295195
0.7255890965461731,-1.755276083946228,141.74241638183594,-0.005382801327440471,-0.4050574016622783,-0.005373072500030194,-0.5134823096295195
0.9084141254425049,0.8014810085296631,138.65298461914062,-0.005382801327440471,-0.4050574016622783,-0.005373072500030194,-0.5134823096295195
-0.22305481135845184,-0.9165904521942139,135.48516845703125,-0.005382801327440471,-0.4050574016622783,-0.005373072500030194,-0.5134823096295195
-0.23992536962032318,-1.5461078882217407,132.32371520996094,-0.005382801327440471,-0.4050574016622783,-0.005373072500030194,-0.5134823096295195
0.9822964072227478,0.3070499002933502,129.2091827392578,-0.005382801327440471,-0.4050574016622783,-0.005373072500030194,-0.5134823096295195
-0.7647018432617188,-1.4292908906936646,126.10721588134766,-0.005382801327440471,-0.4050574016622783,-0.005373072500030194,-0.5134823096295195
0.575194239616394,0.4543015956878662,123.04268646240234,-0.005382801327440471,-0.4050574016622783,-0.005373072500030194,-0.5134823096295195
0.200221449136734,-0.2208101600408554,119.99140930175781,-0.005382801327440471,-0.4050574016622783,-0.005373072500030194,-0.5134823096295195
-0.33372852206230164,-1.037030577659607,116.92446899414062,-0.005382801327440471,-0.4050574016622783,-0.005373072500030194,-0.5134823096295195
1.1669886112213135,1.2903178930282593,113.97386169433594,-0.005382801327440471,-0.4050574016622783,-0.005373072500030194,-0.5134823096295195
-0.6134219765663147,-0.7935080528259277,111.07525634765625,-0.005382801327440471,-0.4050574016622783,-0.005373072500030194,-0.5134823096295195
-0.6882240772247314,-0.5373578071594238,108.2311782836914,-0.005382801327440471,-0.4050574016622783,-0.005373072500030194,-0.5134823096295195
1.743359923362732,-1.166140079498291,105.29923248291016,-0.005382801327440471,-0.4050574016622783,-0.005373072500030194,-0.5134823096295195
-2.2013027667999268,-1.3578392267227173,102.34407043457031,-0.005382801327440471,-0.4050574016622783,-0.005373072500030194,-0.5134823096295195
1.531749963760376,1.6154605150222778,99.39437866210938,-0.005382801327440471,-0.4050574016622783,-0.005373072500030194,-0.5134823096295195
0.08320397883653641,0.41539666056632996,96.41912841796875,-0.005382801327440471,-0.4050574016622783,-0.005373072500030194,-0.5134823096295195
-0.9211329817771912,-1.5110385417938232,93.4931411743164,-0.005382801327440471,-0.4050574016622783,-0.005373072500030194,-0.5134823096295195
1.0412344932556152,0.12167178094387054,90.54759216308594,-0.005382801327440471,-0.4050574016622783,-0.005373072500030194,-0.5134823096295195
-1.150955319404602,-1.0303630828857422,87.69117736816406,-0.005382801327440471,-0.4050574016622783,-0.005373072500030194,-0.5134823096295195
0.30200323462486267,-0.10783254355192184,84.80941772460938,-0.005382801327440471,-0.4050574016622783,-0.005373072500030194,-0.5134823096295195
-0.16645093262195587,-0.8578717708587646,81.89399719238281,-0.005382801327440471,-0.4050574016622783,-0.005373072500030194,-0.5134823096295195
0.5592893958091736,0.37352827191352844,78.96863555908203,-0.005382801327440471,-0.4050574016622783,-0.005373072500030194,-0.5134823096295195
-0.6920546293258667,-0.6637710928916931,76.06724548339844,-0.005382801327440471,-0.4050574016622783,-0.005373072500030194,-0.5134823096295195
0.3302641212940216,-0.234461709856987,73.21282958984375,-0.005382801327440471,-0.4050574016622783,-0.005373072500030194,-0.5134823096295195
-0.11737413704395294,-0.6323462724685669,70.3877944946289,-0.005382801327440471,-0.4050574016622783,-0.005373072500030194,-0.5134823096295195
-0.7689283490180969,0.02370261587202549,67.57450866699219,-0.005382801327440471,-0.4050574016622783,-0.005373072500030194,-0.5134823096295195
0.08320602029561996,-0.9509550929069519,64.74359130859375,-0.005382801327440471,-0.4050574016622783,-0.005373072500030194,-0.5134823096295195
0.43105679750442505,0.5515191555023193,61.98408508300781,-0.005382801327440471,-0.4050574016622783,-0.005373072500030194,-0.5134823096295195
-0.2850229740142822,-0.5583062171936035,59.19523620605469,-0.005382801327440471,-0.4050574016622783,-0.005373072500030194,-0.5134823096295195
0.29609742760658264,-0.1201336607336998,56.39918899536133,-0.005382801327440471,-0.4050574016622783,-0.005373072500030194,-0.5134823096295195
-0.6492969989776611,-0.5528872013092041,53.56426239013672,-0.005382801327440471,-0.4050574016622783,-0.005373072500030194,-0.5134823096295195
-0.2504018247127533,-0.7900686264038086,50.66162872314453,-0.005382801327440471,-0.4050574016622783,-0.005373072500030194,-0.5134823096295195
-1.0394456386566162,-0.37028709053993225,47.807315826416016,-0.005382801327440471,-0.4050574016622783,-0.005373072500030194,-0.5134823096295195
-0.012814546003937721,0.0435558445751667,44.95342254638672,-0.005382801327440471,-0.4050574016622783,-0.005373072500030194,-0.5134823096295195
-0.05282210558652878,0.3212487995624542,42.16902160644531,-0.005382801327440471,-0.4050574016622783,-0.005373072500030194,-0.5134823096295195
-1.035327672958374,0.11867029219865799,39.38572692871094,-0.005382801327440471,-0.4050574016622783,-0.005373072500030194,-0.5134823096295195
0.3088262975215912,-0.40600061416625977,36.72471618652344,-0.005382801327440471,-0.4050574016622783,-0.005373072500030194,-0.5134823096295195
-1.6906365156173706,0.7265666127204895,34.0762939453125,-0.005382801327440471,-0.4050574016622783,-0.005373072500030194,-0.5134823096295195
0.8764030933380127,-1.103392243385315,31.417760848999023,-0.005382801327440471,-0.4050574016622783,-0.005373072500030194,-0.5134823096295195
-0.22647204995155334,1.0952284336090088,28.804174423217773,-0.005382801327440471,-0.4050574016622783,-0.005373072500030194,-0.5134823096295195
0.19592416286468506,0.41384539008140564,26.210031509399414,-0.005382801327440471,-0.4050574016622783,-0.005373072500030194,-0.5134823096295195
0.6292126178741455,-2.3282217979431152,23.526714324951172,-0.005382801327440471,-0.4050574016622783,-0.005373072500030194,-0.5134823096295195
-1.8133898973464966,1.51023268699646,20.778343200683594,-0.005382801327440471,-0.4050574016622783,-0.005373072500030194,-0.5134823096295195
1.828156590461731,-2.519455909729004,18.105113983154297,-0.005382801327440471,-0.4050574016622783,-0.005373072500030194,-0.5134823096295195
-3.015658140182495,1.945432424545288,15.40610122680664,-0.005382801327440471,-0.4050574016622783,-0.005373072500030194,-0.5134823096295195
1.9659068584442139,-1.3945125341415405,12.668693542480469,-0.005382801327440471,-0.4050574016622783,-0.005373072500030194,-0.5134823096295195
-1.9024358987808228,1.270504355430603,9.808865547180176,-0.005382801327440471,-0.4050574016622783,-0.005373072500030194,-0.5134823096295195
0.029667405411601067,-0.6097790598869324,7.002820014953613,-0.005382801327440471,-0.4050574016622783,-0.005373072500030194,-0.5134823096295195
-1.1740199327468872,-0.0008096717647276819,4.142210006713867,-0.005382801327440471,-0.4050574016622783,-0.005373072500030194,-0.5134823096295195
0.6008421778678894,-0.6706287860870361,1.2255065441131592,-0.005382801327440471,-0.4050574016622783,-0.005373072500030194,-0.5134823096295195
-0.8611593246459961,-0.035318523645401,-1.8135998249053955,-0.005382801327440471,-0.4050574016622783,-0.005373072500030194,-0.5134823096295195
-0.9091167449951172,0.9023442268371582,-4.807684898376465,-0.005382801327440471,-0.4050574016622783,-0.005373072500030194,-0.5134823096295195
-0.3290841579437256,-0.7754119038581848,-7.830970764160156,-0.005382801327440471,-0.4050574016622783,-0.005373072500030194,-0.5134823096295195
-0.10561233013868332,0.6907990574836731,-10.897543907165527,-0.005382801327440471,-0.4050574016622783,-0.005373072500030194,-0.5134823096295195
0.4905100166797638,-0.3817761540412903,-14.01250171661377,-0.005382801327440471,-0.4050574016622783,-0.005373072500030194,-0.5134823096295195
-0.8825901746749878,-0.23558436334133148,-17.152088165283203,-0.005382801327440471,-0.4050574016622783,-0.005373072500030194,-0.5134823096295195
-0.5614662766456604,0.2857312858104706,-20.26398277282715,-0.005382801327440471,-0.4050574016622783,-0.005373072500030194,-0.5134823096295195
-0.31751033663749695,0.8126897215843201,-23.36917495727539,-0.005382801327440471,-0.4050574016622783,-0.005373072500030194,-0.5134823096295195
-0.15450924634933472,0.40840253233909607,-26.534852981567383,-0.005382801327440471,-0.4050574016622783,-0.005373072500030194,-0.5134823096295195
0.29173412919044495,0.05005042999982834,-29.705739974975586,-0.005382801327440471,-0.4050574016622783,-0.005373072500030194,-0.5134823096295195
-1.032178282737732,0.41604843735694885,-32.93339157104492,-0.005382801327440471,-0.4050574016622783,-0.005373072500030194,-0.5134823096295195
-0.037281885743141174,0.05394729971885681,-36.13420486450195,-0.005382801327440471,-0.4050574016622783,-0.005373072500030194,-0.5134823096295195
-0.9747747778892517,-0.36690253019332886,-39.3475227355957,-0.005382801327440471,-0.4050574016622783,-0.005373072500030194,-0.5134823096295195
-0.3494498133659363,0.6156811118125916,-42.5489387512207,-0.005382801327440471,-0.4050574016622783,-0.005373072500030194,-0.5134823096295195
0.04021662846207619,0.21744243800640106,-45.70337677001953,-0.005382801327440471,-0.4050574016622783,-0.005373072500030194,-0.5134823096295195
0.03274749964475632,-0.6250636577606201,-48.97735595703125,-0.005382801327440471,-0.4050574016622783,-0.005373072500030194,-0.5134823096295195
-0.17203344404697418,0.341045618057251,-52.337528228759766,-0.005382801327440471,-0.4050574016622783,-0.005373072500030194,-0.5134823096295195
-1.5051528215408325,0.01885458640754223,-55.565773010253906,-0.005382801327440471,-0.4050574016622783,-0.005373072500030194,-0.5134823096295195
1.6600914001464844,3.315610885620117,-58.84833526611328,-0.005382801327440471,-0.4050574016622783,-0.005373072500030194,-0.5134823096295195
-0.9982678890228271,-0.144364595413208,-62.087554931640625,-0.005382801327440471,-0.4050574016622783,-0.005373072500030194,-0.5134823096295195
0.7220615744590759,0.3851991593837738,-65.38200378417969,-0.005382801327440471,-0.4050574016622783,-0.005373072500030194,-0.5134823096295195
-0.10191579163074493,1.014648675918579,-68.58903503417969,-0.005382801327440471,-0.4050574016622783,-0.005373072500030194,-0.5134823096295195
-0.42194443941116333,-0.9694702625274658,-71.8749008178711,-0.005382801327440471,-0.4050574016622783,-0.005373072500030194,-0.5134823096295195
-0.6360174417495728,1.0771669149398804,-75.09951782226562,-0.005382801327440471,-0.4050574016622783,-0.005373072500030194,-0.5134823096295195
1.0673125982284546,0.2385113686323166,-78.27405548095703,-0.005382801327440471,-0.4050574016622783,-0.005373072500030194,-0.5134823096295195
-0.7436051964759827,0.6051864624023438,-81.47283935546875,-0.005382801327440471,-0.4050574016622783,-0.005373072500030194,-0.5134823096295195
0.5310180187225342,0.8164152503013611,-84.58756256103516,-0.005382801327440471,-0.4050574016622783,-0.005373072500030194,-0.5134823096295195
-0.17889149487018585,-0.5487556457519531,-87.64051818847656,-0.005382801327440471,-0.4050574016622783,-0.005373072500030194,-0.5134823096295195
-0.06845177710056305,0.47908270359039307,-90.66539001464844,-0.005382801327440471,-0.4050574016622783,-0.005373072500030194,-0.5134823096295195
0.4907328188419342,0.6088699102401733,-93.64889526367188,-0.005382801327440471,-0.4050574016622783,-0.005373072500030194,-0.5134823096295195
-0.12451145052909851,0.14174294471740723,-96.56396484375,-0.005382801327440471,-0.4050574016622783,-0.005373072500030194,-0.5134823096295195
0.08940841257572174,0.5787537693977356,-99.5338134765625,-0.005382801327440471,-0.4050574016622783,-0.005373072500030194,-0.5134823096295195
0.3804434537887573,0.6812562942504883,-102.45391845703125,-0.005382801327440471,-0.4050574016622783,-0.005373072500030194,-0.5134823096295195
-0.23695944249629974,-0.3379882276058197,-105.22904968261719,-0.005382801327440471,-0.4050574016622783,-0.005373072500030194,-0.5134823096295195
0.9360669255256653,0.5268307328224182,-108.0571060180664,-0.005382801327440471,-0.4050574016622783,-0.005373072500030194,-0.5134823096295195
-1.2945910692214966,-0.7277395129203796,-110.8868408203125,-0.005382801327440471,-0.4050574016622783,-0.005373072500030194,-0.5134823096295195
2.0479955673217773,1.5750463008880615,-113.83708190917969,-0.005382801327440471,-0.4050574016622783,-0.005373072500030194,-0.5134823096295195
-0.8608633875846863,0.34387895464897156,-116.60591888427734,-0.005382801327440471,-0.4050574016622783,-0.005373072500030194,-0.5134823096295195
0.7787492275238037,-0.03896931931376457,-119.30297088623047,-0.005382801327440471,-0.4050574016622783,-0.005373072500030194,-0.5134823096295195
-0.23546206951141357,-0.15459299087524414,-122.03116607666016,-0.005382801327440471,-0.4050574016622783,-0.005373072500030194,-0.5134823096295195
0.3364585340023041,-0.9901622533798218,-124.97949981689453,-0.005382801327440471,-0.4050574016622783,-0.005373072500030194,-0.5134823096295195
1.1235438585281372,0.8573325276374817,-127.80596923828125,-0.005382801327440471,-0.4050574016622783,-0.005373072500030194,-0.5134823096295195
-0.5718234777450562,0.1898914873600006,-130.4384002685547,-0.005382801327440471,-0.4050574016622783,-0.005373072500030194,-0.5134823096295195
-0.9355852603912354,-0.04992500692605972,-132.90118408203125,-0.005382801327440471,-0.4050574016622783,-0.005373072500030194,-0.5134823096295195
1.4268836975097656,0.3847775459289551,-135.30694580078125,-0.005382801327440471,-0.4050574016622783,-0.005373072500030194,-0.5134823096295195
-0.301332950592041,-0.9088924527168274,-137.6430206298828,-0.005382801327440471,-0.4050574016622783,-0.005373072500030194,-0.5134823096295195
0.6392130255699158,0.8562948703765869,-140.0953826904297,-0.005382801327440471,-0.4050574016622783,-0.005373072500030194,-0.5134823096295195
1.8187966346740723,-0.3122331202030182,-142.58419799804688,-0.005382801327440471,-0.4050574016622783,-0.005373072500030194,-0.5134823096295195
-0.5750716328620911,0.9711928367614746,-144.9436798095703,-0.005382801327440471,-0.4050574016622783,-0.005373072500030194,-0.5134823096295195
1.1030406951904297,-0.41415759921073914,-147.34156799316406,-0.005382801327440471,-0.4050574016622783,-0.005373072500030194,-0.5134823096295195
-2.4265806674957275,0.3442363142967224,-149.84365844726562,-0.005382801327440471,-0.4050574016622783,-0.005373072500030194,-0.5134823096295195
2.197345495223999,-0.38147538900375366,-152.3731689453125,-0.005382801327440471,-0.4050574016622783,-0.005373072500030194,-0.5134823096295195
-1.022448182106018,0.665554404258728,-154.83499145507812,-0.005382801327440471,-0.4050574016622783,-0.005373072500030194,-0.5134823096295195
2.2557075023651123,-0.3659836947917938,-157.43421936035156,-0.005382801327440471,-0.4050574016622783,-0.005373072500030194,-0.5134823096295195
-0.6694331765174866,0.5258740782737732,-160.05361938476562,-0.005382801327440471,-0.4050574016622783,-0.005373072500030194,-0.5134823096295195
0.1811801940202713,0.19981926679611206,-162.71063232421875,-0.005382801327440471,-0.4050574016622783,-0.005373072500030194,-0.5134823096295195
0.03903907164931297,-0.514274001121521,-165.43487548828125,-0.005382801327440471,-0.4050574016622783,-0.005373072500030194,-0.5134823096295195
0.028591224923729897,1.0937702655792236,-168.2677764892578,-0.005382801327440471,-0.4050574016622783,-0.005373072500030194,-0.5134823096295195
0.7393608689308167,-0.6624383926391602,-171.14979553222656,-0.005382801327440471,-0.4050574016622783,-0.005373072500030194,-0.5134823096295195
0.31381136178970337,0.2195419818162918,-174.05441284179688,-0.005382801327440471,-0.4050574016622783,-0.005373072500030194,-0.5134823096295195
0.18574947118759155,0.24928078055381775,-177.13575744628906,-0.005382801327440471,-0.4050574016622783,-0.005373072500030194,-0.5134823096295195
-0.04859640449285507,-0.48141416907310486,179.74313354492188,-0.005382801327440471,-0.4050574016622783,-0.005373072500030194,-0.5134823096295195
-1.0726592540740967,2.1464672088623047,176.6468963623047,-0.005382801327440471,-0.4050574016622783,-0.005373072500030194,-0.5134823096295195
1.0295530557632446,-1.3550944328308105,173.5485382080078,-0.005382801327440471,-0.4050574016622783,-0.005373072500030194,-0.5134823096295195
0.40424278378486633,1.4719774723052979,170.51443481445312,-0.005382801327440471,-0.4050574016622783,-0.005373072500030194,-0.5134823096295195
0.19164103269577026,-0.6770450472831726,167.39004516601562,-0.005382801327440471,-0.4050574016622783,-0.005373072500030194,-0.5134823096295195
0.9484707713127136,0.12503884732723236,164.2192840576172,-0.005382801327440471,-0.4050574016622783,-0.005373072500030194,-0.5134823096295195
0.5475430488586426,0.5339052677154541,161.07940673828125,-0.005382801327440471,-0.4050574016622783,-0.005373072500030194,-0.5134823096295195
0.6032012104988098,-1.9235116243362427,157.9691162109375,-0.005382801327440471,-0.4050574016622783,-0.005373072500030194,-0.5134823096295195
0.24340392649173737,2.1322128772735596,154.7816162109375,-0.005382801327440471,-0.4050574016622783,-0.005373072500030194,-0.5134823096295195
-0.21657323837280273,-1.100672721862793,151.67645263671875,-0.005382801327440471,-0.4050574016622783,-0.005373072500030194,-0.5134823096295195
1.0408512353897095,0.10125162452459335,148.5234832763672,-0.005382801327440471,-0.4050574016622783,-0.005373072500030194,-0.5134823096295195
0.010579063557088375,-0.025216873735189438,145.37338256835938,-0.005382801327440471,-0.4050574016622783,-0.005373072500030194,-0.5134823096295195
0.34195607900619507,-0.5815361738204956,142.2308807373047,-0.005382801327440471,-0.4050574016622783,-0.005373072500030194,-0.5134823096295195
0.5842326879501343,-0.037383805960416794,139.02964782714844,-0.005382801327440471,-0.4050574016622783,-0.005373072500030194,-0.5134823096295195
-0.45724186301231384,0.03276827931404114,135.85560607910156,-0.005382801327440471,-0.4050574016622783,-0.005373072500030194,-0.5134823096295195
-0.2870187759399414,-1.0429091453552246,132.7364501953125,-0.005382801327440471,-0.4050574016622783,-0.005373072500030194,-0.5134823096295195
0.2680588662624359,-0.5085989236831665,129.6946563720703,-0.005382801327440471,-0.4050574016622783,-0.005373072500030194,-0.5134823096295195
