faccX,faccY,yaw,posX,posY,velX,velY
0,0,-83.8093490600586,0.0,0.0,0.0,0.0
0,0,-83.80998992919922,0.0,0.0,0.0,0.0
0,-0.28334441781044006,-83.82356262207031,0.0,-1.9676695681280557e-05,0.0,-0.002361203481753667
0,-1.157236933708191,-83.86223602294922,0.0,-0.0001590704586770799,0.0,-0.014366048077742258
0.4893530607223511,-1.7097030878067017,-83.85888671875,3.398285143905216e-05,-0.0005975976503557628,0.004077942172686259,-0.0382572149236997
0,-2.436556816101074,-83.70790100097656,0.00013593140575620863,-0.0015231526146332421,0.008155884345372517,-0.07280938078959784
1.3904210329055786,-2.3341352939605713,-83.67713165283203,0.00036841982768641575,-0.003067940357658598,0.01974272628625234,-0.11256514837344489
-0.17513994872570038,-1.4089643955230713,-83.5193862915039,0.0007818597855253352,-0.005203963642319043,0.02987006865441799,-0.14375764578580857
-0.07211571931838989,-1.1006370782852173,-83.30308532714844,0.0012625237305959065,-0.007774202285541428,0.027809604754050574,-0.16467099140087765
1.2922734022140503,-1.1851837635040283,-83.24263000488281,0.0018107503155867257,-0.010677456367346976,0.03797758544484774,-0.18371949841578802
-1.3119394779205322,-1.7868990898132324,-83.28797149658203,0.0024423443732990158,-0.013945842650201585,0.03781370148062706,-0.20848685552676519
0.6299590468406677,-1.0249415636062622,-83.26077270507812,0.0030252129791511428,-0.017615890287690693,0.032130531221628185,-0.23191886097192765
0.3668020963668823,-1.245933175086975,-83.2927017211914,0.0036299413566788035,-0.021638904271854296,0.0404368740816911,-0.2508428171277046
-0.21748772263526917,-1.448502779006958,-83.23966979980469,0.004314258311771684,-0.026006731498572563,0.041681160529454545,-0.2732964500784874
-0.3773624002933502,-0.8236473798751831,-83.18318939208984,0.004967635284281438,-0.030719460538691946,0.03672407617171605,-0.29223103473583856
-0.11922796070575714,-0.5958114862442017,-83.14558410644531,0.005545217778740657,-0.03568855131665866,0.032585823163390155,-0.30405985862016677
0.6137851476669312,-0.6787890791893005,-83.08938598632812,0.0061226590805583524,-0.040844729555149874,0.03670713305473327,-0.3146815299987793
-0.6425719857215881,-0.9595780968666077,-83.13516998291016,0.006732445545494556,-0.04620319722013341,0.03646724273761113,-0.3283345897992452
0.8702520132064819,-0.851001501083374,-83.153076171875,0.007356044037474526,-0.05180117507775625,0.03836457629998524,-0.343422753115495
1.1420440673828125,-1.2487521171569824,-83.19683074951172,0.008135196425848536,-0.05767070385317008,0.05513371030489603,-0.36092069993416465
-0.14003510773181915,-0.7406445145606995,-83.21315002441406,0.009123675553128123,-0.06382420139594211,0.06348378496865431,-0.3774990051984787
0.07628579437732697,-0.8342165946960449,-83.22663116455078,0.01017731160028941,-0.07022521683739291,0.0629525406907002,-0.39062284777561823
0.2231243997812271,1.0635777711868286,-83.22364044189453,0.011247312986395424,-0.07671966977417469,0.06544762564202149,-0.38871150463819504
-1.0107407569885254,-1.467901349067688,-83.17530059814453,0.012283411166734164,-0.08322627287771966,0.058884155998627334,-0.3920808677872022
-0.24304762482643127,0.1420418620109558,-83.05879974365234,0.013177745129085247,-0.08985302758299642,0.0484359194835027,-0.4031296968460083
1.130074381828308,-0.33771878480911255,-83.01700592041016,0.014046609534157645,-0.09658544453895754,0.05582780912518501,-0.40476033786932625
-1.5748525857925415,-1.737412929534912,-83.08252716064453,0.014946185644302102,-0.10347555653916464,0.05212132409214973,-0.42205310215552644
0,0,-83.0726318359375,0.015705509616269004,-0.11063042858408556,0.03899755254387855,-0.43653154323498405
1.8960684537887573,0,-83.02835083007812,0.016487140245735644,-0.11790595430466863,0.0547981229921182,-0.43653154323498405
-1.3250364065170288,-0.19468562304973602,-83.04911804199219,0.017440097298887042,-0.1251949998601857,0.05955672338604927,-0.43815392342706516
0.7876630425453186,-0.0629325658082962,-83.0449447631836,0.018395391760600937,-0.1325154554026408,0.05507861201961835,-0.4403007416675488
0.4305237829685211,0.1529347151517868,-83.02981567382812,0.019397964934921925,-0.13984755094784,0.06523016889890035,-0.439550723756353
-1.6835321187973022,-1.007753610610962,-82.98518371582031,0.020398119948804375,-0.14723275876707498,0.05478843276699384,-0.44667421455184614
0.4793314039707184,0.6079714298248291,-82.9505844116211,0.021227635445280203,-0.15470509166104923,0.04475342681010564,-0.4500057327250639
0.35172632336616516,-0.22257857024669647,-82.95174407958984,0.02203123823429147,-0.1621784238134407,0.051678907871246335,-0.4467941255619128
-0.3676598072052002,-0.27317455410957336,-82.91124725341797,0.02289144687354564,-0.16965941987310842,0.05154612883925438,-0.45092540159821504
0.729461669921875,-1.4461373090744019,-82.75232696533203,0.023775674150221873,-0.17729423989024423,0.054561144361893334,-0.4652530004580815
0,-0.3131634593009949,-82.68460845947266,0.02473568361666467,-0.18517063022901611,0.06063999161124229,-0.47991384019454314
1.3089555501937866,1.740130066871643,-82.70024108886719,0.025837249834504385,-0.19307009932895497,0.07154795452952384,-0.4680224517981211
0.2042081207036972,-1.594345211982727,-82.79473114013672,0.027134796553808776,-0.20086034957733415,0.08415765178700287,-0.4668075780073801
-0.40066057443618774,0,-82.85196685791016,0.028523781552082957,-0.20875119429495595,0.08252054800589878,-0.48009378810723613
-0.06212662160396576,-0.6242695450782776,-82.81925964355469,0.029866986019122927,-0.2167961094818181,0.0786639880388975,-0.48529603431622176
-1.4917972087860107,-0.06069973483681679,-82.86820983886719,0.03107014110932747,-0.224931944031527,0.0657146227856477,-0.49100411164884755
-0.6669905781745911,0,-82.88307189941406,0.03201546900388267,-0.2331195611517048,0.04772472456097602,-0.4915099427724877
0.782564103603363,-0.5626784563064575,-82.89431762695312,0.032818907019164824,-0.2413504684240453,0.04868783727288245,-0.4961989299083749
1.7243551015853882,-0.5067284107208252,-83.07577514648438,0.033804462585184304,-0.2496947149549507,0.06957883064945537,-0.5051106538002689
0.18150654435157776,-0.394686222076416,-83.1556167602539,0.0350964612658653,-0.25817582409001055,0.08546101103226342,-0.5126224424069126
-0.4804483652114868,0.34380966424942017,-83.01066589355469,0.03650005160106553,-0.26672306455775263,0.08296982919176417,-0.5130464137221376
-1.0021659135818481,0.22719675302505493,-82.91508483886719,0.037779922762678726,-0.2752341848963664,0.07061471020181971,-0.508288026911517
-0.5302735567092896,0.49342626333236694,-82.90603637695312,0.038850415191716614,-0.28365560874653356,0.0578443812827269,-0.5022828351085384
0.30860501527786255,0.26165831089019775,-82.94151306152344,0.03979909456438488,-0.2919745529029104,0.05599714343746501,-0.49599046365668376
-0.34342968463897705,-0.41806069016456604,-83.03689575195312,0.04072996190852589,-0.3002519219068603,0.05570693785945572,-0.4972938168173035
0.35430797934532166,0.5752198100090027,-83.0830307006836,0.04165916630998254,-0.30852923835938173,0.05579759031534193,-0.49598415748526653
0.8074447512626648,-0.9968055486679077,-82.96760559082031,0.042669803421530456,-0.31682491777154304,0.06547886307040848,-0.4994973719740907
-0.7770306468009949,0,-82.9493408203125,0.04376322989662488,-0.3252190965786576,0.0657323139409224,-0.5078040848796567
0.8083887100219727,-0.32326415181159973,-82.95037078857422,0.04486094610558616,-0.33370494689274993,0.06599363113443055,-0.51049795281142
0.808937668800354,1.580756664276123,-82.93209075927734,0.046073154289689326,-0.34212592023735244,0.07947135095794994,-0.5000188485408823
-2.9295783042907715,-0.7403932809829712,-82.8250503540039,0.04725041009485721,-0.3504012091447496,0.061799345662196456,-0.4930158203467727
1.1294273138046265,0.45688796043395996,-82.75944519042969,0.048155388703776725,-0.35863782735334504,0.04679808740814525,-0.49537836468468116
-0.2952001988887787,-0.5921133756637573,-82.74775695800781,0.048993289265781635,-0.36690352408525845,0.05374998003244398,-0.4965052431449295
-0.5171849131584167,-0.8513727784156799,-82.64038848876953,0.049832706633541314,-0.3752788535650406,0.04698010409871735,-0.5085342944289248
3.046846866607666,2.040374279022217,-82.47916412353516,0.05079137933750947,-0.3836718555902028,0.06806062037746109,-0.49862594859053705
-0.15366114675998688,-1.0722631216049194,-82.36066436767578,0.052126638685456576,-0.3919150581252244,0.09217050137619176,-0.49055835561205957
-0.9118574857711792,0.07114105671644211,-82.4542465209961,0.05358881935891178,-0.400160553084376,0.08329117943843205,-0.49890103948613024
0.8851364254951477,-0.579602837562561,-82.4843521118164,0.05358881935891178,-0.400160553084376,0.08329117943843205,-0.49890103948613024
-0.26856696605682373,-0.1270172894001007,-82.47128295898438,0.05358881935891178,-0.400160553084376,0.08329117943843205,-0.49890103948613024
-2.6855406761169434,0.9037763476371765,-82.58842468261719,0.05358881935891178,-0.400160553084376,0.08329117943843205,-0.49890103948613024
0.31866195797920227,3.431617498397827,-82.97905731201172,0.05358881935891178,-0.400160553084376,0.08329117943843205,-0.49890103948613024
-0.6988257169723511,2.47206974029541,-83.65850830078125,0.05358881935891178,-0.400160553084376,0.08329117943843205,-0.49890103948613024
-1.3087464570999146,0.6724954843521118,-84.59017181396484,0.05358881935891178,-0.400160553084376,0.08329117943843205,-0.49890103948613024
-0.10083784908056259,3.256801128387451,-85.77082824707031,0.05358881935891178,-0.400160553084376,0.08329117943843205,-0.49890103948613024
-1.8314212560653687,1.5164350271224976,-87.27388763427734,0.05358881935891178,-0.400160553084376,0.08329117943843205,-0.49890103948613024
-0.061518196016550064,1.7653778791427612,-88.8838882446289,0.05358881935891178,-0.400160553084376,0.08329117943843205,-0.49890103948613024
-1.593677282333374,2.1974008083343506,-90.52185821533203,0.05358881935891178,-0.400160553084376,0.08329117943843205,-0.49890103948613024
-0.715905487537384,1.1914982795715332,-92.22349548339844,0.05358881935891178,-0.400160553084376,0.08329117943843205,-0.49890103948613024
-0.21659116446971893,1.7942801713943481,-94.04664611816406,0.05358881935891178,-0.400160553084376,0.08329117943843205,-0.49890103948613024
-0.7101665139198303,1.6380305290222168,-95.91548156738281,0.05358881935891178,-0.400160553084376,0.08329117943843205,-0.49890103948613024
-0.9574810266494751,0.6124374270439148,-97.764404296875,0.05358881935891178,-0.400160553084376,0.08329117943843205,-0.49890103948613024
1.4570988416671753,2.0469019412994385,-99.67534637451172,0.05358881935891178,-0.400160553084376,0.08329117943843205,-0.49890103948613024
-0.8891955018043518,1.1851791143417358,-101.48554992675781,0.05358881935891178,-0.400160553084376,0.08329117943843205,-0.49890103948613024
-0.7511056065559387,0.8184932470321655,-103.17829895019531,0.05358881935891178,-0.400160553084376,0.08329117943843205,-0.49890103948613024
0.40658044815063477,0.5423144102096558,-104.8833999633789,0.05358881935891178,-0.400160553084376,0.08329117943843205,-0.49890103948613024
-0.7224855422973633,1.1541706323623657,-106.568359375,0.05358881935891178,-0.400160553084376,0.08329117943843205,-0.49890103948613024
0.16499513387680054,0.3132873773574829,-108.32646942138672,0.05358881935891178,-0.400160553084376,0.08329117943843205,-0.49890103948613024
0.14419026672840118,1.8025753498077393,-110.24871826171875,0.05358881935891178,-0.400160553084376,0.08329117943843205,-0.49890103948613024
0.1486203521490097,1.1719646453857422,-112.3587875366211,0.05358881935891178,-0.400160553084376,0.08329117943843205,-0.49890103948613024
-1.0647225379943848,0.9700201749801636,-114.56021118164062,0.05358881935891178,-0.400160553084376,0.08329117943843205,-0.49890103948613024
0.8195636868476868,0.2521757483482361,-116.88752746582031,0.05358881935891178,-0.400160553084376,0.08329117943843205,-0.49890103948613024
-0.3583335280418396,1.4049487113952637,-119.33576965332031,0.05358881935891178,-0.400160553084376,0.08329117943843205,-0.49890103948613024
0.4766383171081543,2.00673770904541,-121.92642974853516,0.05358881935891178,-0.400160553084376,0.08329117943843205,-0.49890103948613024
-0.27594926953315735,0.49042749404907227,-124.50679779052734,0.05358881935891178,-0.400160553084376,0.08329117943843205,-0.49890103948613024
-0.08978360146284103,1.3414644002914429,-127.1610336303711,0.05358881935891178,-0.400160553084376,0.08329117943843205,-0.49890103948613024
-0.3509581685066223,1.0278798341751099,-129.851318359375,0.05358881935891178,-0.400160553084376,0.08329117943843205,-0.49890103948613024
0.06471483409404755,0.06787353754043579,-132.64083862304688,0.05358881935891178,-0.400160553084376,0.08329117943843205,-0.49890103948613024
-1.787617802619934,1.3634322881698608,-135.42300415039062,0.05358881935891178,-0.400160553084376,0.08329117943843205,-0.49890103948613024
2.4331135749816895,0.3218812942504883,-138.2198486328125,0.05358881935891178,-0.400160553084376,0.08329117943843205,-0.49890103948613024
0.019839074462652206,0.2946661114692688,-141.00387573242188,0.05358881935891178,-0.400160553084376,0.08329117943843205,-0.49890103948613024
-0.557808518409729,2.075237274169922,-143.9191436767578,0.05358881935891178,-0.400160553084376,0.08329117943843205,-0.49890103948613024
1.9686516523361206,0.17072491347789764,-146.86537170410156,0.05358881935891178,-0.400160553084376,0.08329117943843205,-0.49890103948613024
-0.9159738421440125,1.198577880859375,-149.7351837158203,0.05358881935891178,-0.400160553084376,0.08329117943843205,-0.49890103948613024
0.7817559242248535,-0.1574966311454773,-152.6560516357422,0.05358881935891178,-0.400160553084376,0.08329117943843205,-0.49890103948613024
0.7624503374099731,0.16449707746505737,-155.64755249023438,0.05358881935891178,-0.400160553084376,0.08329117943843205,-0.49890103948613024
0.18896885216236115,0.48937737941741943,-158.62948608398438,0.05358881935891178,-0.400160553084376,0.08329117943843205,-0.49890103948613024
-0.04348098859190941,0.7859597206115723,-161.58004760742188,0.05358881935891178,-0.400160553084376,0.08329117943843205,-0.49890103948613024
1.7562668323516846,-0.448934942483902,-164.60324096679688,0.05358881935891178,-0.400160553084376,0.08329117943843205,-0.49890103948613024
-0.11630036681890488,0.5701545476913452,-167.48956298828125,0.05358881935891178,-0.400160553084376,0.08329117943843205,-0.49890103948613024
0.873613715171814,-0.8705049157142639,-170.32968139648438,0.05358881935891178,-0.400160553084376,0.08329117943843205,-0.49890103948613024
0.7368258833885193,0.4598235487937927,-173.07131958007812,0.05358881935891178,-0.400160553084376,0.08329117943843205,-0.49890103948613024
1.6740825176239014,-1.371077060699463,-175.61972045898438,0.05358881935891178,-0.400160553084376,0.08329117943843205,-0.49890103948613024
-0.3494172990322113,1.0184032917022705,-178.0687255859375,0.05358881935891178,-0.400160553084376,0.08329117943843205,-0.49890103948613024
-0.30784541368484497,-1.206231713294983,179.35374450683594,0.05358881935891178,-0.400160553084376,0.08329117943843205,-0.49890103948613024
1.1871225833892822,0.3867311477661133,177.06202697753906,0.05358881935891178,-0.400160553084376,0.08329117943843205,-0.49890103948613024
-0.06641250848770142,-1.034685730934143,175.09011840820312,0.05358881935891178,-0.400160553084376,0.08329117943843205,-0.49890103948613024
0.01958165504038334,-1.3694599866867065,173.47073364257812,0.05358881935891178,-0.400160553084376,0.08329117943843205,-0.49890103948613024
-0.42541199922561646,-1.350098729133606,172.2722930908203,0.05358881935891178,-0.400160553084376,0.08329117943843205,-0.49890103948613024
-0.4846703112125397,-1.684578537940979,171.43992614746094,0.05358881935891178,-0.400160553084376,0.08329117943843205,-0.49890103948613024
-0.9473008513450623,-0.3677356243133545,170.93862915039062,0.05358881935891178,-0.400160553084376,0.08329117943843205,-0.49890103948613024
-1.0923978090286255,-0.5581369996070862,170.73101806640625,0.05358881935891178,-0.400160553084376,0.08329117943843205,-0.49890103948613024
-0.8495063781738281,-0.9995786547660828,170.74339294433594,0.05358881935891178,-0.400160553084376,0.08329117943843205,-0.49890103948613024
-0.8385207056999207,0.5558554530143738,170.9095916748047,0.05358881935891178,-0.400160553084376,0.08329117943843205,-0.49890103948613024
-0.053531307727098465,0.6343203186988831,171.07192993164062,0.05358881935891178,-0.400160553084376,0.08329117943843205,-0.49890103948613024
0.45549529790878296,0.44614726305007935,171.04019165039062,0.05358881935891178,-0.400160553084376,0.08329117943843205,-0.49890103948613024
0.34822332859039307,-0.27588680386543274,171.02528381347656,0.05358881935891178,-0.400160553084376,0.08329117943843205,-0.49890103948613024
1.1705037355422974,0.21234695613384247,171.05343627929688,0.05358881935891178,-0.400160553084376,0.08329117943843205,-0.49890103948613024
0.44699203968048096,0.0568794310092926,171.03890991210938,0.05358881935891178,-0.400160553084376,0.08329117943843205,-0.49890103948613024
-0.025839239358901978,0.07299542427062988,171.01780700683594,0.05358881935891178,-0.400160553084376,0.08329117943843205,-0.49890103948613024
-0.18851715326309204,0.302693247795105,171.0083465576172,0.05358881935891178,-0.400160553084376,0.08329117943843205,-0.49890103948613024
-0.3598833680152893,0.1680898368358612,171.0151824951172,0.05358881935891178,-0.400160553084376,0.08329117943843205,-0.49890103948613024
-0.2672993838787079,0.23987405002117157,171.01710510253906,0.05358881935891178,-0.400160553084376,0.08329117943843205,-0.49890103948613024
-0.07379695028066635,0.17275609076023102,171.01939392089844,0.05358881935891178,-0.400160553084376,0.08329117943843205,-0.49890103948613024
0.060693614184856415,0.2105017602443695,171.03060913085938,0.05358881935891178,-0.400160553084376,0.08329117943843205,-0.49890103948613024
0.09999386966228485,0.1290493756532669,171.03224182128906,0.05358881935891178,-0.400160553084376,0.08329117943843205,-0.49890103948613024
0.14184688031673431,0.16259627044200897,171.03099060058594,0.05358881935891178,-0.400160553084376,0.08329117943843205,-0.49890103948613024
0.08531386405229568,0.15864230692386627,171.0328826904297,0.05358881935891178,-0.400160553084376,0.08329117943843205,-0.49890103948613024
0.014973022975027561,0.15215685963630676,171.03036499023438,0.05358881935891178,-0.400160553084376,0.08329117943843205,-0.49890103948613024
-0.05035988986492157,0.18502260744571686,171.02789306640625,0.05358881935891178,-0.400160553084376,0.08329117943843205,-0.49890103948613024
-0.02283012680709362,0.18294143676757812,171.0280303955078,0.05358881935891178,-0.400160553084376,0.08329117943843205,-0.49890103948613024
0.03895745426416397,0.17034250497817993,171.02825927734375,0.05358881935891178,-0.400160553084376,0.08329117943843205,-0.49890103948613024
0.05539406090974808,0.17321763932704926,171.0279998779297,0.05358881935891178,-0.400160553084376,0.08329117943843205,-0.49890103948613024
0.01665383204817772,0.1647278517484665,171.02749633789062,0.05358881935891178,-0.400160553084376,0.08329117943843205,-0.49890103948613024
0.006913543678820133,0.17714965343475342,171.0271453857422,0.05358881935891178,-0.400160553084376,0.08329117943843205,-0.49890103948613024
0.005323484074324369,0.17438597977161407,171.028076171875,0.05358881935891178,-0.400160553084376,0.08329117943843205,-0.49890103948613024
0.020573647692799568,0.16961242258548737,171.02783203125,0.05358881935891178,-0.400160553084376,0.08329117943843205,-0.49890103948613024
0.013734319247305393,0.17025014758110046,171.02850341796875,0.05358881935891178,-0.400160553084376,0.08329117943843205,-0.49890103948613024
0.010894635692238808,0.16856226325035095,171.02890014648438,0.05358881935891178,-0.400160553084376,0.08329117943843205,-0.49890103948613024
0.0020087468437850475,0.1853402554988861,171.02894592285156,0.05358881935891178,-0.400160553084376,0.08329117943843205,-0.49890103948613024
0.017213989049196243,0.17742474377155304,171.02825927734375,0.05358881935891178,-0.400160553084376,0.08329117943843205,-0.49890103948613024
0.011421442031860352,0.1666433960199356,171.02825927734375,0.05358881935891178,-0.400160553084376,0.08329117943843205,-0.49890103948613024
0.02574634924530983,0.17718015611171722,171.02882385253906,0.05358881935891178,-0.400160553084376,0.08329117943843205,-0.49890103948613024
0.007838270626962185,0.18341907858848572,171.02801513671875,0.05358881935891178,-0.400160553084376,0.08329117943843205,-0.49890103948613024
0.0035449559800326824,0.16746866703033447,171.02767944335938,0.05358881935891178,-0.400160553084376,0.08329117943843205,-0.49890103948613024
0.008648566901683807,0.17786747217178345,171.02731323242188,0.05358881935891178,-0.400160553084376,0.08329117943843205,-0.49890103948613024
0.01566019281744957,0.17121706902980804,171.02540588378906,0.05358881935891178,-0.400160553084376,0.08329117943843205,-0.49890103948613024
0.016618793830275536,0.15224052965641022,171.02511596679688,0.05358881935891178,-0.400160553084376,0.08329117943843205,-0.49890103948613024
0.018182963132858276,0.1629088670015335,171.0253143310547,0.05358881935891178,-0.400160553084376,0.08329117943843205,-0.49890103948613024
0.0187489353120327,0.17180532217025757,171.0247344970703,0.05358881935891178,-0.400160553084376,0.08329117943843205,-0.49890103948613024
0.016734711825847626,0.1713961511850357,171.02398681640625,0.05358881935891178,-0.400160553084376,0.08329117943843205,-0.49890103948613024
0.013098337687551975,0.16959373652935028,171.0242156982422,0.05358881935891178,-0.400160553084376,0.08329117943843205,-0.49890103948613024
0,0.15302680432796478,171.02503967285156,0.054977915289669506,-0.4084531662049186,0.08340033225249498,-0.49621253497898593
0,0.1812237650156021,171.0247802734375,0.056367920827211086,-0.41670016327614173,0.08340033225249498,-0.49342711356778957
0,0.16457486152648926,171.02340698242188,0.05775792636475267,-0.4248999347087617,0.08340033225249498,-0.49054545834660546
-0.5568806529045105,0.32314246892929077,171.01954650878906,0.05910925963473144,-0.43304182308881234,0.07875966014495739,-0.48648114725947394
-1.7143895626068115,0.8923323154449463,170.96893310546875,0.060264193538847995,-0.44106543423866645,0.059832408349029705,-0.476352190723022
-3.349330186843872,0.7551193833351135,170.9675750732422,0.06090975313984219,-0.44889023104941267,0.017634743770274006,-0.4626234265665215
-3.0209853649139404,-1.0656486749649048,171.0001678466797,0.0607612825115858,-0.456622186026329,-0.035451219161041096,-0.4652111706634364
-1.4215869903564453,0.5256465673446655,171.02597045898438,0.05986191688978578,-0.4644132056837488,-0.07247265545496098,-0.4697111882269384
-0.6450983881950378,1.8870959281921387,171.07398986816406,0.0585105194809148,-0.472074173925341,-0.08969503360955668,-0.44960500076413173
-0.9204412698745728,-0.4482070803642273,171.0711669921875,0.056906884222278464,-0.47946766776808847,-0.10274119742680343,-0.43761426036556583
-2.053342819213867,0.2185964733362198,171.0491485595703,0.05498801814786727,-0.48677718395522485,-0.12752273150254043,-0.43952768209079923
-1.1323072910308838,1.6163151264190674,171.01168823242188,0.052641413587391266,-0.49397522090675516,-0.15406981575458,-0.4242367520928385
-1.4265984296798706,-0.8768647909164429,170.9320831298828,0.049895881538654464,-0.5009944827238926,-0.1753940300938363,-0.41807466596364995
-1.578492283821106,-0.9446836709976196,170.8999786376953,0.04676396084865296,-0.508088890244253,-0.20043645270634444,-0.4332542364796005
-1.1232563257217407,1.6316730976104736,170.93936157226562,0.043235731872328965,-0.5152620865865093,-0.22295102445253484,-0.42752932459116005
-0.8143710494041443,-0.429556280374527,171.07542419433594,0.039385324008180754,-0.5223040949951651,-0.23909791924525053,-0.4175116844475272
-0.4954642951488495,0.789352536201477,171.15135192871094,0.0353093978996104,-0.5292376372181914,-0.25001321378319213,-0.41451338231563595
-1.0706135034561157,1.4757654666900635,171.1720733642578,0.031033755600542966,-0.5359888937288068,-0.2630638621049002,-0.39563739895820643
-1.0684340000152588,-0.5911850333213806,171.23089599609375,0.026500812933275785,-0.5425214211813485,-0.28088925796716163,-0.3882658953468007
0.37116608023643494,1.4724748134613037,171.21092224121094,0.021770903917171784,-0.5489313187579521,-0.2866998239653185,-0.3809218138456347
-1.2328587770462036,-0.7950357794761658,171.1946563720703,0.01693273374713802,-0.5552329712780193,-0.29388059643873327,-0.37527648856242524
0.2708287537097931,0.28872737288475037,171.22021484375,0.011967916165982993,-0.5615227397267397,-0.30189751329987,-0.37949572528402037
-0.9050019979476929,-0.31342631578445435,171.29791259765625,0.006892251135690861,-0.5678493836858414,-0.30718229033518585,-0.37970154980818455
-0.5390660166740417,0,171.41204833984375,0.0016722637957556985,-0.574199508565685,-0.31921619045703364,-0.382313435773055
-0.6368350982666016,0.8272298574447632,171.5133514404297,-0.0037296658448435173,-0.5805139526440245,-0.32901536641487233,-0.375419853627682
-0.6305548548698425,0.5777679085731506,171.51022338867188,-0.00930126847628142,-0.5866733809151791,-0.339576949357676,-0.36371153891086605
-0.6855721473693848,-0.25138047337532043,171.53150939941406,-0.015052282007398188,-0.5927125741029159,-0.35054467437633624,-0.3609916436175508
-0.10470336675643921,0.1354561597108841,171.61863708496094,-0.020949573491040308,-0.5987371517961018,-0.35713030366071813,-0.36195767956475444
0.3362509608268738,1.023339033126831,171.6559600830078,-0.026885665524686273,-0.6046893079004562,-0.35520074037679783,-0.3523010529577735
-0.4869316816329956,0.46558550000190735,171.5974884033203,-0.032816141803244436,-0.6104575945793962,-0.35645641305018216,-0.339893348515034
0.10774382203817368,-0.9572716951370239,171.4716339111328,-0.038783414510997115,-0.6161566285959755,-0.35961631188013904,-0.3439907334744933
-0.9421455264091492,1.1889936923980713,171.5577392578125,-0.044834964271802974,-0.6218737156818517,-0.36656965941656383,-0.3420597168306513
-0.3112078011035919,-0.5741325616836548,171.748046875,-0.05103149702093409,-0.6275320122727296,-0.37701427047917,-0.3369358740746978
0,-0.45249882340431213,171.8636016845703,-0.05733667984844134,-0.6332189040201612,-0.37960766882169994,-0.34549113561709754
-0.8062319755554199,1.4074854850769043,171.96705627441406,-0.06371946266043879,-0.6389107710956078,-0.3863262686179951,-0.3375329134364926
-0.7038419842720032,-0.9067655205726624,172.00314331054688,-0.07026310005128228,-0.6445015474331254,-0.39891021828322365,-0.33336024706562395
-0.7239518761634827,0.6177681684494019,171.9863739013672,-0.07701075604075514,-0.6500776208114499,-0.41080850045351935,-0.3357685583333178
0.3241862654685974,1.0052164793014526,171.9325408935547,-0.08388532588238982,-0.6555610561831337,-0.4141398805426434,-0.32224368626872735
0.4204253852367401,0.2399427443742752,171.76876831054688,-0.09073594808235712,-0.6608453148970794,-0.40793478345343226,-0.31186735940476296
0.4148096442222595,-0.798568606376648,171.656494140625,-0.097476858707313,-0.6660818976831312,-0.4009744915412739,-0.3165225749214494
-1.0343488454818726,-0.6989911198616028,171.69833374023438,-0.1042027904553106,-0.671461271135033,-0.40613731821843735,-0.3290022393067682
-0.9233369827270508,0,171.642578125,-0.11110769616368796,-0.6769931828401361,-0.42245136678684503,-0.3348271653056149
-0.072660431265831,1.0937855243682861,171.67221069335938,-0.11821771876388489,-0.6824976782671486,-0.4307513452367857,-0.3257122859358792
-0.8633738160133362,1.801433801651001,171.73828125,-0.12546191022944791,-0.6877251594684397,-0.4385516306307788,-0.3015854582190518
1.3592208623886108,0.23370636999607086,171.78265380859375,-0.13273667025062927,-0.692610254593504,-0.43441957191098485,-0.28462595678865954
0.28304794430732727,-1.408850073814392,171.8059539794922,-0.13986295000423624,-0.6974356277416357,-0.420733998521852,-0.29441882098714556
-0.5866912603378296,0.297704815864563,171.86453247070312,-0.14689626965432478,-0.7024197709565568,-0.42326435948877283,-0.3036783648033941
0.7807801365852356,0.14226599037647247,171.85597229003906,-0.15393719725162047,-0.7074505235084022,-0.4216469521867111,-0.30001194141805215
-0.8669330477714539,0.5563896298408508,171.8835906982422,-0.16097062929578693,-0.7124022047806324,-0.4223648931132629,-0.29418981124957444
-0.22738929092884064,0.10695367306470871,171.91770935058594,-0.16808603878786216,-0.7172593027943125,-0.4314842459357654,-0.28866195039202813
-0.4025256335735321,-0.07735058665275574,171.91876220703125,-0.17532118697877092,-0.7220682795309565,-0.43673353697328515,-0.28841525800526185
-0.2824874222278595,0.37671470642089844,171.99400329589844,-0.1826476496127563,-0.726854411322727,-0.4424419791049634,-0.285920557007194
0.6575082540512085,1.4327011108398438,171.9828643798828,-0.1826476496127563,-0.726854411322727,-0.4424419791049634,-0.285920557007194
1.0454752445220947,-1.5752395391464233,171.8204345703125,-0.1826476496127563,-0.726854411322727,-0.4424419791049634,-0.285920557007194
0.1767890453338623,1.6205769777297974,171.7230987548828,-0.1826476496127563,-0.726854411322727,-0.4424419791049634,-0.285920557007194
0.4099389612674713,-1.8106862306594849,171.7801971435547,-0.1826476496127563,-0.726854411322727,-0.4424419791049634,-0.285920557007194
1.5840152502059937,-0.03516322001814842,171.72189331054688,-0.1826476496127563,-0.726854411322727,-0.4424419791049634,-0.285920557007194
3.6178319454193115,0.781461775302887,171.09881591796875,-0.1826476496127563,-0.726854411322727,-0.4424419791049634,-0.285920557007194
1.176030158996582,1.3751251697540283,170.2210235595703,-0.1826476496127563,-0.726854411322727,-0.4424419791049634,-0.285920557007194
2.2925796508789062,1.2799441814422607,169.15553283691406,-0.1826476496127563,-0.726854411322727,-0.4424419791049634,-0.285920557007194
2.2481307983398438,0.5296009182929993,167.9932861328125,-0.1826476496127563,-0.726854411322727,-0.4424419791049634,-0.285920557007194
1.6726042032241821,1.2256208658218384,166.6669921875,-0.1826476496127563,-0.726854411322727,-0.4424419791049634,-0.285920557007194
1.0449795722961426,-0.6029589772224426,165.21932983398438,-0.1826476496127563,-0.726854411322727,-0.4424419791049634,-0.285920557007194
0.8650693297386169,-0.4049360156059265,163.6378173828125,-0.1826476496127563,-0.726854411322727,-0.4424419791049634,-0.285920557007194
1.5244297981262207,1.9871987104415894,161.9578857421875,-0.1826476496127563,-0.726854411322727,-0.4424419791049634,-0.285920557007194
1.972527265548706,-1.6263771057128906,160.1453094482422,-0.1826476496127563,-0.726854411322727,-0.4424419791049634,-0.285920557007194
2.263441324234009,-0.18545596301555634,158.26988220214844,-0.1826476496127563,-0.726854411322727,-0.4424419791049634,-0.285920557007194
1.7653034925460815,2.092088460922241,156.37136840820312,-0.1826476496127563,-0.726854411322727,-0.4424419791049634,-0.285920557007194
0.3033914566040039,-2.107301950454712,154.4657440185547,-0.1826476496127563,-0.726854411322727,-0.4424419791049634,-0.285920557007194
1.7179880142211914,0.306183397769928,152.48757934570312,-0.1826476496127563,-0.726854411322727,-0.4424419791049634,-0.285920557007194
0.5575921535491943,1.1655349731445312,150.580078125,-0.1826476496127563,-0.726854411322727,-0.4424419791049634,-0.285920557007194
1.9809257984161377,-1.7385257482528687,148.47911071777344,-0.1826476496127563,-0.726854411322727,-0.4424419791049634,-0.285920557007194
1.0382329225540161,2.280914545059204,146.19984436035156,-0.1826476496127563,-0.726854411322727,-0.4424419791049634,-0.285920557007194
-0.025143882259726524,-2.0477442741394043,143.92701721191406,-0.1826476496127563,-0.726854411322727,-0.4424419791049634,-0.285920557007194
1.777518630027771,1.3435308933258057,141.55783081054688,-0.1826476496127563,-0.726854411322727,-0.4424419791049634,-0.285920557007194
0.8464033603668213,-2.143826961517334,139.1304931640625,-0.1826476496127563,-0.726854411322727,-0.4424419791049634,-0.285920557007194
1.0987566709518433,0.039249975234270096,136.72755432128906,-0.1826476496127563,-0.726854411322727,-0.4424419791049634,-0.285920557007194
1.1807860136032104,1.7213174104690552,134.3316650390625,-0.1826476496127563,-0.726854411322727,-0.4424419791049634,-0.285920557007194
0.04027855768799782,-2.245154619216919,131.9315185546875,-0.1826476496127563,-0.726854411322727,-0.4424419791049634,-0.285920557007194
1.1820733547210693,2.1094555854797363,129.43614196777344,-0.1826476496127563,-0.726854411322727,-0.4424419791049634,-0.285920557007194
0.4710724949836731,-1.1913865804672241,126.95626831054688,-0.1826476496127563,-0.726854411322727,-0.4424419791049634,-0.285920557007194
0.5068802833557129,-1.2546647787094116,124.46368408203125,-0.1826476496127563,-0.726854411322727,-0.4424419791049634,-0.285920557007194
1.0997021198272705,1.3766639232635498,121.94723510742188,-0.1826476496127563,-0.726854411322727,-0.4424419791049634,-0.285920557007194
0.43969404697418213,-0.05053313821554184,119.38957977294922,-0.1826476496127563,-0.726854411322727,-0.4424419791049634,-0.285920557007194
0.29599401354789734,-1.0368047952651978,116.80150604248047,-0.1826476496127563,-0.726854411322727,-0.4424419791049634,-0.285920557007194
1.193543791770935,0.6887531280517578,114.14440155029297,-0.1826476496127563,-0.726854411322727,-0.4424419791049634,-0.285920557007194
0.0032737471628934145,-0.8883352875709534,111.4873275756836,-0.1826476496127563,-0.726854411322727,-0.4424419791049634,-0.285920557007194
1.0266318321228027,0.25349757075309753,108.81140899658203,-0.1826476496127563,-0.726854411322727,-0.4424419791049634,-0.285920557007194
0.8931885361671448,-0.6904265880584717,106.08274841308594,-0.1826476496127563,-0.726854411322727,-0.4424419791049634,-0.285920557007194
0.43870970606803894,-0.4302571415901184,103.40547943115234,-0.1826476496127563,-0.726854411322727,-0.4424419791049634,-0.285920557007194
-0.126553475856781,-0.9157377481460571,100.68364715576172,-0.1826476496127563,-0.726854411322727,-0.4424419791049634,-0.285920557007194
1.3017057180404663,1.2441737651824951,97.87223815917969,-0.1826476496127563,-0.726854411322727,-0.4424419791049634,-0.285920557007194
0.8334476947784424,-0.5546798706054688,95.03839874267578,-0.1826476496127563,-0.726854411322727,-0.4424419791049634,-0.285920557007194
-1.174372911453247,-1.0458869934082031,92.2035140991211,-0.1826476496127563,-0.726854411322727,-0.4424419791049634,-0.285920557007194
1.6968724727630615,0.2060665488243103,89.45158386230469,-0.1826476496127563,-0.726854411322727,-0.4424419791049634,-0.285920557007194
-0.46934378147125244,-0.8818426728248596,86.93650817871094,-0.1826476496127563,-0.726854411322727,-0.4424419791049634,-0.285920557007194
1.0399723052978516,-0.6454269886016846,84.88641357421875,-0.1826476496127563,-0.726854411322727,-0.4424419791049634,-0.285920557007194
-2.5641984939575195,0.1565793752670288,83.12969970703125,-0.1826476496127563,-0.726854411322727,-0.4424419791049634,-0.285920557007194
-2.1844279766082764,-0.22965756058692932,81.72484588623047,-0.1826476496127563,-0.726854411322727,-0.4424419791049634,-0.285920557007194
-1.387031078338623,0.13925586640834808,80.70720672607422,-0.1826476496127563,-0.726854411322727,-0.4424419791049634,-0.285920557007194
-0.6536281108856201,0.667284369468689,80.15784454345703,-0.1826476496127563,-0.726854411322727,-0.4424419791049634,-0.285920557007194
-1.952201008796692,1.2439357042312622,79.9693603515625,-0.1826476496127563,-0.726854411322727,-0.4424419791049634,-0.285920557007194
-0.6617738604545593,1.1887695789337158,80.07532501220703,-0.1826476496127563,-0.726854411322727,-0.4424419791049634,-0.285920557007194
0.48810261487960815,1.6135765314102173,80.39557647705078,-0.1826476496127563,-0.726854411322727,-0.4424419791049634,-0.285920557007194
1.303842544555664,1.4051851034164429,80.48100280761719,-0.1826476496127563,-0.726854411322727,-0.4424419791049634,-0.285920557007194
0.722741961479187,0.48523858189582825,80.38623046875,-0.1826476496127563,-0.726854411322727,-0.4424419791049634,-0.285920557007194
-0.5968351364135742,0.21622301638126373,80.40058135986328,-0.1826476496127563,-0.726854411322727,-0.4424419791049634,-0.285920557007194
-0.07398343086242676,-0.15504035353660583,80.52946472167969,-0.1826476496127563,-0.726854411322727,-0.4424419791049634,-0.285920557007194
0.59780353307724,-0.9698635339736938,80.61322021484375,-0.1826476496127563,-0.726854411322727,-0.4424419791049634,-0.285920557007194
0.15647155046463013,-0.7234802842140198,80.55716705322266,-0.1826476496127563,-0.726854411322727,-0.4424419791049634,-0.285920557007194
-0.01927204430103302,-0.36047661304473877,80.51935577392578,-0.1826476496127563,-0.726854411322727,-0.4424419791049634,-0.285920557007194
0.16480740904808044,0.06835130602121353,80.53707122802734,-0.1826476496127563,-0.726854411322727,-0.4424419791049634,-0.285920557007194
0.12736183404922485,0.0765671506524086,80.55119323730469,-0.1826476496127563,-0.726854411322727,-0.4424419791049634,-0.285920557007194
0.20472954213619232,0.13411465287208557,80.53340148925781,-0.1826476496127563,-0.726854411322727,-0.4424419791049634,-0.285920557007194
0.21568864583969116,0.28997623920440674,80.5293960571289,-0.1826476496127563,-0.726854411322727,-0.4424419791049634,-0.285920557007194
0.23818738758563995,0.40569740533828735,80.51996612548828,-0.1826476496127563,-0.726854411322727,-0.4424419791049634,-0.285920557007194
0.1521064192056656,0.36469531059265137,80.50431060791016,-0.1826476496127563,-0.726854411322727,-0.4424419791049634,-0.285920557007194
0.12535031139850616,0.24697993695735931,80.5095443725586,-0.1826476496127563,-0.726854411322727,-0.4424419791049634,-0.285920557007194
0.1484351009130478,0.09098248183727264,80.51701354980469,-0.1826476496127563,-0.726854411322727,-0.4424419791049634,-0.285920557007194
0.1701636165380478,0.008747228421270847,80.52236938476562,-0.1826476496127563,-0.726854411322727,-0.4424419791049634,-0.285920557007194
0.177754744887352,0.004981336183845997,80.5252456665039,-0.1826476496127563,-0.726854411322727,-0.4424419791049634,-0.285920557007194
0.12678207457065582,-0.009896521456539631,80.5245590209961,-0.1826476496127563,-0.726854411322727,-0.4424419791049634,-0.285920557007194
0.19590245187282562,0.09142830967903137,80.52086639404297,-0.1826476496127563,-0.726854411322727,-0.4424419791049634,-0.285920557007194
0.1456044763326645,0.15486076474189758,80.51609802246094,-0.1826476496127563,-0.726854411322727,-0.4424419791049634,-0.285920557007194
0.1646152138710022,0.17404933273792267,80.5157699584961,-0.1826476496127563,-0.726854411322727,-0.4424419791049634,-0.285920557007194
0.16912250220775604,0.12357582896947861,80.51528930664062,-0.1826476496127563,-0.726854411322727,-0.4424419791049634,-0.285920557007194
0.1399192065000534,0.07146521657705307,80.5157241821289,-0.1826476496127563,-0.726854411322727,-0.4424419791049634,-0.285920557007194
0.19139881432056427,0.0652230829000473,80.51729583740234,-0.1826476496127563,-0.726854411322727,-0.4424419791049634,-0.285920557007194
0.14233212172985077,0.06270331144332886,80.51859283447266,-0.1826476496127563,-0.726854411322727,-0.4424419791049634,-0.285920557007194
0.16620665788650513,0.08843974024057388,80.51715850830078,-0.1826476496127563,-0.726854411322727,-0.4424419791049634,-0.285920557007194
0.1481633186340332,0.12885306775569916,80.5174789428711,-0.1826476496127563,-0.726854411322727,-0.4424419791049634,-0.285920557007194
0.15626001358032227,0.10942507535219193,80.51712036132812,-0.1826476496127563,-0.726854411322727,-0.4424419791049634,-0.285920557007194
0.15238799154758453,0.08136321604251862,80.51605224609375,-0.1826476496127563,-0.726854411322727,-0.4424419791049634,-0.285920557007194
0.16276349127292633,0.07973065972328186,80.51692199707031,-0.1826476496127563,-0.726854411322727,-0.4424419791049634,-0.285920557007194
0.14149096608161926,0.08001155406236649,80.51718139648438,-0.1826476496127563,-0.726854411322727,-0.4424419791049634,-0.285920557007194
0.1625615954399109,0.10035302489995956,80.51700592041016,-0.1826476496127563,-0.726854411322727,-0.4424419791049634,-0.285920557007194
0.16511061787605286,0.10155528038740158,80.51681518554688,-0.1826476496127563,-0.726854411322727,-0.4424419791049634,-0.285920557007194
0.1584060788154602,0.09953198581933975,80.51586151123047,-0.1826476496127563,-0.726854411322727,-0.4424419791049634,-0.285920557007194
0.1666537970304489,0.07904878258705139,80.51549530029297,-0.1826476496127563,-0.726854411322727,-0.4424419791049634,-0.285920557007194
0.16920259594917297,0.0874839723110199,80.51629638671875,-0.1826476496127563,-0.726854411322727,-0.4424419791049634,-0.285920557007194
0.14914625883102417,0.10007578134536743,80.51646423339844,-0.1826476496127563,-0.726854411322727,-0.4424419791049634,-0.285920557007194
0.1575016975402832,0.1016940027475357,80.51607513427734,-0.1826476496127563,-0.726854411322727,-0.4424419791049634,-0.285920557007194
0.15670304000377655,0.09967982769012451,80.51596069335938,-0.18999986282439849,-0.7316057696457332,-0.43982360629209627,-0.2842424417535468
0.15725962817668915,0.07207857817411423,80.51664733886719,-0.197308453299532,-0.7363312160078851,-0.43720725072392574,-0.28281112170467815
0.16658742725849152,0.10945945978164673,80.51544952392578,-0.20457275143274778,-0.7410321278947717,-0.4345085252619659,-0.28129830472171347
0.48222097754478455,0.9934984445571899,80.51470947265625,-0.21176950404789144,-0.7456438386745545,-0.429101788555272,-0.2721069888522232
-0.48828890919685364,2.784092426300049,80.60161590576172,-0.21892162190795514,-0.7499166224560598,-0.42915235465237256,-0.24062706492841285
-0.9036983251571655,2.415781259536743,80.9332504272461,-0.22617082693232482,-0.7535659711989058,-0.4407522482719894,-0.19729478421310626
0.796400785446167,0.9376947283744812,81.37519836425781,-0.23352414895489346,-0.7566213373255193,-0.4416463944362477,-0.16934915098051273
1.3571022748947144,0.9418564438819885,81.58757781982422,-0.2407353733718628,-0.7593132987882323,-0.4237005356000737,-0.15368622454504216
0.44459179043769836,2.192133665084839,81.80280303955078,-0.24767193132177148,-0.7616570976619714,-0.40868641838897024,-0.12756964030365192
-0.49760276079177856,2.1961379051208496,82.01203918457031,-0.25448705294564,-0.7634785172524347,-0.40912817647525423,-0.09100071055193784
0.9731866121292114,1.2371652126312256,82.15333557128906,-0.26127282923055134,-0.7647567719340119,-0.405164977714109,-0.062389851237337215
2.000835418701172,0.5545406937599182,82.3718490600586,-0.26781904955142327,-0.7656721787666904,-0.38038146079052243,-0.04745896868407769
-2.1646883487701416,2.108478307723999,82.54859161376953,-0.2741701192402979,-0.7662782297029886,-0.3817469018744305,-0.02526714367171171
1.0770198106765747,1.5239619016647339,82.6615219116211,-0.28060810014223936,-0.7664470959718652,-0.39081080635854354,0.005003191406527732
1.0009956359863281,0.6189964413642883,82.80574798583984,-0.2869773069533079,-0.7662148928968239,-0.37349401096968604,0.022861177598436252
0,1.1435050964355469,82.8030776977539,-0.29313269355030364,-0.7657114773300583,-0.3651523806698,0.03754869041343488
0,0.8021331429481506,82.77308654785156,-0.29921856656146695,-0.7649505520565438,-0.3651523806698,0.053762342408299024
0.25515785813331604,1.298465371131897,82.72677612304688,-0.3052867202769266,-0.7639086381195944,-0.3630260651853557,0.07126733002563275
-0.18358087539672852,1.0222806930541992,82.70817565917969,-0.3113321840728814,-0.7625596863647098,-0.36242959032921745,0.09060688056051688
1.2317320108413696,0.6547545194625854,82.64878845214844,-0.3172998889717402,-0.7609331109100542,-0.3536949975338454,0.10458217399815675
0.9013307690620422,1.1388534307479858,82.54826354980469,-0.3230466762375888,-0.7590655185690981,-0.33591947436798364,0.11952890691657818
0.1801731139421463,0,82.49591064453125,-0.32857022970740213,-0.7569942830766865,-0.3269069420096154,0.1290193521728114
-0.6671828627586365,0.4412752091884613,82.45872497558594,-0.3340524988623413,-0.7548133164287237,-0.3309653565830861,0.13269664558271524
0.7129428386688232,0.7091575860977173,82.46467590332031,-0.33956541036262117,-0.7525218145026725,-0.33058402345050125,0.1422835855434334
-0.17097385227680206,0.8741839528083801,82.54437255859375,-0.3450375073516301,-0.7500404671367468,-0.32606761523056776,0.15547809836765086
-0.4870421588420868,0.4783658981323242,82.68499755859375,-0.35051766316180055,-0.747355238424304,-0.33155108198989186,0.16674934712549005
0.9832736253738403,0,82.72822570800781,-0.3560090540097896,-0.7445428627848422,-0.3274158197687939,0.17073572960992608
0.9150533080101013,0.2641761600971222,82.6982421875,-0.36133415608000674,-0.74167892172467,-0.31159642865726106,0.17293719761073545
-0.6606495380401611,1.2417668104171753,82.65396118164062,-0.36650976296249094,-0.738692055724872,-0.3094763972408449,0.18548672236502126
0.0947834700345993,0.47660836577415466,82.6320571899414,-0.3717069991712276,-0.7354812787426639,-0.31419194780755794,0.19980651549994902
-0.11641489714384079,1.5576484203338623,82.6932144165039,-0.3769450338171251,-0.7320099023186295,-0.31437220970013496,0.21675865538418249
0.3289142847061157,0.3788723647594452,82.80693054199219,-0.38216981374354664,-0.7282627774521505,-0.31260138147044936,0.23289632859329337
-0.865713894367218,-1.161352276802063,82.91781616210938,-0.387417114518725,-0.7244355108583763,-0.31707471155095857,0.2263756626596049
0.6909064650535583,0.6819930076599121,82.9695816040039,-0.3927138324493878,-0.7206958719855178,-0.3185314401285724,0.22238100208342032
1.3288847208023071,0.3149995505809784,83.03767395019531,-0.39788242650806843,-0.7169202863564718,-0.3016998469131068,0.2306892734020944
0.39888888597488403,-0.23271828889846802,83.0251235961914,-0.4027907730117051,-0.7130697511565978,-0.28730173352329685,0.231374950582782
-0.5428152084350586,0.7200487852096558,82.97502899169922,-0.4075891301205976,-0.7091796595846409,-0.2885011195437983,0.2354360380520419
0.7408901453018188,0.5220242142677307,82.92668151855469,-0.4123837269090452,-0.7051694705476987,-0.2868504950699086,0.24578664638102013
-0.07262906432151794,0.18941403925418854,82.93646240234375,-0.41711816147403113,-0.701023621007076,-0.2812816527284061,0.2517152984937028
-0.39649349451065063,1.094279170036316,82.85152435302734,-0.421838766974979,-0.6967392206704247,-0.28519100738534087,0.26241274190445696
1.0696766376495361,0.20413756370544434,82.65437316894531,-0.4265452016020167,-0.692275507143285,-0.2795811478591835,0.27323288135230495
-0.689598798751831,-0.19605790078639984,82.54828643798828,-0.4311784931053019,-0.6877210646997105,-0.27641383253503593,0.27330021187663034
0.5084604024887085,-0.4329049587249756,82.52156066894531,-0.4357979693695152,-0.6832097391447883,-0.27792331917056196,0.26805885471403557
0.561596691608429,0,82.54039001464844,-0.44035571516860117,-0.6787721544105769,-0.26900617671975247,0.26445131339132744
-0.9919233322143555,0.46671196818351746,82.46031188964844,-0.44486903524175025,-0.6743322219673754,-0.2725922320581352,0.26834057979285675
0.7366124987602234,1.0287268161773682,82.29308319091797,-0.44942996902837573,-0.6697560290552472,-0.27471982233691966,0.2808025696625308
0.7092503905296326,1.09576416015625,82.28333282470703,-0.4539082255889015,-0.6649284521319596,-0.26267096492617087,0.2985066611319776
0.64730304479599,-0.7051820158958435,82.28048706054688,-0.45819186990466226,-0.6599262173530752,-0.251366352965124,0.30176151233414766
-0.534713089466095,0.11940467357635498,82.2769775390625,-0.4623734903738497,-0.6549375377962783,-0.25042810333737486,0.29688003448148526
0.7463869452476501,-0.5260422825813293,82.4158706665039,-0.46653259252282114,-0.6500177759444344,-0.24866415453919524,0.2934913877397771
-0.5418757796287537,0.10601315647363663,82.43970489501953,-0.47066279293419533,-0.6451554215047511,-0.24695989482570443,0.289991145022213
0.644270658493042,0.10691527277231216,82.345703125,-0.4747716804258137,-0.6403074490579055,-0.24610660416850202,0.29176554859926257
-0.10065571963787079,-1.0760741233825684,82.22269439697266,-0.4788357061245349,-0.6355119926125435,-0.24157647967804227,0.2836892248441771
0.15341366827487946,1.3332477807998657,82.21154022216797,-0.48285831703940246,-0.6307659795833755,-0.2411368301060672,0.2858323386559879
-0.5137736797332764,1.9363577365875244,82.37451171875,-0.48690228920863265,-0.625775051333735,-0.24413983020155386,0.3130790513008828
0.38960978388786316,0.0781383067369461,82.50458526611328,-0.4909799088714256,-0.6204171715868227,-0.24517452933359896,0.3298665183285867
-0.2268441617488861,-1.4200533628463745,82.56175994873047,-0.4950548478587815,-0.6150125848269095,-0.2438181491491075,0.3186838928610081
-0.454527884721756,0.08003807812929153,82.59896087646484,-0.49916580118116044,-0.6097942432295536,-0.24949624953636285,0.3075170988216991
1.804033637046814,-0.6049328446388245,82.62970733642578,-0.5032303563295217,-0.604705409274644,-0.23825036826698737,0.30314297576745297
-0.6802337169647217,0.280729740858078,82.61894226074219,-0.5071231541395214,-0.5996755404496157,-0.22888536893296993,0.30044128323594677
0.23606877028942108,1.1516826152801514,82.59708404541016,-0.5109687550763677,-0.5945687126487292,-0.23258674348859742,0.312378052870432
0.494787335395813,-0.09738952666521072,82.63760375976562,-0.5147944469049496,-0.5892891969697349,-0.2264962759412205,0.32116382860888987
-0.290778249502182,1.0317153930664062,82.58210754394531,-0.5185552175396717,-0.5838715827521977,-0.22479620022544022,0.3289498774955665
0.960130512714386,0,82.51915740966797,-0.522255338080706,-0.578317437891642,-0.21921826469867187,0.33754750577111986
-1.1427725553512573,-0.5414960384368896,82.45404815673828,-0.525921659300867,-0.5727292500203481,-0.2207402817206458,0.33303503878414575
0.6349769234657288,0,82.4350357055664,-0.5296359275817587,-0.5672162699321704,-0.22497191198635855,0.32852257179717165
0.9382941126823425,-1.1441763639450073,82.38529968261719,-0.5332762045151321,-0.5618203504274916,-0.21186132001845795,0.3189877687642966
-0.46712255477905273,0.6666796207427979,82.31706237792969,-0.5367745062683632,-0.556537047110809,-0.20793489036926388,0.31500862923761147
0.17164991796016693,1.6808600425720215,82.1324691772461,-0.54026060670763,-0.5511238797024519,-0.2103971623427546,0.33457145976523495
0.9949219822883606,-0.32783249020576477,82.11003112792969,-0.543686214142492,-0.5454537284596725,-0.20067572984068355,0.3458466893682871
0.1911763846874237,-0.3084847331047058,82.09675598144531,-0.543686214142492,-0.5454537284596725,-0.20067572984068355,0.3458466893682871
-0.6382381319999695,-0.5343697667121887,82.1506576538086,-0.543686214142492,-0.5454537284596725,-0.20067572984068355,0.3458466893682871
-0.1810133010149002,-1.2111812829971313,82.19644927978516,-0.543686214142492,-0.5454537284596725,-0.20067572984068355,0.3458466893682871
0.05983492732048035,-3.2124125957489014,81.84355163574219,-0.543686214142492,-0.5454537284596725,-0.20067572984068355,0.3458466893682871
0.014729692600667477,-2.8671817779541016,81.16410827636719,-0.543686214142492,-0.5454537284596725,-0.20067572984068355,0.3458466893682871
-0.29442110657691956,-1.5662461519241333,80.26236724853516,-0.543686214142492,-0.5454537284596725,-0.20067572984068355,0.3458466893682871
0.4812430739402771,-1.4883646965026855,79.146484375,-0.543686214142492,-0.5454537284596725,-0.20067572984068355,0.3458466893682871
-0.04313620924949646,-1.4525325298309326,77.76498413085938,-0.543686214142492,-0.5454537284596725,-0.20067572984068355,0.3458466893682871
-0.07892870157957077,-2.3642866611480713,76.19857788085938,-0.543686214142492,-0.5454537284596725,-0.20067572984068355,0.3458466893682871
1.4601904153823853,-1.5210702419281006,74.50204467773438,-0.543686214142492,-0.5454537284596725,-0.20067572984068355,0.3458466893682871
-0.3420785367488861,-1.5204650163650513,72.79521942138672,-0.543686214142492,-0.5454537284596725,-0.20067572984068355,0.3458466893682871
0.5014266967773438,-1.361199140548706,70.97004699707031,-0.543686214142492,-0.5454537284596725,-0.20067572984068355,0.3458466893682871
-0.08912348747253418,-1.5003656148910522,68.99382781982422,-0.543686214142492,-0.5454537284596725,-0.20067572984068355,0.3458466893682871
-0.4219737946987152,-1.5973540544509888,66.90669250488281,-0.543686214142492,-0.5454537284596725,-0.20067572984068355,0.3458466893682871
1.4678919315338135,-1.001751184463501,64.80091094970703,-0.543686214142492,-0.5454537284596725,-0.20067572984068355,0.3458466893682871
-0.2879154086112976,-1.4748061895370483,62.62938690185547,-0.543686214142492,-0.5454537284596725,-0.20067572984068355,0.3458466893682871
1.7777745723724365,-0.48648276925086975,60.39180374145508,-0.543686214142492,-0.5454537284596725,-0.20067572984068355,0.3458466893682871
-1.2898027896881104,-1.072797179222107,58.178985595703125,-0.543686214142492,-0.5454537284596725,-0.20067572984068355,0.3458466893682871
1.3879932165145874,-1.151002287864685,56.03448486328125,-0.543686214142492,-0.5454537284596725,-0.20067572984068355,0.3458466893682871
-2.0592246055603027,-1.5238709449768066,53.83622741699219,-0.543686214142492,-0.5454537284596725,-0.20067572984068355,0.3458466893682871
2.2548105716705322,-0.7369272112846375,51.715667724609375,-0.543686214142492,-0.5454537284596725,-0.20067572984068355,0.3458466893682871
-0.5932232141494751,-1.4302141666412354,49.561187744140625,-0.543686214142492,-0.5454537284596725,-0.20067572984068355,0.3458466893682871
1.1666951179504395,-0.45762574672698975,47.384342193603516,-0.543686214142492,-0.5454537284596725,-0.20067572984068355,0.3458466893682871
-0.5481563806533813,-1.6748433113098145,45.097320556640625,-0.543686214142492,-0.5454537284596725,-0.20067572984068355,0.3458466893682871
-0.40859055519104004,-0.5362467169761658,42.76012420654297,-0.543686214142492,-0.5454537284596725,-0.20067572984068355,0.3458466893682871
-0.508111834526062,-0.5315259099006653,40.36448287963867,-0.543686214142492,-0.5454537284596725,-0.20067572984068355,0.3458466893682871
-0.7699198722839355,-0.6383939385414124,37.866519927978516,-0.543686214142492,-0.5454537284596725,-0.20067572984068355,0.3458466893682871
0.10182219743728638,-1.1337403059005737,35.348976135253906,-0.543686214142492,-0.5454537284596725,-0.20067572984068355,0.3458466893682871
-1.227070927619934,0.06402485072612762,32.75418472290039,-0.543686214142492,-0.5454537284596725,-0.20067572984068355,0.3458466893682871
1.2255821228027344,-0.7839413285255432,30.199033737182617,-0.543686214142492,-0.5454537284596725,-0.20067572984068355,0.3458466893682871
-0.7813301086425781,-0.31495869159698486,27.650907516479492,-0.543686214142492,-0.5454537284596725,-0.20067572984068355,0.3458466893682871
1.2604258060455322,-1.4580321311950684,25.161373138427734,-0.543686214142492,-0.5454537284596725,-0.20067572984068355,0.3458466893682871
-1.6731960773468018,-0.08558608591556549,22.704309463500977,-0.543686214142492,-0.5454537284596725,-0.20067572984068355,0.3458466893682871
0.34674596786499023,-0.6379637122154236,20.111682891845703,-0.543686214142492,-0.5454537284596725,-0.20067572984068355,0.3458466893682871
-0.5463513135910034,-0.2516974210739136,17.424116134643555,-0.543686214142492,-0.5454537284596725,-0.20067572984068355,0.3458466893682871
-0.4482194781303406,-0.3510685861110687,14.64274787902832,-0.543686214142492,-0.5454537284596725,-0.20067572984068355,0.3458466893682871
0.42043912410736084,-2.0181097984313965,11.962944984436035,-0.543686214142492,-0.5454537284596725,-0.20067572984068355,0.3458466893682871
-1.1312748193740845,0.8677672743797302,9.32998275756836,-0.543686214142492,-0.5454537284596725,-0.20067572984068355,0.3458466893682871
0.15172113478183746,-2.0173444747924805,6.606856346130371,-0.543686214142492,-0.5454537284596725,-0.20067572984068355,0.3458466893682871
-1.2566453218460083,0.8663716912269592,3.8378005027770996,-0.543686214142492,-0.5454537284596725,-0.20067572984068355,0.3458466893682871
-0.7974469661712646,0.4550405442714691,0.9984548091888428,-0.543686214142492,-0.5454537284596725,-0.20067572984068355,0.3458466893682871
-0.38842126727104187,-1.0613819360733032,-1.688528060913086,-0.543686214142492,-0.5454537284596725,-0.20067572984068355,0.3458466893682871
-0.6977220773696899,2.3861241340637207,-3.9698715209960938,-0.543686214142492,-0.5454537284596725,-0.20067572984068355,0.3458466893682871
1.082006573677063,0.7680971026420593,-5.952014446258545,-0.543686214142492,-0.5454537284596725,-0.20067572984068355,0.3458466893682871
0.4262767732143402,1.0709967613220215,-7.567364692687988,-0.543686214142492,-0.5454537284596725,-0.20067572984068355,0.3458466893682871
1.5017586946487427,1.748013973236084,-8.77720832824707,-0.543686214142492,-0.5454537284596725,-0.20067572984068355,0.3458466893682871
0.9074299931526184,1.128417730331421,-9.609624862670898,-0.543686214142492,-0.5454537284596725,-0.20067572984068355,0.3458466893682871
0.21770426630973816,1.5335029363632202,-10.069977760314941,-0.543686214142492,-0.5454537284596725,-0.20067572984068355,0.3458466893682871
0.9942178130149841,0.6925249099731445,-10.158234596252441,-0.543686214142492,-0.5454537284596725,-0.20067572984068355,0.3458466893682871
-0.42044132947921753,0.17622937262058258,-10.066317558288574,-0.543686214142492,-0.5454537284596725,-0.20067572984068355,0.3458466893682871
0.0798749104142189,-0.2101466953754425,-10.037095069885254,-0.543686214142492,-0.5454537284596725,-0.20067572984068355,0.3458466893682871
0.5991960167884827,-0.22196431457996368,-10.049469947814941,-0.543686214142492,-0.5454537284596725,-0.20067572984068355,0.3458466893682871
0.4557167589664459,-0.2408631443977356,-10.047575950622559,-0.543686214142492,-0.5454537284596725,-0.20067572984068355,0.3458466893682871
0.16614100337028503,-0.025046098977327347,-10.040671348571777,-0.543686214142492,-0.5454537284596725,-0.20067572984068355,0.3458466893682871
-0.15604175627231598,-0.05418763682246208,-10.043145179748535,-0.543686214142492,-0.5454537284596725,-0.20067572984068355,0.3458466893682871
-0.1388610303401947,-0.11867905408143997,-10.046435356140137,-0.543686214142492,-0.5454537284596725,-0.20067572984068355,0.3458466893682871
0.198533833026886,-0.11671694368124008,-10.043816566467285,-0.543686214142492,-0.5454537284596725,-0.20067572984068355,0.3458466893682871
0.2825244963169098,-0.10372326523065567,-10.047223091125488,-0.543686214142492,-0.5454537284596725,-0.20067572984068355,0.3458466893682871
0.09427233040332794,-0.13538725674152374,-10.043728828430176,-0.543686214142492,-0.5454537284596725,-0.20067572984068355,0.3458466893682871
-0.03049326501786709,-0.0717785656452179,-10.044999122619629,-0.543686214142492,-0.5454537284596725,-0.20067572984068355,0.3458466893682871
0.027278004214167595,-0.10503893345594406,-10.04616641998291,-0.543686214142492,-0.5454537284596725,-0.20067572984068355,0.3458466893682871
0.1715155839920044,-0.10849057883024216,-10.046149253845215,-0.543686214142492,-0.5454537284596725,-0.20067572984068355,0.3458466893682871
0.1677318662405014,-0.1347210705280304,-10.045411109924316,-0.543686214142492,-0.5454537284596725,-0.20067572984068355,0.3458466893682871
0.04278455674648285,-0.08344192057847977,-10.044479370117188,-0.543686214142492,-0.5454537284596725,-0.20067572984068355,0.3458466893682871
0.017655398696660995,-0.09667080640792847,-10.0440673828125,-0.543686214142492,-0.5454537284596725,-0.20067572984068355,0.3458466893682871
0.1249627098441124,-0.09857567399740219,-10.044389724731445,-0.543686214142492,-0.5454537284596725,-0.20067572984068355,0.3458466893682871
0.14721378684043884,-0.10804274678230286,-10.043806076049805,-0.543686214142492,-0.5454537284596725,-0.20067572984068355,0.3458466893682871
0.08239239454269409,-0.10727203637361526,-10.044401168823242,-0.543686214142492,-0.5454537284596725,-0.20067572984068355,0.3458466893682871
0.048932090401649475,-0.10147574543952942,-10.045297622680664,-0.543686214142492,-0.5454537284596725,-0.20067572984068355,0.3458466893682871
0.08887983858585358,-0.09014394879341125,-10.04491901397705,-0.543686214142492,-0.5454537284596725,-0.20067572984068355,0.3458466893682871
0.12688502669334412,-0.1171155497431755,-10.04415225982666,-0.543686214142492,-0.5454537284596725,-0.20067572984068355,0.3458466893682871
0.0870637372136116,-0.09147182106971741,-10.043519020080566,-0.543686214142492,-0.5454537284596725,-0.20067572984068355,0.3458466893682871
0.050615094602108,-0.10761167109012604,-10.04532527923584,-0.543686214142492,-0.5454537284596725,-0.20067572984068355,0.3458466893682871
0.08633459359407425,-0.09087775647640228,-10.045637130737305,-0.543686214142492,-0.5454537284596725,-0.20067572984068355,0.3458466893682871
0.10017294436693192,-0.10967061668634415,-10.045764923095703,-0.543686214142492,-0.5454537284596725,-0.20067572984068355,0.3458466893682871
0.08679572492837906,-0.09410645812749863,-10.04592514038086,-0.543686214142492,-0.5454537284596725,-0.20067572984068355,0.3458466893682871
0.0632573664188385,-0.10448234528303146,-10.045964241027832,-0.543686214142492,-0.5454537284596725,-0.20067572984068355,0.3458466893682871
0.07679212093353271,-0.10936108976602554,-10.046131134033203,-0.543686214142492,-0.5454537284596725,-0.20067572984068355,0.3458466893682871
0.08672220259904861,-0.11418262869119644,-10.045562744140625,-0.543686214142492,-0.5454537284596725,-0.20067572984068355,0.3458466893682871
0.0926058366894722,-0.08981923758983612,-10.046923637390137,-0.543686214142492,-0.5454537284596725,-0.20067572984068355,0.3458466893682871
0.07542197406291962,-0.11313793808221817,-10.047125816345215,-0.543686214142492,-0.5454537284596725,-0.20067572984068355,0.3458466893682871
0.07389548420906067,-0.10546325147151947,-10.047202110290527,-0.543686214142492,-0.5454537284596725,-0.20067572984068355,0.3458466893682871
0.0833437368273735,-0.09609509259462357,-10.047335624694824,-0.543686214142492,-0.5454537284596725,-0.20067572984068355,0.3458466893682871
0.07913123816251755,-0.11042024940252304,-10.046830177307129,-0.543686214142492,-0.5454537284596725,-0.20067572984068355,0.3458466893682871
0.07069779187440872,-0.0916450023651123,-10.0466947555542,-0.543686214142492,-0.5454537284596725,-0.20067572984068355,0.3458466893682871
0.07529477775096893,-0.10084447264671326,-10.047163963317871,-0.543686214142492,-0.5454537284596725,-0.20067572984068355,0.3458466893682871
0.07120191305875778,-0.09977906197309494,-10.04671859741211,-0.543686214142492,-0.5454537284596725,-0.20067572984068355,0.3458466893682871
0.09576361626386642,-0.11512741446495056,-10.047143936157227,-0.543686214142492,-0.5454537284596725,-0.20067572984068355,0.3458466893682871
0.08441141247749329,-0.10684547573328018,-10.04670524597168,-0.547018297485063,-0.5397050317542427,-0.19917427126783888,0.34399691528330184
0.2939177453517914,-0.16201342642307281,-10.054696083068848,-0.5503115958146778,-0.5339904205899485,-0.19602152828592817,0.3417564244319989
0.8187874555587769,-0.3307957053184509,-10.060654640197754,-0.5535013500916023,-0.5283287030391195,-0.18674898494500677,0.3376496816674862
2.8669281005859375,-0.2722216844558716,-10.067094802856445,-0.5563578807048424,-0.5227430845522846,-0.15603468864380082,0.3326245367527002
2.2918899059295654,-0.2971072196960449,-9.91830062866211,-0.5586002075984533,-0.5172388790025279,-0.11304453858950497,0.3278801292181009
1.0954123735427856,-0.259146511554718,-9.746007919311523,-0.5602490539166484,-0.511812838913563,-0.08481701959390205,0.3232446814576779
1.734197735786438,0.3267745077610016,-9.590160369873047,-0.5614661702078433,-0.5064207311673096,-0.061236935349491844,0.32380824809273023
1.0035098791122437,-1.5037745237350464,-9.485478401184082,-0.5622966672126335,-0.5011056631446511,-0.03842270522533617,0.31399991462627985
1.5312471389770508,0,-9.373208999633789,-0.5627610208401329,-0.4959767600205836,-0.017299730074592047,0.3014684602618211
1.4954577684402466,0.18065713346004486,-9.250842094421387,-0.5628391618339166,-0.4909397400486185,0.007922810820552097,0.3029739363739882
1.126194715499878,-1.0436915159225464,-9.193706512451172,-0.5625250557866338,-0.48595010738561195,0.029769914853386467,0.29578198318680066
2.1570985317230225,0,-9.058575630187988,-0.5618008840635758,-0.4810928862433266,0.05713069191357731,0.2870845538874461
0.5357064604759216,0.6229632496833801,-8.99771499633789,-0.5606617055183356,-0.47626488234175224,0.07957073351523518,0.29227591430147426
0.3841298818588257,-1.3857872486114502,-8.920662879943848,-0.5592716491026418,-0.47144659099220876,0.08723603636802474,0.2859190476437403
0.9475285410881042,0.7789468169212341,-8.848255157470703,-0.5577252388838034,-0.4667234152281249,0.0983331898925825,0.28086204404632187
1.2336935997009277,-1.313321590423584,-8.788284301757812,-0.5559348786258167,-0.46207949051995717,0.11651004106582442,0.27640892093380226
0.5524620413780212,0.5016321539878845,-8.743806838989258,-0.553869006021867,-0.45752904249303517,0.131394671408149,0.2696448422968381
1.7395529747009277,-0.19059936702251434,-8.723865509033203,-0.5515199271222813,-0.453013362288993,0.15049479654214024,0.2722367821882162
0.2328367531299591,-1.4966195821762085,-8.696106910705566,-0.5488747090043684,-0.44859325056843935,0.16693137760739762,0.2581766242782268
0.8247174620628357,0.5416402816772461,-8.629439353942871,-0.5460190781126345,-0.444356624837448,0.17574432940067092,0.25021846344073545
0.8153405785560608,0.17322733998298645,-8.541041374206543,-0.5429761130364692,-0.4401366735285982,0.18941147973916173,0.2561756936212374
0.7189075350761414,-0.8386418223381042,-8.574061393737793,-0.5397127100329254,-0.43591328797396334,0.20219688068609673,0.25063057293494473
1.1189820766448975,-0.8315097689628601,-8.542587280273438,-0.5362151307984543,-0.43185209450777684,0.21751262745043873,0.2367126430074367
1.0836243629455566,0.771784245967865,-8.51876163482666,-0.5324369615604199,-0.4279110313967498,0.23586768111369252,0.23621493031581173
0.4699976146221161,0.9903910756111145,-8.529277801513672,-0.5283979431267495,-0.4238517426052655,0.24881453092675646,0.2508997246623032
0,-1.3483833074569702,-8.553834915161133,-0.5242183955547326,-0.4196949410992164,0.2527311777152741,0.24791645606358773
0,-0.6941868662834167,-8.576862335205078,-0.520006209259478,-0.41570484531577745,0.2527311777152741,0.2308950379490845
0.29419630765914917,0.3137633502483368,-8.664722442626953,-0.5157735926650805,-0.4118830129830174,0.25518281361243367,0.2277248419821255
0.8808755278587341,0,-8.783238410949707,-0.51143894356074,-0.40806580982843693,0.26497507890841604,0.2303395365675283
1.3504068851470947,-0.8277698159217834,-8.823554039001465,-0.50686774207803,-0.40428430156730605,0.28356909901679794,0.22344145476818011
0,0.9256436824798584,-8.795878410339355,-0.502047812171837,-0.40055348052488093,0.29482248972635705,0.22425707032283074
0.8219360113143921,0,-8.80791187286377,-0.49707702512005647,-0.39675158187488374,0.3016719564873103,0.23197076767682956
-0.42405223846435547,-1.171614170074463,-8.81736946105957,-0.4920215283610423,-0.3929667645087473,0.304987654594394,0.22220731625954238
0.37267518043518066,-0.1825253814458847,-8.80548095703125,-0.4869419686357211,-0.3893573467066105,0.30455951244415086,0.21092281999687282
0.18715634942054749,0,-8.729068756103516,-0.4818270995720786,-0.3858546417470408,0.3092247751929486,0.20940177515149044
-0.4111858308315277,-0.33180150389671326,-8.703798294067383,-0.47668891092173854,-0.3823876539322866,0.3073578628478571,0.20663676261901784
0.6945212483406067,0.9783421158790588,-8.617505073547363,-0.4715466038036139,-0.3788988092350264,0.3097189913270994,0.21202460105220405
0.4898495376110077,0.5368452668190002,-8.568940162658691,-0.46630237264358226,-0.3752598445381356,0.31958874787669617,0.22465116257468787
0.7048566341400146,-1.3157823085784912,-8.509737014770508,-0.4608929278059324,-0.3715697513453463,0.329544632641288,0.21816002056002545
0.11771407723426819,-0.2754332721233368,-8.458614349365234,-0.45534339429584325,-0.3680442520846724,0.33639938856940704,0.20489989072084355
0.6788264513015747,0.8300295472145081,-8.443875312805176,-0.4496814225052048,-0.364590740275777,0.34303722630720573,0.20952152634660332
-0.28644731640815735,-0.7931456565856934,-8.33465576171875,-0.44393688684905047,-0.36109615345537327,0.34630705243131754,0.20982889210184344
-1.7469258308410645,-0.9679319262504578,-8.283495903015137,-0.43830630911042084,-0.3577213023080395,0.3293622762042407,0.19515324557820884
0.6406118273735046,0.31878310441970825,-8.35229206085205,-0.4328937652017021,-0.35451382799436315,0.32014299284201103,0.1897436720629526
1.0229812860488892,0.9621971249580383,-8.386847496032715,-0.427442521354792,-0.3512624764996072,0.33400626878719764,0.20041850730776714
1.3031504154205322,-1.65251886844635,-8.385971069335938,-0.42171421328462555,-0.3479701070544422,0.35339069963277614,0.1946658261120312
-1.1383672952651978,0.16370293498039246,-8.261914253234863,-0.4158129250185129,-0.34482906661462126,0.35476389230073724,0.18225902666648156
0.842513918876648,0.8911198377609253,-8.204047203063965,-0.4099207388535276,-0.34171816458873955,0.35229844749749933,0.19104921643932588
-0.245093435049057,-1.6478432416915894,-8.278138160705566,-0.4040076105283035,-0.3385865612178015,0.3572769515293959,0.184743188073237
0.6821597814559937,1.8950093984603882,-8.319608688354492,-0.3980226428398686,-0.33549034376680525,0.36091917108278704,0.18680290604631034
0,0.43755945563316345,-8.33527660369873,-0.3919599511147766,-0.3322149780511658,0.36660383592825363,0.20624097983042328
-0.47278594970703125,-2.2428956031799316,-8.354109764099121,-0.3858827195402576,-0.32890299895312725,0.3626639530140284,0.1911965119342002
-0.37310636043548584,0.24669325351715088,-8.49610710144043,-0.37989706284489483,-0.3258550155840616,0.3556148504295074,0.17456149235367702
0.6423355937004089,0.18989312648773193,-8.62060546875,-0.3739514521965374,-0.32291533887955554,0.35785842737338175,0.17819971218705105
1.6220639944076538,-0.5696521401405334,-8.654987335205078,-0.36782989510225134,-0.3199717158301639,0.37672842394094896,0.17503505373994438
-0.3163127601146698,1.2375056743621826,-8.648998260498047,-0.36146041086752073,-0.3170080862168439,0.3876096842267238,0.18060049985845814
0,-1.4230159521102905,-8.573907852172852,-0.35502221562763886,-0.31401096054404654,0.38497374455910155,0.1790545808772239
-0.6990126371383667,-0.49136796593666077,-8.436271667480469,-0.34865452909589956,-0.3111596608570683,0.37914863924961517,0.16310138156016596
0.6192641854286194,-0.35633453726768494,-8.369267463684082,-0.34234092319533027,-0.3085001727271214,0.3784840688187006,0.15603719403346308
-0.8442150950431824,0.4187304973602295,-8.298064231872559,-0.33604847697263074,-0.3058952197737795,0.3766094779052459,0.15655716036756762
0.5892753601074219,0.6236980557441711,-8.23173713684082,-0.32978935648913604,-0.30321354289591,0.3744849801141146,0.16524406497677097
0,-0.11789706349372864,-8.23298168182373,-0.32350701825389333,-0.3004243500773909,0.3793956081150098,0.16945907324552464
0.11646976321935654,-0.7611761093139648,-8.17888069152832,-0.31717566994064184,-0.29766107893807714,0.3803661894751711,0.1621334634721272
0.3874761462211609,0.4457639157772064,-8.12075424194336,-0.3108012372056778,-0.29498075817142616,0.38456573872050875,0.15950502852598755
0,0.09701825678348541,-8.04867172241211,-0.30436490016129286,-0.29228464782289854,0.3877947066056851,0.16402821329732664
-0.7990222573280334,-0.6590258479118347,-7.965120792388916,-0.297957142707957,-0.28958987257288255,0.38113618779461816,0.1593448167045904
0.1133127436041832,-0.2664741575717926,-7.943996906280518,-0.2916524916276108,-0.2869983964615202,0.3754219418469194,0.15163231665889348
0.2938869893550873,0.43172022700309753,-7.9215989112854,-0.2853671815042622,-0.2844597157623837,0.37881527295491335,0.1530093672374877
0.149849534034729,0.12429523468017578,-7.938731670379639,-0.2790227785853338,-0.2818709474569198,0.38251307731649514,0.15764282941818164
0.42187920212745667,-1.5018340349197388,-7.871041774749756,-0.27260785724560316,-0.2793392293833001,0.38727748345118,0.14616333941618528
0,0.36002567410469055,-7.810066223144531,-0.26612393535460244,-0.27698246597364246,0.3907931434689088,0.13664826974272654
-0.1259947568178177,0.8421980142593384,-7.948431015014648,-0.25961946593267743,-0.2746215070551273,0.38974318716209366,0.14666680047909345
0.6089255213737488,0,-7.915491104125977,-0.2530902092879928,-0.2721185744072633,0.39376761020005974,0.15368511726458794
0.34012213349342346,-0.06311201304197311,-7.856701850891113,-0.24646150969751493,-0.2695615385648703,0.4016763406572862,0.15315918382257152
-0.49403539299964905,-0.7303287982940674,-7.8812642097473145,-0.24646150969751493,-0.2695615385648703,0.4016763406572862,0.15315918382257152
-0.7967637777328491,-0.5156351923942566,-8.062057495117188,-0.24646150969751493,-0.2695615385648703,0.4016763406572862,0.15315918382257152
-0.011362755671143532,-0.701749861240387,-8.318330764770508,-0.24646150969751493,-0.2695615385648703,0.4016763406572862,0.15315918382257152
-2.9922831058502197,1.4708515405654907,-8.833816528320312,-0.24646150969751493,-0.2695615385648703,0.4016763406572862,0.15315918382257152
-2.8456614017486572,0.021952368319034576,-9.593331336975098,-0.24646150969751493,-0.2695615385648703,0.4016763406572862,0.15315918382257152
-1.87844717502594,-1.7949230670928955,-10.49792194366455,-0.24646150969751493,-0.2695615385648703,0.4016763406572862,0.15315918382257152
-1.758113980293274,0.33217287063598633,-11.539250373840332,-0.24646150969751493,-0.2695615385648703,0.4016763406572862,0.15315918382257152
-1.5323878526687622,-1.2218283414840698,-12.822236061096191,-0.24646150969751493,-0.2695615385648703,0.4016763406572862,0.15315918382257152
-1.5855659246444702,-0.09677509218454361,-14.292583465576172,-0.24646150969751493,-0.2695615385648703,0.4016763406572862,0.15315918382257152
-2.4493823051452637,0.11496488749980927,-15.929022789001465,-0.24646150969751493,-0.2695615385648703,0.4016763406572862,0.15315918382257152
-1.616124153137207,-0.5775717496871948,-17.597553253173828,-0.24646150969751493,-0.2695615385648703,0.4016763406572862,0.15315918382257152
-1.3973610401153564,-0.17682147026062012,-19.382383346557617,-0.24646150969751493,-0.2695615385648703,0.4016763406572862,0.15315918382257152
-1.2229827642440796,-0.0671471580862999,-21.267986297607422,-0.24646150969751493,-0.2695615385648703,0.4016763406572862,0.15315918382257152
-0.5393591523170471,0.33400651812553406,-23.236860275268555,-0.24646150969751493,-0.2695615385648703,0.4016763406572862,0.15315918382257152
-1.398551106452942,-1.1823110580444336,-25.224048614501953,-0.24646150969751493,-0.2695615385648703,0.4016763406572862,0.15315918382257152
-1.3352700471878052,0.44283974170684814,-27.292722702026367,-0.24646150969751493,-0.2695615385648703,0.4016763406572862,0.15315918382257152
-0.8133264780044556,-0.1446027308702469,-29.42364501953125,-0.24646150969751493,-0.2695615385648703,0.4016763406572862,0.15315918382257152
-1.2753522396087646,0.5693886280059814,-31.64803695678711,-0.24646150969751493,-0.2695615385648703,0.4016763406572862,0.15315918382257152
-0.6921118497848511,-0.7765427231788635,-33.864376068115234,-0.24646150969751493,-0.2695615385648703,0.4016763406572862,0.15315918382257152
-0.9401560425758362,-0.13390904664993286,-36.129146575927734,-0.24646150969751493,-0.2695615385648703,0.4016763406572862,0.15315918382257152
-0.9456181526184082,0.29562968015670776,-38.43050765991211,-0.24646150969751493,-0.2695615385648703,0.4016763406572862,0.15315918382257152
-1.1980488300323486,-0.6385959982872009,-40.794960021972656,-0.24646150969751493,-0.2695615385648703,0.4016763406572862,0.15315918382257152
-1.4879237413406372,-0.2982238829135895,-43.24147033691406,-0.24646150969751493,-0.2695615385648703,0.4016763406572862,0.15315918382257152
-0.6786977648735046,0.8937968015670776,-45.72153091430664,-0.24646150969751493,-0.2695615385648703,0.4016763406572862,0.15315918382257152
-1.4980800151824951,-1.6802884340286255,-48.2408561706543,-0.24646150969751493,-0.2695615385648703,0.4016763406572862,0.15315918382257152
-0.15455056726932526,1.2171623706817627,-50.8266487121582,-0.24646150969751493,-0.2695615385648703,0.4016763406572862,0.15315918382257152
-1.8103405237197876,-0.7267289161682129,-53.49774932861328,-0.24646150969751493,-0.2695615385648703,0.4016763406572862,0.15315918382257152
-0.6806960701942444,-0.41711440682411194,-56.22811508178711,-0.24646150969751493,-0.2695615385648703,0.4016763406572862,0.15315918382257152
-0.5264248251914978,0.7993564605712891,-58.917022705078125,-0.24646150969751493,-0.2695615385648703,0.4016763406572862,0.15315918382257152
-0.9079760313034058,-0.2375444620847702,-61.584537506103516,-0.24646150969751493,-0.2695615385648703,0.4016763406572862,0.15315918382257152
-1.12286376953125,-0.6857596635818481,-64.08464813232422,-0.24646150969751493,-0.2695615385648703,0.4016763406572862,0.15315918382257152
-0.38138696551322937,0.062157366424798965,-66.51346588134766,-0.24646150969751493,-0.2695615385648703,0.4016763406572862,0.15315918382257152
0.3062652051448822,1.1225316524505615,-69.0618896484375,-0.24646150969751493,-0.2695615385648703,0.4016763406572862,0.15315918382257152
-1.8714563846588135,-0.5667049884796143,-71.67813873291016,-0.24646150969751493,-0.2695615385648703,0.4016763406572862,0.15315918382257152
0.8879930377006531,1.8096027374267578,-74.3449478149414,-0.24646150969751493,-0.2695615385648703,0.4016763406572862,0.15315918382257152
-0.9587721228599548,0.16471441090106964,-76.95186614990234,-0.24646150969751493,-0.2695615385648703,0.4016763406572862,0.15315918382257152
0.23494714498519897,0.4081176817417145,-79.60662841796875,-0.24646150969751493,-0.2695615385648703,0.4016763406572862,0.15315918382257152
-1.884279727935791,-0.8250657916069031,-82.21177673339844,-0.24646150969751493,-0.2695615385648703,0.4016763406572862,0.15315918382257152
1.0799150466918945,2.0003764629364014,-84.94538116455078,-0.24646150969751493,-0.2695615385648703,0.4016763406572862,0.15315918382257152
-0.5876158475875854,0.018123485147953033,-87.57296752929688,-0.24646150969751493,-0.2695615385648703,0.4016763406572862,0.15315918382257152
1.488887906074524,1.2699977159500122,-90.0254135131836,-0.24646150969751493,-0.2695615385648703,0.4016763406572862,0.15315918382257152
-0.018471844494342804,0.2279985249042511,-92.2110824584961,-0.24646150969751493,-0.2695615385648703,0.4016763406572862,0.15315918382257152
0.10140573233366013,0.4178408980369568,-94.07901000976562,-0.24646150969751493,-0.2695615385648703,0.4016763406572862,0.15315918382257152
1.975581407546997,-0.4917018413543701,-95.61056518554688,-0.24646150969751493,-0.2695615385648703,0.4016763406572862,0.15315918382257152
1.5328606367111206,-0.5681765675544739,-96.71929931640625,-0.24646150969751493,-0.2695615385648703,0.4016763406572862,0.15315918382257152
2.2222373485565186,-1.6540418863296509,-97.21558380126953,-0.24646150969751493,-0.2695615385648703,0.4016763406572862,0.15315918382257152
1.0033386945724487,-1.230249047279358,-97.23062133789062,-0.24646150969751493,-0.2695615385648703,0.4016763406572862,0.15315918382257152
-0.10343404114246368,1.4719301462173462,-97.08868408203125,-0.24646150969751493,-0.2695615385648703,0.4016763406572862,0.15315918382257152
0.22189602255821228,0.5502930283546448,-97.03135681152344,-0.24646150969751493,-0.2695615385648703,0.4016763406572862,0.15315918382257152
-0.3540765643119812,1.1031700372695923,-96.97315216064453,-0.24646150969751493,-0.2695615385648703,0.4016763406572862,0.15315918382257152
0.1644616425037384,-0.25498390197753906,-96.92285919189453,-0.24646150969751493,-0.2695615385648703,0.4016763406572862,0.15315918382257152
-0.2948594391345978,-0.5213967561721802,-96.8857192993164,-0.24646150969751493,-0.2695615385648703,0.4016763406572862,0.15315918382257152
-0.1977636069059372,-0.7180647253990173,-96.82888793945312,-0.24646150969751493,-0.2695615385648703,0.4016763406572862,0.15315918382257152
-0.1129380539059639,-0.33410316705703735,-96.78531646728516,-0.24646150969751493,-0.2695615385648703,0.4016763406572862,0.15315918382257152
-0.11696738749742508,0.018186872825026512,-96.73970031738281,-0.24646150969751493,-0.2695615385648703,0.4016763406572862,0.15315918382257152
-0.009598423726856709,0.36340728402137756,-96.685302734375,-0.24646150969751493,-0.2695615385648703,0.4016763406572862,0.15315918382257152
-0.1111060306429863,0.19767208397388458,-96.64773559570312,-0.24646150969751493,-0.2695615385648703,0.4016763406572862,0.15315918382257152
-0.09392467141151428,-0.13160280883312225,-96.60279846191406,-0.24646150969751493,-0.2695615385648703,0.4016763406572862,0.15315918382257152
-0.14246134459972382,-0.30680954456329346,-96.56077575683594,-0.24646150969751493,-0.2695615385648703,0.4016763406572862,0.15315918382257152
-0.12626995146274567,-0.288682222366333,-96.51692962646484,-0.24646150969751493,-0.2695615385648703,0.4016763406572862,0.15315918382257152
-0.10823596268892288,-0.06463161110877991,-96.47584533691406,-0.24646150969751493,-0.2695615385648703,0.4016763406572862,0.15315918382257152
-0.0931624099612236,0.08329243212938309,-96.43402099609375,-0.24646150969751493,-0.2695615385648703,0.4016763406572862,0.15315918382257152
-0.09058336168527603,0.0179202388972044,-96.39509582519531,-0.24646150969751493,-0.2695615385648703,0.4016763406572862,0.15315918382257152
-0.10712718963623047,-0.13253767788410187,-96.3567123413086,-0.24646150969751493,-0.2695615385648703,0.4016763406572862,0.15315918382257152
-0.11911821365356445,-0.18154866993427277,-96.3186264038086,-0.24646150969751493,-0.2695615385648703,0.4016763406572862,0.15315918382257152
-0.10409929603338242,-0.11504770815372467,-96.28018188476562,-0.24646150969751493,-0.2695615385648703,0.4016763406572862,0.15315918382257152
-0.09801755100488663,-0.008415447548031807,-96.24266052246094,-0.24646150969751493,-0.2695615385648703,0.4016763406572862,0.15315918382257152
-0.09217999130487442,-0.019013233482837677,-96.20551300048828,-0.24646150969751493,-0.2695615385648703,0.4016763406572862,0.15315918382257152
-0.10194698721170425,-0.10687023401260376,-96.17103576660156,-0.24646150969751493,-0.2695615385648703,0.4016763406572862,0.15315918382257152
-0.12126998603343964,-0.12109410762786865,-96.13594818115234,-0.24646150969751493,-0.2695615385648703,0.4016763406572862,0.15315918382257152
-0.10864170640707016,-0.06199638172984123,-96.10243225097656,-0.24646150969751493,-0.2695615385648703,0.4016763406572862,0.15315918382257152
-0.0991540178656578,-0.02968190610408783,-96.0668716430664,-0.24646150969751493,-0.2695615385648703,0.4016763406572862,0.15315918382257152
-0.09355330467224121,-0.06697075068950653,-96.03483581542969,-0.24646150969751493,-0.2695615385648703,0.4016763406572862,0.15315918382257152
-0.10507001727819443,-0.10863006860017776,-96.0020980834961,-0.24646150969751493,-0.2695615385648703,0.4016763406572862,0.15315918382257152
-0.09719178825616837,-0.09182052314281464,-95.9707260131836,-0.24646150969751493,-0.2695615385648703,0.4016763406572862,0.15315918382257152
-0.09781435132026672,-0.06806374341249466,-95.9397201538086,-0.24646150969751493,-0.2695615385648703,0.4016763406572862,0.15315918382257152
-0.09706126153469086,-0.05339689925312996,-95.90855407714844,-0.24646150969751493,-0.2695615385648703,0.4016763406572862,0.15315918382257152
-0.09659717231988907,-0.09092498570680618,-95.87939453125,-0.24646150969751493,-0.2695615385648703,0.4016763406572862,0.15315918382257152
-0.11115624010562897,-0.08015565574169159,-95.85090637207031,-0.24646150969751493,-0.2695615385648703,0.4016763406572862,0.15315918382257152
-0.09670265018939972,-0.07188931107521057,-95.82093048095703,-0.24646150969751493,-0.2695615385648703,0.4016763406572862,0.15315918382257152
-0.10264590382575989,-0.06124531477689743,-95.79169464111328,-0.24646150969751493,-0.2695615385648703,0.4016763406572862,0.15315918382257152
-0.08254627138376236,-0.08011757582426071,-95.76343536376953,-0.24646150969751493,-0.2695615385648703,0.4016763406572862,0.15315918382257152
-0.10871938616037369,-0.08529551327228546,-95.73478698730469,-0.24646150969751493,-0.2695615385648703,0.4016763406572862,0.15315918382257152
-0.1011776477098465,-0.08695118129253387,-95.70738220214844,-0.24646150969751493,-0.2695615385648703,0.4016763406572862,0.15315918382257152
-0.09636014699935913,-0.07550060749053955,-95.68412780761719,-0.24646150969751493,-0.2695615385648703,0.4016763406572862,0.15315918382257152
-0.10747961699962616,-0.08096558600664139,-95.6586685180664,-0.24646150969751493,-0.2695615385648703,0.4016763406572862,0.15315918382257152
-0.09895972907543182,-0.08671402931213379,-95.6328125,-0.24646150969751493,-0.2695615385648703,0.4016763406572862,0.15315918382257152
-0.08587270975112915,-0.08959150314331055,-95.60930633544922,-0.2397797396059231,-0.2670211289409146,0.4001360703337315,0.1516899710521095
-0.11177466064691544,-0.0900941863656044,-95.58342742919922,-0.23312453061219413,-0.2645054409295954,0.3984890089137478,0.15019259030620186
-0.17070065438747406,-0.21156638860702515,-95.60539245605469,-0.22650266347162015,-0.26202317974219846,0.3961350479551279,0.14767875218142995
0.39171549677848816,-2.273829698562622,-95.60134887695312,-0.2198850644194242,-0.2597344641563392,0.3979768383083863,0.12696711812168288
-0.10982684791088104,-2.7113819122314453,-95.53083038330078,-0.21323254151366863,-0.2579645407717274,0.40032591038228305,0.08542368803173231
-1.2655142545700073,-1.4900392293930054,-95.36550903320312,-0.20665595280608065,-0.2568325779949225,0.38886473452827564,0.050411845184861886
-0.14872422814369202,-1.4193814992904663,-95.3680648803711,-0.20027308490302007,-0.2561944236813334,0.3770794138389948,0.026166672445832956
-0.270402729511261,-1.8989790678024292,-95.46661376953125,-0.19401753404442953,-0.25598875417995093,0.37358668919187016,-0.0014863322799411743
0.18148162961006165,-2.068678617477417,-95.41211700439453,-0.18779726430094706,-0.2562890581683166,0.3728456800260268,-0.03455014632393989
-0.2887676954269409,-0.7505489587783813,-95.35514831542969,-0.1815906200550839,-0.2570606736331778,0.37195162947755284,-0.058043709459404874
-0.707913339138031,-0.9992994070053101,-95.29222869873047,-0.17546064019119167,-0.25814958603845845,0.3636459541895114,-0.07262577917426896
0.3168025016784668,-1.0857484340667725,-95.26104736328125,-0.16942703476285673,-0.25950481068032627,0.3603866972106817,-0.09000117784986965
0.6844583749771118,-1.9061379432678223,-95.19820404052734,-0.16335105780402207,-0.2612126001984723,0.3687305378494782,-0.11493356432765794
-0.2135665863752365,-0.45393210649490356,-95.20337677001953,-0.15717284802121118,-0.26329205335738903,0.3726546360878271,-0.13460081474234734
-0.7703017592430115,-0.7500554323196411,-95.18138885498047,-0.15103026161041533,-0.2656190105155125,0.36445573320767505,-0.14463404423246853
0.17267563939094543,-1.2900700569152832,-95.21363067626953,-0.14499750120416602,-0.26817125330058383,0.35947551554224116,-0.1616350899760929
-0.5646427273750305,-0.6250567436218262,-95.1707534790039,-0.13903346254846088,-0.270998166383556,0.3562091231423738,-0.17759447998056882
-0.3074745833873749,-1.355147361755371,-95.13188934326172,-0.1331572075315576,-0.27409558855721666,0.3489414788860204,-0.19409618085871214
-1.1077128648757935,-1.0315580368041992,-95.02540588378906,-0.12743979312291998,-0.2774962683353174,0.337148250150494,-0.21398539251337523
-0.5044295787811279,0.0934610590338707,-94.89710998535156,-0.12193260995677681,-0.2811278371673299,0.32371372978668633,-0.22180286732812796
0.2351817637681961,-1.0743279457092285,-94.86913299560547,-0.11655607889193016,-0.28489266737881785,0.3214699979949119,-0.2299767580504226
0.7000066637992859,-0.9739200472831726,-94.86256408691406,-0.11113330195121167,-0.2888678527902827,0.32926323489130754,-0.2470454913253593
0.08695420622825623,-1.1068823337554932,-94.89502716064453,-0.1055909313092713,-0.29312977781105526,0.3358212421415371,-0.2643855111673482
0,-1.892785906791687,-94.79971313476562,-0.09998787212036872,-0.2977445132916602,0.33654586052677254,-0.2893827465052414
0.7117409706115723,0.19374264776706696,-94.72089385986328,-0.09432934798863005,-0.3026855481819576,0.34247703528186896,-0.30354144033044655
-0.7568128705024719,-0.8152405023574829,-94.62112426757812,-0.08862452739364687,-0.30778773176070046,0.34210143611611143,-0.30872058911870004
-0.23533111810684204,0.4681372344493866,-94.60920715332031,-0.08299173567980955,-0.31295717930628353,0.33383356954436716,-0.3116131163512675
-0.592334508895874,-0.5143222808837891,-94.56501770019531,-0.07748531963372307,-0.3181539385403626,0.3269363559860112,-0.31199799173822085
-0.1314508318901062,-1.3105190992355347,-94.55162811279297,-0.07208664323817747,-0.3234806301651746,0.3209048114794613,-0.3272050032392152
0.060262467712163925,0.7756966948509216,-94.6114501953125,-0.06674317334992103,-0.3289711873305771,0.3203115751113118,-0.331661856609087
-0.5001822710037231,-1.4386876821517944,-94.64715576171875,-0.06143519708440552,-0.33454492598151336,0.31664557675054883,-0.3371867815032609
-0.6626757979393005,0.25242796540260315,-94.61263275146484,-0.05623852483779519,-0.34024708482023086,0.3069550928426903,-0.3470722791428375
0,-1.0446468591690063,-94.52361297607422,-0.05116862577638503,-0.3460866380069008,0.30143279452652944,-0.35367410325755755
0.711053729057312,-0.42808201909065247,-94.43339538574219,-0.046095367136425,-0.3520834792332948,0.3073582422686737,-0.3659468439097214
0.41094276309013367,0.3220673203468323,-94.41743469238281,-0.04089481334221465,-0.358189955430314,0.3167082130365691,-0.3668302997325865
-0.37460169196128845,-0.9556167721748352,-94.45301055908203,-0.03561381943944344,-0.36434779024890074,0.3170110552959761,-0.3721098784978199
0.19726596772670746,-0.10080739855766296,-94.57426452636719,-0.03034261683202679,-0.37062298434683194,0.3155332575940213,-0.380913413253924
-0.6581849455833435,-0.9313896298408508,-94.68014526367188,-0.025115737467810925,-0.37704322158359166,0.31169226611188267,-0.389515055157245
-0.6321415305137634,-0.5534600615501404,-94.75528717041016,-0.020010472371230735,-0.3836382537314479,0.3009395454777401,-0.40188880258550325
0.318075031042099,0.3782794177532196,-94.8458480834961,-0.015016623453509487,-0.39034856576369215,0.2983223246488096,-0.4033486412838109
-0.6196939945220947,0.25147590041160583,-94.718017578125,-0.010065530470715438,-0.3970273101102164,0.2958088332864763,-0.39810068029910406
1.678873062133789,-0.7845355272293091,-94.55218505859375,-0.005061829147356688,-0.40369933947817493,0.30463532551657374,-0.40254284385591826
-1.0151028633117676,0.30612942576408386,-94.54408264160156,6.152143061551388e-05,-0.41044160952170866,0.3101667438400906,-0.40652956136812846
-0.13819366693496704,-1.1915885210037231,-94.50468444824219,0.0051508771244609996,-0.41727859242612464,0.30055593942136777,-0.4139083871617921
-0.7807691693305969,0.24500373005867004,-94.52433776855469,0.010096325917854244,-0.4242428006004146,0.2928979157858214,-0.4217965937530009
-1.3123183250427246,0.8793855905532837,-94.59808349609375,0.014832604549397565,-0.4311946612379221,0.27545551999937706,-0.4124266827479013
0.0845889300107956,-0.17772333323955536,-94.60432434082031,0.01933827089695441,-0.43801971273807366,0.2652244417074443,-0.40657949727028686
1.8252726793289185,-1.0815865993499756,-94.6808090209961,0.02389130753717152,-0.4448834897712305,0.28113995511860856,-0.417073746708533
-0.3276060223579407,-0.4893436133861542,-94.6235122680664,0.028680978084771314,-0.4519438112589238,0.2936205105933667,-0.4301648318146674
0.2497364729642868,0,-94.42425537109375,0.033569245653730644,-0.4591472073178756,0.2929715976817529,-0.43424269525955206
0,0.4945485591888428,-94.41252899169922,0.03846944842571571,-0.4663502419222578,0.2950527349564553,-0.4301214572663117
-2.1039884090423584,0,-94.58616638183594,0.0432408837021398,-0.4734845892267527,0.2775194982144356,-0.4260002192730713
1.3621630668640137,-0.7221387028694153,-94.72850036621094,0.04781469302361801,-0.4806347414023365,0.2713376203629494,-0.4320180417969831
-0.3990139067173004,0.3620806932449341,-94.82524871826172,0.05240387205467735,-0.487860046127399,0.279363863364172,-0.4350185252105205
-1.4533493518829346,-0.22946885228157043,-94.77521514892578,0.05693130010667742,-0.49510114572528524,0.2639275028758367,-0.43391342653582576
0.14581431448459625,0.44330981373786926,-94.73017120361328,0.06123929077701093,-0.5023181861007812,0.2530313775641839,-0.4321314185236899
0.3320733904838562,-0.5764806270599365,-94.70262145996094,0.06548966704925903,-0.5095296243826567,0.2570137751055877,-0.4332411753013738
0.7237762808799744,-0.5232475399971008,-94.66665649414062,0.0698465528615302,-0.5168266806492807,0.26581252236695296,-0.44240557669351577
-0.2628113627433777,-0.6650739908218384,-94.6839599609375,0.0698465528615302,-0.5168266806492807,0.26581252236695296,-0.44240557669351577
-0.1020403504371643,0.5736513733863831,-94.80825805664062,0.0698465528615302,-0.5168266806492807,0.26581252236695296,-0.44240557669351577
-0.4160671830177307,0.511504590511322,-94.96434783935547,0.0698465528615302,-0.5168266806492807,0.26581252236695296,-0.44240557669351577
-1.1418898105621338,2.5157032012939453,-95.3027114868164,0.0698465528615302,-0.5168266806492807,0.26581252236695296,-0.44240557669351577
1.4030976295471191,3.455300807952881,-95.98442077636719,0.0698465528615302,-0.5168266806492807,0.26581252236695296,-0.44240557669351577
-0.6331307291984558,1.676398515701294,-96.8485107421875,0.0698465528615302,-0.5168266806492807,0.26581252236695296,-0.44240557669351577
0.15454035997390747,3.0104525089263916,-98.00756072998047,0.0698465528615302,-0.5168266806492807,0.26581252236695296,-0.44240557669351577
-0.03930162265896797,2.062230110168457,-99.50050354003906,0.0698465528615302,-0.5168266806492807,0.26581252236695296,-0.44240557669351577
0.4448506236076355,2.778480052947998,-101.15502166748047,0.0698465528615302,-0.5168266806492807,0.26581252236695296,-0.44240557669351577
-0.10836248844861984,2.1325879096984863,-102.95176696777344,0.0698465528615302,-0.5168266806492807,0.26581252236695296,-0.44240557669351577
-0.7357725501060486,0.9534074664115906,-104.79462432861328,0.0698465528615302,-0.5168266806492807,0.26581252236695296,-0.44240557669351577
0.3981793522834778,1.188143014907837,-106.78030395507812,0.0698465528615302,-0.5168266806492807,0.26581252236695296,-0.44240557669351577
-0.9904678463935852,1.8684720993041992,-108.85645294189453,0.0698465528615302,-0.5168266806492807,0.26581252236695296,-0.44240557669351577
0.218081533908844,0.4798416793346405,-111.0296859741211,0.0698465528615302,-0.5168266806492807,0.26581252236695296,-0.44240557669351577
-1.5266854763031006,0.7866020202636719,-113.25623321533203,0.0698465528615302,-0.5168266806492807,0.26581252236695296,-0.44240557669351577
-0.27192118763923645,2.132078170776367,-115.35530853271484,0.0698465528615302,-0.5168266806492807,0.26581252236695296,-0.44240557669351577
0.9325627088546753,-0.17713786661624908,-117.3836898803711,0.0698465528615302,-0.5168266806492807,0.26581252236695296,-0.44240557669351577
-2.9186205863952637,0.7008248567581177,-119.36205291748047,0.0698465528615302,-0.5168266806492807,0.26581252236695296,-0.44240557669351577
1.1248997449874878,1.5394482612609863,-121.33391571044922,0.0698465528615302,-0.5168266806492807,0.26581252236695296,-0.44240557669351577
-2.004542350769043,-0.39644676446914673,-123.30447387695312,0.0698465528615302,-0.5168266806492807,0.26581252236695296,-0.44240557669351577
0.9469128847122192,2.3325271606445312,-125.39575958251953,0.0698465528615302,-0.5168266806492807,0.26581252236695296,-0.44240557669351577
-0.5933546423912048,1.0954190492630005,-127.53993225097656,0.0698465528615302,-0.5168266806492807,0.26581252236695296,-0.44240557669351577
-0.7645288705825806,0.5076590180397034,-129.7241668701172,0.0698465528615302,-0.5168266806492807,0.26581252236695296,-0.44240557669351577
-0.06492769718170166,0.9856664538383484,-132.00225830078125,0.0698465528615302,-0.5168266806492807,0.26581252236695296,-0.44240557669351577
-0.5377081036567688,0.9072077870368958,-134.31996154785156,0.0698465528615302,-0.5168266806492807,0.26581252236695296,-0.44240557669351577
-0.5845826864242554,0.588812530040741,-136.6466522216797,0.0698465528615302,-0.5168266806492807,0.26581252236695296,-0.44240557669351577
1.1162781715393066,1.3683912754058838,-139.04554748535156,0.0698465528615302,-0.5168266806492807,0.26581252236695296,-0.44240557669351577
-0.6045295596122742,0.7614555358886719,-141.52566528320312,0.0698465528615302,-0.5168266806492807,0.26581252236695296,-0.44240557669351577
0.3270810842514038,1.0478860139846802,-144.00889587402344,0.0698465528615302,-0.5168266806492807,0.26581252236695296,-0.44240557669351577
0.031355056911706924,0.5668902397155762,-146.5848846435547,0.0698465528615302,-0.5168266806492807,0.26581252236695296,-0.44240557669351577
-0.8791979551315308,1.1848310232162476,-149.22462463378906,0.0698465528615302,-0.5168266806492807,0.26581252236695296,-0.44240557669351577
1.490200161933899,0.024314532056450844,-151.8931427001953,0.0698465528615302,-0.5168266806492807,0.26581252236695296,-0.44240557669351577
-0.20327898859977722,0.8626208305358887,-154.54629516601562,0.0698465528615302,-0.5168266806492807,0.26581252236695296,-0.44240557669351577
0.12961092591285706,0.6033371686935425,-157.31381225585938,0.0698465528615302,-0.5168266806492807,0.26581252236695296,-0.44240557669351577
1.5042150020599365,-0.2824060618877411,-160.1007843017578,0.0698465528615302,-0.5168266806492807,0.26581252236695296,-0.44240557669351577
-0.6260631680488586,1.2678083181381226,-162.99224853515625,0.0698465528615302,-0.5168266806492807,0.26581252236695296,-0.44240557669351577
2.093172550201416,-0.9786873459815979,-165.94534301757812,0.0698465528615302,-0.5168266806492807,0.26581252236695296,-0.44240557669351577
0.34787774085998535,1.4847962856292725,-168.90869140625,0.0698465528615302,-0.5168266806492807,0.26581252236695296,-0.44240557669351577
0.6192629337310791,0.15514665842056274,-171.9234619140625,0.0698465528615302,-0.5168266806492807,0.26581252236695296,-0.44240557669351577
0.8896194100379944,-0.5664575695991516,-175.01211547851562,0.0698465528615302,-0.5168266806492807,0.26581252236695296,-0.44240557669351577
-0.85738205909729,1.9198850393295288,-178.01438903808594,0.0698465528615302,-0.5168266806492807,0.26581252236695296,-0.44240557669351577
1.4724633693695068,-1.6809698343276978,178.8511962890625,0.0698465528615302,-0.5168266806492807,0.26581252236695296,-0.44240557669351577
-0.45829281210899353,0.6488373875617981,176.0323028564453,0.0698465528615302,-0.5168266806492807,0.26581252236695296,-0.44240557669351577
0.4980137348175049,-1.4504834413528442,173.45828247070312,0.0698465528615302,-0.5168266806492807,0.26581252236695296,-0.44240557669351577
0.22240525484085083,-1.3456369638442993,171.3765411376953,0.0698465528615302,-0.5168266806492807,0.26581252236695296,-0.44240557669351577
0.38352710008621216,-0.45693689584732056,169.7573699951172,0.0698465528615302,-0.5168266806492807,0.26581252236695296,-0.44240557669351577
-0.8261876106262207,-1.5523322820663452,168.48703002929688,0.0698465528615302,-0.5168266806492807,0.26581252236695296,-0.44240557669351577
-0.5182961225509644,-2.3316028118133545,167.63723754882812,0.0698465528615302,-0.5168266806492807,0.26581252236695296,-0.44240557669351577
-1.0211420059204102,-0.7392920255661011,167.3170928955078,0.0698465528615302,-0.5168266806492807,0.26581252236695296,-0.44240557669351577
-0.6782422661781311,-1.2993040084838867,167.39276123046875,0.0698465528615302,-0.5168266806492807,0.26581252236695296,-0.44240557669351577
-0.4970976710319519,-0.0640818402171135,167.61892700195312,0.0698465528615302,-0.5168266806492807,0.26581252236695296,-0.44240557669351577
1.3289062976837158,0.8786452412605286,167.7137451171875,0.0698465528615302,-0.5168266806492807,0.26581252236695296,-0.44240557669351577
0.2022598385810852,-0.0810856744647026,167.65756225585938,0.0698465528615302,-0.5168266806492807,0.26581252236695296,-0.44240557669351577
-0.16077008843421936,0.11669862270355225,167.66981506347656,0.0698465528615302,-0.5168266806492807,0.26581252236695296,-0.44240557669351577
-0.5189744234085083,0.10628431290388107,167.67596435546875,0.0698465528615302,-0.5168266806492807,0.26581252236695296,-0.44240557669351577
-0.19384242594242096,0.21984972059726715,167.66952514648438,0.0698465528615302,-0.5168266806492807,0.26581252236695296,-0.44240557669351577
0.19353802502155304,0.041787147521972656,167.68148803710938,0.0698465528615302,-0.5168266806492807,0.26581252236695296,-0.44240557669351577
0.1456487774848938,-0.019426431506872177,167.67503356933594,0.0698465528615302,-0.5168266806492807,0.26581252236695296,-0.44240557669351577
-0.12657447159290314,0.16830883920192719,167.6746368408203,0.0698465528615302,-0.5168266806492807,0.26581252236695296,-0.44240557669351577
-0.2358483523130417,0.1060495600104332,167.67776489257812,0.0698465528615302,-0.5168266806492807,0.26581252236695296,-0.44240557669351577
-0.04905126243829727,0.12714743614196777,167.67478942871094,0.0698465528615302,-0.5168266806492807,0.26581252236695296,-0.44240557669351577
0.07847852259874344,0.06209646537899971,167.67904663085938,0.0698465528615302,-0.5168266806492807,0.26581252236695296,-0.44240557669351577
0.005198322702199221,0.06667575240135193,167.67555236816406,0.0698465528615302,-0.5168266806492807,0.26581252236695296,-0.44240557669351577
-0.14035087823867798,0.14753299951553345,167.676025390625,0.0698465528615302,-0.5168266806492807,0.26581252236695296,-0.44240557669351577
-0.11771759390830994,0.0822826698422432,167.6754150390625,0.0698465528615302,-0.5168266806492807,0.26581252236695296,-0.44240557669351577
0.007970071397721767,0.08414458483457565,167.6752471923828,0.0698465528615302,-0.5168266806492807,0.26581252236695296,-0.44240557669351577
-0.0037487575318664312,0.06243368610739708,167.6760711669922,0.0698465528615302,-0.5168266806492807,0.26581252236695296,-0.44240557669351577
-0.08398092538118362,0.1071123406291008,167.67431640625,0.0698465528615302,-0.5168266806492807,0.26581252236695296,-0.44240557669351577
-0.10554029047489166,0.10985330492258072,167.67601013183594,0.0698465528615302,-0.5168266806492807,0.26581252236695296,-0.44240557669351577
-0.05210070312023163,0.08792393654584885,167.675048828125,0.0698465528615302,-0.5168266806492807,0.26581252236695296,-0.44240557669351577
-0.001823464292101562,0.08125651627779007,167.67477416992188,0.0698465528615302,-0.5168266806492807,0.26581252236695296,-0.44240557669351577
-0.06338538229465485,0.09794329106807709,167.6736602783203,0.0698465528615302,-0.5168266806492807,0.26581252236695296,-0.44240557669351577
-0.09005752205848694,0.09471458941698074,167.67269897460938,0.0698465528615302,-0.5168266806492807,0.26581252236695296,-0.44240557669351577
-0.05515285208821297,0.09544890373945236,167.6722412109375,0.0698465528615302,-0.5168266806492807,0.26581252236695296,-0.44240557669351577
-0.03414701297879219,0.07131672650575638,167.67259216308594,0.0698465528615302,-0.5168266806492807,0.26581252236695296,-0.44240557669351577
-0.05314754694700241,0.08901811391115189,167.67230224609375,0.0698465528615302,-0.5168266806492807,0.26581252236695296,-0.44240557669351577
-0.06189367175102234,0.09059199690818787,167.67295837402344,0.0698465528615302,-0.5168266806492807,0.26581252236695296,-0.44240557669351577
-0.07055617868900299,0.08447793871164322,167.67196655273438,0.0698465528615302,-0.5168266806492807,0.26581252236695296,-0.44240557669351577
-0.038912393152713776,0.0817866325378418,167.6713104248047,0.0698465528615302,-0.5168266806492807,0.26581252236695296,-0.44240557669351577
-0.04546597599983215,0.09807544201612473,167.6715087890625,0.0698465528615302,-0.5168266806492807,0.26581252236695296,-0.44240557669351577
-0.056366246193647385,0.11259065568447113,167.6704864501953,0.0698465528615302,-0.5168266806492807,0.26581252236695296,-0.44240557669351577
-0.052907545119524,0.09189870953559875,167.67083740234375,0.0698465528615302,-0.5168266806492807,0.26581252236695296,-0.44240557669351577
-0.03330312669277191,0.097135029733181,167.6703643798828,0.0698465528615302,-0.5168266806492807,0.26581252236695296,-0.44240557669351577
-0.05705980211496353,0.08469544351100922,167.6694793701172,0.0698465528615302,-0.5168266806492807,0.26581252236695296,-0.44240557669351577
-0.055397309362888336,0.09708171337842941,167.66925048828125,0.0698465528615302,-0.5168266806492807,0.26581252236695296,-0.44240557669351577
-0.06400534510612488,0.07903522998094559,167.66893005371094,0.0698465528615302,-0.5168266806492807,0.26581252236695296,-0.44240557669351577
-0.052735328674316406,0.09624823927879333,167.6685333251953,0.0698465528615302,-0.5168266806492807,0.26581252236695296,-0.44240557669351577
-0.04967835545539856,0.10190700739622116,167.6693572998047,0.0698465528615302,-0.5168266806492807,0.26581252236695296,-0.44240557669351577
0,0.09450750797986984,167.66879272460938,0.07427331168185057,-0.5241864670306049,0.26539853607149133,-0.4407687890653817
-0.08597259968519211,0.09614454954862595,167.66664123535156,0.07869065029695284,-0.5315193737888106,0.2646820977407814,-0.4391800219193109
-0.44537898898124695,0.2760664224624634,167.66551208496094,0.08306511917675291,-0.5388131928366318,0.2602541678352277,-0.4360782638192185
-1.791296362876892,0.40361982583999634,167.67079162597656,0.087247363963461,-0.5460339634663756,0.24161520656974322,-0.4304142117500313
-3.1802871227264404,0.6663560271263123,167.79995727539062,0.09092903521978982,-0.5531332297835312,0.20018534418971545,-0.4214977463086454
-2.614255428314209,0.3723781704902649,167.95265197753906,0.09386305883468503,-0.5600860579027297,0.15189748959771004,-0.41284162799517393
-1.5389240980148315,0.18037427961826324,168.09722900390625,0.09610626841642957,-0.5669283661158362,0.1172876602116347,-0.4082353575776029
-1.2439017295837402,-0.23166806995868683,168.11949157714844,0.09786781095970691,-0.5737358508109032,0.0940974449816466,-0.40866280583043973
-1.4249142408370972,1.1667520999908447,168.23968505859375,0.09925076726701068,-0.5804819611837694,0.07185731189480629,-0.4008704389135051
-2.3487842082977295,-0.9599390625953674,168.40792846679688,0.10018632673962309,-0.5871487731491754,0.04040982481868274,-0.39914699693520944
-0.921843409538269,1.4868730306625366,168.36276245117188,0.1006326969020292,-0.5937646304614241,0.013154594670049417,-0.3947558805346497
-1.2786706686019897,1.126776099205017,168.38037109375,0.1006991266688814,-0.6001623917252052,-0.005183022647786074,-0.3729754711190868
-1.3391220569610596,-1.0600128173828125,168.40869140625,0.10043095179658752,-0.6063740132381746,-0.026997962027478152,-0.3724191104372351
-0.7858173847198486,1.0586355924606323,168.4700164794922,0.0998334205237906,-0.6125810940527482,-0.044705790708152386,-0.37243058731158657
-0.6773001551628113,0.654961884021759,168.42303466796875,0.09898671862727398,-0.6186692706831856,-0.05689843687384122,-0.35815060834089996
-1.141190528869629,0,168.52059936523438,0.09791212727076326,-0.624592964024699,-0.07205252590744489,-0.3526925926407186
-1.0044517517089844,0.5728076696395874,168.65135192871094,0.09656224890282122,-0.6304313955916526,-0.0899328782456,-0.34791919539372207
-0.7242826819419861,1.0184714794158936,168.72711181640625,0.09494331659639102,-0.6361195433517525,-0.10433899852602477,-0.3346585358182597
-0.6062370538711548,-0.7385262846946716,168.77285766601562,0.09311193608374803,-0.6416777449768678,-0.11542666299113427,-0.3323256591955829
-0.8350000977516174,0.501964807510376,168.6298828125,0.09108807245392199,-0.6472329338438209,-0.1274369725879907,-0.3342970048387853
0.11944623291492462,0.06338150799274445,168.53469848632812,0.08891443167017515,-0.6527652904303352,-0.1333999214616298,-0.329585785542926
-1.3899550437927246,-0.06308179348707199,168.5062255859375,0.08660286986728148,-0.6582583660425433,-0.14398749488561147,-0.3295832879220454
-0.7674410939216614,-0.869681179523468,168.57069396972656,0.08405325910962445,-0.6638161960477031,-0.16196579603323136,-0.33735631269713323
-0.7729215025901794,0.7677021622657776,168.5935516357422,0.0812468595509795,-0.6694458831355204,-0.17480215100416335,-0.33820613784094733
0.4593238830566406,0.7888444662094116,168.49143981933594,0.07831171275510918,-0.67497455858367,-0.17741546450027618,-0.32523491593698745
-1.8109524250030518,0.42401474714279175,168.45237731933594,0.07526092525358051,-0.6803109141816925,-0.18867903568316294,-0.31512775582571906
0.478301465511322,0.252947062253952,168.47608947753906,0.07202372945334087,-0.6855160322086908,-0.19978446034559402,-0.3094864074140795
-1.3950544595718384,-0.5236689448356628,168.55239868164062,0.06863032504521566,-0.6906929391296603,-0.20742406862943166,-0.3117424231022604
0.935916543006897,1.1023398637771606,168.5465087890625,0.06514137265718589,-0.6958484607008827,-0.2112502179341395,-0.3069201654444146
-0.15496034920215607,0.3778518736362457,168.49920654296875,0.06167476876063112,-0.700861005698747,-0.20474224965243334,-0.2945852342993029
-0.9137565493583679,-1.0001657009124756,168.4537353515625,0.05818818148180164,-0.7058139758417407,-0.21364822380710438,-0.29977118285993815
-0.7400193214416504,-0.10981661081314087,168.40635681152344,0.0545125322050999,-0.7108872443277205,-0.22742968939710453,-0.30902103545765164
-2.1511566638946533,-0.6832871437072754,168.42471313476562,0.050521261271722025,-0.7160926715683009,-0.2515228226082404,-0.3156302334119884
0.5228236317634583,0.4669482111930847,168.42759704589844,0.046216135545464464,-0.7213681989954809,-0.265092264542667,-0.3174330578496067
-0.42322587966918945,1.0681747198104858,168.5087127685547,0.04180484764698211,-0.7265521442005435,-0.2642622832752147,-0.3046403667579103
0.20973315834999084,1.2216877937316895,168.58766174316406,0.037385650375636924,-0.7314704654164016,-0.2660413892862081,-0.2855581791450588
0.4084884226322174,-0.5121254920959473,168.58592224121094,0.03299455927510166,-0.7361804932423167,-0.260889542778023,-0.27964515996476097
0.810195803642273,-1.3351637125015259,168.65939331054688,0.02873103107784812,-0.7409695298809376,-0.25073384089240225,-0.2950392366697399
-1.467592716217041,-0.8020275831222534,168.7176971435547,0.02450648116626817,-0.746035266554296,-0.256212148497192,-0.3128491641332714
0.4828595519065857,1.9674252271652222,168.58628845214844,0.02016789444379341,-0.7511684888979031,-0.2644182581997791,-0.30313751709958
-2.412658214569092,-1.4286308288574219,168.46768188476562,0.015626909677778862,-0.7561833645719025,-0.28049991372196664,-0.2986475637803483
1.3798949718475342,1.9553024768829346,168.30650329589844,0.010880191446112642,-0.7611242495482399,-0.2891062740779796,-0.2942586333801357
-0.2343076914548874,0.6722047328948975,168.32884216308594,0.006141308217062472,-0.7658460943261187,-0.2795597134080409,-0.27236273996532046
0.3848593235015869,0.09017477184534073,168.42239379882812,0.0014924346347094768,-0.7703325303043782,-0.27830511647431844,-0.2660095774258185
0.1569283902645111,-0.11542005091905594,168.3448028564453,-0.0031083598264065185,-0.7747677764058553,-0.273790218859601,-0.2662199547514328
-0.24255916476249695,-0.31905773282051086,168.1690673828125,-0.007677476722295562,-0.7792349477200278,-0.2745038086470842,-0.2698406029492625
-0.8756989240646362,0.552909791469574,168.16835021972656,-0.012330197011471072,-0.7837160513762204,-0.28382262605397696,-0.2678918357938536
-1.0780854225158691,-0.7080069184303284,168.25428771972656,-0.01719625358088322,-0.7881916859399346,-0.30010416227548115,-0.2691843118518599
0.9690434336662292,-0.8756465315818787,168.24270629882812,-0.022205561979144688,-0.7927880670714942,-0.3010128455158948,-0.282381423935295
-0.9044724106788635,3.077333927154541,168.15940856933594,-0.027217958638924365,-0.7973415291790565,-0.30047475365766674,-0.26403402897218947
0.11606975644826889,-1.3346354961395264,168.203857421875,-0.032280621384207044,-0.801621075604217,-0.30704477577625505,-0.24951154204706436
0.39944636821746826,0.1057465672492981,168.22523498535156,-0.03736223458293173,-0.8058649408139521,-0.30274880807070725,-0.2597522831211496
0.8968426585197449,1.6154557466506958,168.18634033203125,-0.042318027979475654,-0.8100746175941727,-0.2919463995145638,-0.24540893050531634
-1.12933349609375,-1.3289530277252197,168.1922607421875,-0.04719994650177214,-0.8141448704137804,-0.29388382316101386,-0.24302140784760404
-0.3293207287788391,-0.602475643157959,168.16920471191406,-0.052199305653405186,-0.818329354202274,-0.3060392750349521,-0.25911664677163054
-1.3311158418655396,-0.4664466679096222,168.13209533691406,-0.05741526833250469,-0.8227221956978475,-0.3198762464569886,-0.2680243326971937
0.8020214438438416,0.45705974102020264,168.080810546875,-0.06278328177331712,-0.8271899197793903,-0.32428536644050276,-0.2681025570879389
-0.637261152267456,1.1347707509994507,168.1533203125,-0.0681765961937438,-0.8315477519466878,-0.32291236401069956,-0.2548373029877751
0.3114311695098877,0.8458275198936462,168.2507781982422,-0.0735810960093914,-0.8356574987832276,-0.3256276138670126,-0.2383323173969993
1.3313467502593994,-1.7686084508895874,168.29196166992188,-0.07889414110719097,-0.8396937860822745,-0.3119377978689352,-0.24602215848863215
-0.8314798474311829,0.3977738916873932,168.3990478515625,-0.08405839142564347,-0.8438893522348074,-0.30777224034536677,-0.25744577981531713
0,-0.5948606729507446,168.38002014160156,-0.08924567042080453,-0.8481938018137616,-0.31470123907395997,-0.2590881696591784
0,0.8899757862091064,168.29734802246094,-0.0944906910720372,-0.8524914438696605,-0.31470123907395997,-0.2566288770486921
-1.1333601474761963,1.0240638256072998,168.3157958984375,-0.09981441728906681,-0.8566356724029848,-0.32414590696959494,-0.24067854695022203
0,-0.08812056481838226,168.4385528564453,-0.10529555463769036,-0.8605819854590449,-0.3335905748652299,-0.23287901977698106
1.131290316581726,0.9868791103363037,168.5734100341797,-0.11077683572457046,-0.8644008886674447,-0.3241631555603822,-0.22538936523099837
-0.7926715016365051,-0.8877379894256592,168.4551544189453,-0.11615603978842785,-0.8681504932878981,-0.3213413321025054,-0.22456318922340968
1.1390058994293213,-0.746288001537323,168.290771484375,-0.12148767765695621,-0.8720066871354384,-0.31845521212089856,-0.23818007248143452
-0.8925755620002747,0.5182337760925293,168.294921875,-0.12148767765695621,-0.8720066871354384,-0.31845521212089856,-0.23818007248143452
1.3763357400894165,0.9372990131378174,168.2910614013672,-0.12148767765695621,-0.8720066871354384,-0.31845521212089856,-0.23818007248143452
-0.4560159146785736,-1.1751528978347778,168.28271484375,-0.12148767765695621,-0.8720066871354384,-0.31845521212089856,-0.23818007248143452
-1.0283490419387817,1.0334244966506958,168.2344207763672,-0.12148767765695621,-0.8720066871354384,-0.31845521212089856,-0.23818007248143452
3.6659812927246094,-0.10909638553857803,167.94052124023438,-0.12148767765695621,-0.8720066871354384,-0.31845521212089856,-0.23818007248143452
3.0872159004211426,-1.0730901956558228,167.2606658935547,-0.12148767765695621,-0.8720066871354384,-0.31845521212089856,-0.23818007248143452
1.6433773040771484,-0.2681199908256531,166.42884826660156,-0.12148767765695621,-0.8720066871354384,-0.31845521212089856,-0.23818007248143452
3.05692982673645,-0.4320348799228668,165.27908325195312,-0.12148767765695621,-0.8720066871354384,-0.31845521212089856,-0.23818007248143452
1.976223349571228,-0.9763861894607544,163.84860229492188,-0.12148767765695621,-0.8720066871354384,-0.31845521212089856,-0.23818007248143452
2.0605833530426025,0.3530502915382385,162.2180938720703,-0.12148767765695621,-0.8720066871354384,-0.31845521212089856,-0.23818007248143452
1.2291085720062256,-0.628665566444397,160.47366333007812,-0.12148767765695621,-0.8720066871354384,-0.31845521212089856,-0.23818007248143452
1.2695144414901733,0.7247568964958191,158.60260009765625,-0.12148767765695621,-0.8720066871354384,-0.31845521212089856,-0.23818007248143452
1.6325186491012573,0.296856552362442,156.6407928466797,-0.12148767765695621,-0.8720066871354384,-0.31845521212089856,-0.23818007248143452
1.7173523902893066,0.32080143690109253,154.54876708984375,-0.12148767765695621,-0.8720066871354384,-0.31845521212089856,-0.23818007248143452
0.9230614304542542,1.325127124786377,152.45082092285156,-0.12148767765695621,-0.8720066871354384,-0.31845521212089856,-0.23818007248143452
2.40058970451355,-0.30640310049057007,150.41586303710938,-0.12148767765695621,-0.8720066871354384,-0.31845521212089856,-0.23818007248143452
1.5505318641662598,1.139634132385254,148.29232788085938,-0.12148767765695621,-0.8720066871354384,-0.31845521212089856,-0.23818007248143452
1.1011183261871338,-1.2987879514694214,146.1449432373047,-0.12148767765695621,-0.8720066871354384,-0.31845521212089856,-0.23818007248143452
1.0278079509735107,1.052432656288147,143.86038208007812,-0.12148767765695621,-0.8720066871354384,-0.31845521212089856,-0.23818007248143452
1.1619281768798828,-1.5948466062545776,141.47280883789062,-0.12148767765695621,-0.8720066871354384,-0.31845521212089856,-0.23818007248143452
0.7723910212516785,0.07916519045829773,139.09652709960938,-0.12148767765695621,-0.8720066871354384,-0.31845521212089856,-0.23818007248143452
0.6835414171218872,-0.7311100363731384,136.76119995117188,-0.12148767765695621,-0.8720066871354384,-0.31845521212089856,-0.23818007248143452
0.33088988065719604,0.041021961718797684,134.45860290527344,-0.12148767765695621,-0.8720066871354384,-0.31845521212089856,-0.23818007248143452
0.14795665442943573,-0.9716929793357849,132.19602966308594,-0.12148767765695621,-0.8720066871354384,-0.31845521212089856,-0.23818007248143452
1.224553108215332,1.8179470300674438,129.9854736328125,-0.12148767765695621,-0.8720066871354384,-0.31845521212089856,-0.23818007248143452
1.278861403465271,-0.46765580773353577,127.79946899414062,-0.12148767765695621,-0.8720066871354384,-0.31845521212089856,-0.23818007248143452
0.8232355117797852,0.34792596101760864,125.60110473632812,-0.12148767765695621,-0.8720066871354384,-0.31845521212089856,-0.23818007248143452
0.8453431725502014,-0.052607085555791855,123.29297637939453,-0.12148767765695621,-0.8720066871354384,-0.31845521212089856,-0.23818007248143452
0.7480401992797852,0.7416670918464661,120.99730682373047,-0.12148767765695621,-0.8720066871354384,-0.31845521212089856,-0.23818007248143452
0.0334283821284771,-2.0739564895629883,118.62926483154297,-0.12148767765695621,-0.8720066871354384,-0.31845521212089856,-0.23818007248143452
0.769352912902832,0.8282460570335388,116.23838806152344,-0.12148767765695621,-0.8720066871354384,-0.31845521212089856,-0.23818007248143452
1.0331803560256958,1.0373810529708862,113.97801971435547,-0.12148767765695621,-0.8720066871354384,-0.31845521212089856,-0.23818007248143452
-0.12355075031518936,-1.7768399715423584,111.6875,-0.12148767765695621,-0.8720066871354384,-0.31845521212089856,-0.23818007248143452
2.652040719985962,1.3166849613189697,109.37525939941406,-0.12148767765695621,-0.8720066871354384,-0.31845521212089856,-0.23818007248143452
-1.5719109773635864,-0.9382136464118958,107.01875305175781,-0.12148767765695621,-0.8720066871354384,-0.31845521212089856,-0.23818007248143452
