faccX,faccY,yaw,posX,posY,velX,velY
0,0,-106.25790405273438,0.0,0.0,0.0,0.0
0,0,-106.25740051269531,0.0,0.0,0.0,0.0
0,0,-106.25749206542969,0.0,0.0,0.0,0.0
0,-0.10661482810974121,-106.26254272460938,0.0,-7.403807507620918e-06,0.0,-0.0008884569009145101
-0.23183853924274445,-0.8187627792358398,-106.25382995605469,-1.609989855852392e-05,-8.647375636630589e-05,-0.0019319878270228704,-0.008599936962127686
-1.1660399436950684,-2.6418251991271973,-106.30450439453125,-0.00014537459032403096,-0.0004701246486769782,-0.013580975184837977,-0.03743817011515299
-0.1629222184419632,-2.897881031036377,-106.21345520019531,-0.00046401321577529107,-0.0014787959721353318,-0.02465565986931324,-0.08360238869984944
0.4554347097873688,-1.962032675743103,-106.07996368408203,-0.000854627512809303,-0.0032096631245480643,-0.022218055774768194,-0.12410166958967844
-0.6911256909370422,-1.5418015718460083,-105.98287963867188,-0.001241295871635278,-0.0055213461071252825,-0.024182147284348806,-0.1533002883195877
-1.631065845489502,-0.8572749495506287,-105.87144470214844,-0.0018055949608484904,-0.008242953448659844,-0.04353374342123667,-0.17329259266455968
0.5010805130004883,-1.5155959129333496,-105.86434936523438,-0.0026096285548475053,-0.011295946025186115,-0.05295028785864512,-0.19306651651859283
-0.27686357498168945,-1.3551201820373535,-105.96138763427734,-0.003476562731795841,-0.01471307658486896,-0.051081813375155126,-0.2169891506433487
-0.7410570979118347,-1.3360095024108887,-105.91510009765625,-0.004398615223666032,-0.018516446434789235,-0.05956448564926783,-0.23941523134708406
0.271567165851593,-1.1156195402145386,-105.92378234863281,-0.0054239601186580125,-0.022676952307422955,-0.06347690174976985,-0.25984547336896263
-1.2783437967300415,-0.32899340987205505,-105.94612884521484,-0.00655182352496518,-0.02710803054066168,-0.07186670700709025,-0.27188391461968425
-0.06607049703598022,-1.809635043144226,-105.96992492675781,-0.007842964078817103,-0.03178794498244922,-0.08307015945514043,-0.2897058183948199
0.376908540725708,-0.5949814915657043,-105.94915771484375,-0.009205880761146545,-0.03678336254838441,-0.0804798424243927,-0.3097442895174026
0.1862674057483673,-0.1987358182668686,-106.00283813476562,-0.01050810202749239,-0.04200088663130171,-0.07578670953710874,-0.31635860043267405
-1.7000746726989746,-0.9929779767990112,-105.99496459960938,-0.011876339357760217,-0.04735628787428141,-0.08840177009503047,-0.32628954872488974
0.39611947536468506,-0.7982748746871948,-105.8685302734375,-0.013440254636936717,-0.052918839578827225,-0.09926806340614955,-0.3412166558206081
0.6719686985015869,-0.8915420174598694,-105.86876678466797,-0.015020549570520719,-0.05872313223779202,-0.09036732862393061,-0.355298463255167
0,0.954524576663971,-105.8720932006836,-0.016480007221301395,-0.06464039950321118,-0.08476758946975071,-0.35477360859513285
-0.750693678855896,-2.1922433376312256,-105.88835906982422,-0.017944931884606677,-0.07063924567153057,-0.09102337012688318,-0.3650879316031933
-0.7784397006034851,-0.3434089422225952,-105.95914459228516,-0.019568177871406075,-0.07690013149546253,-0.10376614828904468,-0.3862183672686418
0.15192024409770966,0.35101673007011414,-106.03486633300781,-0.021341121971814165,-0.0833365759646727,-0.10898714375992614,-0.38615496903657914
0,-0.6841363906860352,-106.036376953125,-0.023147024350861703,-0.08979562542504735,-0.10772114172577857,-0.38893096620837847
-0.4433657228946686,0,-105.93270874023438,-0.02497316599927014,-0.0963253176667624,-0.11141585608323414,-0.3946321027974288
0.9363072514533997,-0.7249830961227417,-105.7860107421875,-0.02679586488339635,-0.10295286542839474,-0.10730801001191137,-0.4006736285984516
0.14684829115867615,-0.9809765815734863,-105.72633361816406,-0.02679586488339635,-0.10295286542839474,-0.10730801001191137,-0.4006736285984516
-0.6580410003662109,-0.10964760929346085,-105.63165283203125,-0.028619831210623177,-0.10970649702940136,-0.1115679492553075,-0.40976216352234285
-0.3443586528301239,-0.5152021646499634,-105.56605529785156,-0.03054890811857249,-0.11657925876685314,-0.11992127969861029,-0.4149692449718714
0.7486458420753479,0.6419180035591125,-105.63725280761719,-0.032519520614296187,-0.12348661313868231,-0.11655221978823342,-0.4139132796476285
0.5570914149284363,0.6313807964324951,-105.82243347167969,-0.034371381412363705,-0.13029674427169893,-0.10567107597986855,-0.40330245631436507
-0.8965133428573608,1.1296697854995728,-105.86011505126953,-0.03615613697924547,-0.13689615669763752,-0.10849959204594292,-0.3886270347982645
-0.5064207315444946,-0.6383141279220581,-105.83052825927734,-0.03806188949073353,-0.14333915202361017,-0.12019070933262505,-0.38453240431845187
-0.6683230400085449,-0.5372512340545654,-105.66190338134766,-0.04014664740819069,-0.1498296619123883,-0.12998024076223372,-0.39432878233492374
0.8897829651832581,-0.9573546051979065,-105.65443420410156,-0.04229760559275745,-0.15650560035680736,-0.12813474138577777,-0.40678383099536103
0,-0.660321831703186,-105.7206802368164,-0.044371394132160465,-0.16339766951484816,-0.12071988334258395,-0.4202644679695368
-0.7367623448371887,-1.3967567682266235,-105.60491180419922,-0.046434556239595,-0.17054492999489113,-0.1268595695495605,-0.4374067896356186
1.0074548721313477,0.978763222694397,-105.47264099121094,-0.04853008430658114,-0.1778640704850356,-0.12460379848877585,-0.44089006918172047
0.7849463820457458,-0.5983119010925293,-105.38532257080078,-0.05048234197207621,-0.18518581807406415,-0.1096671213706334,-0.4377196415017049
-0.717502236366272,0.17967869341373444,-105.462646484375,-0.052305443707025695,-0.19251021718295913,-0.10910508682330446,-0.4412082515656949
-0.7927300930023193,0.1915917843580246,-105.56932830810547,-0.054228739065842475,-0.1998379053703199,-0.12169035623470939,-0.4381143309175969
-0.09100023657083511,-1.225684404373169,-105.59980010986328,-0.054228739065842475,-0.1998379053703199,-0.12169035623470939,-0.4381143309175969
-0.39448606967926025,0.34295278787612915,-105.60611724853516,-0.05629062599657722,-0.20720111169231437,-0.1257360754534602,-0.4454704277217389
0.4519987106323242,0.916799008846283,-105.5971908569336,-0.058382233320735374,-0.21453813605734873,-0.12525680344551798,-0.4349724960823855
0.19296178221702576,1.5186388492584229,-105.55714416503906,-0.06042505778837947,-0.22161855002968678,-0.1198821326717734,-0.4146771805981796
0.6499035954475403,1.9147112369537354,-105.58740234375,-0.062364561015015654,-0.22829140928366948,-0.11285825452456869,-0.386065929879745
2.1969730854034424,-0.6881349682807922,-105.70767974853516,-0.06404783215425493,-0.23464066254078517,-0.08913428218414383,-0.3758444609741371
-1.3647884130477905,-0.4128592908382416,-105.88533020019531,-0.06547561292174374,-0.24098119482501515,-0.0821994099145134,-0.3850194131334624
-2.1265900135040283,-1.9160043001174927,-105.98414611816406,-0.06708805992216284,-0.247559911682167,-0.11129423013577855,-0.4044266097247602
0.7041323781013489,0.5774785280227661,-105.94750213623047,-0.06904174553799544,-0.2543933083561974,-0.12314804376413421,-0.4155809911588829
0.0883069634437561,-0.9683766961097717,-105.91726684570312,-0.07103918242423482,-0.26134680391496257,-0.11654438258459167,-0.4188384758929413
-0.36151427030563354,0.082408607006073,-105.8249282836914,-0.07300056153028786,-0.26838897074158824,-0.11882111014177398,-0.4262215433021388
0,0,-105.67060852050781,-0.0750060185236442,-0.27548694031002624,-0.12183372906098759,-0.4255348049104215
-0.1449592262506485,-0.10854676365852356,-105.56102752685547,-0.07704664728759474,-0.2825867250282318,-0.12304172261307633,-0.42643936127424253
0.1715708076953888,0,-105.5352783203125,-0.07909549463799012,-0.2897015856858343,-0.12281995943437016,-0.42734391763806356
0.29189059138298035,-0.9469029307365417,-105.57000732421875,-0.08111030914251585,-0.2968897414611032,-0.11895778110871708,-0.4352347753942014
-0.11480210721492767,-0.40351906418800354,-105.62320709228516,-0.08111030914251585,-0.2968897414611032,-0.11895778110871708,-0.4352347753942014
-0.1401599943637848,-0.05407392233610153,-105.72046661376953,-0.08311064452915966,-0.3041754316750707,-0.12108246528853968,-0.4390480502819023
0.633592426776886,3.727869749069214,-105.7869873046875,-0.08509441947616218,-0.3112377744695793,-0.11697052835176383,-0.40843308505912634
-0.08419989794492722,0.1777898669242859,-105.79486083984375,-0.08700577602307825,-0.3177737661916763,-0.11239225727816418,-0.3758859215925138
0.4308256208896637,1.9968781471252441,-105.86686706542969,-0.0888549090802876,-0.3238875129394648,-0.10950370958695804,-0.3577636881421011
-0.548743724822998,-1.3118014335632324,-105.99307250976562,-0.09068815966395449,-0.32980266630339133,-0.11048636045306916,-0.3520547155290843
-0.7282029986381531,-1.7259289026260376,-105.9917221069336,-0.0926182758606349,-0.3358811983911114,-0.12112758314857874,-0.3773691349973282
1.5701526403427124,-0.6822604537010193,-105.86898803710938,-0.09457860018799284,-0.34233791934636737,-0.11411133613437409,-0.39743737963338704
-0.15072500705718994,-0.09894376993179321,-105.80233001708984,-0.09638188442680981,-0.34901612596689835,-0.1022827725236614,-0.40394741483032715
-0.6888876557350159,-0.2738284468650818,-105.80428314208984,-0.09814490373712029,-0.3557744698402369,-0.10927954471359645,-0.4070538499703011
-0.35338497161865234,-0.07994741946458817,-105.86442565917969,-0.10003860952591312,-0.3625832684415704,-0.11796514994154368,-0.410001982189715
0.23033244907855988,-0.7100744247436523,-105.9062728881836,-0.10201324067233747,-0.369471497439469,-0.11899058762937778,-0.416585497558117
-0.11075560003519058,0.15680526196956635,-105.898681640625,-0.10398811318497686,-0.3764530105350747,-0.1179941138873497,-0.42119607391456776
0,0.562072217464447,-105.85601043701172,-0.10596237311087958,-0.3834230230531346,-0.11891707722097629,-0.41520542825261764
0.13935986161231995,0.33576324582099915,-105.82660675048828,-0.10793464662972833,-0.3902807638390612,-0.11775574504087362,-0.40772346605857224
-0.5242999792098999,0,-105.78902435302734,-0.10992397433302051,-0.3970528380479665,-0.12096357935418678,-0.4049254390100639
1.146053433418274,-1.0622433423995972,-105.72529602050781,-0.10992397433302051,-0.3970528380479665,-0.12096357935418678,-0.4049254390100639
-0.42506781220436096,-0.9286409020423889,-105.7620849609375,-0.11188996554300598,-0.40393985121510934,-0.11495536584407084,-0.42151614104708046
-0.34330102801322937,2.509434223175049,-105.8464584350586,-0.11385924725431117,-0.41085534291859316,-0.12135843951255076,-0.408342863370975
-0.21627646684646606,0.7608195543289185,-105.99127197265625,-0.11592074746110782,-0.4174339563513383,-0.12602158530304822,-0.38109074855844194
0.6414438486099243,1.054733157157898,-106.06438446044922,-0.11799158170353616,-0.4236593887779035,-0.12247852378835274,-0.3659611426293851
-0.6919921040534973,0.08931707590818405,-105.96051788330078,-0.12003640072885895,-0.4296792932222081,-0.12289975925038252,-0.3564273906871678
0.2254379242658615,-0.9311313033103943,-105.80574798583984,-0.12211712964551724,-0.43567820905500826,-0.1267877107486128,-0.36344250924885285
0.10000835359096527,-1.2554631233215332,-105.72481536865234,-0.12420765772203184,-0.4418874310443386,-0.12407565843313925,-0.3816641294707856
-0.20656560361385345,-0.6005415320396423,-105.67935943603516,-0.12628298517161352,-0.44837738908102953,-0.12496363551666333,-0.39713083493212875
0.5041673183441162,-0.9119845032691956,-105.7139663696289,-0.1283450456444794,-0.45510127286012814,-0.12248362122724447,-0.4097352185597024
-0.17327548563480377,0.11409727483987808,-105.80882263183594,-0.13036346073210645,-0.46198560200476413,-0.1197261892880002,-0.4163842787966134
-0.41097527742385864,0.3322162330150604,-105.92784118652344,-0.13239947018989665,-0.46889434599110663,-0.12459494564682239,-0.4126649995644889
0.36263009905815125,1.2761659622192383,-106.04679107666016,-0.13447940992139687,-0.47566040277584576,-0.12499782213320328,-0.39926181460420307
-0.5904133319854736,-0.2585212290287018,-105.93856048583984,-0.13657852523701466,-0.4822440965794442,-0.12689601574093096,-0.39078144182761526
0,-0.7097481489181519,-105.77997589111328,-0.13873445975852916,-0.48882436153892855,-0.1318161268408099,-0.3988503533105057
0.7573328018188477,-1.3221198320388794,-105.73997497558594,-0.14087880265019412,-0.495612969370559,-0.12550502015898618,-0.41578258648514765
-0.5024750828742981,0.5802455544471741,-105.63148498535156,-0.14087880265019412,-0.495612969370559,-0.12550502015898618,-0.41578258648514765
0.05564031004905701,-0.19947712123394012,-105.48172760009766,-0.14300158317873454,-0.502516236893005,-0.1292286432658632,-0.4126095162083707
0.40060344338417053,0.5752531886100769,-105.49510955810547,-0.14512371030584384,-0.50936696660291,-0.12542661198725297,-0.40947804898023626
1.121342658996582,3.768094062805176,-105.6592025756836,-0.1471084631374105,-0.5158899794156768,-0.1127437278007467,-0.37328348855177584
-0.12278171628713608,0.732692539691925,-105.86045837402344,-0.14891818075751256,-0.5217988162663664,-0.10442238661150131,-0.33577693353096666
-0.3532835841178894,-0.727089524269104,-105.9405288696289,-0.15069161395801015,-0.5273947093935892,-0.10838959744820986,-0.3357302417357765
-0.34434443712234497,-1.2454520463943481,-105.90865325927734,-0.15254655363917755,-0.5331271954760372,-0.11420316429187848,-0.3521680881579719
-0.1792190968990326,-2.000638723373413,-105.79444122314453,-0.15448629828946034,-0.5392220865821261,-0.11856619374205662,-0.3792188445727033
0.13747337460517883,1.2497789859771729,-105.75760650634766,-0.15646530052698723,-0.5455945436956571,-0.11891407476117208,-0.38547600905100526
-0.06368592381477356,-0.5975300073623657,-105.707275390625,-0.15844207764447965,-0.5519738487785478,-0.1182991793379187,-0.3800406008958819
0.6765180230140686,-1.1382321119308472,-105.59292602539062,-0.16037117284877833,-0.5584283978295412,-0.11319224517792457,-0.39450528522332534
-0.9086223244667053,1.8015327453613281,-105.63469696044922,-0.16227382862267795,-0.5649574233726085,-0.11512644769002989,-0.388977779944738
0,-0.3778079152107239,-105.73193359375,-0.1642557015233775,-0.5713415165918159,-0.1226983003939191,-0.3771134063601496
0.05165211483836174,0,-105.78024291992188,-0.16629708624419018,-0.5776529766919302,-0.12226786610359942,-0.3802618056535723
-0.6990127563476562,-0.2309676706790924,-105.70630645751953,-0.16837983961268832,-0.584006712874398,-0.12766253811617687,-0.38218653624256477
-0.2023008167743683,0,-105.56128692626953,-0.17057013980164695,-0.5903925279000156,-0.1351734845588604,-0.3841112668315572
0.49896249175071716,-0.07548750191926956,-105.38158416748047,-0.1728024297057546,-0.5967996245348415,-0.13270130393405752,-0.38474032934755115
0.15950573980808258,-0.4299931526184082,-105.31486511230469,-0.1728024297057546,-0.5967996245348415,-0.13270130393405752,-0.38474032934755115
0.12766005098819733,-0.47566714882850647,-105.28463745117188,-0.17499417603585027,-0.6032748564337901,-0.13030825567742185,-0.3922874985262754
0.7762029767036438,-0.29558712244033813,-105.32160949707031,-0.1771032120313287,-0.6098665407336217,-0.12277606377998984,-0.3987146174535158
0.34660831093788147,0.9695965051651001,-105.40540313720703,-0.179071506754909,-0.6164649781507133,-0.1134193030496438,-0.3930978725974761
0,1.4776893854141235,-105.49658966064453,-0.18093775845081014,-0.6228466589516033,-0.11053090045849479,-0.3727038235093159
-0.5620117783546448,1.1732417345046997,-105.50402069091797,-0.18281896872083747,-0.628874296904542,-0.11521433194478349,-0.3506127308433257
-0.6178856492042542,-0.807492196559906,-105.44601440429688,-0.18482114490794213,-0.6346924431451291,-0.1250468105077743,-0.34756481802711914
0.33333808183670044,-1.3872541189193726,-105.31178283691406,-0.18692501866413888,-0.6406376030508226,-0.12741804023583725,-0.36585437065611315
0.844252347946167,-1.2768515348434448,-105.17615509033203,-0.18896687555489014,-0.646920183232158,-0.11760478665431336,-0.38805525110413663
-0.9536153674125671,1.0450286865234375,-105.04559326171875,-0.19093454998659165,-0.6534038695594715,-0.11851614514986669,-0.38998710817347004
0.15295301377773285,-0.2074664831161499,-104.9091567993164,-0.19296542062475852,-0.6598454906537927,-0.12518833143015698,-0.38300742314507596
0.7181421518325806,-0.6905550360679626,-104.8948974609375,-0.1949914000954271,-0.6662913103117095,-0.11792920505007104,-0.3904909358049436
-0.30689069628715515,1.2935353517532349,-105.00365447998047,-0.1969283277174043,-0.6727576189420915,-0.1145021095871925,-0.38546609984089963
0.2788654565811157,-0.9953479766845703,-105.08526611328125,-0.19883864240772597,-0.6791613464828379,-0.11473565325140948,-0.3829812050486608
-0.362417608499527,-0.4648227393627167,-105.08061981201172,-0.20075670552802158,-0.6856457673111522,-0.11543192118406291,-0.3951492943490548
-0.31389421224594116,0,-104.97297668457031,-0.20272753697975218,-0.6922638682405367,-0.12106785302360848,-0.39902281717707744
0.04606940597295761,0.36070993542671204,-104.90499114990234,-0.20272753697975218,-0.6922638682405367,-0.12106785302360848,-0.39902281717707744
0.47268083691596985,-0.1600041687488556,-104.82829284667969,-0.20470931020772282,-0.6989003106263575,-0.11674493433286742,-0.3973502691214286
0.234329491853714,-0.7563382387161255,-104.79508209228516,-0.20660596117377272,-0.705586450001122,-0.11085318159312006,-0.40498645585030346
1.2034082412719727,2.2613685131073,-104.93353271484375,-0.20835367130219098,-0.7122317082740165,-0.09887203381707267,-0.39244453689704367
-1.3538602590560913,0.8036475777626038,-105.16682434082031,-0.2100119865892661,-0.7185596022159901,-0.10012580063194032,-0.36690273613979446
-0.06464757025241852,1.0959841012954712,-105.26298522949219,-0.21177925742127818,-0.7245427289517188,-0.11194669920951124,-0.3510724721476438
-0.37334001064300537,0,-105.11112213134766,-0.21367545154566556,-0.7303178268138117,-0.1155965957169731,-0.34193927130351487
0.06674306094646454,-0.745442271232605,-104.929443359375,-0.21562335292912183,-0.7360685814932615,-0.1181515702977776,-0.34815129023045327
0,-0.9451994299888611,-104.87919616699219,-0.21758791083263018,-0.7419885086707984,-0.11759537812322374,-0.3622399710739655
-0.43823206424713135,0,-104.90764617919922,-0.21957826658358998,-0.7480914803713359,-0.12124731199194984,-0.3701166329905393
0.3473197817802429,-1.0230157375335693,-104.91266632080078,-0.22160536846973822,-0.7543311336807291,-0.12200491434584057,-0.3786417641366524
0.27600356936454773,-0.43230506777763367,-104.91187286376953,-0.22359549736500606,-0.7607428936944867,-0.11681055308630064,-0.39076943751424575
0.28191545605659485,0.6921042203903198,-105.00684356689453,-0.22550359553967905,-0.7672376760452371,-0.11216122787445779,-0.38860444457580673
0.6630412936210632,0.8920631408691406,-105.1045150756836,-0.22730732734108128,-0.7736044051658575,-0.10428658829381063,-0.37540304989864454
-1.1921056509017944,1.0054173469543457,-105.17727661132812,-0.22908217772634484,-0.7797293531858471,-0.10869545793781672,-0.3595907125001155
-0.22577451169490814,-1.0990413427352905,-105.1082763671875,-0.23099223259215546,-0.7857290333938894,-0.12051112595945591,-0.36037091246495667
0.3992323577404022,-1.4110413789749146,-104.95415496826172,-0.23298870567439323,-0.7919095265684242,-0.1190656439090768,-0.3812882684792084
0.03339269012212753,0.7822386026382446,-104.76538848876953,-0.23298870567439323,-0.7919095265684242,-0.1190656439090768,-0.3812882684792084
0.055321816354990005,-1.1854099035263062,-104.63981628417969,-0.23496697234326136,-0.7982923290500837,-0.11832635635510082,-0.38464802931994224
0.38697701692581177,1.0059776306152344,-104.57894897460938,-0.23690836308575744,-0.8047155901132571,-0.11464053274442747,-0.38614329826086785
0.5198897123336792,2.4065968990325928,-104.74544525146484,-0.23875606177529932,-0.8109143274086016,-0.10708331000059837,-0.3577051771804693
0.29058322310447693,1.548365592956543,-104.96940612792969,-0.24048450076590386,-0.8166014301885546,-0.10032936887194707,-0.3247471564138932
-0.0730971246957779,0.3306530714035034,-105.05471801757812,-0.24214155371249127,-0.8218833953882055,-0.09851698471854124,-0.30908866754422615
-0.22511416673660278,-0.3674636781215668,-105.03482818603516,-0.24380421257526086,-0.8270374294727425,-0.10100207881381108,-0.30939542260021
-0.303739994764328,-1.4614863395690918,-104.92212677001953,-0.24552430653892862,-0.8323210302673079,-0.10540919682631884,-0.3246366727476322
-0.44267863035202026,-0.25500741600990295,-104.8753662109375,-0.24733296111277814,-0.837850842435017,-0.11162935203562174,-0.33894078737745714
0.7966564297676086,-0.3049934506416321,-104.77921295166016,-0.24916886852174575,-0.8435387445070476,-0.10867953704049184,-0.34360746126621994
0.5989302396774292,-1.4713215827941895,-104.7203369140625,-0.2508832783981536,-0.8493888907388065,-0.09704964812844985,-0.3584100865448518
-0.36142510175704956,2.085659980773926,-104.80860137939453,-0.2524842791212722,-0.8553197297924722,-0.09507043864578002,-0.35329059989502065
-1.122450828552246,-0.19684657454490662,-104.8827896118164,-0.25417183337164,-0.8610767388597343,-0.10743607139835748,-0.3375504881764455
0.38158538937568665,0,-104.95565032958984,-0.25601388355044435,-0.8667162502303518,-0.11360995005816214,-0.33919087629765304
-0.14898432791233063,0.23054198920726776,-104.85140228271484,-0.25789122986658986,-0.8723534216416178,-0.11167160787930085,-0.33726969305425913
0.25473642349243164,-0.2758377194404602,-104.68077850341797,-0.25974507943571845,-0.8779777287293439,-0.11079034041613334,-0.33764715747286905
0.5748469829559326,-0.7112966775894165,-104.56846618652344,-0.26153397515053955,-0.8836737323536854,-0.10387714536239696,-0.345873277448118
-0.5399485230445862,-0.37948232889175415,-104.54320526123047,-0.263262837402419,-0.8895140355199375,-0.10358632486313574,-0.35496310250212776
-0.47060155868530273,-0.5452563166618347,-104.5284194946289,-0.263262837402419,-0.8895140355199375,-0.10358632486313574,-0.35496310250212776
0.6498095989227295,-0.508995532989502,-104.52452087402344,-0.26497683114734366,-0.8955032991623099,-0.10209292452782384,-0.36374853458255557
0.31736278533935547,1.2906707525253296,-104.5624008178711,-0.26661121514056696,-0.9015114917373291,-0.09403315465897313,-0.35723457441975703
0.3647945821285248,1.9059231281280518,-104.55247497558594,-0.2681310623454757,-0.9072434156248352,-0.08834850993007413,-0.33059629208097885
-0.6264094710350037,4.110496520996094,-104.68485260009766,-0.2696217052115954,-0.9123355469061069,-0.0905286340042948,-0.28045946167161095
-0.678331196308136,-1.7998098134994507,-104.8376235961914,-0.27122112276912136,-0.9168494069126131,-0.10140147289882095,-0.2612037391091389
1.2685232162475586,-1.3115596771240234,-104.82496643066406,-0.2728701617604948,-0.9214188698901697,-0.09648320606599244,-0.28713181819766787
-0.5511221289634705,-0.8685116767883301,-104.68675994873047,-0.2744283956749777,-0.9263557940374859,-0.09050486367195837,-0.3052990794802708
-0.5369482636451721,-0.5137010812759399,-104.4760513305664,-0.27601237051344146,-0.9315400990259115,-0.09957211694369705,-0.31681751913080636
0,-0.0862852931022644,-104.39352416992188,-0.27770919386970067,-0.9368620567318678,-0.10404668580740682,-0.32181740558395805
0.6644431948661804,0.3895632028579712,-104.38273620605469,-0.2793971634112917,-0.9422046191923119,-0.09850965918352199,-0.31929008966932715
0.4547085464000702,0.09678839892148972,-104.49724578857422,-0.28096127219342915,-0.9474923462700104,-0.0891833946729699,-0.31523715965449833
-0.3156081736087799,-0.07641226053237915,-104.638671875,-0.2824380023565348,-0.9527448839213084,-0.08802422489970915,-0.3150673585012557
0.35977858304977417,-0.19962823390960693,-104.70526123046875,-0.28390200538198546,-0.9580151760417767,-0.08765613815436753,-0.31736769595493897
-0.12218684703111649,-0.35194581747055054,-104.65750885009766,-0.2853464415917792,-0.9633429413945938,-0.08567620702087872,-0.32196414638310694
-0.7648735642433167,-0.19353057444095612,-104.54362487792969,-0.2868359797929101,-0.9687468908059728,-0.09306837711483233,-0.3265097829823695
-0.054065171629190445,0,-104.44314575195312,-0.2884439901570373,-0.9742021601455707,-0.09989286658043656,-0.32812253776937744
1.4667366743087769,-1.3226455450057983,-104.36858367919922,-0.2900107690790252,-0.9797627194934635,-0.08812060405810668,-0.3391445839777591
-0.6109712719917297,0.5893955230712891,-104.43761444091797,-0.2914200176603883,-0.9854660493668382,-0.08098922570546462,-0.34525500082721333
-1.2005003690719604,0.4669344127178192,-104.45296478271484,-0.29289563473055324,-0.9911469431350842,-0.0960848227143287,-0.3364522513623041
1.3138751983642578,-0.47711071372032166,-104.44483947753906,-0.29289563473055324,-0.9911469431350842,-0.0960848227143287,-0.3364522513623041
-0.36093568801879883,0.48997509479522705,-104.41436004638672,-0.29289563473055324,-0.9911469431350842,-0.0960848227143287,-0.3364522513623041
0.029038263484835625,0.815646767616272,-104.29164123535156,-0.29289563473055324,-0.9911469431350842,-0.0960848227143287,-0.3364522513623041
1.3241009712219238,0.947766125202179,-104.10774230957031,-0.29289563473055324,-0.9911469431350842,-0.0960848227143287,-0.3364522513623041
-0.1134154349565506,2.4419877529144287,-103.8156509399414,-0.29289563473055324,-0.9911469431350842,-0.0960848227143287,-0.3364522513623041
0.36658981442451477,1.9168946743011475,-103.38492584228516,-0.29289563473055324,-0.9911469431350842,-0.0960848227143287,-0.3364522513623041
0.6084194779396057,0.5050808787345886,-102.67375183105469,-0.29289563473055324,-0.9911469431350842,-0.0960848227143287,-0.3364522513623041
1.8065952062606812,0.662379264831543,-101.70441436767578,-0.29289563473055324,-0.9911469431350842,-0.0960848227143287,-0.3364522513623041
0.6210628747940063,1.9856616258621216,-100.5281753540039,-0.29289563473055324,-0.9911469431350842,-0.0960848227143287,-0.3364522513623041
0.9243699312210083,0.8319926261901855,-99.2076644897461,-0.29289563473055324,-0.9911469431350842,-0.0960848227143287,-0.3364522513623041
0.4804568588733673,0.966101348400116,-97.74256896972656,-0.29289563473055324,-0.9911469431350842,-0.0960848227143287,-0.3364522513623041
0.6908689737319946,0.9906072020530701,-96.23892974853516,-0.29289563473055324,-0.9911469431350842,-0.0960848227143287,-0.3364522513623041
-0.169566810131073,1.3335390090942383,-94.71766662597656,-0.29289563473055324,-0.9911469431350842,-0.0960848227143287,-0.3364522513623041
0.01682353764772415,0.8915972709655762,-93.15351104736328,-0.29289563473055324,-0.9911469431350842,-0.0960848227143287,-0.3364522513623041
0.6035405993461609,0.5176838636398315,-91.47853088378906,-0.29289563473055324,-0.9911469431350842,-0.0960848227143287,-0.3364522513623041
0.19040076434612274,0.6625323295593262,-89.73175811767578,-0.29289563473055324,-0.9911469431350842,-0.0960848227143287,-0.3364522513623041
1.0777602195739746,0.2482593059539795,-87.92809295654297,-0.29289563473055324,-0.9911469431350842,-0.0960848227143287,-0.3364522513623041
0.5449413657188416,0.7388302087783813,-86.11289978027344,-0.29289563473055324,-0.9911469431350842,-0.0960848227143287,-0.3364522513623041
0.5519338846206665,-0.24548399448394775,-84.32689666748047,-0.29289563473055324,-0.9911469431350842,-0.0960848227143287,-0.3364522513623041
-1.3058464527130127,1.7371397018432617,-82.60398864746094,-0.29289563473055324,-0.9911469431350842,-0.0960848227143287,-0.3364522513623041
0.7625523209571838,-0.2747701108455658,-80.85250091552734,-0.29289563473055324,-0.9911469431350842,-0.0960848227143287,-0.3364522513623041
1.254862904548645,0.4641115069389343,-79.09270477294922,-0.29289563473055324,-0.9911469431350842,-0.0960848227143287,-0.3364522513623041
-0.016307367011904716,1.206074595451355,-77.2691421508789,-0.29289563473055324,-0.9911469431350842,-0.0960848227143287,-0.3364522513623041
1.0559756755828857,0.39035919308662415,-75.44489288330078,-0.29289563473055324,-0.9911469431350842,-0.0960848227143287,-0.3364522513623041
0.28538280725479126,0.9198533296585083,-73.55023956298828,-0.29289563473055324,-0.9911469431350842,-0.0960848227143287,-0.3364522513623041
0.5818137526512146,1.0541431903839111,-71.60981750488281,-0.29289563473055324,-0.9911469431350842,-0.0960848227143287,-0.3364522513623041
1.6835848093032837,-0.8498646020889282,-69.64451599121094,-0.29289563473055324,-0.9911469431350842,-0.0960848227143287,-0.3364522513623041
0.11869296431541443,0.8948255181312561,-67.62930297851562,-0.29289563473055324,-0.9911469431350842,-0.0960848227143287,-0.3364522513623041
-0.7741981744766235,1.3098208904266357,-65.56096649169922,-0.29289563473055324,-0.9911469431350842,-0.0960848227143287,-0.3364522513623041
0.6523404121398926,0.6496265530586243,-63.452457427978516,-0.29289563473055324,-0.9911469431350842,-0.0960848227143287,-0.3364522513623041
1.20252525806427,0.8297043442726135,-61.268184661865234,-0.29289563473055324,-0.9911469431350842,-0.0960848227143287,-0.3364522513623041
0.7794522643089294,0.8933232426643372,-59.0855827331543,-0.29289563473055324,-0.9911469431350842,-0.0960848227143287,-0.3364522513623041
0.8854773640632629,0.19220586121082306,-56.79641342163086,-0.29289563473055324,-0.9911469431350842,-0.0960848227143287,-0.3364522513623041
-0.407746285200119,0.8293335437774658,-54.49863815307617,-0.29289563473055324,-0.9911469431350842,-0.0960848227143287,-0.3364522513623041
1.4869500398635864,0.8515629768371582,-52.15684509277344,-0.29289563473055324,-0.9911469431350842,-0.0960848227143287,-0.3364522513623041
-1.6896159648895264,0.8993586301803589,-49.718448638916016,-0.29289563473055324,-0.9911469431350842,-0.0960848227143287,-0.3364522513623041
0.5914703607559204,0.7349640130996704,-47.27188491821289,-0.29289563473055324,-0.9911469431350842,-0.0960848227143287,-0.3364522513623041
-0.03944920003414154,0.02719082683324814,-44.782936096191406,-0.29289563473055324,-0.9911469431350842,-0.0960848227143287,-0.3364522513623041
-0.16185520589351654,0.5438663363456726,-42.274295806884766,-0.29289563473055324,-0.9911469431350842,-0.0960848227143287,-0.3364522513623041
0.37971001863479614,0.6001718044281006,-39.76346206665039,-0.29289563473055324,-0.9911469431350842,-0.0960848227143287,-0.3364522513623041
0.09100011736154556,0.8339357376098633,-37.213348388671875,-0.29289563473055324,-0.9911469431350842,-0.0960848227143287,-0.3364522513623041
0.2541281580924988,0.636349081993103,-34.7210693359375,-0.29289563473055324,-0.9911469431350842,-0.0960848227143287,-0.3364522513623041
0.024482361972332,-0.03739239647984505,-32.18736267089844,-0.29289563473055324,-0.9911469431350842,-0.0960848227143287,-0.3364522513623041
-0.11017856746912003,0.2704290747642517,-29.675792694091797,-0.29289563473055324,-0.9911469431350842,-0.0960848227143287,-0.3364522513623041
-0.651170015335083,-0.006563318427652121,-27.173954010009766,-0.29289563473055324,-0.9911469431350842,-0.0960848227143287,-0.3364522513623041
0.39078623056411743,0.8601980209350586,-24.694604873657227,-0.29289563473055324,-0.9911469431350842,-0.0960848227143287,-0.3364522513623041
-0.03676358610391617,0.6638470888137817,-22.178600311279297,-0.29289563473055324,-0.9911469431350842,-0.0960848227143287,-0.3364522513623041
-0.2104116827249527,-0.16301093995571136,-19.615385055541992,-0.29289563473055324,-0.9911469431350842,-0.0960848227143287,-0.3364522513623041
0.2866740822792053,0.6601518392562866,-17.01831817626953,-0.29289563473055324,-0.9911469431350842,-0.0960848227143287,-0.3364522513623041
-0.18709196150302887,0.6031545996665955,-14.530284881591797,-0.29289563473055324,-0.9911469431350842,-0.0960848227143287,-0.3364522513623041
0.27718907594680786,0.8415470123291016,-12.384263038635254,-0.29289563473055324,-0.9911469431350842,-0.0960848227143287,-0.3364522513623041
-0.36037003993988037,-1.0209321975708008,-10.643631935119629,-0.29289563473055324,-0.9911469431350842,-0.0960848227143287,-0.3364522513623041
-0.8025248646736145,-1.7750324010849,-9.100113868713379,-0.29289563473055324,-0.9911469431350842,-0.0960848227143287,-0.3364522513623041
0.04998651146888733,-0.09735731035470963,-7.990938186645508,-0.29289563473055324,-0.9911469431350842,-0.0960848227143287,-0.3364522513623041
-0.7141795754432678,-1.5237443447113037,-7.324323654174805,-0.29289563473055324,-0.9911469431350842,-0.0960848227143287,-0.3364522513623041
-0.8983778953552246,-0.7129477858543396,-6.925226211547852,-0.29289563473055324,-0.9911469431350842,-0.0960848227143287,-0.3364522513623041
-1.05810546875,-0.3645116090774536,-6.75811767578125,-0.29289563473055324,-0.9911469431350842,-0.0960848227143287,-0.3364522513623041
-1.560052752494812,-0.28186219930648804,-6.736242771148682,-0.29289563473055324,-0.9911469431350842,-0.0960848227143287,-0.3364522513623041
-0.47880586981773376,0.004422755446285009,-6.735617160797119,-0.29289563473055324,-0.9911469431350842,-0.0960848227143287,-0.3364522513623041
0.36819255352020264,0.41615137457847595,-6.787716865539551,-0.29289563473055324,-0.9911469431350842,-0.0960848227143287,-0.3364522513623041
1.064516544342041,-0.3195224106311798,-6.791486740112305,-0.29289563473055324,-0.9911469431350842,-0.0960848227143287,-0.3364522513623041
0.83539217710495,0.07467731088399887,-6.7727580070495605,-0.29289563473055324,-0.9911469431350842,-0.0960848227143287,-0.3364522513623041
-0.0948081910610199,0.19121882319450378,-6.784471035003662,-0.29289563473055324,-0.9911469431350842,-0.0960848227143287,-0.3364522513623041
-0.4509439170360565,-0.161722794175148,-6.790436267852783,-0.29289563473055324,-0.9911469431350842,-0.0960848227143287,-0.3364522513623041
0.42012572288513184,0.1322665810585022,-6.779777526855469,-0.29289563473055324,-0.9911469431350842,-0.0960848227143287,-0.3364522513623041
0.3770746886730194,0.004448934458196163,-6.7880778312683105,-0.29289563473055324,-0.9911469431350842,-0.0960848227143287,-0.3364522513623041
0.2540324330329895,0.03370828181505203,-6.784972667694092,-0.29289563473055324,-0.9911469431350842,-0.0960848227143287,-0.3364522513623041
0.04288074001669884,0.05236266180872917,-6.787200927734375,-0.29289563473055324,-0.9911469431350842,-0.0960848227143287,-0.3364522513623041
0.10881602019071579,-0.003411331446841359,-6.788375377655029,-0.29289563473055324,-0.9911469431350842,-0.0960848227143287,-0.3364522513623041
0.29452797770500183,0.04438755661249161,-6.783837795257568,-0.29289563473055324,-0.9911469431350842,-0.0960848227143287,-0.3364522513623041
0.3086020052433014,0.061248794198036194,-6.788403034210205,-0.29289563473055324,-0.9911469431350842,-0.0960848227143287,-0.3364522513623041
0.10844597965478897,0.002355924341827631,-6.786876678466797,-0.29289563473055324,-0.9911469431350842,-0.0960848227143287,-0.3364522513623041
0.11193546652793884,0.052898671478033066,-6.7877516746521,-0.29289563473055324,-0.9911469431350842,-0.0960848227143287,-0.3364522513623041
0.259458988904953,0.019423827528953552,-6.789479732513428,-0.29289563473055324,-0.9911469431350842,-0.0960848227143287,-0.3364522513623041
0.2599470913410187,0.05590967833995819,-6.78729248046875,-0.29289563473055324,-0.9911469431350842,-0.0960848227143287,-0.3364522513623041
0.15099216997623444,0.05353805050253868,-6.786292552947998,-0.29289563473055324,-0.9911469431350842,-0.0960848227143287,-0.3364522513623041
0.14836165308952332,0.02211010456085205,-6.786849021911621,-0.29289563473055324,-0.9911469431350842,-0.0960848227143287,-0.3364522513623041
0.24499551951885223,0,-6.785909652709961,-0.2944697319721387,-0.9967529452338615,-0.09280684627592556,-0.33626800049096367
0.21253827214241028,0,-6.786107540130615,-0.2959847395634277,-1.0023574119087109,-0.08899406467874837,-0.33626800049096367
0.9176339507102966,0.07743664085865021,-6.75920295715332,-0.2973894897925976,-1.007956501039056,-0.07957596282164248,-0.33562269515047494
1.2352479696273804,0.45088228583335876,-6.629373073577881,-0.29856625015071264,-1.0135135238105437,-0.06163528015216184,-0.3312200374280415
2.188666343688965,-0.47766339778900146,-6.472944259643555,-0.2993557329926017,-1.0190357175671192,-0.033102660874525625,-0.3314432133610052
3.0652709007263184,-0.7639029622077942,-6.461210250854492,-0.2995425872540927,-1.024645991009247,0.010680149495601733,-0.34178959969431183
2.008211612701416,0.8233156800270081,-6.37993860244751,-0.29901225958795574,-1.0303383584543035,0.05295917044083285,-0.34129449371248505
0.9427084922790527,0.055092617869377136,-6.18182897567749,-0.2979246817399849,-1.0359655994399355,0.07755017131567009,-0.3339744245633485
1.79927659034729,-0.4511091709136963,-5.997705459594727,-0.29644176325398575,-1.0415593409988415,0.10040004700422295,-0.3372745625053845
1.543973445892334,0.46221932768821716,-5.8814005851745605,-0.2945362589958432,-1.0471798121685998,0.12826046397288648,-0.33718197786559684
0.9995560646057129,-0.5106202960014343,-5.793493747711182,-0.2922219506025105,-1.052802872978048,0.1494565432270369,-0.337585319268207
1.533726692199707,-0.06831144541501999,-5.78883171081543,-0.2895550858017262,-1.0584694985590055,0.17056723286708206,-0.3424097504466775
1.1823087930679321,-0.4726846516132355,-5.796299457550049,-0.286523685011909,-1.0642138969065216,0.19320086191097904,-0.3469180512552463
1.9095755815505981,0.27334487438201904,-5.719698429107666,-0.2830889564540442,-1.0700097074675279,0.21896656503280013,-0.3485792160655064
0.6219283938407898,-0.10999109596014023,-5.667927265167236,-0.27926371481631757,-1.0758080170562292,0.24006243149439502,-0.3472179345786574
0.7109717726707458,-0.20332711935043335,-5.5987868309021,-0.2751701117798477,-1.0816167408419368,0.25116993288199113,-0.3498289197062455
2.207641839981079,-0.23840489983558655,-5.551274299621582,-0.2707812647309359,-1.0874778986717066,0.27549171298742303,-0.353510019866129
0.3670201897621155,0.40846753120422363,-5.515209197998047,-0.2660109402068578,-1.093357922431186,0.29694722990194966,-0.35209283127139035
0.8341413736343384,-0.7631304860115051,-5.465548038482666,-0.2660109402068578,-1.093357922431186,0.29694722990194966,-0.35209283127139035
-0.20363284647464752,0.2513502240180969,-5.373534679412842,-0.26101803439410587,-1.099261676581681,0.30220146762828043,-0.35635766678800207
1.2166197299957275,1.4781867265701294,-5.370126247406006,-0.25591099695561226,-1.105080864295468,0.3106430249909561,-0.3419448588664335
-1.000284194946289,0.7344513535499573,-5.462588787078857,-0.2507185899047179,-1.1106262898543446,0.3124458211163681,-0.32350620819876613
-0.2551344037055969,-1.5940041542053223,-5.533594608306885,-0.24559834139990705,-1.116077751157703,0.30198399946093574,-0.3306691482042275
1.2549408674240112,-0.3892626464366913,-5.45176887512207,-0.2404958437377999,-1.121726630488929,0.31031571999192253,-0.34719637154291094
1.181354284286499,0.37127697467803955,-5.3247270584106445,-0.2351547279079546,-1.1275144856862942,0.3306181795895101,-0.3473462521408997
0.314073771238327,-0.6514618396759033,-5.369086742401123,-0.22954057574427356,-1.1333230471709341,0.343080080052217,-0.3496811260158819
0.7478916645050049,0.11443819850683212,-5.476724147796631,-0.22374882681036554,-1.13918835924628,0.3519297920167448,-0.35415632302562416
0.6118535399436951,-0.5017133951187134,-5.497509002685547,-0.2177889035264442,-1.145117858740916,0.3632610020538173,-0.3573836163307232
1.9390931129455566,0.8298879861831665,-5.316248893737793,-0.2115574044190966,-1.151051462444271,0.38451889082789437,-0.3546488280718527
0.5826853513717651,0.39460963010787964,-5.208495616912842,-0.20497363273416522,-1.1568772416887816,0.40553371136387206,-0.34444468126942734
0,-0.48330071568489075,-5.152519226074219,-0.1981742732842554,-1.1626241454797706,0.4103894226253034,-0.34518377364923575
0.5057775378227234,0.4108127951622009,-5.0805134773254395,-0.19129932613370712,-1.168382242257294,0.4146042354404928,-0.3457878396535915
-0.2759007513523102,-0.29026952385902405,-5.14096736907959,-0.19129932613370712,-1.168382242257294,0.4146042354404928,-0.3457878396535915
0.6154804825782776,0.43604838848114014,-5.326507091522217,-0.18436567361725265,-1.1741352493859218,0.4174340665340425,-0.34457301578174054
0.5025681853294373,0.7064012885093689,-5.469308853149414,-0.1773307969064139,-1.1797987961991598,0.4267511387666068,-0.3350526018068196
0.7947608828544617,-0.2749768793582916,-5.341757297515869,-0.1701281856305688,-1.1853530462008601,0.43756221433480597,-0.3314573983972273
-1.336585521697998,-1.1787217855453491,-5.077428817749023,-0.16287310876935285,-1.1909782874703212,0.4330470090111098,-0.34357155393809097
0.3906032145023346,0.4169853627681732,-4.958930015563965,-0.15572135183494515,-1.196757378398649,0.42516382311781264,-0.3499193574612341
-0.31605178117752075,0.6605602502822876,-4.899008750915527,-0.14863011093344516,-1.2025145381332076,0.4257850850621861,-0.3409398106858136
1.2017570734024048,-0.2129909098148346,-4.83090353012085,-0.14147218553711532,-1.2081657871071054,0.4331659624973935,-0.3372100661819181
0.4756842255592346,-0.11292066425085068,-4.81416130065918,-0.13413626384973087,-1.213808587625003,0.4471446399887405,-0.3399259959657988
1.132093071937561,0.8216937780380249,-4.791472434997559,-0.1265722019820368,-1.2194248005359756,0.46054278413454713,-0.3340195533509057
0.960178017616272,-0.2255045622587204,-4.7710466384887695,-0.11875119230968645,-1.2249503910629504,0.47797837654749575,-0.32905130988607817
0.16302752494812012,-0.39228734374046326,-4.708688259124756,-0.11070688564899454,-1.230477481776746,0.48733842273553235,-0.3341995757694047
1.0176050662994385,0.03282720968127251,-4.734592437744141,-0.11070688564899454,-1.230477481776746,0.48733842273553235,-0.3341995757694047
-0.4092090129852295,-1.2629648447036743,-4.750729560852051,-0.10254232887747775,-1.2361329009308906,0.4924083898464841,-0.3444507227279247
0,0.5469580292701721,-4.801639080047607,-0.09436393967260476,-1.2419234690052054,0.4889983147382739,-0.3504174461898706
-2.2132139205932617,0.38246771693229675,-4.8088226318359375,-0.0863676631714525,-1.2476992163204392,0.4705548653999967,-0.34267223163818333
-2.053983211517334,0.6863454580307007,-4.889401912689209,-0.07882141521562691,-1.2533361970439254,0.43499488929907504,-0.3337654551801584
1.0430245399475098,-0.12750330567359924,-4.866761684417725,-0.07164170585727912,-1.258860146147459,0.42657023370265984,-0.3291084372438492
0.5789818167686462,0.4626493453979492,-4.980913162231445,-0.06441956263190728,-1.2643220127376533,0.44008695334196113,-0.3263155535794796
2.0916812419891357,-0.07739049196243286,-5.1055192947387695,-0.05689931736379419,-1.2697338512102672,0.4623424788316093,-0.32310506313418363
1.2402399778366089,-0.4903625547885895,-5.124506950378418,-0.04896222596522391,-1.2751583628907501,0.4901084889968238,-0.3278363385237755
-0.39891624450683594,-0.7395415306091309,-5.189162731170654,-0.04073532588935117,-1.2807077118720769,0.4971195201079052,-0.3380855392354231
0.4826965630054474,-0.3955295979976654,-5.232511043548584,-0.0324441824765459,-1.286421295243265,0.497817689428727,-0.34754446530714644
0.6699759364128113,0,-5.127007484436035,-0.024067174284718627,-1.2922411703315784,0.5074232935905458,-0.3508405452904603
0.5927265882492065,0.7430438995361328,-4.942681789398193,-0.024067174284718627,-1.2922411703315784,0.5074232935905458,-0.3508405452904603
0.3769925832748413,0.1849348098039627,-4.816551208496094,-0.01554277778240925,-1.2980240697871597,0.5155042866865795,-0.34310738937929286
-0.7351289987564087,0.24892233312129974,-4.765431880950928,-0.006975910255374699,-1.3037123973085558,0.5125198165575665,-0.339491913188249
-1.7400634288787842,0,-4.877322196960449,0.0013941983242211874,-1.3093533095885599,0.4918932129939399,-0.3374175604122382
-0.9793937802314758,0.4035695791244507,-5.019087314605713,0.00940356734570975,-1.3149489099302136,0.46923106958468774,-0.33405448058620113
1.1071809530258179,0.5109134316444397,-4.956161975860596,0.01723295928134304,-1.3204529788420136,0.47029596269130725,-0.32643378882979374
0.898111879825592,0.44321951270103455,-4.953547954559326,0.025210481772923954,-1.3258272827569306,0.4870067362984023,-0.3184826809602481
1.159188151359558,-2.0784096717834473,-4.802957534790039,0.03347012876895185,-1.3312488823117599,0.5041509032249453,-0.33210926561926823
0.9211251139640808,0.889411211013794,-4.60984468460083,0.04201711002168174,-1.336866606076301,0.5214868471026423,-0.342017586125682
-0.23309361934661865,1.3550174236297607,-4.583305835723877,0.05075633743829644,-1.3424110360787678,0.5272204428911211,-0.3233140141703191
0.19849297404289246,-1.0419549942016602,-4.468217372894287,0.05954094199722459,-1.3477778625351184,0.5269321041802567,-0.3207051605917516
0.12810595333576202,-0.5213510990142822,-4.271016597747803,0.05954094199722459,-1.3477778625351184,0.5269321041802567,-0.3207051605917516
0,0.7978863716125488,-4.138467311859131,0.06833203998032163,-1.353103744706606,0.527999653791388,-0.318400699986766
0.3778191804885864,1.3893704414367676,-4.192313194274902,0.07715827165326758,-1.3582585302054793,0.5311481469621262,-0.3001735598780217
-1.5369163751602173,-0.2871859669685364,-4.348790645599365,0.08593024790856194,-1.3631848822816082,0.521489003673196,-0.2909886892574531
-0.1606845110654831,-0.13041849434375763,-4.432624816894531,0.09450384235268286,-1.3680636940790458,0.5073423296213151,-0.2944687264350555
0.5773952603340149,-1.6561901569366455,-4.439751625061035,0.10298848609284843,-1.3730955762315245,0.5108149191985528,-0.3093571318623922
1.6163384914398193,-0.1777808964252472,-4.436769485473633,0.11165441070114193,-1.3783788875301588,0.5290960337966681,-0.3246402239737413
1.177241325378418,0.7258862853050232,-4.43989896774292,0.12066667652947656,-1.3837514950554934,0.5523758656034868,-0.32007267906640985
-0.9491071701049805,-0.607384204864502,-4.456732749938965,0.1298887836058731,-1.3890778103954586,0.5542769835640988,-0.3190851617294055
1.2616809606552124,0.872022271156311,-4.425970554351807,0.13914843984517408,-1.3943775187807896,0.5568817651520174,-0.3168798445103071
0.3486572504043579,1.057934045791626,-4.480144023895264,0.1485416316401424,-1.3995248247783956,0.5703012502441804,-0.3007968752024076
-0.5592144131660461,-0.7156529426574707,-4.537435054779053,0.1485416316401424,-1.3995248247783956,0.5703012502441804,-0.3007968752024076
1.295488715171814,-0.461667001247406,-4.5681304931640625,0.1485416316401424,-1.3995248247783956,0.5703012502441804,-0.3007968752024076
-1.0526283979415894,-0.6991128325462341,-4.621708869934082,0.1485416316401424,-1.3995248247783956,0.5703012502441804,-0.3007968752024076
-2.6900041103363037,0.6620092391967773,-4.506659030914307,0.1485416316401424,-1.3995248247783956,0.5703012502441804,-0.3007968752024076
-1.5439590215682983,0.7571219205856323,-4.060789108276367,0.1485416316401424,-1.3995248247783956,0.5703012502441804,-0.3007968752024076
-1.0499902963638306,0.4892769455909729,-3.376128911972046,0.1485416316401424,-1.3995248247783956,0.5703012502441804,-0.3007968752024076
-1.7283756732940674,0.2288285195827484,-2.5276005268096924,0.1485416316401424,-1.3995248247783956,0.5703012502441804,-0.3007968752024076
-0.5605101585388184,0.9653218388557434,-1.3717492818832397,0.1485416316401424,-1.3995248247783956,0.5703012502441804,-0.3007968752024076
-0.9748275279998779,0.96543949842453,0.008186438120901585,0.1485416316401424,-1.3995248247783956,0.5703012502441804,-0.3007968752024076
-1.0193644762039185,0.9292951226234436,1.563117265701294,0.1485416316401424,-1.3995248247783956,0.5703012502441804,-0.3007968752024076
-1.6163558959960938,0.061340995132923126,3.1043851375579834,0.1485416316401424,-1.3995248247783956,0.5703012502441804,-0.3007968752024076
-0.3598491847515106,0.006010752171278,4.740283012390137,0.1485416316401424,-1.3995248247783956,0.5703012502441804,-0.3007968752024076
-0.6271526217460632,0.0376710519194603,6.365118980407715,0.1485416316401424,-1.3995248247783956,0.5703012502441804,-0.3007968752024076
-0.30223122239112854,-0.10810520499944687,8.053817749023438,0.1485416316401424,-1.3995248247783956,0.5703012502441804,-0.3007968752024076
-1.7429523468017578,0.5417605638504028,9.672207832336426,0.1485416316401424,-1.3995248247783956,0.5703012502441804,-0.3007968752024076
0.579257071018219,-0.4010167717933655,11.356614112854004,0.1485416316401424,-1.3995248247783956,0.5703012502441804,-0.3007968752024076
-1.024292230606079,-0.4696350395679474,13.044668197631836,0.1485416316401424,-1.3995248247783956,0.5703012502441804,-0.3007968752024076
-0.02702012099325657,0.7081732153892517,14.761280059814453,0.1485416316401424,-1.3995248247783956,0.5703012502441804,-0.3007968752024076
0.3031482994556427,-0.015371090732514858,16.51373863220215,0.1485416316401424,-1.3995248247783956,0.5703012502441804,-0.3007968752024076
-0.3529638946056366,-0.22856038808822632,18.2788028717041,0.1485416316401424,-1.3995248247783956,0.5703012502441804,-0.3007968752024076
-0.28947943449020386,1.274610996246338,20.073062896728516,0.1485416316401424,-1.3995248247783956,0.5703012502441804,-0.3007968752024076
0.39702486991882324,1.1154930591583252,21.84368324279785,0.1485416316401424,-1.3995248247783956,0.5703012502441804,-0.3007968752024076
-0.6054035425186157,-0.22412006556987762,23.60420799255371,0.1485416316401424,-1.3995248247783956,0.5703012502441804,-0.3007968752024076
-0.14613620936870575,0.9746915102005005,25.356115341186523,0.1485416316401424,-1.3995248247783956,0.5703012502441804,-0.3007968752024076
-0.724496066570282,0.42128413915634155,27.15206527709961,0.1485416316401424,-1.3995248247783956,0.5703012502441804,-0.3007968752024076
-0.6487201452255249,0.8310813903808594,28.936946868896484,0.1485416316401424,-1.3995248247783956,0.5703012502441804,-0.3007968752024076
-0.12357249110937119,0.2319665253162384,30.814668655395508,0.1485416316401424,-1.3995248247783956,0.5703012502441804,-0.3007968752024076
-0.8134930729866028,0.6759528517723083,32.72526931762695,0.1485416316401424,-1.3995248247783956,0.5703012502441804,-0.3007968752024076
-0.1996908038854599,0.11661206930875778,34.677188873291016,0.1485416316401424,-1.3995248247783956,0.5703012502441804,-0.3007968752024076
-0.5134819149971008,1.27376127243042,36.71002197265625,0.1485416316401424,-1.3995248247783956,0.5703012502441804,-0.3007968752024076
-0.936669111251831,0.9117461442947388,38.72010040283203,0.1485416316401424,-1.3995248247783956,0.5703012502441804,-0.3007968752024076
-0.36478930711746216,-0.29296648502349854,40.72276306152344,0.1485416316401424,-1.3995248247783956,0.5703012502441804,-0.3007968752024076
-0.7540287375450134,2.405853033065796,42.70595932006836,0.1485416316401424,-1.3995248247783956,0.5703012502441804,-0.3007968752024076
0.5576342344284058,-2.0269553661346436,44.724910736083984,0.1485416316401424,-1.3995248247783956,0.5703012502441804,-0.3007968752024076
-0.6735941767692566,0.7032528519630432,46.79997253417969,0.1485416316401424,-1.3995248247783956,0.5703012502441804,-0.3007968752024076
-0.2628263533115387,-0.9755932688713074,48.884864807128906,0.1485416316401424,-1.3995248247783956,0.5703012502441804,-0.3007968752024076
-0.8190670609474182,0.7658455967903137,50.90946578979492,0.1485416316401424,-1.3995248247783956,0.5703012502441804,-0.3007968752024076
-0.34953078627586365,-0.9270645380020142,52.89387893676758,0.1485416316401424,-1.3995248247783956,0.5703012502441804,-0.3007968752024076
-0.10099970549345016,1.1902111768722534,54.96571731567383,0.1485416316401424,-1.3995248247783956,0.5703012502441804,-0.3007968752024076
-0.5400392413139343,-0.507569432258606,57.06755447387695,0.1485416316401424,-1.3995248247783956,0.5703012502441804,-0.3007968752024076
-0.23572298884391785,0.036108553409576416,59.13170623779297,0.1485416316401424,-1.3995248247783956,0.5703012502441804,-0.3007968752024076
0.27548354864120483,-0.016799163073301315,61.291114807128906,0.1485416316401424,-1.3995248247783956,0.5703012502441804,-0.3007968752024076
-0.227381631731987,-0.12643779814243317,63.55714416503906,0.1485416316401424,-1.3995248247783956,0.5703012502441804,-0.3007968752024076
-0.5609394907951355,0.3535877764225006,65.77313232421875,0.1485416316401424,-1.3995248247783956,0.5703012502441804,-0.3007968752024076
-0.01193742174655199,-0.92789626121521,68.14363861083984,0.1485416316401424,-1.3995248247783956,0.5703012502441804,-0.3007968752024076
0.023844962939620018,0.7651429772377014,70.51514434814453,0.1485416316401424,-1.3995248247783956,0.5703012502441804,-0.3007968752024076
0.30316483974456787,-1.3340873718261719,72.5455093383789,0.1485416316401424,-1.3995248247783956,0.5703012502441804,-0.3007968752024076
0.49988794326782227,1.3907160758972168,74.11630249023438,0.1485416316401424,-1.3995248247783956,0.5703012502441804,-0.3007968752024076
1.8194643259048462,-1.9331539869308472,75.38178253173828,0.1485416316401424,-1.3995248247783956,0.5703012502441804,-0.3007968752024076
0.9215096831321716,0.18537668883800507,76.32893371582031,0.1485416316401424,-1.3995248247783956,0.5703012502441804,-0.3007968752024076
1.1157063245773315,-0.8513938188552856,76.92910766601562,0.1485416316401424,-1.3995248247783956,0.5703012502441804,-0.3007968752024076
0.9920867085456848,-0.8891034126281738,77.19247436523438,0.1485416316401424,-1.3995248247783956,0.5703012502441804,-0.3007968752024076
0.6807284355163574,-1.554215908050537,77.30081176757812,0.1485416316401424,-1.3995248247783956,0.5703012502441804,-0.3007968752024076
-0.5460963249206543,-1.2067219018936157,77.32012176513672,0.1485416316401424,-1.3995248247783956,0.5703012502441804,-0.3007968752024076
0.19194655120372772,-0.31028157472610474,77.31661224365234,0.1485416316401424,-1.3995248247783956,0.5703012502441804,-0.3007968752024076
0.2692386209964752,0.6985278725624084,77.3014907836914,0.1485416316401424,-1.3995248247783956,0.5703012502441804,-0.3007968752024076
0.08260612934827805,0.8641145825386047,77.3014144897461,0.1485416316401424,-1.3995248247783956,0.5703012502441804,-0.3007968752024076
0.3842107951641083,0.33285030722618103,77.29927062988281,0.1485416316401424,-1.3995248247783956,0.5703012502441804,-0.3007968752024076
-0.15569965541362762,-0.29236671328544617,77.30376434326172,0.1485416316401424,-1.3995248247783956,0.5703012502441804,-0.3007968752024076
0.3174649477005005,-0.1838936060667038,77.29828643798828,0.1485416316401424,-1.3995248247783956,0.5703012502441804,-0.3007968752024076
0.1127643808722496,0.48215678334236145,77.30087280273438,0.1485416316401424,-1.3995248247783956,0.5703012502441804,-0.3007968752024076
0.2242836207151413,0.4580742418766022,77.30284881591797,0.1485416316401424,-1.3995248247783956,0.5703012502441804,-0.3007968752024076
0.0862521305680275,0.03889954462647438,77.30123138427734,0.1485416316401424,-1.3995248247783956,0.5703012502441804,-0.3007968752024076
0.17377513647079468,-0.026185519993305206,77.30218505859375,0.1485416316401424,-1.3995248247783956,0.5703012502441804,-0.3007968752024076
0.1484861671924591,0.18135005235671997,77.30231475830078,0.1485416316401424,-1.3995248247783956,0.5703012502441804,-0.3007968752024076
0.1624162793159485,0.3119291365146637,77.3041000366211,0.1485416316401424,-1.3995248247783956,0.5703012502441804,-0.3007968752024076
0.14288392663002014,0.2336299568414688,77.30320739746094,0.1485416316401424,-1.3995248247783956,0.5703012502441804,-0.3007968752024076
0.16209399700164795,0.05159584805369377,77.30397033691406,0.1485416316401424,-1.3995248247783956,0.5703012502441804,-0.3007968752024076
0.147130087018013,0.1167273297905922,77.30308532714844,0.1485416316401424,-1.3995248247783956,0.5703012502441804,-0.3007968752024076
0.16457602381706238,0.24760301411151886,77.30235290527344,0.1485416316401424,-1.3995248247783956,0.5703012502441804,-0.3007968752024076
0.14893794059753418,0.24086236953735352,77.30225372314453,0.1485416316401424,-1.3995248247783956,0.5703012502441804,-0.3007968752024076
0.13540706038475037,0.125985249876976,77.30244445800781,0.1485416316401424,-1.3995248247783956,0.5703012502441804,-0.3007968752024076
0.14865939319133759,0.11891917139291763,77.30123138427734,0.1485416316401424,-1.3995248247783956,0.5703012502441804,-0.3007968752024076
0.14872977137565613,0.19458188116550446,77.30115509033203,0.15806730450286255,-1.4045163351253414,0.5727794932822388,-0.2981843664310874
0.15099771320819855,0.22800031304359436,77.3022232055664,0.1676344437995515,-1.4094567285801505,0.5752772223204375,-0.2946628481460116
0.19513796269893646,0.7282240986824036,77.30782318115234,0.1772464347046079,-1.414301371576214,0.5781616862863304,-0.2866943113816283
0.10762818902730942,1.8553025722503662,77.38290405273438,0.1869034882365833,-1.4189001985248708,0.5806847375507157,-0.2651649224571886
0.3352805972099304,2.1639316082000732,77.64447784423828,0.1966123247503617,-1.4230405004144038,0.5843756441026927,-0.23167130428676827
0.6464112997055054,2.472726821899414,77.7763442993164,0.2064200918671368,-1.4265796986504264,0.5925564099103213,-0.1930324840359392
1.1875224113464355,1.4362218379974365,77.78556823730469,0.21642338854002077,-1.4295254519496436,0.6078391908357542,-0.1604579118701321
-0.3694046437740326,1.6280925273895264,77.85391998291016,0.22661085545447587,-1.431986950872105,0.6146568388988576,-0.13492195882524075
0.29413101077079773,1.4838664531707764,77.93661499023438,0.23684990876716494,-1.4340195419233202,0.6140295586238306,-0.10898896732057156
1.0213567018508911,1.1703710556030273,78.04988098144531,0.2471750880576053,-1.435651702662776,0.6249919562290113,-0.0868703214141232
0.3528188467025757,2.1240415573120117,78.09700012207031,0.2471750880576053,-1.435651702662776,0.6249919562290113,-0.0868703214141232
0.5102023482322693,1.1374144554138184,78.15364837646484,0.2576515526888482,-1.4368730513521277,0.6321837995201349,-0.05969152130807461
0.7515747547149658,-0.4122752845287323,78.22026824951172,0.268275572757444,-1.4378175531537287,0.6426986087113619,-0.053648694884032226
-0.2396886944770813,-1.341193675994873,78.19526672363281,0.2790227638790388,-1.4388334667462768,0.6469643258800108,-0.06826093622172894
-0.827175498008728,0.3164422810077667,78.23541259765625,0.2897314148525608,-1.4400423123079575,0.6380737909426291,-0.07680053117995482
0.4002099633216858,1.1038638353347778,78.22593688964844,0.3003363276505847,-1.4412236887917664,0.6345157448202371,-0.06496464687710028
1.339179515838623,1.5789445638656616,78.4208755493164,0.3110323810003081,-1.4421201267675514,0.649010657146573,-0.04260791021709662
-0.42560943961143494,3.1300771236419678,78.68958282470703,0.321912667652489,-1.4425032432095373,0.6566237411151329,-0.0033660628211997085
0.08571590483188629,0.34850138425827026,78.82820129394531,0.33283279295338153,-1.4423177763046198,0.65379129499197,0.025622091411302273
1.3510386943817139,0.23507729172706604,78.93347930908203,0.34382908916152644,-1.4418502151508212,0.6657642499854166,0.030485247044513407
-0.625074028968811,1.0311288833618164,79.07759857177734,0.3549755742074926,-1.4412541967156982,0.6718139555305241,0.0410369651702541
-0.2300863265991211,1.5073553323745728,79.15703582763672,0.3549755742074926,-1.4412541967156982,0.6718139555305241,0.0410369651702541
0.5983083844184875,0.40837156772613525,79.093017578125,0.36619804444257215,-1.4404372107059091,0.6748824726790189,0.05700135600442666
0.28687044978141785,-1.2149009704589844,79.04066467285156,0.3775075564062641,-1.4395431970921362,0.6822589629640181,0.05028027764831959
-0.5387839674949646,-1.1174396276474,78.86186981201172,0.3888610451280454,-1.438867160561755,0.6801596836497386,0.030844105997433056
0.6639160513877869,1.391000509262085,78.78225708007812,0.4002057295835892,-1.438334094845019,0.681202451015512,0.03312378001088877
0.8624401092529297,0.7179200649261475,78.89767456054688,0.4116651007227811,-1.4376355790271855,0.693922085687518,0.05069811812912404
-0.6150264143943787,2.974639892578125,79.01696014404297,0.4232476503241605,-1.4365341826168734,0.6959838664780059,0.0814694511083263
1.042817234992981,0.8262485861778259,79.06866455078125,0.43487708912800216,-1.434912407842932,0.6995487899829943,0.11314352176462589
0.39662614464759827,0.08918923884630203,79.08074951171875,0.4466361969735271,-1.4329631104090061,0.7115441514799992,0.12077217030649362
-0.41318219900131226,0.08446473628282547,79.14239501953125,0.4584941164388636,-1.4309381816000695,0.7114061843603848,0.12221928676590302
-0.755818247795105,-0.013386840932071209,79.08845520019531,0.4584941164388636,-1.4309381816000695,0.7114061843603848,0.12221928676590302
0.4373622238636017,1.0803672075271606,78.92631530761719,0.4703287711765415,-1.4288270976285131,0.7087523841609557,0.1311107898208621
1.3768919706344604,0.05753923952579498,78.83521270751953,0.48226730078717533,-1.42656289651712,0.7238711691151062,0.1405933435463034
0.8820023536682129,-0.28925153613090515,78.708984375,0.494488687933837,-1.4242357652563902,0.7426952884842951,0.13866240774126082
-0.7118765115737915,-1.2978280782699585,78.71717834472656,0.5068787570364984,-1.4220349389894804,0.7441130038350819,0.1254367442879203
-0.7077604532241821,1.4320545196533203,78.85968780517578,0.5191820545334166,-1.41993500530403,0.7322826957950989,0.12655529796611498
0.466701865196228,0.2346235066652298,79.0006103515625,0.5313700259502774,-1.4177100088083228,0.7302738742281992,0.14044428151876956
0.3668749928474426,1.4882986545562744,79.13908386230469,0.5435991444692226,-1.4152496234107028,0.7372203480452298,0.15480196619561543
0.315126895904541,-0.33639007806777954,79.2046890258789,0.5559335115122509,-1.412589596989631,0.7429036971181631,0.16440120433301955
0.5927826166152954,0.7556831240653992,79.24366760253906,0.5683782890692564,-1.4098204593447752,0.750469609722495,0.16789531304966637
-0.42368340492248535,0.9482240080833435,79.27660369873047,0.5683782890692564,-1.4098204593447752,0.750469609722495,0.16789531304966637
-0.39066365361213684,0.7550837993621826,79.22017669677734,0.5683782890692564,-1.4098204593447752,0.750469609722495,0.16789531304966637
0.8288495540618896,0.45481744408607483,79.13323974609375,0.5683782890692564,-1.4098204593447752,0.750469609722495,0.16789531304966637
0.7405624985694885,-0.6751020550727844,79.09990692138672,0.5683782890692564,-1.4098204593447752,0.750469609722495,0.16789531304966637
0.26240453124046326,-2.1258203983306885,79.26575469970703,0.5683782890692564,-1.4098204593447752,0.750469609722495,0.16789531304966637
-0.27367880940437317,-2.7590019702911377,79.66107940673828,0.5683782890692564,-1.4098204593447752,0.750469609722495,0.16789531304966637
-1.4040684700012207,-0.7077287435531616,80.25811004638672,0.5683782890692564,-1.4098204593447752,0.750469609722495,0.16789531304966637
-0.3649080991744995,-0.5548178553581238,81.16744232177734,0.5683782890692564,-1.4098204593447752,0.750469609722495,0.16789531304966637
-0.5488704442977905,-1.041227102279663,82.31268310546875,0.5683782890692564,-1.4098204593447752,0.750469609722495,0.16789531304966637
-0.3092818856239319,-0.15078558027744293,83.63556671142578,0.5683782890692564,-1.4098204593447752,0.750469609722495,0.16789531304966637
-0.5071850419044495,-0.5382486581802368,85.10530853271484,0.5683782890692564,-1.4098204593447752,0.750469609722495,0.16789531304966637
0.5721819996833801,-0.9781264662742615,86.65955352783203,0.5683782890692564,-1.4098204593447752,0.750469609722495,0.16789531304966637
0.24766342341899872,-0.6819087862968445,88.27986907958984,0.5683782890692564,-1.4098204593447752,0.750469609722495,0.16789531304966637
-1.0514883995056152,-0.14580704271793365,89.97431182861328,0.5683782890692564,-1.4098204593447752,0.750469609722495,0.16789531304966637
-0.3729223906993866,-0.35168540477752686,91.73587799072266,0.5683782890692564,-1.4098204593447752,0.750469609722495,0.16789531304966637
-0.9411647915840149,-0.4200479984283447,93.55435180664062,0.5683782890692564,-1.4098204593447752,0.750469609722495,0.16789531304966637
1.4634958505630493,-1.5845543146133423,95.37308502197266,0.5683782890692564,-1.4098204593447752,0.750469609722495,0.16789531304966637
-0.9511495232582092,-0.06939014047384262,97.20909881591797,0.5683782890692564,-1.4098204593447752,0.750469609722495,0.16789531304966637
0.4808841645717621,-1.4733612537384033,99.06939697265625,0.5683782890692564,-1.4098204593447752,0.750469609722495,0.16789531304966637
-2.0167336463928223,0.23776575922966003,100.87584686279297,0.5683782890692564,-1.4098204593447752,0.750469609722495,0.16789531304966637
-0.20090006291866302,-0.31029176712036133,102.65971374511719,0.5683782890692564,-1.4098204593447752,0.750469609722495,0.16789531304966637
-1.8486968278884888,0.295497328042984,104.44471740722656,0.5683782890692564,-1.4098204593447752,0.750469609722495,0.16789531304966637
1.082248568534851,-1.4998255968093872,106.2826156616211,0.5683782890692564,-1.4098204593447752,0.750469609722495,0.16789531304966637
-1.7292734384536743,-0.3621009886264801,108.13899993896484,0.5683782890692564,-1.4098204593447752,0.750469609722495,0.16789531304966637
-0.040732819586992264,-0.696747362613678,110.06053924560547,0.5683782890692564,-1.4098204593447752,0.750469609722495,0.16789531304966637
-0.6812161207199097,-1.1978530883789062,111.92289733886719,0.5683782890692564,-1.4098204593447752,0.750469609722495,0.16789531304966637
0.6278526782989502,-1.0115619897842407,113.88746643066406,0.5683782890692564,-1.4098204593447752,0.750469609722495,0.16789531304966637
-1.5936620235443115,0.25929969549179077,115.97315979003906,0.5683782890692564,-1.4098204593447752,0.750469609722495,0.16789531304966637
2.22214937210083,-0.7486302852630615,118.09536743164062,0.5683782890692564,-1.4098204593447752,0.750469609722495,0.16789531304966637
-1.1756141185760498,-0.04419552534818649,120.17794799804688,0.5683782890692564,-1.4098204593447752,0.750469609722495,0.16789531304966637
-1.379453182220459,-0.013529650866985321,122.3321762084961,0.5683782890692564,-1.4098204593447752,0.750469609722495,0.16789531304966637
-0.483987033367157,-0.36244651675224304,124.44453430175781,0.5683782890692564,-1.4098204593447752,0.750469609722495,0.16789531304966637
1.0904557704925537,0.03794628754258156,126.53398132324219,0.5683782890692564,-1.4098204593447752,0.750469609722495,0.16789531304966637
0.06721698492765427,-0.6857569217681885,128.68324279785156,0.5683782890692564,-1.4098204593447752,0.750469609722495,0.16789531304966637
-0.3026224374771118,-0.4927530884742737,130.84742736816406,0.5683782890692564,-1.4098204593447752,0.750469609722495,0.16789531304966637
-1.2176004648208618,-0.33654215931892395,133.06527709960938,0.5683782890692564,-1.4098204593447752,0.750469609722495,0.16789531304966637
1.020987868309021,-0.6017627120018005,135.3607177734375,0.5683782890692564,-1.4098204593447752,0.750469609722495,0.16789531304966637
-0.09437476098537445,-0.37082186341285706,137.61216735839844,0.5683782890692564,-1.4098204593447752,0.750469609722495,0.16789531304966637
-0.4463626444339752,-0.5356994867324829,139.8826904296875,0.5683782890692564,-1.4098204593447752,0.750469609722495,0.16789531304966637
-0.5579767823219299,0.022319909185171127,142.27565002441406,0.5683782890692564,-1.4098204593447752,0.750469609722495,0.16789531304966637
0.9461783766746521,-0.7092990279197693,144.71038818359375,0.5683782890692564,-1.4098204593447752,0.750469609722495,0.16789531304966637
0.8315206170082092,-0.05719355121254921,147.16094970703125,0.5683782890692564,-1.4098204593447752,0.750469609722495,0.16789531304966637
-0.08527038991451263,0.4353792369365692,149.7134246826172,0.5683782890692564,-1.4098204593447752,0.750469609722495,0.16789531304966637
-0.12111131846904755,-0.6463277339935303,152.2364044189453,0.5683782890692564,-1.4098204593447752,0.750469609722495,0.16789531304966637
1.6902031898498535,0.20034250617027283,154.5895233154297,0.5683782890692564,-1.4098204593447752,0.750469609722495,0.16789531304966637
0.6215947270393372,1.3329917192459106,156.56402587890625,0.5683782890692564,-1.4098204593447752,0.750469609722495,0.16789531304966637
-0.21515189111232758,1.3558878898620605,158.12921142578125,0.5683782890692564,-1.4098204593447752,0.750469609722495,0.16789531304966637
0.53950434923172,1.1770555973052979,159.2562255859375,0.5683782890692564,-1.4098204593447752,0.750469609722495,0.16789531304966637
2.6178174018859863,1.7126554250717163,159.8625946044922,0.5683782890692564,-1.4098204593447752,0.750469609722495,0.16789531304966637
0.08292054384946823,0.49981799721717834,160.0659942626953,0.5683782890692564,-1.4098204593447752,0.750469609722495,0.16789531304966637
1.6234185695648193,0.29305538535118103,160.09246826171875,0.5683782890692564,-1.4098204593447752,0.750469609722495,0.16789531304966637
2.029484272003174,-1.0379494428634644,160.13961791992188,0.5683782890692564,-1.4098204593447752,0.750469609722495,0.16789531304966637
0.6977989673614502,0.08201494812965393,160.132080078125,0.5683782890692564,-1.4098204593447752,0.750469609722495,0.16789531304966637
-0.3884943723678589,0.06674470752477646,160.0852813720703,0.5683782890692564,-1.4098204593447752,0.750469609722495,0.16789531304966637
-1.085957407951355,0.8662518858909607,160.11160278320312,0.5683782890692564,-1.4098204593447752,0.750469609722495,0.16789531304966637
-0.9038956165313721,0.2987723648548126,160.1498260498047,0.5683782890692564,-1.4098204593447752,0.750469609722495,0.16789531304966637
0.27951449155807495,-0.02182759717106819,160.1393280029297,0.5683782890692564,-1.4098204593447752,0.750469609722495,0.16789531304966637
0.5944466590881348,0.04745893552899361,160.14418029785156,0.5683782890692564,-1.4098204593447752,0.750469609722495,0.16789531304966637
0.3028338849544525,-0.050940629094839096,160.1515350341797,0.5683782890692564,-1.4098204593447752,0.750469609722495,0.16789531304966637
-0.30337876081466675,0.2943895757198334,160.14051818847656,0.5683782890692564,-1.4098204593447752,0.750469609722495,0.16789531304966637
-0.39086803793907166,0.3114875257015228,160.14820861816406,0.5683782890692564,-1.4098204593447752,0.750469609722495,0.16789531304966637
-0.07783454656600952,0.13093817234039307,160.15005493164062,0.5683782890692564,-1.4098204593447752,0.750469609722495,0.16789531304966637
0.3110024034976959,0.07313590496778488,160.15005493164062,0.5683782890692564,-1.4098204593447752,0.750469609722495,0.16789531304966637
0.06626477837562561,0.12697041034698486,160.1521453857422,0.5683782890692564,-1.4098204593447752,0.750469609722495,0.16789531304966637
-0.22957271337509155,0.2518123686313629,160.15036010742188,0.5683782890692564,-1.4098204593447752,0.750469609722495,0.16789531304966637
-0.14849001169204712,0.21224640309810638,160.15304565429688,0.5683782890692564,-1.4098204593447752,0.750469609722495,0.16789531304966637
0.07022260874509811,0.1132940948009491,160.15382385253906,0.5683782890692564,-1.4098204593447752,0.750469609722495,0.16789531304966637
0.09822695702314377,0.11889231204986572,160.1529083251953,0.5683782890692564,-1.4098204593447752,0.750469609722495,0.16789531304966637
-0.08696520328521729,0.1824832707643509,160.15333557128906,0.5683782890692564,-1.4098204593447752,0.750469609722495,0.16789531304966637
-0.14131112396717072,0.19314728677272797,160.15225219726562,0.5683782890692564,-1.4098204593447752,0.750469609722495,0.16789531304966637
-0.03892238438129425,0.16620053350925446,160.1522674560547,0.5683782890692564,-1.4098204593447752,0.750469609722495,0.16789531304966637
0.071638323366642,0.11934512108564377,160.15306091308594,0.5683782890692564,-1.4098204593447752,0.750469609722495,0.16789531304966637
-0.004545461852103472,0.15987911820411682,160.15293884277344,0.5683782890692564,-1.4098204593447752,0.750469609722495,0.16789531304966637
-0.0904243141412735,0.18552076816558838,160.15452575683594,0.5808795207746318,-1.4069982180240606,0.7496781949225502,0.1707736454360806
-0.18522706627845764,0.16179077327251434,160.15235900878906,0.5933550148997007,-1.4041278717430816,0.7473811000857191,0.1736679082813981
-0.9185541272163391,0.3825986087322235,160.15196228027344,0.6057347150960255,-1.4011956017868636,0.7381829234732625,0.1782044864647709
-2.531526803970337,0.6307692527770996,160.2026824951172,0.6177981748670253,-1.3981551542442905,0.7094322490467069,0.18664921864401526
-1.5943434238433838,1.728644847869873,160.2274627685547,0.62933552691865,-1.394880485732123,0.6750499971482592,0.20631100281607337
-2.1157920360565186,0.999640703201294,160.15574645996094,0.640328711908628,-1.391252504744142,0.6441322016490933,0.22904671574166643
-0.9879724383354187,0,160.16427612304688,0.650848709403169,-1.387365639988503,0.6182674976958272,0.23737705493501055
-1.9809441566467285,0.33784621953964233,160.2622528076172,0.6609469929345589,-1.3833858941965627,0.593526526070976,0.2401924400978409
-2.180237054824829,0.2544434368610382,160.36582946777344,0.6705501307849452,-1.3793415556354598,0.5588500159753796,0.24512818723451324
-1.4394365549087524,1.0019234418869019,160.51101684570312,0.6705501307849452,-1.3793415556354598,0.5588500159753796,0.24512818723451324
-0.5229642391204834,0.4072394073009491,160.59512329101562,0.6797280198849495,-1.3751582273170242,0.542496676025136,0.25687121097774535
0,0.6199549436569214,160.5497283935547,0.688733314190985,-1.3708057075263564,0.538138640699132,0.26543116390239424
2.0173499584198,-0.4499965012073517,160.41636657714844,0.6978423852830831,-1.3663700521250353,0.5549498903526303,0.26684748425614063
1.2447481155395508,-0.3988686800003052,160.16317749023438,0.707318084710763,-1.3619815430250168,0.5821340409689583,0.25977360774607683
-0.8105042576789856,0.7629660964012146,160.0631866455078,0.7170504745503749,-1.35762669835311,0.585752739784463,0.2628077528827511
-2.849008083343506,0.059709347784519196,159.99755859375,0.7265588874119894,-1.3531894388992178,0.5552568036092755,0.26966338158429887
-2.125269889831543,1.1522263288497925,159.91848754882812,0.7354677315017846,-1.34861088700638,0.5138044871661501,0.27976284555625147
-1.2714022397994995,0.2989521324634552,159.83352661132812,0.7437952596122183,-1.3438473966317401,0.4854988860858914,0.29185599940052853
-1.4559553861618042,0.5538111925125122,159.82321166992188,0.7516975078785136,-1.338923910299719,0.4627709058695472,0.2989623604419949
0.5330770015716553,0.6374570727348328,159.92486572265625,0.7593462675329651,-1.3338584773294881,0.4550802526646293,0.3088895959857228
-0.3985910415649414,0,160.03567504882812,0.7669402777134872,-1.3286660495441196,0.4562009689980186,0.31420173825851305
-1.9433754682540894,1.291162133216858,160.135009765625,0.7669402777134872,-1.3286660495441196,0.4562009689980186,0.31420173825851305
-0.2316378653049469,0.7667790651321411,160.2371826171875,0.7669402777134872,-1.3286660495441196,0.4562009689980186,0.31420173825851305
-0.6784933805465698,-1.0921738147735596,160.23361206054688,0.7669402777134872,-1.3286660495441196,0.4562009689980186,0.31420173825851305
0.9789600372314453,0.1512489765882492,160.0724639892578,0.7669402777134872,-1.3286660495441196,0.4562009689980186,0.31420173825851305
2.108328104019165,-0.40845242142677307,159.79212951660156,0.7669402777134872,-1.3286660495441196,0.4562009689980186,0.31420173825851305
3.0496387481689453,-0.5489042401313782,159.7880401611328,0.7669402777134872,-1.3286660495441196,0.4562009689980186,0.31420173825851305
0.28111034631729126,-0.28761833906173706,159.7412109375,0.7669402777134872,-1.3286660495441196,0.4562009689980186,0.31420173825851305
1.4256232976913452,0.1789393275976181,159.6684112548828,0.7669402777134872,-1.3286660495441196,0.4562009689980186,0.31420173825851305
0.8162747025489807,-0.8586342334747314,159.63485717773438,0.7669402777134872,-1.3286660495441196,0.4562009689980186,0.31420173825851305
1.9625128507614136,0.5258422493934631,159.59153747558594,0.7669402777134872,-1.3286660495441196,0.4562009689980186,0.31420173825851305
0.9368932843208313,-0.12139153480529785,159.62615966796875,0.7669402777134872,-1.3286660495441196,0.4562009689980186,0.31420173825851305
-0.0034481710754334927,-1.2071423530578613,159.73721313476562,0.7669402777134872,-1.3286660495441196,0.4562009689980186,0.31420173825851305
1.5759501457214355,0.7157368063926697,159.680419921875,0.7669402777134872,-1.3286660495441196,0.4562009689980186,0.31420173825851305
1.1813786029815674,-0.5706336498260498,159.66619873046875,0.7669402777134872,-1.3286660495441196,0.4562009689980186,0.31420173825851305
0.7561632990837097,-0.2414390593767166,159.74411010742188,0.7669402777134872,-1.3286660495441196,0.4562009689980186,0.31420173825851305
0.33094319701194763,-0.09444008767604828,159.70249938964844,0.7669402777134872,-1.3286660495441196,0.4562009689980186,0.31420173825851305
0.5886199474334717,0.052452582865953445,159.6680450439453,0.7669402777134872,-1.3286660495441196,0.4562009689980186,0.31420173825851305
1.2889565229415894,-0.2555367350578308,159.6686553955078,0.7669402777134872,-1.3286660495441196,0.4562009689980186,0.31420173825851305
1.2478259801864624,-0.6186279654502869,159.6540985107422,0.7669402777134872,-1.3286660495441196,0.4562009689980186,0.31420173825851305
0.516957700252533,0.2129555642604828,159.66258239746094,0.7669402777134872,-1.3286660495441196,0.4562009689980186,0.31420173825851305
0.7833985686302185,-0.16858398914337158,159.68882751464844,0.7669402777134872,-1.3286660495441196,0.4562009689980186,0.31420173825851305
0.5768630504608154,-0.30581966042518616,159.68954467773438,0.7669402777134872,-1.3286660495441196,0.4562009689980186,0.31420173825851305
1.305822491645813,-0.025612372905015945,159.68589782714844,0.7669402777134872,-1.3286660495441196,0.4562009689980186,0.31420173825851305
0.11491578072309494,-0.07238020747900009,159.6873016357422,0.7669402777134872,-1.3286660495441196,0.4562009689980186,0.31420173825851305
-0.42403408885002136,0.30796924233436584,159.67962646484375,0.7669402777134872,-1.3286660495441196,0.4562009689980186,0.31420173825851305
-0.41119951009750366,0.26839491724967957,159.6813201904297,0.7669402777134872,-1.3286660495441196,0.4562009689980186,0.31420173825851305
-0.4683888554573059,0.26784902811050415,159.68438720703125,0.7669402777134872,-1.3286660495441196,0.4562009689980186,0.31420173825851305
-0.08709410578012466,0.18816980719566345,159.68002319335938,0.7669402777134872,-1.3286660495441196,0.4562009689980186,0.31420173825851305
0.17033562064170837,0.06730688363313675,159.68341064453125,0.7669402777134872,-1.3286660495441196,0.4562009689980186,0.31420173825851305
0.15912668406963348,0.04515959694981575,159.6801300048828,0.7669402777134872,-1.3286660495441196,0.4562009689980186,0.31420173825851305
0.03068006969988346,0.15637949109077454,159.67845153808594,0.7669402777134872,-1.3286660495441196,0.4562009689980186,0.31420173825851305
-0.17757955193519592,0.16030986607074738,159.680419921875,0.7669402777134872,-1.3286660495441196,0.4562009689980186,0.31420173825851305
-0.17971137166023254,0.15540862083435059,159.6796112060547,0.7669402777134872,-1.3286660495441196,0.4562009689980186,0.31420173825851305
-0.058991383761167526,0.15605513751506805,159.67945861816406,0.7669402777134872,-1.3286660495441196,0.4562009689980186,0.31420173825851305
0.07549500465393066,0.10239031910896301,159.6812286376953,0.7669402777134872,-1.3286660495441196,0.4562009689980186,0.31420173825851305
0.036141861230134964,0.10773678869009018,159.68072509765625,0.7669402777134872,-1.3286660495441196,0.4562009689980186,0.31420173825851305
-0.08495541661977768,0.16325470805168152,159.68106079101562,0.7669402777134872,-1.3286660495441196,0.4562009689980186,0.31420173825851305
-0.13325288891792297,0.1658247709274292,159.6830291748047,0.7669402777134872,-1.3286660495441196,0.4562009689980186,0.31420173825851305
-0.054933398962020874,0.13010364770889282,159.68206787109375,0.7669402777134872,-1.3286660495441196,0.4562009689980186,0.31420173825851305
0.005420174449682236,0.12010949105024338,159.68260192871094,0.7669402777134872,-1.3286660495441196,0.4562009689980186,0.31420173825851305
0.011665796861052513,0.11408282816410065,159.68173217773438,0.7669402777134872,-1.3286660495441196,0.4562009689980186,0.31420173825851305
-0.063718281686306,0.13197030127048492,159.6818389892578,0.7669402777134872,-1.3286660495441196,0.4562009689980186,0.31420173825851305
-0.08646869659423828,0.14710769057273865,159.68157958984375,0.7669402777134872,-1.3286660495441196,0.4562009689980186,0.31420173825851305
-0.06777795404195786,0.13782371580600739,159.6815185546875,0.7669402777134872,-1.3286660495441196,0.4562009689980186,0.31420173825851305
-0.024300983175635338,0.13003845512866974,159.6807098388672,0.7669402777134872,-1.3286660495441196,0.4562009689980186,0.31420173825851305
-0.019286684691905975,0.1270056813955307,159.68069458007812,0.7669402777134872,-1.3286660495441196,0.4562009689980186,0.31420173825851305
-0.04562684893608093,0.1428699493408203,159.6809844970703,0.7669402777134872,-1.3286660495441196,0.4562009689980186,0.31420173825851305
-0.06597911566495895,0.140989288687706,159.68194580078125,0.7669402777134872,-1.3286660495441196,0.4562009689980186,0.31420173825851305
-0.05618680641055107,0.14140981435775757,159.68138122558594,0.7669402777134872,-1.3286660495441196,0.4562009689980186,0.31420173825851305
-0.04795175418257713,0.12996092438697815,159.6814422607422,0.7669402777134872,-1.3286660495441196,0.4562009689980186,0.31420173825851305
-0.03626147657632828,0.13208065927028656,159.68191528320312,0.7669402777134872,-1.3286660495441196,0.4562009689980186,0.31420173825851305
-0.03907298669219017,0.1343010514974594,159.68276977539062,0.7669402777134872,-1.3286660495441196,0.4562009689980186,0.31420173825851305
-0.062428105622529984,0.1317174881696701,159.6814422607422,0.7669402777134872,-1.3286660495441196,0.4562009689980186,0.31420173825851305
-0.06237666681408882,0.14455291628837585,159.68118286132812,0.7669402777134872,-1.3286660495441196,0.4562009689980186,0.31420173825851305
-0.03940510004758835,0.12463553249835968,159.67955017089844,0.7669402777134872,-1.3286660495441196,0.4562009689980186,0.31420173825851305
-0.035511527210474014,0.1338384598493576,159.6800079345703,0.7669402777134872,-1.3286660495441196,0.4562009689980186,0.31420173825851305
-0.038331203162670135,0.13320568203926086,159.6800079345703,0.7669402777134872,-1.3286660495441196,0.4562009689980186,0.31420173825851305
-0.038828883320093155,0.12519538402557373,159.6792755126953,0.7669402777134872,-1.3286660495441196,0.4562009689980186,0.31420173825851305
-0.055981747806072235,0.12530991435050964,159.67884826660156,0.7669402777134872,-1.3286660495441196,0.4562009689980186,0.31420173825851305
-0.058797687292099,0.1400097906589508,159.67868041992188,0.7669402777134872,-1.3286660495441196,0.4562009689980186,0.31420173825851305
-0.03824423626065254,0.12814205884933472,159.67832946777344,0.7669402777134872,-1.3286660495441196,0.4562009689980186,0.31420173825851305
-0.05207575112581253,0.13361534476280212,159.6780242919922,0.7669402777134872,-1.3286660495441196,0.4562009689980186,0.31420173825851305
-0.052901770919561386,0.11960223317146301,159.6778106689453,0.7669402777134872,-1.3286660495441196,0.4562009689980186,0.31420173825851305
-0.036383774131536484,0.1198410838842392,159.6781005859375,0.7669402777134872,-1.3286660495441196,0.4562009689980186,0.31420173825851305
-0.053734563291072845,0.12356430292129517,159.6781768798828,0.7669402777134872,-1.3286660495441196,0.4562009689980186,0.31420173825851305
-0.051741208881139755,0.13961324095726013,159.67840576171875,0.7669402777134872,-1.3286660495441196,0.4562009689980186,0.31420173825851305
-0.0491863377392292,0.11448866873979568,159.6778106689453,0.7669402777134872,-1.3286660495441196,0.4562009689980186,0.31420173825851305
-0.06601980328559875,0.1152212843298912,159.6785430908203,0.7669402777134872,-1.3286660495441196,0.4562009689980186,0.31420173825851305
-0.05242820456624031,0.12470398098230362,159.67811584472656,0.7669402777134872,-1.3286660495441196,0.4562009689980186,0.31420173825851305
-0.053010646253824234,0.11805498600006104,159.6790008544922,0.7669402777134872,-1.3286660495441196,0.4562009689980186,0.31420173825851305
-0.059032369405031204,0.12072587013244629,159.67848205566406,0.7669402777134872,-1.3286660495441196,0.4562009689980186,0.31420173825851305
-0.056090302765369415,0.13470013439655304,159.677978515625,0.7669402777134872,-1.3286660495441196,0.4562009689980186,0.31420173825851305
-0.04927839711308479,0.11962892860174179,159.67880249023438,0.7669402777134872,-1.3286660495441196,0.4562009689980186,0.31420173825851305
-0.06110117956995964,0.13314102590084076,159.68101501464844,0.7669402777134872,-1.3286660495441196,0.4562009689980186,0.31420173825851305
-0.05706058815121651,0.12593843042850494,159.6805419921875,0.7669402777134872,-1.3286660495441196,0.4562009689980186,0.31420173825851305
-0.0395733043551445,0.12713661789894104,159.68057250976562,0.7669402777134872,-1.3286660495441196,0.4562009689980186,0.31420173825851305
-0.05905664339661598,0.11873382329940796,159.6806182861328,0.7669402777134872,-1.3286660495441196,0.4562009689980186,0.31420173825851305
-0.05055601894855499,0.12397731095552444,159.68084716796875,0.7669402777134872,-1.3286660495441196,0.4562009689980186,0.31420173825851305
-0.059103455394506454,0.1212923675775528,159.6814422607422,0.7669402777134872,-1.3286660495441196,0.4562009689980186,0.31420173825851305
-0.04852265492081642,0.13235139846801758,159.68165588378906,0.7669402777134872,-1.3286660495441196,0.4562009689980186,0.31420173825851305
-0.05792510509490967,0.12383753806352615,159.68106079101562,0.7669402777134872,-1.3286660495441196,0.4562009689980186,0.31420173825851305
-0.05615929886698723,0.12459408491849899,159.68218994140625,0.7669402777134872,-1.3286660495441196,0.4562009689980186,0.31420173825851305
-0.04847481846809387,0.11844577640295029,159.68386840820312,0.7669402777134872,-1.3286660495441196,0.4562009689980186,0.31420173825851305
-0.04205349087715149,0.11577232927083969,159.68426513671875,0.7669402777134872,-1.3286660495441196,0.4562009689980186,0.31420173825851305
-0.05615648627281189,0.12434830516576767,159.6851348876953,0.7669402777134872,-1.3286660495441196,0.4562009689980186,0.31420173825851305
-0.057060860097408295,0.12191427499055862,159.68617248535156,0.7669402777134872,-1.3286660495441196,0.4562009689980186,0.31420173825851305
-0.054632361978292465,0.10684218257665634,159.68743896484375,0.7669402777134872,-1.3286660495441196,0.4562009689980186,0.31420173825851305
-0.04965571314096451,0.11028832942247391,159.68772888183594,0.7669402777134872,-1.3286660495441196,0.4562009689980186,0.31420173825851305
-0.05857870727777481,0.11906758695840836,159.6873016357422,0.7669402777134872,-1.3286660495441196,0.4562009689980186,0.31420173825851305
-0.045701149851083755,0.1138267070055008,159.68678283691406,0.7669402777134872,-1.3286660495441196,0.4562009689980186,0.31420173825851305
-0.0514746755361557,0.12276535481214523,159.68565368652344,0.7669402777134872,-1.3286660495441196,0.4562009689980186,0.31420173825851305
-0.061921507120132446,0.1113038882613182,159.6853485107422,0.7669402777134872,-1.3286660495441196,0.4562009689980186,0.31420173825851305
-0.06940507888793945,0.11317861825227737,159.6849822998047,0.7669402777134872,-1.3286660495441196,0.4562009689980186,0.31420173825851305
-0.06127404421567917,0.11647811532020569,159.68429565429688,0.7669402777134872,-1.3286660495441196,0.4562009689980186,0.31420173825851305
-0.05970700830221176,0.12391605973243713,159.68356323242188,0.7669402777134872,-1.3286660495441196,0.4562009689980186,0.31420173825851305
-0.056286100298166275,0.11978980153799057,159.6831817626953,0.7669402777134872,-1.3286660495441196,0.4562009689980186,0.31420173825851305
-0.05975150316953659,0.12425272166728973,159.6827392578125,0.7669402777134872,-1.3286660495441196,0.4562009689980186,0.31420173825851305
-0.07639259099960327,0.10925214737653732,159.6817169189453,0.7669402777134872,-1.3286660495441196,0.4562009689980186,0.31420173825851305
-0.06855805963277817,0.11982671916484833,159.68313598632812,0.7669402777134872,-1.3286660495441196,0.4562009689980186,0.31420173825851305
-0.05302633345127106,0.1184515729546547,159.68455505371094,0.7669402777134872,-1.3286660495441196,0.4562009689980186,0.31420173825851305
-0.04489298164844513,0.12038662284612656,159.68405151367188,0.7669402777134872,-1.3286660495441196,0.4562009689980186,0.31420173825851305
-0.055128537118434906,0.10758975148200989,159.68417358398438,0.7669402777134872,-1.3286660495441196,0.4562009689980186,0.31420173825851305
-0.0671156495809555,0.10204342007637024,159.68487548828125,0.7669402777134872,-1.3286660495441196,0.4562009689980186,0.31420173825851305
-0.05898085609078407,0.11689730733633041,159.68426513671875,0.7669402777134872,-1.3286660495441196,0.4562009689980186,0.31420173825851305
-0.06198637932538986,0.12554630637168884,159.68321228027344,0.7669402777134872,-1.3286660495441196,0.4562009689980186,0.31420173825851305
-0.055044304579496384,0.12463700026273727,159.68389892578125,0.7669402777134872,-1.3286660495441196,0.4562009689980186,0.31420173825851305
-0.06719064712524414,0.11259452998638153,159.68435668945312,0.7669402777134872,-1.3286660495441196,0.4562009689980186,0.31420173825851305
-0.06947075575590134,0.11627817153930664,159.68423461914062,0.7669402777134872,-1.3286660495441196,0.4562009689980186,0.31420173825851305
-0.06267037242650986,0.10619160532951355,159.68368530273438,0.7669402777134872,-1.3286660495441196,0.4562009689980186,0.31420173825851305
-0.060853615403175354,0.09460671991109848,159.6839141845703,0.7669402777134872,-1.3286660495441196,0.4562009689980186,0.31420173825851305
-0.054045531898736954,0.09666550904512405,159.68496704101562,0.7669402777134872,-1.3286660495441196,0.4562009689980186,0.31420173825851305
-0.06239253655076027,0.11181128025054932,159.68484497070312,0.7669402777134872,-1.3286660495441196,0.4562009689980186,0.31420173825851305
-0.061562396585941315,0.11253535747528076,159.6849822998047,0.7669402777134872,-1.3286660495441196,0.4562009689980186,0.31420173825851305
-0.06239797919988632,0.1106143519282341,159.68563842773438,0.7669402777134872,-1.3286660495441196,0.4562009689980186,0.31420173825851305
-0.05811352655291557,0.10854881256818771,159.6851043701172,0.7669402777134872,-1.3286660495441196,0.4562009689980186,0.31420173825851305
-0.058650024235248566,0.11283255368471146,159.68557739257812,0.7669402777134872,-1.3286660495441196,0.4562009689980186,0.31420173825851305
-0.06814704090356827,0.12177586555480957,159.68667602539062,0.7669402777134872,-1.3286660495441196,0.4562009689980186,0.31420173825851305
-0.078028105199337,0.1068328395485878,159.68540954589844,0.7669402777134872,-1.3286660495441196,0.4562009689980186,0.31420173825851305
-0.06573916226625443,0.11336083710193634,159.68392944335938,0.7669402777134872,-1.3286660495441196,0.4562009689980186,0.31420173825851305
-0.05604122206568718,0.11779490113258362,159.68377685546875,0.7669402777134872,-1.3286660495441196,0.4562009689980186,0.31420173825851305
-0.06508468091487885,0.10023962706327438,159.68357849121094,0.7669402777134872,-1.3286660495441196,0.4562009689980186,0.31420173825851305
-0.06528967618942261,0.09072116762399673,159.68402099609375,0.7669402777134872,-1.3286660495441196,0.4562009689980186,0.31420173825851305
-0.05556728318333626,0.09017465263605118,159.6839599609375,0.7669402777134872,-1.3286660495441196,0.4562009689980186,0.31420173825851305
-0.054925061762332916,0.10701127350330353,159.6838836669922,0.7669402777134872,-1.3286660495441196,0.4562009689980186,0.31420173825851305
-0.06740761548280716,0.10103960335254669,159.68394470214844,0.7669402777134872,-1.3286660495441196,0.4562009689980186,0.31420173825851305
-0.06808453053236008,0.09445056319236755,159.68344116210938,0.7669402777134872,-1.3286660495441196,0.4562009689980186,0.31420173825851305
-0.05587208271026611,0.10767331719398499,159.683837890625,0.7669402777134872,-1.3286660495441196,0.4562009689980186,0.31420173825851305
-0.06306396424770355,0.09510323405265808,159.68463134765625,0.7669402777134872,-1.3286660495441196,0.4562009689980186,0.31420173825851305
-0.0568355955183506,0.09826996177434921,159.6846466064453,0.7669402777134872,-1.3286660495441196,0.4562009689980186,0.31420173825851305
-0.06826721131801605,0.09541300684213638,159.6847686767578,0.7669402777134872,-1.3286660495441196,0.4562009689980186,0.31420173825851305
-0.06609170138835907,0.09686382114887238,159.68496704101562,0.7669402777134872,-1.3286660495441196,0.4562009689980186,0.31420173825851305
-0.06824705749750137,0.09067220240831375,159.68527221679688,0.7669402777134872,-1.3286660495441196,0.4562009689980186,0.31420173825851305
-0.059410810470581055,0.09020762145519257,159.68521118164062,0.7669402777134872,-1.3286660495441196,0.4562009689980186,0.31420173825851305
-0.07353883236646652,0.10409031063318253,159.68605041503906,0.7669402777134872,-1.3286660495441196,0.4562009689980186,0.31420173825851305
-0.07479491084814072,0.09436434507369995,159.68653869628906,0.7669402777134872,-1.3286660495441196,0.4562009689980186,0.31420173825851305
-0.06521245092153549,0.1000019907951355,159.6848907470703,0.7669402777134872,-1.3286660495441196,0.4562009689980186,0.31420173825851305
-0.06147439405322075,0.0924820750951767,159.68431091308594,0.7669402777134872,-1.3286660495441196,0.4562009689980186,0.31420173825851305
-0.06587868183851242,0.10782432556152344,159.68421936035156,0.7669402777134872,-1.3286660495441196,0.4562009689980186,0.31420173825851305
-0.06378766149282455,0.08440467715263367,159.68482971191406,0.7669402777134872,-1.3286660495441196,0.4562009689980186,0.31420173825851305
-0.06534986943006516,0.08892565965652466,159.68687438964844,0.7669402777134872,-1.3286660495441196,0.4562009689980186,0.31420173825851305
-0.06388913840055466,0.07776966691017151,159.6879425048828,0.7669402777134872,-1.3286660495441196,0.4562009689980186,0.31420173825851305
-0.06110944226384163,0.07747705280780792,159.68727111816406,0.7669402777134872,-1.3286660495441196,0.4562009689980186,0.31420173825851305
-0.0803024172782898,0.09401141107082367,159.68824768066406,0.7669402777134872,-1.3286660495441196,0.4562009689980186,0.31420173825851305
-0.07263198494911194,0.09307888150215149,159.688232421875,0.7669402777134872,-1.3286660495441196,0.4562009689980186,0.31420173825851305
-0.07321461290121078,0.07241254299879074,159.6873779296875,0.7669402777134872,-1.3286660495441196,0.4562009689980186,0.31420173825851305
-0.07097997516393661,0.09178768843412399,159.68939208984375,0.7669402777134872,-1.3286660495441196,0.4562009689980186,0.31420173825851305
-0.05945888161659241,0.10191050916910172,159.689697265625,0.7669402777134872,-1.3286660495441196,0.4562009689980186,0.31420173825851305
-0.05864818021655083,0.09766387194395065,159.68992614746094,0.7669402777134872,-1.3286660495441196,0.4562009689980186,0.31420173825851305
-0.06344026327133179,0.09529222548007965,159.68873596191406,0.7669402777134872,-1.3286660495441196,0.4562009689980186,0.31420173825851305
-0.07051621377468109,0.08379069715738297,159.68885803222656,0.7669402777134872,-1.3286660495441196,0.4562009689980186,0.31420173825851305
-0.07965204119682312,0.07812638580799103,159.6891326904297,0.7669402777134872,-1.3286660495441196,0.4562009689980186,0.31420173825851305
-0.05182179436087608,0.0901995599269867,159.6886749267578,0.7669402777134872,-1.3286660495441196,0.4562009689980186,0.31420173825851305
-0.06157251074910164,0.0773143619298935,159.688232421875,0.7669402777134872,-1.3286660495441196,0.4562009689980186,0.31420173825851305
-0.05668694153428078,0.08122150599956512,159.6894989013672,0.7669402777134872,-1.3286660495441196,0.4562009689980186,0.31420173825851305
-0.0679139643907547,0.08156915009021759,159.69039916992188,0.7669402777134872,-1.3286660495441196,0.4562009689980186,0.31420173825851305
-0.07637997716665268,0.08090995997190475,159.68992614746094,0.7669402777134872,-1.3286660495441196,0.4562009689980186,0.31420173825851305
-0.05810448154807091,0.09467858076095581,159.68984985351562,0.7669402777134872,-1.3286660495441196,0.4562009689980186,0.31420173825851305
-0.07213719189167023,0.0775626003742218,159.6902313232422,0.7669402777134872,-1.3286660495441196,0.4562009689980186,0.31420173825851305
-0.0666126161813736,0.07098507136106491,159.6909637451172,0.7669402777134872,-1.3286660495441196,0.4562009689980186,0.31420173825851305
-0.05679330229759216,0.08418875187635422,159.69235229492188,0.7669402777134872,-1.3286660495441196,0.4562009689980186,0.31420173825851305
-0.06326381862163544,0.07866542041301727,159.69190979003906,0.7669402777134872,-1.3286660495441196,0.4562009689980186,0.31420173825851305
-0.05942058935761452,0.08621011674404144,159.6921844482422,0.7669402777134872,-1.3286660495441196,0.4562009689980186,0.31420173825851305
-0.05071943625807762,0.07243114709854126,159.69288635253906,0.7669402777134872,-1.3286660495441196,0.4562009689980186,0.31420173825851305
-0.07365825772285461,0.06675518304109573,159.6925811767578,0.7669402777134872,-1.3286660495441196,0.4562009689980186,0.31420173825851305
-0.0729798823595047,0.06848323345184326,159.69277954101562,0.7669402777134872,-1.3286660495441196,0.4562009689980186,0.31420173825851305
-0.07161220908164978,0.07805534452199936,159.69277954101562,0.7669402777134872,-1.3286660495441196,0.4562009689980186,0.31420173825851305
-0.07387034595012665,0.08892486244440079,159.6925506591797,0.7669402777134872,-1.3286660495441196,0.4562009689980186,0.31420173825851305
-0.06797688454389572,0.0740099847316742,159.69235229492188,0.7669402777134872,-1.3286660495441196,0.4562009689980186,0.31420173825851305
-0.08097511529922485,0.0773697942495346,159.69215393066406,0.7669402777134872,-1.3286660495441196,0.4562009689980186,0.31420173825851305
-0.06918001174926758,0.08692698925733566,159.6924591064453,0.7669402777134872,-1.3286660495441196,0.4562009689980186,0.31420173825851305
-0.06271339952945709,0.08090362697839737,159.6916961669922,0.7669402777134872,-1.3286660495441196,0.4562009689980186,0.31420173825851305
-0.0727870911359787,0.07829125225543976,159.6910858154297,0.7669402777134872,-1.3286660495441196,0.4562009689980186,0.31420173825851305
-0.05810031667351723,0.08352472633123398,159.69117736816406,0.7669402777134872,-1.3286660495441196,0.4562009689980186,0.31420173825851305
-0.06577962636947632,0.08205797523260117,159.6916046142578,0.7669402777134872,-1.3286660495441196,0.4562009689980186,0.31420173825851305
-0.06829372048377991,0.06330156326293945,159.69046020507812,0.7669402777134872,-1.3286660495441196,0.4562009689980186,0.31420173825851305
-0.07069572806358337,0.0786878764629364,159.69117736816406,0.7669402777134872,-1.3286660495441196,0.4562009689980186,0.31420173825851305
-0.0742604210972786,0.0767003670334816,159.69009399414062,0.7669402777134872,-1.3286660495441196,0.4562009689980186,0.31420173825851305
-0.07449652254581451,0.0667511522769928,159.69142150878906,0.7669402777134872,-1.3286660495441196,0.4562009689980186,0.31420173825851305
-0.07112429291009903,0.06844838708639145,159.69056701660156,0.7669402777134872,-1.3286660495441196,0.4562009689980186,0.31420173825851305
-0.06119596213102341,0.08635880798101425,159.68984985351562,0.7669402777134872,-1.3286660495441196,0.4562009689980186,0.31420173825851305
-0.08046475797891617,0.07895571738481522,159.6900634765625,0.7669402777134872,-1.3286660495441196,0.4562009689980186,0.31420173825851305
-0.07531347125768661,0.08837844431400299,159.68980407714844,0.7669402777134872,-1.3286660495441196,0.4562009689980186,0.31420173825851305
-0.0643107071518898,0.06930804252624512,159.69032287597656,0.7669402777134872,-1.3286660495441196,0.4562009689980186,0.31420173825851305
-0.07683038711547852,0.0775272324681282,159.69007873535156,0.7669402777134872,-1.3286660495441196,0.4562009689980186,0.31420173825851305
-0.06271883100271225,0.06723116338253021,159.69078063964844,0.7669402777134872,-1.3286660495441196,0.4562009689980186,0.31420173825851305
-0.06057881936430931,0.06717972457408905,159.69064331054688,0.7669402777134872,-1.3286660495441196,0.4562009689980186,0.31420173825851305
-0.06792298704385757,0.06559900939464569,159.6911163330078,0.7669402777134872,-1.3286660495441196,0.4562009689980186,0.31420173825851305
-0.05751267448067665,0.0735892578959465,159.6903839111328,0.7669402777134872,-1.3286660495441196,0.4562009689980186,0.31420173825851305
-0.07833211123943329,0.07560711354017258,159.6904296875,0.7669402777134872,-1.3286660495441196,0.4562009689980186,0.31420173825851305
-0.06720750778913498,0.0662861168384552,159.69076538085938,0.7669402777134872,-1.3286660495441196,0.4562009689980186,0.31420173825851305
-0.07975726574659348,0.0637042298913002,159.6911163330078,0.7669402777134872,-1.3286660495441196,0.4562009689980186,0.31420173825851305
-0.07106516510248184,0.07597155123949051,159.6899871826172,0.7669402777134872,-1.3286660495441196,0.4562009689980186,0.31420173825851305
-0.06469884514808655,0.06985499709844589,159.68954467773438,0.7669402777134872,-1.3286660495441196,0.4562009689980186,0.31420173825851305
-0.06052962690591812,0.06377515941858292,159.68862915039062,0.7669402777134872,-1.3286660495441196,0.4562009689980186,0.31420173825851305
-0.06550643593072891,0.06810051947832108,159.6879425048828,0.7669402777134872,-1.3286660495441196,0.4562009689980186,0.31420173825851305
-0.0620727464556694,0.06640740483999252,159.6873321533203,0.7669402777134872,-1.3286660495441196,0.4562009689980186,0.31420173825851305
-0.07539263367652893,0.07000752538442612,159.68551635742188,0.7669402777134872,-1.3286660495441196,0.4562009689980186,0.31420173825851305
-0.06731735914945602,0.06267964094877243,159.68580627441406,0.7669402777134872,-1.3286660495441196,0.4562009689980186,0.31420173825851305
-0.07284414768218994,0.08231133967638016,159.6858673095703,0.7669402777134872,-1.3286660495441196,0.4562009689980186,0.31420173825851305
-0.07551423460245132,0.0784837082028389,159.6857452392578,0.7669402777134872,-1.3286660495441196,0.4562009689980186,0.31420173825851305
-0.08282317966222763,0.06415119022130966,159.6851806640625,0.7669402777134872,-1.3286660495441196,0.4562009689980186,0.31420173825851305
-0.07237143069505692,0.05474161356687546,159.6852264404297,0.7669402777134872,-1.3286660495441196,0.4562009689980186,0.31420173825851305
-0.06376852095127106,0.07513725757598877,159.68614196777344,0.7669402777134872,-1.3286660495441196,0.4562009689980186,0.31420173825851305
-0.0670141726732254,0.06845404952764511,159.68641662597656,0.7669402777134872,-1.3286660495441196,0.4562009689980186,0.31420173825851305
-0.06565161049365997,0.0725039392709732,159.68588256835938,0.7669402777134872,-1.3286660495441196,0.4562009689980186,0.31420173825851305
-0.07189726829528809,0.06654206663370132,159.68589782714844,0.7669402777134872,-1.3286660495441196,0.4562009689980186,0.31420173825851305
-0.06153111159801483,0.0724625363945961,159.6866455078125,0.7669402777134872,-1.3286660495441196,0.4562009689980186,0.31420173825851305
-0.07809017598628998,0.05665336176753044,159.6875,0.7669402777134872,-1.3286660495441196,0.4562009689980186,0.31420173825851305
-0.06700893491506577,0.056052859872579575,159.6873321533203,0.7669402777134872,-1.3286660495441196,0.4562009689980186,0.31420173825851305
-0.06291292607784271,0.06647596508264542,159.68788146972656,0.7669402777134872,-1.3286660495441196,0.4562009689980186,0.31420173825851305
-0.06489171087741852,0.0709792897105217,159.68751525878906,0.7669402777134872,-1.3286660495441196,0.4562009689980186,0.31420173825851305
-0.07563048601150513,0.059350065886974335,159.6876983642578,0.7669402777134872,-1.3286660495441196,0.4562009689980186,0.31420173825851305
-0.06011294201016426,0.05625488981604576,159.68673706054688,0.7669402777134872,-1.3286660495441196,0.4562009689980186,0.31420173825851305
-0.07554558664560318,0.0660083219408989,159.68690490722656,0.7669402777134872,-1.3286660495441196,0.4562009689980186,0.31420173825851305
-0.06334082037210464,0.05676022171974182,159.6863555908203,0.7669402777134872,-1.3286660495441196,0.4562009689980186,0.31420173825851305
-0.07045380771160126,0.04649749770760536,159.68673706054688,0.7669402777134872,-1.3286660495441196,0.4562009689980186,0.31420173825851305
-0.06051560118794441,0.07141635566949844,159.68643188476562,0.7669402777134872,-1.3286660495441196,0.4562009689980186,0.31420173825851305
-0.05745154991745949,0.06347338855266571,159.6865234375,0.7669402777134872,-1.3286660495441196,0.4562009689980186,0.31420173825851305
-0.057314056903123856,0.062454428523778915,159.68540954589844,0.7669402777134872,-1.3286660495441196,0.4562009689980186,0.31420173825851305
-0.06183096021413803,0.06655952334403992,159.68463134765625,0.7669402777134872,-1.3286660495441196,0.4562009689980186,0.31420173825851305
-0.05344633758068085,0.0683683454990387,159.68394470214844,0.7669402777134872,-1.3286660495441196,0.4562009689980186,0.31420173825851305
-0.05250575765967369,0.04392130672931671,159.68426513671875,0.7669402777134872,-1.3286660495441196,0.4562009689980186,0.31420173825851305
-0.07136939465999603,0.06242714077234268,159.68392944335938,0.7669402777134872,-1.3286660495441196,0.4562009689980186,0.31420173825851305
-0.0651400089263916,0.06347202509641647,159.6837615966797,0.7669402777134872,-1.3286660495441196,0.4562009689980186,0.31420173825851305
-0.06357304006814957,0.04954048618674278,159.68296813964844,0.7669402777134872,-1.3286660495441196,0.4562009689980186,0.31420173825851305
-0.06249045208096504,0.053451523184776306,159.6829071044922,0.7669402777134872,-1.3286660495441196,0.4562009689980186,0.31420173825851305
-0.06137949228286743,0.06464675813913345,159.68353271484375,0.7669402777134872,-1.3286660495441196,0.4562009689980186,0.31420173825851305
-0.0616690069437027,0.07411027699708939,159.6834259033203,0.7669402777134872,-1.3286660495441196,0.4562009689980186,0.31420173825851305
-0.06912236660718918,0.07330488413572311,159.6842041015625,0.7669402777134872,-1.3286660495441196,0.4562009689980186,0.31420173825851305
-0.0641854926943779,0.05676383152604103,159.68508911132812,0.7669402777134872,-1.3286660495441196,0.4562009689980186,0.31420173825851305
-0.07350698113441467,0.04186802729964256,159.68605041503906,0.7669402777134872,-1.3286660495441196,0.4562009689980186,0.31420173825851305
-0.05928667262196541,0.0554286390542984,159.68641662597656,0.7669402777134872,-1.3286660495441196,0.4562009689980186,0.31420173825851305
-0.06424694508314133,0.0637117549777031,159.6863555908203,0.7669402777134872,-1.3286660495441196,0.4562009689980186,0.31420173825851305
-0.06625809520483017,0.06266053020954132,159.68692016601562,0.7669402777134872,-1.3286660495441196,0.4562009689980186,0.31420173825851305
-0.07235898077487946,0.0517427995800972,159.6866455078125,0.7669402777134872,-1.3286660495441196,0.4562009689980186,0.31420173825851305
-0.06414593756198883,0.05783635377883911,159.68655395507812,0.7669402777134872,-1.3286660495441196,0.4562009689980186,0.31420173825851305
-0.07365983724594116,0.05452139303088188,159.68719482421875,0.7669402777134872,-1.3286660495441196,0.4562009689980186,0.31420173825851305
-0.0574236735701561,0.06186303496360779,159.68853759765625,0.7669402777134872,-1.3286660495441196,0.4562009689980186,0.31420173825851305
-0.07587199658155441,0.061868198215961456,159.65476989746094,0.7669402777134872,-1.3286660495441196,0.4562009689980186,0.31420173825851305
-0.06788177043199539,0.06858822703361511,159.65350341796875,0.7669402777134872,-1.3286660495441196,0.4562009689980186,0.31420173825851305
-0.0712893009185791,0.05487775430083275,159.6538543701172,0.7669402777134872,-1.3286660495441196,0.4562009689980186,0.31420173825851305
-0.07445620745420456,0.06319030374288559,159.654052734375,0.7669402777134872,-1.3286660495441196,0.4562009689980186,0.31420173825851305
-0.06806502491235733,0.05241706594824791,159.65481567382812,0.7669402777134872,-1.3286660495441196,0.4562009689980186,0.31420173825851305
-0.06765507906675339,0.06103445962071419,159.65431213378906,0.7669402777134872,-1.3286660495441196,0.4562009689980186,0.31420173825851305
-0.0769401416182518,0.056665241718292236,159.6540985107422,0.7669402777134872,-1.3286660495441196,0.4562009689980186,0.31420173825851305
-0.04647586867213249,0.05260276049375534,159.6534881591797,0.7669402777134872,-1.3286660495441196,0.4562009689980186,0.31420173825851305
-0.05064229294657707,0.04743257164955139,159.6534423828125,0.7669402777134872,-1.3286660495441196,0.4562009689980186,0.31420173825851305
-0.06407367438077927,0.059570133686065674,159.65269470214844,0.7669402777134872,-1.3286660495441196,0.4562009689980186,0.31420173825851305
-0.0705866664648056,0.0446348674595356,159.65255737304688,0.7669402777134872,-1.3286660495441196,0.4562009689980186,0.31420173825851305
-0.07389499992132187,0.05002729222178459,159.6529998779297,0.7669402777134872,-1.3286660495441196,0.4562009689980186,0.31420173825851305
-0.05942859500646591,0.0851624608039856,159.65316772460938,0.7669402777134872,-1.3286660495441196,0.4562009689980186,0.31420173825851305
-0.07375865429639816,0.057167526334524155,159.65257263183594,0.7669402777134872,-1.3286660495441196,0.4562009689980186,0.31420173825851305
-0.06808548420667648,0.06509251147508621,159.65216064453125,0.7669402777134872,-1.3286660495441196,0.4562009689980186,0.31420173825851305
-0.05986542999744415,0.05534560605883598,159.6528778076172,0.7669402777134872,-1.3286660495441196,0.4562009689980186,0.31420173825851305
-0.06875831633806229,0.042822737246751785,159.65269470214844,0.7669402777134872,-1.3286660495441196,0.4562009689980186,0.31420173825851305
-0.07191748917102814,0.05209140107035637,159.6528778076172,0.7669402777134872,-1.3286660495441196,0.4562009689980186,0.31420173825851305
-0.052926238626241684,0.05724898725748062,159.6531219482422,0.7669402777134872,-1.3286660495441196,0.4562009689980186,0.31420173825851305
-0.07444334030151367,0.05920139327645302,159.65328979492188,0.7669402777134872,-1.3286660495441196,0.4562009689980186,0.31420173825851305
-0.05349527299404144,0.043707225471735,159.65293884277344,0.7669402777134872,-1.3286660495441196,0.4562009689980186,0.31420173825851305
-0.06536050885915756,0.05475053936243057,159.65170288085938,0.7669402777134872,-1.3286660495441196,0.4562009689980186,0.31420173825851305
-0.06560826301574707,0.052075840532779694,159.65145874023438,0.7669402777134872,-1.3286660495441196,0.4562009689980186,0.31420173825851305
-0.07648219168186188,0.057636503130197525,159.6509246826172,0.7669402777134872,-1.3286660495441196,0.4562009689980186,0.31420173825851305
-0.0687527135014534,0.05664689466357231,159.651123046875,0.7669402777134872,-1.3286660495441196,0.4562009689980186,0.31420173825851305
-0.05997148156166077,0.059441566467285156,159.6510772705078,0.7669402777134872,-1.3286660495441196,0.4562009689980186,0.31420173825851305
-0.06160124018788338,0.04396326467394829,159.65069580078125,0.7669402777134872,-1.3286660495441196,0.4562009689980186,0.31420173825851305
-0.05716635286808014,0.04892934858798981,159.65097045898438,0.7669402777134872,-1.3286660495441196,0.4562009689980186,0.31420173825851305
-0.058719661086797714,0.040945131331682205,159.65109252929688,0.7669402777134872,-1.3286660495441196,0.4562009689980186,0.31420173825851305
-0.056216806173324585,0.039624303579330444,159.6514434814453,0.7669402777134872,-1.3286660495441196,0.4562009689980186,0.31420173825851305
-0.06557191908359528,0.04692000150680542,159.651611328125,0.7669402777134872,-1.3286660495441196,0.4562009689980186,0.31420173825851305
-0.06318772584199905,0.050641242414712906,159.6506805419922,0.7669402777134872,-1.3286660495441196,0.4562009689980186,0.31420173825851305
-0.06982633471488953,0.050550032407045364,159.6500244140625,0.7669402777134872,-1.3286660495441196,0.4562009689980186,0.31420173825851305
-0.061893679201602936,0.06754333525896072,159.6499786376953,0.7669402777134872,-1.3286660495441196,0.4562009689980186,0.31420173825851305
-0.069839246571064,0.05300574004650116,159.65016174316406,0.7669402777134872,-1.3286660495441196,0.4562009689980186,0.31420173825851305
-0.0547531433403492,0.052107952535152435,159.6508026123047,0.7669402777134872,-1.3286660495441196,0.4562009689980186,0.31420173825851305
-0.06645864993333817,0.05570945143699646,159.65023803710938,0.7669402777134872,-1.3286660495441196,0.4562009689980186,0.31420173825851305
-0.06466885656118393,0.04802398383617401,159.65016174316406,0.7669402777134872,-1.3286660495441196,0.4562009689980186,0.31420173825851305
-0.06811930239200592,0.0528227873146534,159.6505126953125,0.7669402777134872,-1.3286660495441196,0.4562009689980186,0.31420173825851305
-0.06768431514501572,0.0494750440120697,159.6515655517578,0.7669402777134872,-1.3286660495441196,0.4562009689980186,0.31420173825851305
-0.073936328291893,0.04243559390306473,159.65194702148438,0.7669402777134872,-1.3286660495441196,0.4562009689980186,0.31420173825851305
-0.05333999544382095,0.038026489317417145,159.65188598632812,0.7669402777134872,-1.3286660495441196,0.4562009689980186,0.31420173825851305
-0.0630970224738121,0.052619434893131256,159.65185546875,0.7669402777134872,-1.3286660495441196,0.4562009689980186,0.31420173825851305
-0.08014190942049026,0.05321843549609184,159.65147399902344,0.7669402777134872,-1.3286660495441196,0.4562009689980186,0.31420173825851305
-0.07319337129592896,0.042824696749448776,159.6515350341797,0.7669402777134872,-1.3286660495441196,0.4562009689980186,0.31420173825851305
-0.062056172639131546,0.06008179113268852,159.65277099609375,0.7669402777134872,-1.3286660495441196,0.4562009689980186,0.31420173825851305
-0.06675781309604645,0.04976939409971237,159.652587890625,0.7669402777134872,-1.3286660495441196,0.4562009689980186,0.31420173825851305
-0.06454459577798843,0.04210011288523674,159.65283203125,0.7669402777134872,-1.3286660495441196,0.4562009689980186,0.31420173825851305
-0.06922533363103867,0.045881956815719604,159.6530303955078,0.7669402777134872,-1.3286660495441196,0.4562009689980186,0.31420173825851305
-0.0650281235575676,0.047908931970596313,159.65269470214844,0.7669402777134872,-1.3286660495441196,0.4562009689980186,0.31420173825851305
-0.061830997467041016,0.05765695497393608,159.6520233154297,0.7669402777134872,-1.3286660495441196,0.4562009689980186,0.31420173825851305
-0.06076296791434288,0.05417926236987114,159.6519775390625,0.7669402777134872,-1.3286660495441196,0.4562009689980186,0.31420173825851305
-0.06226130947470665,0.04569775611162186,159.6537322998047,0.7669402777134872,-1.3286660495441196,0.4562009689980186,0.31420173825851305
-0.06969264149665833,0.04184093326330185,159.65476989746094,0.7669402777134872,-1.3286660495441196,0.4562009689980186,0.31420173825851305
-0.06710080802440643,0.062490109354257584,159.65460205078125,0.7669402777134872,-1.3286660495441196,0.4562009689980186,0.31420173825851305
-0.06137290596961975,0.04997151717543602,159.6544952392578,0.7669402777134872,-1.3286660495441196,0.4562009689980186,0.31420173825851305
-0.05389770120382309,0.047377388924360275,159.65509033203125,0.7669402777134872,-1.3286660495441196,0.4562009689980186,0.31420173825851305
-0.07333192229270935,0.04803799092769623,159.65525817871094,0.7669402777134872,-1.3286660495441196,0.4562009689980186,0.31420173825851305
-0.06312950700521469,0.04429570958018303,159.65408325195312,0.7669402777134872,-1.3286660495441196,0.4562009689980186,0.31420173825851305
-0.06589002907276154,0.0466473214328289,159.65371704101562,0.7669402777134872,-1.3286660495441196,0.4562009689980186,0.31420173825851305
-0.06706025451421738,0.04190997779369354,159.65557861328125,0.7669402777134872,-1.3286660495441196,0.4562009689980186,0.31420173825851305
-0.05833787843585014,0.043528079986572266,159.65567016601562,0.7669402777134872,-1.3286660495441196,0.4562009689980186,0.31420173825851305
-0.059873051941394806,0.04792004078626633,159.65692138671875,0.7669402777134872,-1.3286660495441196,0.4562009689980186,0.31420173825851305
-0.07117873430252075,0.045789625495672226,159.6575927734375,0.7669402777134872,-1.3286660495441196,0.4562009689980186,0.31420173825851305
-0.05624215304851532,0.04041649028658867,159.65682983398438,0.7669402777134872,-1.3286660495441196,0.4562009689980186,0.31420173825851305
-0.06163893640041351,0.05703286454081535,159.65725708007812,0.7669402777134872,-1.3286660495441196,0.4562009689980186,0.31420173825851305
-0.06644397974014282,0.0709766373038292,159.6571502685547,0.7669402777134872,-1.3286660495441196,0.4562009689980186,0.31420173825851305
-0.05573733523488045,0.052915096282958984,159.6574249267578,0.7669402777134872,-1.3286660495441196,0.4562009689980186,0.31420173825851305
-0.06204814463853836,0.05008481815457344,159.65744018554688,0.7669402777134872,-1.3286660495441196,0.4562009689980186,0.31420173825851305
-0.07281988859176636,0.04199931398034096,159.6569061279297,0.7669402777134872,-1.3286660495441196,0.4562009689980186,0.31420173825851305
-0.06393128633499146,0.04834524542093277,159.6569366455078,0.7669402777134872,-1.3286660495441196,0.4562009689980186,0.31420173825851305
-0.07327437400817871,0.04293135181069374,159.6571807861328,0.7669402777134872,-1.3286660495441196,0.4562009689980186,0.31420173825851305
-0.06932108104228973,0.04584416374564171,159.6567840576172,0.7669402777134872,-1.3286660495441196,0.4562009689980186,0.31420173825851305
-0.06395220756530762,0.048020876944065094,159.65817260742188,0.7669402777134872,-1.3286660495441196,0.4562009689980186,0.31420173825851305
-0.04605991020798683,0.043456729501485825,159.6573944091797,0.7669402777134872,-1.3286660495441196,0.4562009689980186,0.31420173825851305
-0.05285045504570007,0.0386333167552948,159.6575469970703,0.7669402777134872,-1.3286660495441196,0.4562009689980186,0.31420173825851305
-0.06758538633584976,0.03842800483107567,159.65719604492188,0.7669402777134872,-1.3286660495441196,0.4562009689980186,0.31420173825851305
-0.06894642859697342,0.04616106301546097,159.65679931640625,0.7669402777134872,-1.3286660495441196,0.4562009689980186,0.31420173825851305
-0.056791163980960846,0.04364083334803581,159.6575164794922,0.7669402777134872,-1.3286660495441196,0.4562009689980186,0.31420173825851305
-0.06344442814588547,0.05095686763525009,159.65737915039062,0.7669402777134872,-1.3286660495441196,0.4562009689980186,0.31420173825851305
-0.0498834066092968,0.04755977541208267,159.65768432617188,0.7669402777134872,-1.3286660495441196,0.4562009689980186,0.31420173825851305
-0.057822272181510925,0.05471685156226158,159.6578369140625,0.7669402777134872,-1.3286660495441196,0.4562009689980186,0.31420173825851305
-0.06678061932325363,0.0379650741815567,159.65774536132812,0.7669402777134872,-1.3286660495441196,0.4562009689980186,0.31420173825851305
-0.0662972629070282,0.0326264314353466,159.6575927734375,0.7669402777134872,-1.3286660495441196,0.4562009689980186,0.31420173825851305
-0.05931515619158745,0.042352717369794846,159.6582489013672,0.7669402777134872,-1.3286660495441196,0.4562009689980186,0.31420173825851305
-0.06530734896659851,0.05597851797938347,159.65945434570312,0.7669402777134872,-1.3286660495441196,0.4562009689980186,0.31420173825851305
-0.05195009708404541,0.035223428159952164,159.65951538085938,0.7669402777134872,-1.3286660495441196,0.4562009689980186,0.31420173825851305
-0.06586703658103943,0.04700726270675659,159.65951538085938,0.7669402777134872,-1.3286660495441196,0.4562009689980186,0.31420173825851305
-0.07116192579269409,0.029118366539478302,159.65927124023438,0.7669402777134872,-1.3286660495441196,0.4562009689980186,0.31420173825851305
-0.055183056741952896,0.04316540062427521,159.65940856933594,0.7669402777134872,-1.3286660495441196,0.4562009689980186,0.31420173825851305
