faccX,faccY,yaw,posX,posY,velX,velY
0,0,-154.5089111328125,0.0,0.0,0.0,0.0
0,0,-154.5150909423828,0.0,0.0,0.0,0.0
0,0,-154.51962280273438,0.0,0.0,0.0,0.0
-0.20155709981918335,-0.1815778762102127,-154.51344299316406,-1.3997020820776621e-05,-1.2609574736820326e-05,-0.0016796424984931945,-0.0015131489684184392
-1.4939392805099487,-0.6055566072463989,-154.52650451660156,-0.0001597338666518529,-9.249084111717013e-05,-0.01580877900123596,-0.008072602997223536
-2.0326690673828125,-1.1750640869140625,-154.41030883789062,-0.0006681168741650052,-0.00035068843927648334,-0.045197181900342304,-0.02291110878189405
-2.6736435890197754,-1.1021499633789062,-154.24581909179688,-0.0017482305069764456,-0.0008906801169117292,-0.08441645403703053,-0.041887892534335454
-1.5248956680297852,-1.1172508001327515,-154.24899291992188,-0.0034467366337776187,-0.0017429367121722964,-0.1194042811791102,-0.0603828988969326
-1.4750266075134277,-0.8085989356040955,-154.1571502685547,-0.005645135922564401,-0.002883057925436232,-0.14440363347530363,-0.07643164669473966
-1.388006567955017,-0.71281898021698,-154.06163024902344,-0.008250684895449214,-0.004262572725613912,-0.168262243270874,-0.08911012932658195
-1.4311012029647827,0,-154.0010528564453,-0.011250826989610989,-0.005797242865794235,-0.191754808028539,-0.09505028749505678
-0.5817305445671082,-0.8588212132453918,-153.9364776611328,-0.014586520439220797,-0.007441054686076112,-0.2085284059246381,-0.10220713093876838
-1.07156503200531,-0.20361171662807465,-153.96913146972656,-0.018176806064115626,-0.009218286932963464,-0.22230586906274158,-0.11106073868771393
-0.5635591745376587,-1.1614751815795898,-154.0699920654297,-0.021995454173949026,-0.011164096945689785,-0.2359319041172663,-0.12243646283944447
-2.0203068256378174,-0.6950379610061646,-154.0813751220703,-0.02610708771480454,-0.013333629183471203,-0.25746412078539527,-0.13790740569432575
-2.0167794227600098,0.6602050065994263,-154.0355682373047,-0.03067850960625542,-0.015634504900210434,-0.2911065061887105,-0.1381976803143819
0.2555801272392273,-0.9862698912620544,-153.9989013671875,-0.03565259021603398,-0.017960442966885037,-0.305783166984717,-0.14091488768657046
-0.8635309934616089,-1.0142955780029297,-153.96107482910156,-0.04079119514260026,-0.020447952585915724,-0.31084942420323686,-0.157586266597112
-1.0122265815734863,0.1590392142534256,-153.9688720703125,-0.04610227982203165,-0.02313378316557242,-0.32648073732852934,-0.1647134029616912
-0.8294626474380493,-0.5120824575424194,-153.98605346679688,-0.05167152052952183,-0.025903523440162342,-0.3418281475702921,-0.1676554299890995
-0.5478670597076416,-0.7343019843101501,-153.9973602294922,-0.05746430421868959,-0.028784335081775983,-0.35330589512983956,-0.17804196700453756
-0.8510453701019287,-0.3716539144515991,-154.03196716308594,-0.06344988250070147,-0.03182850369148784,-0.364963498711586,-0.18725826616088548
-0.6754755973815918,0.6311156153678894,-154.06602478027344,-0.06963861587974758,-0.03493145662049452,-0.37768450677394866,-0.1850960853199164
0.3952275812625885,-0.9895195960998535,-154.1322021484375,-0.07595281932709944,-0.03804128054115507,-0.3800199069082737,-0.18808278515934942
0.10204248130321503,0.5318425297737122,-154.15682983398438,-0.08225195179900359,-0.041207776756750206,-0.37587598972022535,-0.19189676071206727
-1.0210927724838257,-0.6822501420974731,-154.26039123535156,-0.08858037456456155,-0.04441650107502937,-0.38353474214673045,-0.19315015748143194
-0.7437343001365662,0.05197625979781151,-154.2817840576172,-0.0950951777026057,-0.04767943938599071,-0.398241634418567,-0.1984024398339291
-1.717907428741455,-0.8770588636398315,-154.16946411132812,-0.10190348561853167,-0.05104344411960078,-0.4187553154925505,-0.20527812819927926
0,-0.42099443078041077,-154.14584350585938,-0.10900204000373678,-0.05455488884614573,-0.4330712107320626,-0.2160952389861146
-0.3239620625972748,-0.08924476057291031,-154.22523498535156,-0.11624239088139597,-0.05819190943975829,-0.4357708945870399,-0.22034723224739228
0.13395854830741882,0.2706109285354614,-154.244873046875,-0.12351843381300566,-0.061851768437772986,-0.43735425720612203,-0.21883584751437102
-0.06295166909694672,0.5266368985176086,-154.27198791503906,-0.1308027403998292,-0.06544366813057827,-0.4367625332127014,-0.2121921156222621
-0.1106349304318428,-0.48768097162246704,-154.31724548339844,-0.1380941705783415,-0.06897749811824826,-0.4382090882087747,-0.21186748289813592
0,0.0800362229347229,-154.30731201171875,-0.14540533836310107,-0.0725369314963205,-0.4391310459623734,-0.2152645224705338
-0.7683051824569702,0.23116964101791382,-154.21298217773438,-0.15277754365570015,-0.07610306201916602,-0.4455335891495148,-0.21267114027092848
0.19975776970386505,-1.0801570415496826,-154.2952880859375,-0.1602425859340777,-0.07970653848205175,-0.45027148425579067,-0.21974603527535988
-0.3745192587375641,0.5129255056381226,-154.35333251953125,-0.16775924688619043,-0.0834083634821905,-0.45172782999773814,-0.22447296474128955
-0.09379047155380249,-0.562153697013855,-154.34222412109375,-0.1753205655618674,-0.08715299818561308,-0.45563041108349955,-0.22488319966942066
-0.7562251091003418,0.8783029913902283,-154.37045288085938,-0.18297343460636004,-0.09087909670132728,-0.46271387425561744,-0.22224862221628422
1.3200018405914307,0.09891492873430252,-154.427001953125,-0.19064618134871122,-0.09451537804936781,-0.458015734826525,-0.2141051395485798
-0.573230504989624,-1.0462427139282227,-154.45132446289062,-0.1982279178086254,-0.09814958369359372,-0.4517926403631766,-0.22199953775852913
0.07105131447315216,-0.08835633099079132,-154.60366821289062,-0.20579266870290866,-0.1019283675899108,-0.45597746695081387,-0.23145452979952091
-1.0207172632217407,0.6224421262741089,-154.61337280273438,-0.21345824217630754,-0.10574885379523037,-0.4638913498570521,-0.2270038148388266
-0.22832679748535156,0.06868135184049606,-154.51739501953125,-0.22127650384480751,-0.10948425602323063,-0.47430005036294454,-0.2212444525212049
-0.11979041248559952,-0.7082746624946594,-154.52273559570312,-0.2292056794904379,-0.11321607976737948,-0.47720102711270246,-0.22657439677665625
-0.4240790009498596,-0.1313171088695526,-154.58949279785156,-0.23719679865158264,-0.11705062469777959,-0.4817332722246646,-0.23357099487135802
0.12665508687496185,0.4510643184185028,-154.6292266845703,-0.24524634096047113,-0.12092126994497243,-0.4842118048419554,-0.23090643479178344
0.46138325333595276,-0.2666001617908478,-154.62603759765625,-0.25327570171198904,-0.12475690051395857,-0.4793114853401978,-0.22936923348655297
0.6671544909477234,0.8075424432754517,-154.6394805908203,-0.26118585579097264,-0.12854215563585358,-0.4699070041378338,-0.22486138114084794
-1.2614071369171143,-0.20958110690116882,-154.6376953125,-0.2690589067381289,-0.13224832022873062,-0.4748591095209121,-0.21987837000439558
-0.4497304856777191,-1.043046236038208,-154.56581115722656,-0.2770920542317132,-0.13599994773873023,-0.48911858970920236,-0.23031693119555705
-0.6904705762863159,0.3053533136844635,-154.52011108398438,-0.2853232113561696,-0.13988979193381962,-0.4986202652255693,-0.23646437221517158
0.9568908214569092,-1.4212957620620728,-154.48699951171875,-0.2936150477040145,-0.14390836080743202,-0.49640009651581435,-0.24576389261831832
-0.42172133922576904,0.5765838027000427,-154.5265655517578,-0.3018512180985676,-0.14806308623713746,-0.4919403508305549,-0.25280315894633526
0.37406471371650696,0.7951622009277344,-154.5904998779297,-0.31005353343362607,-0.15218121208043556,-0.4923374893764654,-0.24137194224943712
0.2866586148738861,-0.17467854917049408,-154.63563537597656,-0.3182132746920817,-0.1561609886421097,-0.4868314616382121,-0.23620124515146013
-0.41252243518829346,1.1109282970428467,-154.5816650390625,-0.3263358729291293,-0.16003265871769845,-0.4878803268074988,-0.22839916391919052
-0.24679335951805115,-1.135591745376587,-154.6050567626953,-0.33451299752833114,-0.16384102418915258,-0.49337462509671837,-0.22860469265530503
0.1354694664478302,-0.5137368440628052,-154.8015899658203,-0.34274363877251746,-0.16776563910767428,-0.49430232420563686,-0.24234909756729997
-0.06326796114444733,0.2947286367416382,-154.78958129882812,-0.35097699684918754,-0.17181999963708214,-0.49370064499477534,-0.24417416596164304
-0.8634174466133118,0.2999447286128998,-154.78846740722656,-0.3592696940857503,-0.17584827230829322,-0.5014230233927567,-0.23921855458368857
2.374176502227783,1.057915449142456,-154.93016052246094,-0.367521830652323,-0.17974095237234392,-0.48883336459596943,-0.22790305310239395
-0.09421773999929428,-0.42047810554504395,-155.05453491210938,-0.367521830652323,-0.17974095237234392,-0.48883336459596943,-0.22790305310239395
0.42654702067375183,-1.1265872716903687,-155.1857452392578,-0.367521830652323,-0.17974095237234392,-0.48883336459596943,-0.22790305310239395
-1.4540356397628784,1.318129539489746,-155.21600341796875,-0.367521830652323,-0.17974095237234392,-0.48883336459596943,-0.22790305310239395
0.6660423278808594,0.1267661601305008,-155.1527557373047,-0.367521830652323,-0.17974095237234392,-0.48883336459596943,-0.22790305310239395
2.187145233154297,0.616277277469635,-155.540283203125,-0.367521830652323,-0.17974095237234392,-0.48883336459596943,-0.22790305310239395
2.455629587173462,2.001080274581909,-156.31614685058594,-0.367521830652323,-0.17974095237234392,-0.48883336459596943,-0.22790305310239395
3.1470019817352295,0.8387653231620789,-157.28497314453125,-0.367521830652323,-0.17974095237234392,-0.48883336459596943,-0.22790305310239395
1.4670614004135132,1.9733750820159912,-158.47169494628906,-0.367521830652323,-0.17974095237234392,-0.48883336459596943,-0.22790305310239395
1.5496469736099243,0.7663819789886475,-159.86590576171875,-0.367521830652323,-0.17974095237234392,-0.48883336459596943,-0.22790305310239395
0.4481731057167053,0.33834367990493774,-161.48666381835938,-0.367521830652323,-0.17974095237234392,-0.48883336459596943,-0.22790305310239395
1.6225676536560059,0.6840909123420715,-163.2504425048828,-0.367521830652323,-0.17974095237234392,-0.48883336459596943,-0.22790305310239395
2.5329205989837646,1.8665225505828857,-165.19212341308594,-0.367521830652323,-0.17974095237234392,-0.48883336459596943,-0.22790305310239395
1.0496283769607544,0.4332173466682434,-167.2222442626953,-0.367521830652323,-0.17974095237234392,-0.48883336459596943,-0.22790305310239395
1.1099306344985962,1.7246160507202148,-169.3009796142578,-0.367521830652323,-0.17974095237234392,-0.48883336459596943,-0.22790305310239395
2.6297965049743652,-0.5175651907920837,-171.4545135498047,-0.367521830652323,-0.17974095237234392,-0.48883336459596943,-0.22790305310239395
0.9498794078826904,0.5719106793403625,-173.65890502929688,-0.367521830652323,-0.17974095237234392,-0.48883336459596943,-0.22790305310239395
0.7370783090591431,0.016637234017252922,-175.88787841796875,-0.367521830652323,-0.17974095237234392,-0.48883336459596943,-0.22790305310239395
0.6933456659317017,2.301135540008545,-178.14878845214844,-0.367521830652323,-0.17974095237234392,-0.48883336459596943,-0.22790305310239395
1.538133978843689,-0.40458694100379944,179.5717010498047,-0.367521830652323,-0.17974095237234392,-0.48883336459596943,-0.22790305310239395
0.690406084060669,0.9611658453941345,177.22848510742188,-0.367521830652323,-0.17974095237234392,-0.48883336459596943,-0.22790305310239395
0.43366920948028564,0.4660956859588623,174.9023895263672,-0.367521830652323,-0.17974095237234392,-0.48883336459596943,-0.22790305310239395
1.3443142175674438,0.2238616645336151,172.58383178710938,-0.367521830652323,-0.17974095237234392,-0.48883336459596943,-0.22790305310239395
0.74886554479599,-0.266815721988678,170.3101043701172,-0.367521830652323,-0.17974095237234392,-0.48883336459596943,-0.22790305310239395
0.9289133548736572,1.1369014978408813,168.0628204345703,-0.367521830652323,-0.17974095237234392,-0.48883336459596943,-0.22790305310239395
0.822994589805603,0.3754117786884308,165.76089477539062,-0.367521830652323,-0.17974095237234392,-0.48883336459596943,-0.22790305310239395
1.4907472133636475,-0.7169852256774902,163.38233947753906,-0.367521830652323,-0.17974095237234392,-0.48883336459596943,-0.22790305310239395
0.04724733158946037,1.0650224685668945,160.92977905273438,-0.367521830652323,-0.17974095237234392,-0.48883336459596943,-0.22790305310239395
0.7076898217201233,-1.4787790775299072,158.4548797607422,-0.367521830652323,-0.17974095237234392,-0.48883336459596943,-0.22790305310239395
0.08134147524833679,1.3044228553771973,155.95806884765625,-0.367521830652323,-0.17974095237234392,-0.48883336459596943,-0.22790305310239395
1.1636626720428467,-1.359208583831787,153.48696899414062,-0.367521830652323,-0.17974095237234392,-0.48883336459596943,-0.22790305310239395
0.6968715786933899,1.919042944908142,151.01951599121094,-0.367521830652323,-0.17974095237234392,-0.48883336459596943,-0.22790305310239395
0.4395683705806732,-0.12293874472379684,148.59820556640625,-0.367521830652323,-0.17974095237234392,-0.48883336459596943,-0.22790305310239395
0.2788742780685425,1.031766414642334,146.18629455566406,-0.367521830652323,-0.17974095237234392,-0.48883336459596943,-0.22790305310239395
0.4932088255882263,-1.0789783000946045,143.74478149414062,-0.367521830652323,-0.17974095237234392,-0.48883336459596943,-0.22790305310239395
0.45397093892097473,1.5976506471633911,141.2926025390625,-0.367521830652323,-0.17974095237234392,-0.48883336459596943,-0.22790305310239395
0.081126868724823,-1.1277755498886108,138.74844360351562,-0.367521830652323,-0.17974095237234392,-0.48883336459596943,-0.22790305310239395
1.6612056493759155,0.6456433534622192,136.25003051757812,-0.367521830652323,-0.17974095237234392,-0.48883336459596943,-0.22790305310239395
0.608291506767273,-1.4595320224761963,133.72503662109375,-0.367521830652323,-0.17974095237234392,-0.48883336459596943,-0.22790305310239395
0.7025861740112305,0.3960948586463928,131.25364685058594,-0.367521830652323,-0.17974095237234392,-0.48883336459596943,-0.22790305310239395
0.775957465171814,0.1986026018857956,128.70655822753906,-0.367521830652323,-0.17974095237234392,-0.48883336459596943,-0.22790305310239395
0.003022000892087817,-0.009009299799799919,126.17616271972656,-0.367521830652323,-0.17974095237234392,-0.48883336459596943,-0.22790305310239395
-0.42145460844039917,-0.9377413392066956,123.59245300292969,-0.367521830652323,-0.17974095237234392,-0.48883336459596943,-0.22790305310239395
1.7614758014678955,1.1221363544464111,121.05915069580078,-0.367521830652323,-0.17974095237234392,-0.48883336459596943,-0.22790305310239395
0.031052298843860626,-0.9795316457748413,118.51875305175781,-0.367521830652323,-0.17974095237234392,-0.48883336459596943,-0.22790305310239395
0.6394897103309631,2.0833213329315186,115.96438598632812,-0.367521830652323,-0.17974095237234392,-0.48883336459596943,-0.22790305310239395
0.8880784511566162,-0.5987735390663147,113.3767318725586,-0.367521830652323,-0.17974095237234392,-0.48883336459596943,-0.22790305310239395
-0.15113717317581177,-0.3978050649166107,110.82510375976562,-0.367521830652323,-0.17974095237234392,-0.48883336459596943,-0.22790305310239395
0.0029014304745942354,-1.7797200679779053,108.02278137207031,-0.367521830652323,-0.17974095237234392,-0.48883336459596943,-0.22790305310239395
-0.24471335113048553,-0.1528739482164383,105.44559478759766,-0.367521830652323,-0.17974095237234392,-0.48883336459596943,-0.22790305310239395
-0.16820019483566284,0.26934030652046204,103.28158569335938,-0.367521830652323,-0.17974095237234392,-0.48883336459596943,-0.22790305310239395
0.4932723045349121,0.3143842816352844,101.62442016601562,-0.367521830652323,-0.17974095237234392,-0.48883336459596943,-0.22790305310239395
-2.8437111377716064,-0.25892800092697144,100.36762237548828,-0.367521830652323,-0.17974095237234392,-0.48883336459596943,-0.22790305310239395
-1.589250087738037,0.20412328839302063,99.4765853881836,-0.367521830652323,-0.17974095237234392,-0.48883336459596943,-0.22790305310239395
-0.9810476303100586,0.8183090686798096,99.07884216308594,-0.367521830652323,-0.17974095237234392,-0.48883336459596943,-0.22790305310239395
-1.686194896697998,0.48234185576438904,99.04003143310547,-0.367521830652323,-0.17974095237234392,-0.48883336459596943,-0.22790305310239395
0.7923897504806519,0.15043601393699646,99.16389465332031,-0.367521830652323,-0.17974095237234392,-0.48883336459596943,-0.22790305310239395
0.3880968391895294,-0.20203249156475067,99.18989562988281,-0.367521830652323,-0.17974095237234392,-0.48883336459596943,-0.22790305310239395
0.19226303696632385,-0.09291870146989822,99.13076782226562,-0.367521830652323,-0.17974095237234392,-0.48883336459596943,-0.22790305310239395
0.11810118705034256,0.04256712645292282,99.14331817626953,-0.367521830652323,-0.17974095237234392,-0.48883336459596943,-0.22790305310239395
0.16765962541103363,0.08629287034273148,99.15209197998047,-0.367521830652323,-0.17974095237234392,-0.48883336459596943,-0.22790305310239395
0.24278418719768524,0.0955127701163292,99.13849639892578,-0.367521830652323,-0.17974095237234392,-0.48883336459596943,-0.22790305310239395
0.11016920953989029,0.04464888572692871,99.15050506591797,-0.367521830652323,-0.17974095237234392,-0.48883336459596943,-0.22790305310239395
0.23129938542842865,0.029875049367547035,99.14310455322266,-0.367521830652323,-0.17974095237234392,-0.48883336459596943,-0.22790305310239395
0.17408153414726257,-0.0030716145411133766,99.14553833007812,-0.367521830652323,-0.17974095237234392,-0.48883336459596943,-0.22790305310239395
0.2124384343624115,0.06354013830423355,99.14645385742188,-0.367521830652323,-0.17974095237234392,-0.48883336459596943,-0.22790305310239395
0.16869042813777924,0.06679374724626541,99.14292907714844,-0.367521830652323,-0.17974095237234392,-0.48883336459596943,-0.22790305310239395
0.2146691381931305,0.05392741039395332,99.14676666259766,-0.367521830652323,-0.17974095237234392,-0.48883336459596943,-0.22790305310239395
0.16062527894973755,0.022999584674835205,99.14366912841797,-0.367521830652323,-0.17974095237234392,-0.48883336459596943,-0.22790305310239395
0.2110217660665512,0.03563195466995239,99.14469909667969,-0.367521830652323,-0.17974095237234392,-0.48883336459596943,-0.22790305310239395
0.19142745435237885,0.053750164806842804,99.14464569091797,-0.367521830652323,-0.17974095237234392,-0.48883336459596943,-0.22790305310239395
0.19588197767734528,0.05723721161484718,99.14501953125,-0.367521830652323,-0.17974095237234392,-0.48883336459596943,-0.22790305310239395
0.19414256513118744,0.05053490400314331,99.14517974853516,-0.367521830652323,-0.17974095237234392,-0.48883336459596943,-0.22790305310239395
0.19006416201591492,0.026308467611670494,99.14456176757812,-0.367521830652323,-0.17974095237234392,-0.48883336459596943,-0.22790305310239395
0.19728732109069824,0.03292426839470863,99.14484405517578,-0.367521830652323,-0.17974095237234392,-0.48883336459596943,-0.22790305310239395
0.18837818503379822,0.05262157320976257,99.14350128173828,-0.367521830652323,-0.17974095237234392,-0.48883336459596943,-0.22790305310239395
0.18566282093524933,0.049791742116212845,99.14250183105469,-0.367521830652323,-0.17974095237234392,-0.48883336459596943,-0.22790305310239395
0.1882486492395401,0.033072903752326965,99.14334106445312,-0.367521830652323,-0.17974095237234392,-0.48883336459596943,-0.22790305310239395
0.1936730146408081,0.05107632279396057,99.14369201660156,-0.367521830652323,-0.17974095237234392,-0.48883336459596943,-0.22790305310239395
0.17985384166240692,0.0542437881231308,99.14315032958984,-0.367521830652323,-0.17974095237234392,-0.48883336459596943,-0.22790305310239395
0.18503345549106598,0.04481096565723419,99.14277648925781,-0.367521830652323,-0.17974095237234392,-0.48883336459596943,-0.22790305310239395
0.17667602002620697,0.037460822612047195,99.1422348022461,-0.367521830652323,-0.17974095237234392,-0.48883336459596943,-0.22790305310239395
0.19742274284362793,0.03124845214188099,99.1426010131836,-0.367521830652323,-0.17974095237234392,-0.48883336459596943,-0.22790305310239395
0.18613024055957794,0.046434685587882996,99.14187622070312,-0.367521830652323,-0.17974095237234392,-0.48883336459596943,-0.22790305310239395
0.17929992079734802,0.04084602743387222,99.14098358154297,-0.367521830652323,-0.17974095237234392,-0.48883336459596943,-0.22790305310239395
0.16911634802818298,0.04855933412909508,99.140869140625,-0.367521830652323,-0.17974095237234392,-0.48883336459596943,-0.22790305310239395
0.1971028745174408,0.0417519249022007,99.1417465209961,-0.367521830652323,-0.17974095237234392,-0.48883336459596943,-0.22790305310239395
0.19333744049072266,0.029189180582761765,99.1432876586914,-0.367521830652323,-0.17974095237234392,-0.48883336459596943,-0.22790305310239395
0.17996752262115479,0.043290771543979645,99.14354705810547,-0.367521830652323,-0.17974095237234392,-0.48883336459596943,-0.22790305310239395
0.18894505500793457,0.03580201044678688,99.14386749267578,-0.367521830652323,-0.17974095237234392,-0.48883336459596943,-0.22790305310239395
0.18814218044281006,0.03623133897781372,99.14443969726562,-0.367521830652323,-0.17974095237234392,-0.48883336459596943,-0.22790305310239395
0.1818131059408188,0.03876471519470215,99.14361572265625,-0.367521830652323,-0.17974095237234392,-0.48883336459596943,-0.22790305310239395
0.17761044204235077,0.02782818116247654,99.14427947998047,-0.367521830652323,-0.17974095237234392,-0.48883336459596943,-0.22790305310239395
0.17674806714057922,0.028814194723963737,99.14379119873047,-0.367521830652323,-0.17974095237234392,-0.48883336459596943,-0.22790305310239395
0.18180108070373535,0.051549214869737625,99.14350891113281,-0.367521830652323,-0.17974095237234392,-0.48883336459596943,-0.22790305310239395
0.1878053992986679,0.04515489563345909,99.14385223388672,-0.367521830652323,-0.17974095237234392,-0.48883336459596943,-0.22790305310239395
0.17261600494384766,0.050937019288539886,99.14299774169922,-0.367521830652323,-0.17974095237234392,-0.48883336459596943,-0.22790305310239395
0.19769445061683655,0.04394662007689476,99.14325714111328,-0.367521830652323,-0.17974095237234392,-0.48883336459596943,-0.22790305310239395
0.17430613934993744,0.03113803267478943,99.14317321777344,-0.367521830652323,-0.17974095237234392,-0.48883336459596943,-0.22790305310239395
0.1987999975681305,0.04286337271332741,99.14374542236328,-0.367521830652323,-0.17974095237234392,-0.48883336459596943,-0.22790305310239395
0.17715710401535034,0.04183598980307579,99.1424331665039,-0.367521830652323,-0.17974095237234392,-0.48883336459596943,-0.22790305310239395
0.1856803447008133,0.043636418879032135,99.1426010131836,-0.367521830652323,-0.17974095237234392,-0.48883336459596943,-0.22790305310239395
0.18290413916110992,0.051587704569101334,99.14381408691406,-0.367521830652323,-0.17974095237234392,-0.48883336459596943,-0.22790305310239395
0.1893673539161682,0.033924173563718796,99.1444091796875,-0.367521830652323,-0.17974095237234392,-0.48883336459596943,-0.22790305310239395
0.18736587464809418,0.034026701003313065,99.14387512207031,-0.367521830652323,-0.17974095237234392,-0.48883336459596943,-0.22790305310239395
0.18940390646457672,0.04669252783060074,99.14366149902344,-0.367521830652323,-0.17974095237234392,-0.48883336459596943,-0.22790305310239395
0.189761221408844,0.03927839547395706,99.1436767578125,-0.367521830652323,-0.17974095237234392,-0.48883336459596943,-0.22790305310239395
0.1726486086845398,0.036739472299814224,99.14464569091797,-0.367521830652323,-0.17974095237234392,-0.48883336459596943,-0.22790305310239395
0.1676037311553955,0.031493112444877625,99.14450073242188,-0.367521830652323,-0.17974095237234392,-0.48883336459596943,-0.22790305310239395
0.17376361787319183,0.04638113081455231,99.14559173583984,-0.367521830652323,-0.17974095237234392,-0.48883336459596943,-0.22790305310239395
0.17509064078330994,0.043698716908693314,99.14582061767578,-0.367521830652323,-0.17974095237234392,-0.48883336459596943,-0.22790305310239395
0.1832040399312973,0.025817930698394775,99.1451644897461,-0.367521830652323,-0.17974095237234392,-0.48883336459596943,-0.22790305310239395
0.18867309391498566,0.029890911653637886,99.14579010009766,-0.367521830652323,-0.17974095237234392,-0.48883336459596943,-0.22790305310239395
0.17330436408519745,0.03706499934196472,99.14452362060547,-0.367521830652323,-0.17974095237234392,-0.48883336459596943,-0.22790305310239395
0.18995097279548645,0.04138905927538872,99.14491271972656,-0.367521830652323,-0.17974095237234392,-0.48883336459596943,-0.22790305310239395
0.1758061647415161,0.04337956756353378,99.14605712890625,-0.367521830652323,-0.17974095237234392,-0.48883336459596943,-0.22790305310239395
0.17309631407260895,0.03914123773574829,99.14530944824219,-0.367521830652323,-0.17974095237234392,-0.48883336459596943,-0.22790305310239395
0.17942464351654053,0.0393422394990921,99.14497375488281,-0.367521830652323,-0.17974095237234392,-0.48883336459596943,-0.22790305310239395
0.18333381414413452,0.0483853854238987,99.14460754394531,-0.367521830652323,-0.17974095237234392,-0.48883336459596943,-0.22790305310239395
0.19508866965770721,0.029626265168190002,99.14514923095703,-0.367521830652323,-0.17974095237234392,-0.48883336459596943,-0.22790305310239395
0.17835617065429688,0.03437283635139465,99.14579772949219,-0.367521830652323,-0.17974095237234392,-0.48883336459596943,-0.22790305310239395
0.1932353377342224,0.03198133781552315,99.14624786376953,-0.367521830652323,-0.17974095237234392,-0.48883336459596943,-0.22790305310239395
0.18874424695968628,0.02588954195380211,99.14663696289062,-0.367521830652323,-0.17974095237234392,-0.48883336459596943,-0.22790305310239395
0.1834796518087387,0.04388735443353653,99.14718627929688,-0.367521830652323,-0.17974095237234392,-0.48883336459596943,-0.22790305310239395
0.17355690896511078,0.040939800441265106,99.14892578125,-0.367521830652323,-0.17974095237234392,-0.48883336459596943,-0.22790305310239395
0.1737828403711319,0.037617865949869156,99.14852142333984,-0.367521830652323,-0.17974095237234392,-0.48883336459596943,-0.22790305310239395
0.17334464192390442,0.04532809928059578,99.14834594726562,-0.367521830652323,-0.17974095237234392,-0.48883336459596943,-0.22790305310239395
0.18647988140583038,0.04067487269639969,99.14857482910156,-0.367521830652323,-0.17974095237234392,-0.48883336459596943,-0.22790305310239395
0.17592355608940125,0.047776397317647934,99.14856719970703,-0.367521830652323,-0.17974095237234392,-0.48883336459596943,-0.22790305310239395
0.19314074516296387,0.04536443576216698,99.14927673339844,-0.367521830652323,-0.17974095237234392,-0.48883336459596943,-0.22790305310239395
0.17818795144557953,0.042458876967430115,99.14871215820312,-0.367521830652323,-0.17974095237234392,-0.48883336459596943,-0.22790305310239395
0.17610245943069458,0.04160229116678238,99.14907836914062,-0.367521830652323,-0.17974095237234392,-0.48883336459596943,-0.22790305310239395
0.18539482355117798,0.028034718707203865,99.14866638183594,-0.367521830652323,-0.17974095237234392,-0.48883336459596943,-0.22790305310239395
0.18080349266529083,0.04019155353307724,99.1485595703125,-0.367521830652323,-0.17974095237234392,-0.48883336459596943,-0.22790305310239395
0.1721450686454773,0.047762129455804825,99.14937591552734,-0.367521830652323,-0.17974095237234392,-0.48883336459596943,-0.22790305310239395
0.18081681430339813,0.0491168238222599,99.1486587524414,-0.367521830652323,-0.17974095237234392,-0.48883336459596943,-0.22790305310239395
0.1731424480676651,0,99.14820098876953,-0.37564447289125785,-0.18353592570017394,-0.48588370407621057,-0.22749374623720844
0.1692974865436554,0,99.14852905273438,-0.3837187540748467,-0.18732748813746075,-0.48303003795444954,-0.22749374623720844
0.052758291363716125,0.23057235777378082,99.14940643310547,-0.3917538341672884,-0.19110303860545771,-0.4811795731385548,-0.22557230992242694
-0.30937811732292175,1.5547980070114136,99.23744201660156,-0.39979131454084477,-0.19473859305105476,-0.48331807168821483,-0.210694223549217
-0.7473485469818115,3.0146830081939697,99.4283447265625,-0.4079199995317806,-0.19793283837304135,-0.4921241272240876,-0.17261521508917213
0.8176159858703613,1.9770867824554443,99.49667358398438,-0.41611718863559255,-0.20046310794462133,-0.4915385652333497,-0.131017133500427
0.41313791275024414,1.1314327716827393,99.39258575439453,-0.42422402903541084,-0.2024308574228133,-0.4812822827448447,-0.10511280388260882
-0.6495011448860168,1.5847415924072266,99.28923034667969,-0.43226181452783435,-0.20399411426779498,-0.4832519763459761,-0.08247801751519244
0.1562338024377823,0.8816253542900085,99.19435119628906,-0.44035026881015954,-0.20519747241063865,-0.4873625375330447,-0.06192495962604882
0.3063918948173523,1.6510345935821533,99.21194458007812,-0.44844085098451203,-0.20605367590802612,-0.4835073233892519,-0.04081946006044747
-1.412140130996704,1.1745808124542236,99.37107849121094,-0.45657609444628977,-0.20653777695028105,-0.49272189202407984,-0.017272665010144326
-0.3622642755508423,1.395939588546753,99.51222229003906,-0.4649113485082569,-0.2066471463392695,-0.507508595411976,0.004148338331530478
1.118879795074463,1.4015241861343384,99.5983657836914,-0.47331728235404513,-0.20638373904939114,-0.5012034660826125,0.027460536453872905
0.20864036679267883,0.9554156064987183,99.6401596069336,-0.48157848455529234,-0.20576238706733818,-0.49014079806705296,0.04710170139248171
-1.3695517778396606,2.073483943939209,99.70883178710938,-0.48982811670439924,-0.20476701846423864,-0.4998150598257778,0.07234253097946444
0.8941682577133179,0.47705140709877014,99.71247863769531,-0.49819138044594874,-0.20338418910409214,-0.503776589160164,0.09359699223811427
0,0.7901670336723328,99.70846557617188,-0.5065255619140547,-0.2017362379528478,-0.496325187012553,0.1041571459112068
-0.7105187177658081,1.0326118469238281,99.75201416015625,-0.5148469899418866,-0.1998737036542863,-0.5022461763272681,0.1193469699161748
0.8445829749107361,0.5641883015632629,99.80549621582031,-0.5232084495294838,-0.19777369858981622,-0.5011289741843937,0.1326536378202339
0,0.6742952466011047,99.71834564208984,-0.5315019475037437,-0.1954767988241898,-0.49409078272680423,0.14297433405493695
0.6085008382797241,0.8563622236251831,99.57051849365234,-0.5396945368798655,-0.19298759759895293,-0.48901994240780655,0.15572981297348934
0.10185070335865021,0.7512885928153992,99.46862030029297,-0.5477955392851596,-0.19028045829825307,-0.48310034622748677,0.1691269031104942
-1.435312032699585,1.3717674016952515,99.4783935546875,-0.5559398132034886,-0.1873142421356816,-0.49421252397199456,0.18681903639808295
-0.18357551097869873,0.34604132175445557,99.61447143554688,-0.5642891113491106,-0.1840812992565851,-0.5077032535026469,0.20113410909349716
0.6642330288887024,0.7228786945343018,99.74562072753906,-0.5727174532465221,-0.18065483354834008,-0.5036977741867302,0.21004177589590348
0.935462474822998,0.748789370059967,99.94313049316406,-0.5810013261840987,-0.17705193811225597,-0.49036697832246606,0.22230567643418905
0.31725046038627625,0.40877336263656616,100.07831573486328,-0.5890871152023058,-0.17326645720413777,-0.47992770386238875,0.2319520325399935
-1.9685181379318237,-1.0349838733673096,100.11346435546875,-0.5972005816331752,-0.16944407683616086,-0.493688267841935,0.2267336116172373
0.8458495140075684,1.0454745292663574,100.07176971435547,-0.6055066825294244,-0.16566445479143613,-0.5030438397079704,0.22682103374972937
0.7212905883789062,1.9609180688858032,100.08841705322266,-0.6137819173507804,-0.16167532696518008,-0.4899843388547498,0.25187430540099737
-0.7711130380630493,-0.5219467878341675,100.13651275634766,-0.6219517828906987,-0.15737749331397932,-0.490399525935451,0.26386573274309433
0.7301172614097595,0.26694628596305847,100.12530517578125,-0.6301279552518905,-0.15299743946977992,-0.49074115740756175,0.2617407285608351
-0.3027195632457733,0.4354684054851532,100.0459976196289,-0.6382772941463106,-0.14858631519574877,-0.48717950992286185,0.2675941843229035
0.3516477346420288,0.4437163770198822,99.91394805908203,-0.6463935548553447,-0.14406535762491532,-0.4867717751612264,0.2749207241771121
0.6744189262390137,0.5302835702896118,99.8898696899414,-0.6544351631454706,-0.13941570667006695,-0.47822121965388437,0.2830373904046912
-0.5230292677879333,0.23922091722488403,99.76045989990234,-0.6623950036356429,-0.13464497901835581,-0.476959639166792,0.2894499278006454
0.07642423361539841,-0.48822152614593506,99.49629211425781,-0.6703753451935736,-0.12983810526396458,-0.48068134778489646,0.2873749227263033
0.45570480823516846,0.8059357404708862,99.42822265625,-0.6783497475843044,-0.1250264597314203,-0.4762469391028084,0.2900225411790112
0.5098705887794495,0.4269171953201294,99.47586822509766,-0.6862201427223363,-0.1201071359245624,-0.46820047746101995,0.30029631564393633
0.8613660931587219,-0.23047403991222382,99.55757141113281,-0.6939282592437743,-0.11508855544470459,-0.4567735051115352,0.30193334193900223
-0.4457091689109802,0.7274655103683472,99.62530517578125,-0.7015122859314493,-0.1100218197824951,-0.4533096974094707,0.30607493752613657
-0.43259555101394653,-0.23833683133125305,99.55386352539062,-0.7091284409382687,-0.10488660355434859,-0.4606289034088451,0.31015100985144567
0.21112586557865143,0.25948530435562134,99.47089385986328,-0.7168209691676825,-0.09971595141286448,-0.4624744841208059,0.3103272471266487
0.5372800827026367,0.11597838997840881,99.50953674316406,-0.7244769046010653,-0.09451775675975825,-0.4562377678851285,0.31345611124609896
1.0110560655593872,-0.286824494600296,99.49612426757812,-0.7319733440555215,-0.0893053525518109,-0.44333496664961164,0.31203239370758323
0.1423160284757614,0.08949682861566544,99.4490737915039,-0.7392821648820403,-0.08411851596682232,-0.43372353253265206,0.31038799649104465
-0.7356419563293457,0.7471498250961304,99.33819580078125,-0.7465520936136855,-0.07888728222990826,-0.4386679152647653,0.317360051938643
-0.3890870213508606,0.6845903396606445,99.41360473632812,-0.7539413317137704,-0.07349852163060056,-0.4480406567454337,0.32929121997828276
-0.1720762550830841,-0.45740553736686707,99.60136413574219,-0.7539413317137704,-0.07349852163060056,-0.4480406567454337,0.32929121997828276
1.7221876382827759,-0.010706936940550804,99.68608093261719,-0.7539413317137704,-0.07349852163060056,-0.4480406567454337,0.32929121997828276
-0.16122876107692719,-1.9388072490692139,99.68521881103516,-0.7539413317137704,-0.07349852163060056,-0.4480406567454337,0.32929121997828276
0.19967594742774963,-3.7498669624328613,99.24706268310547,-0.7539413317137704,-0.07349852163060056,-0.4480406567454337,0.32929121997828276
0.9659664630889893,-2.242983818054199,98.44144439697266,-0.7539413317137704,-0.07349852163060056,-0.4480406567454337,0.32929121997828276
1.9333367347717285,-0.8088322281837463,97.46511840820312,-0.7539413317137704,-0.07349852163060056,-0.4480406567454337,0.32929121997828276
0.3104025423526764,-2.916257858276367,96.15679168701172,-0.7539413317137704,-0.07349852163060056,-0.4480406567454337,0.32929121997828276
-0.11951634287834167,-2.9696645736694336,94.66815948486328,-0.7539413317137704,-0.07349852163060056,-0.4480406567454337,0.32929121997828276
2.101728916168213,1.1537952423095703,93.05927276611328,-0.7539413317137704,-0.07349852163060056,-0.4480406567454337,0.32929121997828276
-0.41919779777526855,-1.644374966621399,91.37483215332031,-0.7539413317137704,-0.07349852163060056,-0.4480406567454337,0.32929121997828276
1.6145968437194824,-1.6005899906158447,89.489013671875,-0.7539413317137704,-0.07349852163060056,-0.4480406567454337,0.32929121997828276
0.19379204511642456,-1.4611265659332275,87.52916717529297,-0.7539413317137704,-0.07349852163060056,-0.4480406567454337,0.32929121997828276
0.5429511666297913,-2.2372519969940186,85.4236831665039,-0.7539413317137704,-0.07349852163060056,-0.4480406567454337,0.32929121997828276
-0.7720047831535339,-1.9980123043060303,83.23483276367188,-0.7539413317137704,-0.07349852163060056,-0.4480406567454337,0.32929121997828276
0.8905222415924072,-1.0184764862060547,80.99356079101562,-0.7539413317137704,-0.07349852163060056,-0.4480406567454337,0.32929121997828276
-0.2113121747970581,-0.6814401149749756,78.76300048828125,-0.7539413317137704,-0.07349852163060056,-0.4480406567454337,0.32929121997828276
-0.33445775508880615,-0.5061984658241272,76.50131225585938,-0.7539413317137704,-0.07349852163060056,-0.4480406567454337,0.32929121997828276
2.6334228515625,-1.1090731620788574,74.16954040527344,-0.7539413317137704,-0.07349852163060056,-0.4480406567454337,0.32929121997828276
-1.4892491102218628,-1.3484394550323486,71.82544708251953,-0.7539413317137704,-0.07349852163060056,-0.4480406567454337,0.32929121997828276
1.3364691734313965,-1.28690767288208,69.47352600097656,-0.7539413317137704,-0.07349852163060056,-0.4480406567454337,0.32929121997828276
-0.5063909292221069,-1.4230674505233765,67.05768585205078,-0.7539413317137704,-0.07349852163060056,-0.4480406567454337,0.32929121997828276
0.281612366437912,-0.43525898456573486,64.62410736083984,-0.7539413317137704,-0.07349852163060056,-0.4480406567454337,0.32929121997828276
-0.2751687169075012,-1.0298014879226685,62.05562973022461,-0.7539413317137704,-0.07349852163060056,-0.4480406567454337,0.32929121997828276
1.5122493505477905,-0.36376991868019104,59.40208053588867,-0.7539413317137704,-0.07349852163060056,-0.4480406567454337,0.32929121997828276
-0.42372316122055054,0.10320667177438736,56.794349670410156,-0.7539413317137704,-0.07349852163060056,-0.4480406567454337,0.32929121997828276
-0.33431342244148254,-1.1067103147506714,54.15570831298828,-0.7539413317137704,-0.07349852163060056,-0.4480406567454337,0.32929121997828276
0.5094898343086243,-1.0600874423980713,51.550960540771484,-0.7539413317137704,-0.07349852163060056,-0.4480406567454337,0.32929121997828276
-0.2747667133808136,-0.7704330682754517,48.976078033447266,-0.7539413317137704,-0.07349852163060056,-0.4480406567454337,0.32929121997828276
1.1648473739624023,-0.8633617162704468,46.47085952758789,-0.7539413317137704,-0.07349852163060056,-0.4480406567454337,0.32929121997828276
-1.8747550249099731,-0.4626322090625763,44.00368118286133,-0.7539413317137704,-0.07349852163060056,-0.4480406567454337,0.32929121997828276
1.8111448287963867,-0.8940522074699402,41.674034118652344,-0.7539413317137704,-0.07349852163060056,-0.4480406567454337,0.32929121997828276
-2.1049153804779053,0.4986748993396759,39.362728118896484,-0.7539413317137704,-0.07349852163060056,-0.4480406567454337,0.32929121997828276
2.2455499172210693,-1.0595821142196655,37.17123031616211,-0.7539413317137704,-0.07349852163060056,-0.4480406567454337,0.32929121997828276
-1.448616623878479,0.31323355436325073,34.94886779785156,-0.7539413317137704,-0.07349852163060056,-0.4480406567454337,0.32929121997828276
1.6495000123977661,-1.0328831672668457,32.83043670654297,-0.7539413317137704,-0.07349852163060056,-0.4480406567454337,0.32929121997828276
-1.526943325996399,1.0233222246170044,30.697568893432617,-0.7539413317137704,-0.07349852163060056,-0.4480406567454337,0.32929121997828276
0.5388436317443848,-0.7634286284446716,28.589921951293945,-0.7539413317137704,-0.07349852163060056,-0.4480406567454337,0.32929121997828276
-0.43136340379714966,-0.1420234888792038,26.48529624938965,-0.7539413317137704,-0.07349852163060056,-0.4480406567454337,0.32929121997828276
0.49697670340538025,-0.4213995933532715,24.349260330200195,-0.7539413317137704,-0.07349852163060056,-0.4480406567454337,0.32929121997828276
-0.16896189749240875,-0.5531284809112549,22.16499137878418,-0.7539413317137704,-0.07349852163060056,-0.4480406567454337,0.32929121997828276
0.627200722694397,0.4874142110347748,20.204084396362305,-0.7539413317137704,-0.07349852163060056,-0.4480406567454337,0.32929121997828276
-0.646414577960968,-0.2368827760219574,18.522104263305664,-0.7539413317137704,-0.07349852163060056,-0.4480406567454337,0.32929121997828276
0.5058007836341858,-0.17228549718856812,17.195659637451172,-0.7539413317137704,-0.07349852163060056,-0.4480406567454337,0.32929121997828276
0.41752535104751587,1.1840648651123047,16.241302490234375,-0.7539413317137704,-0.07349852163060056,-0.4480406567454337,0.32929121997828276
0.08309025317430496,2.4804511070251465,15.627408027648926,-0.7539413317137704,-0.07349852163060056,-0.4480406567454337,0.32929121997828276
0.6611518859863281,0.7473375797271729,15.47901725769043,-0.7539413317137704,-0.07349852163060056,-0.4480406567454337,0.32929121997828276
0.8946962952613831,0.5442914366722107,15.63973331451416,-0.7539413317137704,-0.07349852163060056,-0.4480406567454337,0.32929121997828276
0.42275530099868774,-0.36950331926345825,15.68840217590332,-0.7539413317137704,-0.07349852163060056,-0.4480406567454337,0.32929121997828276
0.43884825706481934,-0.06079144403338432,15.62948989868164,-0.7539413317137704,-0.07349852163060056,-0.4480406567454337,0.32929121997828276
-0.05793806537985802,-0.06250341236591339,15.624983787536621,-0.7539413317137704,-0.07349852163060056,-0.4480406567454337,0.32929121997828276
-0.12067217379808426,-0.2894359230995178,15.65355396270752,-0.7539413317137704,-0.07349852163060056,-0.4480406567454337,0.32929121997828276
-0.1721564680337906,-0.12636752426624298,15.645524978637695,-0.7539413317137704,-0.07349852163060056,-0.4480406567454337,0.32929121997828276
0.16482818126678467,-0.21821512281894684,15.641118049621582,-0.7539413317137704,-0.07349852163060056,-0.4480406567454337,0.32929121997828276
0.2715857923030853,0.01953009143471718,15.64696979522705,-0.7539413317137704,-0.07349852163060056,-0.4480406567454337,0.32929121997828276
0.35292255878448486,-0.13146862387657166,15.647017478942871,-0.7539413317137704,-0.07349852163060056,-0.4480406567454337,0.32929121997828276
0.22746631503105164,-0.0733153373003006,15.648194313049316,-0.7539413317137704,-0.07349852163060056,-0.4480406567454337,0.32929121997828276
0.057822540402412415,-0.14352592825889587,15.65219783782959,-0.7539413317137704,-0.07349852163060056,-0.4480406567454337,0.32929121997828276
0.01741771586239338,-0.1581132858991623,15.650793075561523,-0.7539413317137704,-0.07349852163060056,-0.4480406567454337,0.32929121997828276
0.1365898847579956,-0.13345418870449066,15.651030540466309,-0.7539413317137704,-0.07349852163060056,-0.4480406567454337,0.32929121997828276
0.2212892323732376,-0.09014386683702469,15.649280548095703,-0.7539413317137704,-0.07349852163060056,-0.4480406567454337,0.32929121997828276
0.22632814943790436,-0.09413408488035202,15.649961471557617,-0.7539413317137704,-0.07349852163060056,-0.4480406567454337,0.32929121997828276
0.15899904072284698,-0.10738234221935272,15.651888847351074,-0.7539413317137704,-0.07349852163060056,-0.4480406567454337,0.32929121997828276
0.07629523426294327,-0.15386264026165009,15.652570724487305,-0.7539413317137704,-0.07349852163060056,-0.4480406567454337,0.32929121997828276
0.10289856791496277,-0.1402873694896698,15.651305198669434,-0.7539413317137704,-0.07349852163060056,-0.4480406567454337,0.32929121997828276
0.17409035563468933,-0.11464870721101761,15.650869369506836,-0.7539413317137704,-0.07349852163060056,-0.4480406567454337,0.32929121997828276
0.20077760517597198,-0.10175393521785736,15.64987564086914,-0.7539413317137704,-0.07349852163060056,-0.4480406567454337,0.32929121997828276
0.16238968074321747,-0.11689924448728561,15.650507926940918,-0.7539413317137704,-0.07349852163060056,-0.4480406567454337,0.32929121997828276
0.11835921555757523,-0.13036563992500305,15.649614334106445,-0.7539413317137704,-0.07349852163060056,-0.4480406567454337,0.32929121997828276
0.11452250927686691,-0.1203819289803505,15.64859390258789,-0.7539413317137704,-0.07349852163060056,-0.4480406567454337,0.32929121997828276
0.16220270097255707,-0.10461066663265228,15.648941993713379,-0.7539413317137704,-0.07349852163060056,-0.4480406567454337,0.32929121997828276
0.17313604056835175,-0.09949763864278793,15.648726463317871,-0.7539413317137704,-0.07349852163060056,-0.4480406567454337,0.32929121997828276
0.16185854375362396,-0.11093676835298538,15.648954391479492,-0.7539413317137704,-0.07349852163060056,-0.4480406567454337,0.32929121997828276
0.11556112766265869,-0.11861217767000198,15.649334907531738,-0.7539413317137704,-0.07349852163060056,-0.4480406567454337,0.32929121997828276
0.14305803179740906,-0.11618378758430481,15.650374412536621,-0.7539413317137704,-0.07349852163060056,-0.4480406567454337,0.32929121997828276
0.15962563455104828,-0.09857326000928879,15.649727821350098,-0.7539413317137704,-0.07349852163060056,-0.4480406567454337,0.32929121997828276
0.16093045473098755,-0.10848108679056168,15.650257110595703,-0.7539413317137704,-0.07349852163060056,-0.4480406567454337,0.32929121997828276
0.14285361766815186,-0.12304870039224625,15.650794982910156,-0.7539413317137704,-0.07349852163060056,-0.4480406567454337,0.32929121997828276
0.141873300075531,-0.12907366454601288,15.650572776794434,-0.7539413317137704,-0.07349852163060056,-0.4480406567454337,0.32929121997828276
0.1455504596233368,-0.11405482888221741,15.651309967041016,-0.7539413317137704,-0.07349852163060056,-0.4480406567454337,0.32929121997828276
0.14277081191539764,-0.10992826521396637,15.651773452758789,-0.7539413317137704,-0.07349852163060056,-0.4480406567454337,0.32929121997828276
0.15848712623119354,-0.10984566062688828,15.652029037475586,-0.7539413317137704,-0.07349852163060056,-0.4480406567454337,0.32929121997828276
0.14182063937187195,-0.10873359441757202,15.650980949401855,-0.7539413317137704,-0.07349852163060056,-0.4480406567454337,0.32929121997828276
0.14443422853946686,-0.1016019806265831,15.65068531036377,-0.7539413317137704,-0.07349852163060056,-0.4480406567454337,0.32929121997828276
0.15261076390743256,-0.1027742326259613,15.651800155639648,-0.7539413317137704,-0.07349852163060056,-0.4480406567454337,0.32929121997828276
0.1436924785375595,-0.11435604840517044,15.651311874389648,-0.7539413317137704,-0.07349852163060056,-0.4480406567454337,0.32929121997828276
0.15671822428703308,-0.11608515679836273,15.650897026062012,-0.7539413317137704,-0.07349852163060056,-0.4480406567454337,0.32929121997828276
0.13831113278865814,-0.10968443006277084,15.650216102600098,-0.7539413317137704,-0.07349852163060056,-0.4480406567454337,0.32929121997828276
0.13731513917446136,-0.13437817990779877,15.651525497436523,-0.7539413317137704,-0.07349852163060056,-0.4480406567454337,0.32929121997828276
0.13977526128292084,-0.11820094287395477,15.652095794677734,-0.7539413317137704,-0.07349852163060056,-0.4480406567454337,0.32929121997828276
0.14675460755825043,-0.11378341168165207,15.652095794677734,-0.7539413317137704,-0.07349852163060056,-0.4480406567454337,0.32929121997828276
0.14280229806900024,-0.11700040102005005,15.652482986450195,-0.7539413317137704,-0.07349852163060056,-0.4480406567454337,0.32929121997828276
0.14659804105758667,-0.1323333978652954,15.652588844299316,-0.7539413317137704,-0.07349852163060056,-0.4480406567454337,0.32929121997828276
0.14541210234165192,-0.10609304159879684,15.653575897216797,-0.7539413317137704,-0.07349852163060056,-0.4480406567454337,0.32929121997828276
0.13497976958751678,-0.11669811606407166,15.654098510742188,-0.7539413317137704,-0.07349852163060056,-0.4480406567454337,0.32929121997828276
0.1316460520029068,-0.11693987250328064,15.653160095214844,-0.7539413317137704,-0.07349852163060056,-0.4480406567454337,0.32929121997828276
0.12397746741771698,-0.12177267670631409,15.652793884277344,-0.7539413317137704,-0.07349852163060056,-0.4480406567454337,0.32929121997828276
0.1461174041032791,-0.10633715242147446,15.652486801147461,-0.7539413317137704,-0.07349852163060056,-0.4480406567454337,0.32929121997828276
0.12371323257684708,-0.11581073701381683,15.652447700500488,-0.7539413317137704,-0.07349852163060056,-0.4480406567454337,0.32929121997828276
0.13887976109981537,-0.11144288629293442,15.652138710021973,-0.7539413317137704,-0.07349852163060056,-0.4480406567454337,0.32929121997828276
0.14492711424827576,-0.11908211559057236,15.651937484741211,-0.7539413317137704,-0.07349852163060056,-0.4480406567454337,0.32929121997828276
0.12533606588840485,-0.10538072139024734,15.651491165161133,-0.7539413317137704,-0.07349852163060056,-0.4480406567454337,0.32929121997828276
0.13085007667541504,-0.11416029185056686,15.652106285095215,-0.7539413317137704,-0.07349852163060056,-0.4480406567454337,0.32929121997828276
0.1380484253168106,-0.10424382984638214,15.650659561157227,-0.7539413317137704,-0.07349852163060056,-0.4480406567454337,0.32929121997828276
0.14281615614891052,-0.11834722012281418,15.651281356811523,-0.7539413317137704,-0.07349852163060056,-0.4480406567454337,0.32929121997828276
0.1321311593055725,-0.11102498322725296,15.651488304138184,-0.7539413317137704,-0.07349852163060056,-0.4480406567454337,0.32929121997828276
0.13804598152637482,-0.10875985026359558,15.653121948242188,-0.7539413317137704,-0.07349852163060056,-0.4480406567454337,0.32929121997828276
0.13069280982017517,-0.12251283973455429,15.653246879577637,-0.7539413317137704,-0.07349852163060056,-0.4480406567454337,0.32929121997828276
0.13090823590755463,-0.10451844334602356,15.653210639953613,-0.7539413317137704,-0.07349852163060056,-0.4480406567454337,0.32929121997828276
0.14325976371765137,-0.10676008462905884,15.653246879577637,-0.7539413317137704,-0.07349852163060056,-0.4480406567454337,0.32929121997828276
0.14497984945774078,-0.11355399340391159,15.65262222290039,-0.7539413317137704,-0.07349852163060056,-0.4480406567454337,0.32929121997828276
0.11999787390232086,-0.10832562297582626,15.651708602905273,-0.7539413317137704,-0.07349852163060056,-0.4480406567454337,0.32929121997828276
0.12085583060979843,-0.11331591010093689,15.652297019958496,-0.7539413317137704,-0.07349852163060056,-0.4480406567454337,0.32929121997828276
0.11756618320941925,-0.10681277513504028,15.651455879211426,-0.7539413317137704,-0.07349852163060056,-0.4480406567454337,0.32929121997828276
0.12965106964111328,-0.12117095291614532,15.651862144470215,-0.7539413317137704,-0.07349852163060056,-0.4480406567454337,0.32929121997828276
0.13032402098178864,-0.1127178817987442,15.650424003601074,-0.7539413317137704,-0.07349852163060056,-0.4480406567454337,0.32929121997828276
0.12451296299695969,-0.11162742972373962,15.649858474731445,-0.7539413317137704,-0.07349852163060056,-0.4480406567454337,0.32929121997828276
0.13480718433856964,-0.12553343176841736,15.650378227233887,-0.7539413317137704,-0.07349852163060056,-0.4480406567454337,0.32929121997828276
0.12659047544002533,-0.11205810308456421,15.651007652282715,-0.7539413317137704,-0.07349852163060056,-0.4480406567454337,0.32929121997828276
0.11683210730552673,-0.1128334328532219,15.651774406433105,-0.7539413317137704,-0.07349852163060056,-0.4480406567454337,0.32929121997828276
0.13549457490444183,-0.1250784546136856,15.651078224182129,-0.7539413317137704,-0.07349852163060056,-0.4480406567454337,0.32929121997828276
0.11745201051235199,-0.11270014196634293,15.651134490966797,-0.7539413317137704,-0.07349852163060056,-0.4480406567454337,0.32929121997828276
0.1346408575773239,-0.1150684654712677,15.651339530944824,-0.7539413317137704,-0.07349852163060056,-0.4480406567454337,0.32929121997828276
0.14000733196735382,-0.12366150319576263,15.65102481842041,-0.7539413317137704,-0.07349852163060056,-0.4480406567454337,0.32929121997828276
0.12687471508979797,-0.12133349478244781,15.652032852172852,-0.7539413317137704,-0.07349852163060056,-0.4480406567454337,0.32929121997828276
0.12331483513116837,-0.11142031103372574,15.65117359161377,-0.7539413317137704,-0.07349852163060056,-0.4480406567454337,0.32929121997828276
0.1231849193572998,-0.10732626914978027,15.650550842285156,-0.7539413317137704,-0.07349852163060056,-0.4480406567454337,0.32929121997828276
0.11869966983795166,-0.11318670958280563,15.649961471557617,-0.7539413317137704,-0.07349852163060056,-0.4480406567454337,0.32929121997828276
0.1416473686695099,-0.1103987917304039,15.6505708694458,-0.7613905963374091,-0.06802586140188704,-0.44587109809120484,0.32742800746733935
0.15098249912261963,-0.11747818440198898,15.650113105773926,-0.7688014597869992,-0.06258455273410725,-0.44343251585960375,0.32552903266623606
0.4742073714733124,0.16070683300495148,15.665946006774902,-0.7761485857547568,-0.05715606686685033,-0.43822260027130433,0.32588927140459406
1.88082754611969,-0.0547054186463356,15.666172981262207,-0.783288751667779,-0.051717217800776635,-0.41859730929136263,0.3267726165242492
2.542768955230713,1.248755931854248,15.792763710021973,-0.7899581792878191,-0.046188087350844155,-0.3817340051134426,0.3367230374676485
2.3343496322631836,0.4724835753440857,15.82691478729248,-0.7959817239155783,-0.04045650620505013,-0.3410913502176601,0.35106670002763457
1.9976595640182495,-0.7054463624954224,15.557846069335938,-0.8013657457805753,-0.034621572509252845,-0.3049912735819815,0.3491253434680401
1.7955451011657715,0.10868149250745773,15.554475784301758,-0.8061855166829706,-0.028844258789645784,-0.273381234705448,0.344152302884807
1.0761518478393555,1.8197941780090332,15.742981910705566,-0.8105424471954915,-0.022974465153335354,-0.24945042679707194,0.36022293347244444
2.122807025909424,0,15.926483154296875,-0.8144778043869879,-0.01684437499976621,-0.22279243618249878,0.37538788495585307
1.4432023763656616,0.7058899402618408,16.164627075195312,-0.8179433721148716,-0.010538890115761586,-0.19307569116353973,0.3812703011247017
1.5826886892318726,-0.42495906352996826,16.219482421875,-0.8209511689769308,-0.004164876008354621,-0.16785993228356028,0.383611391764134
0.6214749813079834,-0.6692776083946228,16.235471725463867,-0.8235957675934248,0.002152658529941737,-0.14949190169572815,0.3744927528314291
1.445083498954773,0.6646533012390137,16.218652725219727,-0.8259437882827798,0.008393883278024193,-0.13227058102687184,0.37445421693846564
0.9554301500320435,0.7621561884880066,16.092138290405273,-0.8279815956298258,0.01473387088600744,-0.11226630061864837,0.38634429601952414
0.9457626342773438,0.13703127205371857,15.869756698608398,-0.8297206733634485,0.021235386059981574,-0.09642302741607015,0.39383752485737183
1.2480387687683105,-0.14616820216178894,15.729522705078125,-0.831175376500727,0.027798710298569153,-0.07814134905735635,0.3937613837731379
1.157923936843872,1.163392424583435,15.690666198730469,-0.8323106515749044,0.03443204059912296,-0.0580916598439215,0.4022382522933183
0.7372005581855774,0.31412625312805176,15.818106651306152,-0.833147240037926,0.04123861693440822,-0.04229895571867609,0.414550907940914
0.7027258276939392,-0.7269893288612366,15.848328590393066,-0.8337522277453289,0.04811912768649754,-0.03029956916968012,0.4111103823098041
0.4592062830924988,-0.413370817899704,15.902579307556152,-0.8341765308349078,0.05489177571480254,-0.020616801579793134,0.4016073810867963
0.5779938101768494,0.42220479249954224,15.924964904785156,-0.8344481164103162,0.06158584553670747,-0.011973467469215232,0.4016809975417949
0.5200314521789551,0.9670166373252869,15.93193531036377,-0.8345714224471396,0.06837700253947522,-0.0028232569495835295,0.4132578427903352
0.4060995578765869,-1.3384449481964111,15.883164405822754,-0.8345541620761565,0.0752388396199481,0.004894501467545987,0.41016260686640915
0.23698361217975616,0.09621140360832214,15.869538307189941,-0.8344279284982212,0.08198861684934741,0.01025352788468218,0.3998106606615084
1.4609453678131104,0.7005855441093445,15.848255157470703,-0.8341391246320882,0.08870746098174183,0.024402936051289403,0.40645063522582225
0.8373255729675293,-0.9133196473121643,15.94729995727539,-0.8335728068825681,0.09546686503389423,0.043555193891128066,0.4046778510324654
-1.0133246183395386,0.5518943071365356,16.07261085510254,-0.8328591091403112,0.10218639690247869,0.04208853517969466,0.4016659731976685
0.7558388710021973,0.2308986485004425,16.168317794799805,-0.8321755145086592,0.10893519041102573,0.039942820618550146,0.40818924782797666
0.800019383430481,-0.2932162880897522,16.182357788085938,-0.83140175511957,0.11573401692763163,0.0529083060721558,0.4076699341647324
0.7035462260246277,-0.28850293159484863,16.30036735534668,-0.8304155357399331,0.12248811866234352,0.0654380194842817,0.4028222740006941
0.6763740181922913,-0.4384593069553375,16.397911071777344,-0.8292290742871244,0.12915133974023355,0.07693735485275602,0.3967642553461092
-0.09744670242071152,0.3510499596595764,16.31153106689453,-0.8279065817537611,0.13575800723577316,0.08176174915085252,0.3960358441186445
0.7192243933677673,0.24163243174552917,16.18871307373047,-0.8265007069282645,0.14239976313715372,0.08694322990874465,0.4009748640470204
0.45260733366012573,-0.49891266226768494,16.07208824157715,-0.8249702758931863,0.14906481085526224,0.09670849430064375,0.3988308621260024
0.41761285066604614,-0.2984364330768585,15.965723991394043,-0.8232980356975973,0.15565662042574113,0.10396032917002852,0.3921862863314645
-0.7002754211425781,0.9799765944480896,15.929619789123535,-0.8215849928899355,0.16224038770913854,0.10160480774939076,0.39786578767622477
-0.10668487101793289,-0.4095079302787781,15.941404342651367,-0.8199476183366234,0.16891110004986515,0.09488013864805317,0.402619693210969
1.9778845310211182,-1.0940394401550293,15.981228828430176,-0.8182363382716556,0.17551701525821228,0.1104734691480797,0.3900901317906873
-0.27175673842430115,0.8226099014282227,16.098278045654297,-0.8162766326891462,0.18199966818120106,0.12469120075305318,0.38782821896796393
0.7445434927940369,-0.46543076634407043,16.008983612060547,-0.8141656135964307,0.1884882759372702,0.128631090372801,0.3908047117603319
-0.09750808775424957,0.389750599861145,15.759857177734375,-0.8119768290759785,0.1949964322328255,0.1340230520814659,0.3901740437063075
-0.18622371554374695,0.38832229375839233,15.63322925567627,-0.8097628151387386,0.20155336580109864,0.13165862038731593,0.39665798448647027
0.7814288139343262,0.6088953614234924,15.560660362243652,-0.8075271711115618,0.20823358343526077,0.1366186628739041,0.404968131612986
0.682934582233429,-0.27614980936050415,15.630410194396973,-0.8051485014944851,0.21500615962548159,0.14882169117530206,0.4077410112135109
-0.082621730864048,-1.1147645711898804,15.671359062194824,-0.8026264515824406,0.22170525186927967,0.1538242982700469,0.3961500580422577
0.5002743005752563,0.4516143500804901,15.65570068359375,-0.8000337096272654,0.22826170073796248,0.15730473635097364,0.39062380619967946
-0.36611253023147583,-0.5353230237960815,15.528677940368652,-0.7974026472318086,0.23476628440561578,0.15842275110383847,0.38992623391871617
-0.44068047404289246,-1.4786767959594727,15.492697715759277,-0.7948182953387082,0.24112519387233358,0.15169947606821874,0.3731429020874199
1.2511485815048218,2.2973992824554443,15.49864673614502,-0.7922336882301085,0.24740109796868615,0.15845337696373482,0.37996558947488634
0.33250948786735535,-1.4365988969802856,15.513805389404297,-0.7894828223592287,0.2537936355978145,0.1716505275418363,0.38713892602051264
-1.8425427675247192,0.8024505972862244,15.57816219329834,-0.7867268436557299,0.26020191295512207,0.15906691687802493,0.38185435685639546
1.2777403593063354,0.3165840208530426,15.671875953674316,-0.784114950763889,0.2666438629734328,0.15436023014287173,0.39117964534088934
-0.22819656133651733,-1.8358997106552124,15.694278717041016,-0.7814693952755377,0.27305801569510024,0.16310642845928688,0.37851868125920457
-0.07836025208234787,-0.23406437039375305,15.705552101135254,-0.7787722434688148,0.27922291287712525,0.160551788347463,0.36126898058379653
0.6730961799621582,0,15.62039852142334,-0.7760550792235876,0.2852278080833556,0.16550792107979476,0.35931844416384856
0.4712553918361664,0.569252610206604,15.53016471862793,-0.773217145013105,0.2912559802506841,0.17504418417811413,0.36406221591557025
0.3837180435657501,-0.06683190912008286,15.426101684570312,-0.7702403687882335,0.2973585741757413,0.18216896280646344,0.36824905509129124
-0.4594172239303589,-0.5569521188735962,15.331978797912598,-0.7672094762956512,0.3034527400919855,0.18153813630342502,0.3630508548580106
-0.5071117281913757,0.8586327433586121,15.341902732849121,-0.7642509607567136,0.3095245377163193,0.17348372836907724,0.3655648600620524
0.06502923369407654,-0.6050075888633728,15.414695739746094,-0.7613902654571246,0.3156348982419713,0.16979970758159976,0.3676784030161794
2.2654054164886475,-1.9702513217926025,15.605264663696289,-0.7583984345911686,0.32158403420122317,0.18921999633312248,0.34621791209404623
-0.9731981158256531,0.21629785001277924,15.707450866699219,-0.7551550313675149,0.3272325304116948,0.19998839050531408,0.3316016331625477
-0.36617517471313477,0.7032362818717957,15.58045768737793,-0.7551550313675149,0.3272325304116948,0.19998839050531408,0.3316016331625477
0.13200066983699799,1.7684258222579956,15.305760383605957,-0.7551550313675149,0.3272325304116948,0.19998839050531408,0.3316016331625477
-0.3800077438354492,-0.9145519733428955,15.16770076751709,-0.7551550313675149,0.3272325304116948,0.19998839050531408,0.3316016331625477
0.025576287880539894,0.33015313744544983,15.1661958694458,-0.7551550313675149,0.3272325304116948,0.19998839050531408,0.3316016331625477
-2.72115421295166,-1.229677438735962,14.877448081970215,-0.7551550313675149,0.3272325304116948,0.19998839050531408,0.3316016331625477
-2.4345602989196777,-1.4204102754592896,14.262375831604004,-0.7551550313675149,0.3272325304116948,0.19998839050531408,0.3316016331625477
-1.4269638061523438,-1.1676040887832642,13.478801727294922,-0.7551550313675149,0.3272325304116948,0.19998839050531408,0.3316016331625477
-2.8766324520111084,-0.7786865234375,12.358777046203613,-0.7551550313675149,0.3272325304116948,0.19998839050531408,0.3316016331625477
-1.7597330808639526,-1.077864170074463,10.934313774108887,-0.7551550313675149,0.3272325304116948,0.19998839050531408,0.3316016331625477
-2.246166467666626,-0.8277493119239807,9.307168006896973,-0.7551550313675149,0.3272325304116948,0.19998839050531408,0.3316016331625477
-2.2034406661987305,-1.2292089462280273,7.474289894104004,-0.7551550313675149,0.3272325304116948,0.19998839050531408,0.3316016331625477
-1.9981812238693237,0.039445389062166214,5.516520023345947,-0.7551550313675149,0.3272325304116948,0.19998839050531408,0.3316016331625477
-0.2637985348701477,-1.0963759422302246,3.4744489192962646,-0.7551550313675149,0.3272325304116948,0.19998839050531408,0.3316016331625477
-0.853590726852417,-0.41509324312210083,1.3832803964614868,-0.7551550313675149,0.3272325304116948,0.19998839050531408,0.3316016331625477
-1.5573616027832031,0.32831016182899475,-0.7797868847846985,-0.7551550313675149,0.3272325304116948,0.19998839050531408,0.3316016331625477
-0.8923837542533875,-1.6898839473724365,-2.9326274394989014,-0.7551550313675149,0.3272325304116948,0.19998839050531408,0.3316016331625477
-0.9859390258789062,-0.19912153482437134,-5.167634010314941,-0.7551550313675149,0.3272325304116948,0.19998839050531408,0.3316016331625477
-1.8339399099349976,-0.3344050347805023,-7.455535888671875,-0.7551550313675149,0.3272325304116948,0.19998839050531408,0.3316016331625477
-0.6398473381996155,-1.298166275024414,-9.786737442016602,-0.7551550313675149,0.3272325304116948,0.19998839050531408,0.3316016331625477
0.08330173045396805,-0.00023203439195640385,-12.045060157775879,-0.7551550313675149,0.3272325304116948,0.19998839050531408,0.3316016331625477
-1.099609136581421,-1.162280559539795,-14.361099243164062,-0.7551550313675149,0.3272325304116948,0.19998839050531408,0.3316016331625477
-0.505124568939209,-0.49159786105155945,-16.737367630004883,-0.7551550313675149,0.3272325304116948,0.19998839050531408,0.3316016331625477
-1.3148056268692017,0.6618926525115967,-19.211217880249023,-0.7551550313675149,0.3272325304116948,0.19998839050531408,0.3316016331625477
-1.1017463207244873,-1.3530895709991455,-21.80486488342285,-0.7551550313675149,0.3272325304116948,0.19998839050531408,0.3316016331625477
-0.8397807478904724,0.06219775974750519,-24.335559844970703,-0.7551550313675149,0.3272325304116948,0.19998839050531408,0.3316016331625477
-0.7552046179771423,-1.0189317464828491,-26.91661834716797,-0.7551550313675149,0.3272325304116948,0.19998839050531408,0.3316016331625477
-0.6362151503562927,-1.2566792964935303,-29.49746322631836,-0.7551550313675149,0.3272325304116948,0.19998839050531408,0.3316016331625477
-0.5341586470603943,0.06663873046636581,-32.11375427246094,-0.7551550313675149,0.3272325304116948,0.19998839050531408,0.3316016331625477
-1.1083807945251465,0.42032667994499207,-34.78026580810547,-0.7551550313675149,0.3272325304116948,0.19998839050531408,0.3316016331625477
-0.8032800555229187,-1.3715206384658813,-37.43888854980469,-0.7551550313675149,0.3272325304116948,0.19998839050531408,0.3316016331625477
0.0239587239921093,0.7411606907844543,-40.08467483520508,-0.7551550313675149,0.3272325304116948,0.19998839050531408,0.3316016331625477
-1.3646351099014282,-0.8017731308937073,-42.74231719970703,-0.7551550313675149,0.3272325304116948,0.19998839050531408,0.3316016331625477
0.20222224295139313,0.9391952753067017,-45.46009063720703,-0.7551550313675149,0.3272325304116948,0.19998839050531408,0.3316016331625477
-1.1890205144882202,-1.3699047565460205,-48.0507926940918,-0.7551550313675149,0.3272325304116948,0.19998839050531408,0.3316016331625477
-0.3095896244049072,1.2703098058700562,-50.70796585083008,-0.7551550313675149,0.3272325304116948,0.19998839050531408,0.3316016331625477
-1.4556167125701904,-1.8397573232650757,-53.26960372924805,-0.7551550313675149,0.3272325304116948,0.19998839050531408,0.3316016331625477
0.708579421043396,1.233520746231079,-55.88620376586914,-0.7551550313675149,0.3272325304116948,0.19998839050531408,0.3316016331625477
-0.5440681576728821,0.41847631335258484,-58.55207061767578,-0.7551550313675149,0.3272325304116948,0.19998839050531408,0.3316016331625477
-0.19796238839626312,1.2439148426055908,-61.303462982177734,-0.7551550313675149,0.3272325304116948,0.19998839050531408,0.3316016331625477
-0.8210197687149048,-1.1749638319015503,-64.02802276611328,-0.7551550313675149,0.3272325304116948,0.19998839050531408,0.3316016331625477
0.2063021957874298,0.7727366089820862,-66.77794647216797,-0.7551550313675149,0.3272325304116948,0.19998839050531408,0.3316016331625477
-0.019335567951202393,0.8396105170249939,-69.2028579711914,-0.7551550313675149,0.3272325304116948,0.19998839050531408,0.3316016331625477
0.6925554871559143,0.06177954003214836,-71.13279724121094,-0.7551550313675149,0.3272325304116948,0.19998839050531408,0.3316016331625477
2.26960825920105,-0.12675738334655762,-72.6729507446289,-0.7551550313675149,0.3272325304116948,0.19998839050531408,0.3316016331625477
0.8290871977806091,0.045691218227148056,-73.72872161865234,-0.7551550313675149,0.3272325304116948,0.19998839050531408,0.3316016331625477
2.4930267333984375,-0.662085235118866,-74.363037109375,-0.7551550313675149,0.3272325304116948,0.19998839050531408,0.3316016331625477
1.1557896137237549,-0.03200424090027809,-74.65595245361328,-0.7551550313675149,0.3272325304116948,0.19998839050531408,0.3316016331625477
0.5939908623695374,-0.30383339524269104,-74.55621337890625,-0.7551550313675149,0.3272325304116948,0.19998839050531408,0.3316016331625477
-0.823042631149292,0.5624517798423767,-74.51163482666016,-0.7551550313675149,0.3272325304116948,0.19998839050531408,0.3316016331625477
0.020100709050893784,0.32048487663269043,-74.5903549194336,-0.7551550313675149,0.3272325304116948,0.19998839050531408,0.3316016331625477
-0.3814305365085602,0.040091078728437424,-74.533447265625,-0.7551550313675149,0.3272325304116948,0.19998839050531408,0.3316016331625477
0.16065466403961182,-0.14848488569259644,-74.53939056396484,-0.7551550313675149,0.3272325304116948,0.19998839050531408,0.3316016331625477
-0.15892687439918518,-0.5302129983901978,-74.54957580566406,-0.7551550313675149,0.3272325304116948,0.19998839050531408,0.3316016331625477
0.09605717658996582,-0.3962959945201874,-74.52935791015625,-0.7551550313675149,0.3272325304116948,0.19998839050531408,0.3316016331625477
-0.05973808467388153,-0.17298036813735962,-74.5440902709961,-0.7551550313675149,0.3272325304116948,0.19998839050531408,0.3316016331625477
-0.16215889155864716,-0.007379748392850161,-74.54291534423828,-0.7551550313675149,0.3272325304116948,0.19998839050531408,0.3316016331625477
-0.10499533265829086,0.12036211788654327,-74.54191589355469,-0.7551550313675149,0.3272325304116948,0.19998839050531408,0.3316016331625477
-0.14554058015346527,-0.04732671007514,-74.54606628417969,-0.7551550313675149,0.3272325304116948,0.19998839050531408,0.3316016331625477
-0.05328540503978729,-0.1689339280128479,-74.53931427001953,-0.7551550313675149,0.3272325304116948,0.19998839050531408,0.3316016331625477
-0.049086302518844604,-0.2396882027387619,-74.54240417480469,-0.7551550313675149,0.3272325304116948,0.19998839050531408,0.3316016331625477
-0.07619118690490723,-0.18995627760887146,-74.54060363769531,-0.7551550313675149,0.3272325304116948,0.19998839050531408,0.3316016331625477
-0.08941216766834259,-0.0835493728518486,-74.54216766357422,-0.7551550313675149,0.3272325304116948,0.19998839050531408,0.3316016331625477
-0.11802439391613007,-0.041773539036512375,-74.54389190673828,-0.7551550313675149,0.3272325304116948,0.19998839050531408,0.3316016331625477
-0.08306726813316345,-0.08858705312013626,-74.54206085205078,-0.7551550313675149,0.3272325304116948,0.19998839050531408,0.3316016331625477
-0.0833321213722229,-0.16022266447544098,-74.54342651367188,-0.7551550313675149,0.3272325304116948,0.19998839050531408,0.3316016331625477
-0.06799842417240143,-0.16771960258483887,-74.54412841796875,-0.7551550313675149,0.3272325304116948,0.19998839050531408,0.3316016331625477
-0.07380835711956024,-0.12263455986976624,-74.54452514648438,-0.7551550313675149,0.3272325304116948,0.19998839050531408,0.3316016331625477
-0.09995988011360168,-0.09898300468921661,-74.54442596435547,-0.7551550313675149,0.3272325304116948,0.19998839050531408,0.3316016331625477
-0.09636982530355453,-0.09530516713857651,-74.5428466796875,-0.7551550313675149,0.3272325304116948,0.19998839050531408,0.3316016331625477
-0.0926743820309639,-0.14036792516708374,-74.5430908203125,-0.7551550313675149,0.3272325304116948,0.19998839050531408,0.3316016331625477
-0.0720532089471817,-0.14317572116851807,-74.5424575805664,-0.7551550313675149,0.3272325304116948,0.19998839050531408,0.3316016331625477
-0.07735041528940201,-0.1271703988313675,-74.54332733154297,-0.7551550313675149,0.3272325304116948,0.19998839050531408,0.3316016331625477
-0.09089043736457825,-0.10349609702825546,-74.54306030273438,-0.7551550313675149,0.3272325304116948,0.19998839050531408,0.3316016331625477
-0.08193059265613556,-0.10278929024934769,-74.54354858398438,-0.7551550313675149,0.3272325304116948,0.19998839050531408,0.3316016331625477
-0.07646333426237106,-0.11900204420089722,-74.54286193847656,-0.7551550313675149,0.3272325304116948,0.19998839050531408,0.3316016331625477
-0.08432725071907043,-0.13513155281543732,-74.54283905029297,-0.7551550313675149,0.3272325304116948,0.19998839050531408,0.3316016331625477
-0.0827472060918808,-0.12425361573696136,-74.54286193847656,-0.7551550313675149,0.3272325304116948,0.19998839050531408,0.3316016331625477
-0.07980278879404068,-0.11829753965139389,-74.54239654541016,-0.7551550313675149,0.3272325304116948,0.19998839050531408,0.3316016331625477
-0.08521881699562073,-0.10290370136499405,-74.54292297363281,-0.7551550313675149,0.3272325304116948,0.19998839050531408,0.3316016331625477
-0.08849608898162842,-0.12356150895357132,-74.54280853271484,-0.7551550313675149,0.3272325304116948,0.19998839050531408,0.3316016331625477
-0.08794121444225311,-0.1289243996143341,-74.54157257080078,-0.7551550313675149,0.3272325304116948,0.19998839050531408,0.3316016331625477
-0.0823543518781662,-0.12856413424015045,-74.5408706665039,-0.7551550313675149,0.3272325304116948,0.19998839050531408,0.3316016331625477
-0.08711189031600952,-0.11777757853269577,-74.54100799560547,-0.7551550313675149,0.3272325304116948,0.19998839050531408,0.3316016331625477
-0.08503877371549606,-0.11422190815210342,-74.54176330566406,-0.7551550313675149,0.3272325304116948,0.19998839050531408,0.3316016331625477
-0.09103459864854813,-0.10902119427919388,-74.5429916381836,-0.7551550313675149,0.3272325304116948,0.19998839050531408,0.3316016331625477
-0.08411559462547302,-0.1271173506975174,-74.5441665649414,-0.7551550313675149,0.3272325304116948,0.19998839050531408,0.3316016331625477
-0.08234771341085434,-0.1337897926568985,-74.5446548461914,-0.7551550313675149,0.3272325304116948,0.19998839050531408,0.3316016331625477
-0.08363693952560425,-0.11835101991891861,-74.54425811767578,-0.7551550313675149,0.3272325304116948,0.19998839050531408,0.3316016331625477
-0.09252168983221054,-0.11392708867788315,-74.54387664794922,-0.7551550313675149,0.3272325304116948,0.19998839050531408,0.3316016331625477
-0.07924811542034149,-0.10880549252033234,-74.54310607910156,-0.7551550313675149,0.3272325304116948,0.19998839050531408,0.3316016331625477
-0.09262866526842117,-0.12123604118824005,-74.54331970214844,-0.7551550313675149,0.3272325304116948,0.19998839050531408,0.3316016331625477
-0.08443371206521988,-0.11076438426971436,-74.54354095458984,-0.7551550313675149,0.3272325304116948,0.19998839050531408,0.3316016331625477
-0.08830995112657547,-0.12076860666275024,-74.54204559326172,-0.7551550313675149,0.3272325304116948,0.19998839050531408,0.3316016331625477
-0.0913969874382019,-0.10505607724189758,-74.5410385131836,-0.7551550313675149,0.3272325304116948,0.19998839050531408,0.3316016331625477
-0.08559736609458923,-0.11887427419424057,-74.54241180419922,-0.7551550313675149,0.3272325304116948,0.19998839050531408,0.3316016331625477
-0.0916968360543251,-0.11274080723524094,-74.54178619384766,-0.7551550313675149,0.3272325304116948,0.19998839050531408,0.3316016331625477
-0.08075845241546631,-0.12627394497394562,-74.54122924804688,-0.7551550313675149,0.3272325304116948,0.19998839050531408,0.3316016331625477
-0.07378555089235306,-0.11698918044567108,-74.54100036621094,-0.7551550313675149,0.3272325304116948,0.19998839050531408,0.3316016331625477
-0.09353841841220856,-0.11217999458312988,-74.5389175415039,-0.7551550313675149,0.3272325304116948,0.19998839050531408,0.3316016331625477
-0.0866156741976738,-0.11444876343011856,-74.53868103027344,-0.7551550313675149,0.3272325304116948,0.19998839050531408,0.3316016331625477
-0.08562466502189636,-0.11496859788894653,-74.53834533691406,-0.7551550313675149,0.3272325304116948,0.19998839050531408,0.3316016331625477
-0.0960005596280098,-0.114174485206604,-74.53787231445312,-0.7551550313675149,0.3272325304116948,0.19998839050531408,0.3316016331625477
-0.08561031520366669,-0.12318357825279236,-74.53852081298828,-0.7551550313675149,0.3272325304116948,0.19998839050531408,0.3316016331625477
-0.08286290615797043,-0.12095905095338821,-74.5387191772461,-0.7551550313675149,0.3272325304116948,0.19998839050531408,0.3316016331625477
-0.0966300293803215,-0.12228952348232269,-74.53843688964844,-0.7551550313675149,0.3272325304116948,0.19998839050531408,0.3316016331625477
-0.0909704715013504,-0.10930385440587997,-74.53794860839844,-0.7551550313675149,0.3272325304116948,0.19998839050531408,0.3316016331625477
-0.09369223564863205,-0.111396923661232,-74.53838348388672,-0.7551550313675149,0.3272325304116948,0.19998839050531408,0.3316016331625477
-0.10090179741382599,-0.11954541504383087,-74.53845977783203,-0.7551550313675149,0.3272325304116948,0.19998839050531408,0.3316016331625477
-0.0764106884598732,-0.11831394582986832,-74.53825378417969,-0.7551550313675149,0.3272325304116948,0.19998839050531408,0.3316016331625477
-0.09442654997110367,-0.09757691621780396,-74.53749084472656,-0.7551550313675149,0.3272325304116948,0.19998839050531408,0.3316016331625477
-0.09964786469936371,-0.10825289040803909,-74.53606414794922,-0.7551550313675149,0.3272325304116948,0.19998839050531408,0.3316016331625477
-0.09922733157873154,-0.12939929962158203,-74.53595733642578,-0.7551550313675149,0.3272325304116948,0.19998839050531408,0.3316016331625477
-0.08307676762342453,-0.10620605945587158,-74.5361099243164,-0.7551550313675149,0.3272325304116948,0.19998839050531408,0.3316016331625477
-0.08256509900093079,-0.1185135543346405,-74.53587341308594,-0.7551550313675149,0.3272325304116948,0.19998839050531408,0.3316016331625477
-0.09206993132829666,-0.11767866462469101,-74.5361099243164,-0.7551550313675149,0.3272325304116948,0.19998839050531408,0.3316016331625477
-0.07934388518333435,-0.10074582695960999,-74.53700256347656,-0.7551550313675149,0.3272325304116948,0.19998839050531408,0.3316016331625477
-0.08727637678384781,-0.11127731204032898,-74.53628540039062,-0.7551550313675149,0.3272325304116948,0.19998839050531408,0.3316016331625477
-0.08735314011573792,-0.10585813969373703,-74.5361099243164,-0.7551550313675149,0.3272325304116948,0.19998839050531408,0.3316016331625477
-0.09484522044658661,-0.10956232249736786,-74.53734588623047,-0.7551550313675149,0.3272325304116948,0.19998839050531408,0.3316016331625477
-0.09113635122776031,-0.11387818306684494,-74.53656005859375,-0.7551550313675149,0.3272325304116948,0.19998839050531408,0.3316016331625477
-0.1021241843700409,-0.09920988976955414,-74.5377426147461,-0.7551550313675149,0.3272325304116948,0.19998839050531408,0.3316016331625477
-0.0806049033999443,-0.10630246996879578,-74.53878784179688,-0.7551550313675149,0.3272325304116948,0.19998839050531408,0.3316016331625477
-0.07609927654266357,-0.10478820651769638,-74.53779602050781,-0.7551550313675149,0.3272325304116948,0.19998839050531408,0.3316016331625477
-0.09352104365825653,-0.10671476274728775,-74.53744506835938,-0.7551550313675149,0.3272325304116948,0.19998839050531408,0.3316016331625477
-0.10519362986087799,-0.11530424654483795,-74.5379409790039,-0.7551550313675149,0.3272325304116948,0.19998839050531408,0.3316016331625477
-0.0723888948559761,-0.09758982062339783,-74.53778839111328,-0.7551550313675149,0.3272325304116948,0.19998839050531408,0.3316016331625477
-0.09316351264715195,-0.09796217083930969,-74.53813934326172,-0.7551550313675149,0.3272325304116948,0.19998839050531408,0.3316016331625477
-0.09479057788848877,-0.12739573419094086,-74.53813934326172,-0.7551550313675149,0.3272325304116948,0.19998839050531408,0.3316016331625477
-0.0900433287024498,-0.11966097354888916,-74.53789520263672,-0.7518347272137174,0.332742067581922,0.19844810795038959,0.3295428272647158
-0.10110466927289963,-0.13419857621192932,-74.5371322631836,-0.7485405329144036,0.33821681890093386,0.19685520796726166,0.32742733101670896
0.2078225165605545,-0.4065055549144745,-74.53662109375,-0.7452522018199987,0.3436363921865508,0.19774452336132545,0.32292146325732224
0,-1.8930377960205078,-74.49229431152344,-0.741942027644771,0.3488587260636912,0.19947637766599674,0.3037586019995307
1.541300892829895,-2.9413256645202637,-74.34996032714844,-0.7385103865661135,0.3535856497455903,0.21232055177291254,0.2634722398283576
-0.35982632637023926,-1.8580776453018188,-74.32074737548828,-0.7348896638583385,0.3576435618462142,0.22216617316007634,0.2234772122465069
-0.32343265414237976,-1.5410678386688232,-74.49687957763672,-0.731234342845984,0.3611321302806025,0.21647234832247117,0.19515099988008489
0.8577691316604614,-1.0699721574783325,-74.66027069091797,-0.7275893636741152,0.3642033247233159,0.22092515230178852,0.17339233324552525
0.2835869789123535,-1.1902879476547241,-74.64913940429688,-0.7238280169614068,0.36693623443677376,0.23043645322322864,0.15455683236941645
0.7678186297416687,-0.9813310503959656,-74.5840072631836,-0.7199143951293075,0.3693613747680661,0.23919816662867882,0.1364600073856607
0.4534534513950348,-1.4078524112701416,-74.6021957397461,-0.7158429484576395,0.3714697927063225,0.24937543397148468,0.1165501452051098
-0.3086341917514801,-2.4307689666748047,-74.47974395751953,-0.7116766343317507,0.37314572419738373,0.25058226113518095,0.08456163372223524
0.10448811948299408,-1.1326422691345215,-74.36099243164062,-0.7075144401234051,0.3743076256458231,0.2488810438662769,0.054866540090490856
0.266286164522171,-0.21082442998886108,-74.33831787109375,-0.7033406745114669,0.3751287716821144,0.25197082956631994,0.04367098426446267
0.11785580962896347,-1.626330018043518,-74.33293151855469,-0.6991144841593788,0.3757290412498532,0.25517201268424605,0.028361363864192843
0.24144573509693146,-0.9110554456710815,-74.19805145263672,-0.6948366657851466,0.37602552332372063,0.2581661922236285,0.007216484999904512
0.6869751811027527,-1.2930920124053955,-74.25440216064453,-0.6904694222400167,0.37599273227801927,0.26590303319195924,-0.011151410484066131
-0.4919572174549103,-1.386888861656189,-74.34364318847656,-0.6860241621060086,0.37562076565369723,0.2675281828890246,-0.033484584434579336
0.08890368789434433,-1.1627962589263916,-74.27564239501953,-0.6815933488862999,0.3748856277797471,0.26416940347601986,-0.05473196043943417
0.8001490831375122,-0.42427709698677063,-74.2989273071289,-0.6771287857192667,0.3738632150115959,0.271578176567952,-0.06795757173871053
-0.1249404326081276,-0.9446701407432556,-74.21088409423828,-0.6725555932868474,0.3726355230355528,0.2772049153223636,-0.07936546538646075
-0.5209956765174866,-0.06483902782201767,-74.16497039794922,-0.6679803680390529,0.37124266047573923,0.2718221144129835,-0.08777804179117135
-0.08473637700080872,-1.2723101377487183,-74.19149017333984,-0.6634920641914419,0.36968683553161064,0.266774347300331,-0.09892095150426082
0.568810224533081,-0.36537665128707886,-74.27481079101562,-0.6590122088303577,0.367924424757301,0.2708082960297666,-0.11256834141289246
0.20556706190109253,-0.7230552434921265,-74.3574447631836,-0.6544449610294147,0.36597270018550426,0.2772614400833847,-0.12163860720271917
-0.12431365996599197,-1.3655942678451538,-74.4342269897461,-0.6498182944306684,0.36380034496050495,0.2779385517661772,-0.1390440197971965
0.46689459681510925,0.25010502338409424,-74.42513275146484,-0.6451621948917287,0.3614054800996863,0.2807933929065865,-0.14833976350103867
-0.32998356223106384,-0.6378224492073059,-74.37059783935547,-0.6404727972992172,0.35890622588676463,0.28193431819478687,-0.15157074204956544
-1.172369122505188,-0.649172842502594,-74.38755798339844,-0.635878222043522,0.3562906721795698,0.26941471248865145,-0.1622957028138146
0.5964899063110352,-0.3246525824069977,-74.41731262207031,-0.6314279684476135,0.3535181170337208,0.26461571902036685,-0.17041091468806122
1.0931648015975952,-0.4811069369316101,-74.34459686279297,-0.6269003693314471,0.35062197960007685,0.2786961749196054,-0.17712557734921627
0.38549375534057617,-1.0921077728271484,-74.3708267211914,-0.6221527484607774,0.34756063562274553,0.29101832956075685,-0.19023569993053926
0.29539361596107483,0.45809468626976013,-74.46443939208984,-0.6172551591228689,0.3443460119373367,0.2966923909882706,-0.1955191423185175
-0.5431733131408691,-0.9258254766464233,-74.56819915771484,-0.6123274928631462,0.34105487826047415,0.294627560178439,-0.1994168989049897
-0.4143211543560028,-0.24177385866641998,-74.64521026611328,-0.6074835261981929,0.33765017999154984,0.2866484396159651,-0.20914689336593006
0,-0.07825053483247757,-74.72040557861328,-0.6027348245069793,0.3341421745192358,0.28319576332966506,-0.21181376331175422
0.9885621666908264,-0.27260711789131165,-74.77326202392578,-0.597946244967687,0.3305875800159341,0.291433781385422,-0.21473757708445246
-0.22920584678649902,0.12412054091691971,-74.7589111328125,-0.5930362822001588,0.3269983088300144,0.297761750717958,-0.21597496522590573
-1.3282979726791382,-0.1852002888917923,-74.7326889038086,-0.5881817463423223,0.3233944844270844,0.28478255222241106,-0.21648396312569634
-0.2168337106704712,-0.45957913994789124,-74.6767807006836,-0.5835426712832925,0.3197416420257645,0.2719064548611643,-0.2218571250326937
-0.14141272008419037,-0.1931254267692566,-74.66556549072266,-0.5790357752599644,0.3159986965691976,0.2689210679382088,-0.2272963297553366
-0.3987376391887665,-0.6905277967453003,-74.63565063476562,-0.5745912679026104,0.31214905959942013,0.2644198149442675,-0.2346601066179579
-0.6493108868598938,-1.0288200378417969,-74.56512451171875,-0.5702570521345148,0.3081186586672745,0.25568607722719533,-0.24898800523951703
1.3009734153747559,0.3478202521800995,-74.52635192871094,-0.5659503631718036,0.30392156692816713,0.26111659829815254,-0.2546630034533645
0.26151272654533386,-0.07358986139297485,-74.55902099609375,-0.5614899138847566,0.2996962273144157,0.2741373161474866,-0.25237775019680514
-0.0639369860291481,0,-74.5318374633789,-0.556907238078096,0.29548482107076113,0.27578378065178816,-0.2529909990417466
-0.34796440601348877,0,-74.50927734375,-0.5523394459972357,0.29126830442006535,0.27235126905143286,-0.2529909990417466
-0.8312355279922485,0,-74.48072814941406,-0.5478821470640178,0.28705178776936957,0.2625246029347184,-0.2529909990417466
0.46625614166259766,-0.8205583095550537,-74.54524230957031,-0.5435320828058232,0.28277828790273246,0.259483108048638,-0.25982898495470536
1.0650484561920166,-1.072085976600647,-74.57064819335938,-0.5391010237412727,0.278316371189171,0.2722439796974265,-0.2756010206726695
-0.07468020170927048,0.39171892404556274,-74.52334594726562,-0.5344948485064209,0.2736757731326435,0.2804970484847827,-0.2812707461106285
-0.17478053271770477,0.39752718806266785,-74.4133071899414,-0.5298372213604542,0.2690427361219183,0.27841820903122455,-0.27469369517639325
-1.2955909967422485,-1.0193551778793335,-74.40092468261719,-0.5252990270105907,0.2644213253696856,0.2661651129523916,-0.27987559509153215
0.7938264012336731,1.0067371129989624,-74.39623260498047,-0.5208977865582946,0.25975585586365446,0.26198374132315344,-0.27998074563220193
-0.37096166610717773,-0.41891545057296753,-74.45539093017578,-0.5165020252629693,0.25513033105189736,0.26550761411587426,-0.275082231778652
0.10406923294067383,-0.2337922751903534,-74.62739562988281,-0.5120954325577858,0.2505003002635196,0.2632835105061534,-0.28052146282667967
-0.2963518500328064,-0.585689902305603,-74.70462036132812,-0.5077207270088702,0.2457680340651933,0.26168115536371894,-0.2873504809724793
-0.278606116771698,-0.9415464401245117,-74.76313018798828,-0.5033993020560585,0.24087280130298322,0.2568898389736814,-0.3000774504927302
-0.49302801489830017,0.6749973893165588,-74.90721130371094,-0.49917139044341874,0.23585300011068716,0.2504595545430981,-0.3022986925827965
1.7069569826126099,1.1069713830947876,-75.00780487060547,-0.49491276391160915,0.230938436399058,0.2605756292740507,-0.28744895281270194
-1.4813849925994873,-0.33074042201042175,-75.02796936035156,-0.49055417203551294,0.2262015254466994,0.2624553958574934,-0.28098036147033223
-0.6627019643783569,-0.6212635636329651,-75.02215576171875,-0.48632881036545594,0.22145240803430194,0.24458800454934468,-0.2889137280173604
1.1685574054718018,-0.1665199249982834,-75.05023956298828,-0.4822172147728909,0.2165824720473021,0.24880346655845673,-0.2954785904226208
-1.8027215003967285,-0.4830962121486664,-75.11519622802734,-0.47811452950350863,0.21161271664184544,0.24351876576741566,-0.30089205823217874
0.9153621196746826,0.14559178054332733,-75.2007064819336,-0.4741175055866019,0.2065744111968921,0.2361241042613986,-0.30370459516222326
-0.11914829164743423,-0.7824988961219788,-75.38558959960938,-0.47012681122196553,0.20146843828338432,0.242759219494959,-0.309012154458712
-0.7202421426773071,0.3876663148403168,-75.48206329345703,-0.4661391152327665,0.19629081677981677,0.23576429920891948,-0.3123024259693925
0.8673461079597473,0.12407612055540085,-75.37520599365234,-0.4621994946928066,0.19112131401611826,0.23699016558627314,-0.3080379056744282
-1.294679880142212,-0.09982745349407196,-75.33438873291016,-0.4582793345561036,0.18598903285675705,0.23342905081808593,-0.30783583344891713
0,-0.14679889380931854,-75.42752838134766,-0.45447875870081206,0.18084130880293459,0.22264005181690083,-0.3098910530097787
-0.33442816138267517,-0.6025795936584473,-75.58116149902344,-0.45079131534840416,0.17562441774669746,0.2198531504720452,-0.31613587373867674
2.1087865829467773,-0.9745246171951294,-75.5961685180664,-0.44700387683903925,0.1702459653919658,0.23463947065174606,-0.32927840882912324
-1.0419409275054932,1.541183352470398,-75.54552459716797,-0.4430191324909934,0.1647973432125412,0.24352985111375677,-0.3245562527018293
-1.0917656421661377,0,-75.58182525634766,-0.43910847570643574,0.1594950989558767,0.22574896303315986,-0.31171305809790933
-0.6882597208023071,-1.7007710933685303,-75.6083984375,-0.4354696058616448,0.15418177221720542,0.21091541834175614,-0.3258861505426471
0.5155266523361206,1.0240389108657837,-75.60611724853516,-0.431966344241259,0.14870334108437638,0.20947597610453791,-0.33152558539683663
0.8264458179473877,-0.3694611191749573,-75.69692993164062,-0.42838188544019146,0.14322337145218542,0.22065908002356716,-0.32607077046607974
-0.5438730716705322,0.48072412610054016,-75.87152862548828,-0.424684610999085,0.13779658520878726,0.2230138529092076,-0.32514357874169986
0.5949615836143494,0.38595616817474365,-75.89008331298828,-0.4209641656372688,0.13243771169463917,0.22343959050873943,-0.3179212429560725
-0.8138431310653687,-0.9941471815109253,-75.91817474365234,-0.417255372569585,0.12709678882500072,0.22161557761331427,-0.32298950140054067
0.050442397594451904,0.24700048565864563,-75.88679504394531,-0.41361479354918745,0.12166174528111308,0.21525390483438997,-0.3292157238659763
0.36029019951820374,0.34185364842414856,-75.91653442382812,-0.40999870537159255,0.11621570919821367,0.21867667647699543,-0.324308606081953
-1.130392074584961,-0.26760807633399963,-75.9840316772461,-0.40999870537159255,0.11621570919821367,0.21867667647699543,-0.324308606081953
-0.23198920488357544,-0.06644631177186966,-76.0001220703125,-0.40999870537159255,0.11621570919821367,0.21867667647699543,-0.324308606081953
0.18613536655902863,-0.3446112275123596,-75.95394134521484,-0.40999870537159255,0.11621570919821367,0.21867667647699543,-0.324308606081953
-0.843660295009613,0.4652822017669678,-75.91944122314453,-0.40999870537159255,0.11621570919821367,0.21867667647699543,-0.324308606081953
-0.9338701367378235,2.900153398513794,-76.16637420654297,-0.40999870537159255,0.11621570919821367,0.21867667647699543,-0.324308606081953
-0.4280012547969818,3.2123920917510986,-76.81402587890625,-0.40999870537159255,0.11621570919821367,0.21867667647699543,-0.324308606081953
-1.1115272045135498,1.107621192932129,-77.67215728759766,-0.40999870537159255,0.11621570919821367,0.21867667647699543,-0.324308606081953
-1.5533355474472046,1.7838528156280518,-78.74324035644531,-0.40999870537159255,0.11621570919821367,0.21867667647699543,-0.324308606081953
-1.1260080337524414,1.2956119775772095,-80.05326843261719,-0.40999870537159255,0.11621570919821367,0.21867667647699543,-0.324308606081953
-0.3865949511528015,1.7857688665390015,-81.58567810058594,-0.40999870537159255,0.11621570919821367,0.21867667647699543,-0.324308606081953
-0.5535888075828552,1.1816831827163696,-83.29920959472656,-0.40999870537159255,0.11621570919821367,0.21867667647699543,-0.324308606081953
-0.860416054725647,1.047882080078125,-85.11810302734375,-0.40999870537159255,0.11621570919821367,0.21867667647699543,-0.324308606081953
-0.8707641363143921,2.1431069374084473,-87.08242797851562,-0.40999870537159255,0.11621570919821367,0.21867667647699543,-0.324308606081953
-0.573523998260498,1.4540038108825684,-89.0655288696289,-0.40999870537159255,0.11621570919821367,0.21867667647699543,-0.324308606081953
-0.2840997874736786,0.5512323379516602,-91.04468536376953,-0.40999870537159255,0.11621570919821367,0.21867667647699543,-0.324308606081953
-1.7646918296813965,1.0601402521133423,-93.0135498046875,-0.40999870537159255,0.11621570919821367,0.21867667647699543,-0.324308606081953
-0.7400612831115723,0.2864116430282593,-94.92573547363281,-0.40999870537159255,0.11621570919821367,0.21867667647699543,-0.324308606081953
0.037909530103206635,2.343194007873535,-96.86204528808594,-0.40999870537159255,0.11621570919821367,0.21867667647699543,-0.324308606081953
-0.13143855333328247,1.3205440044403076,-98.7890396118164,-0.40999870537159255,0.11621570919821367,0.21867667647699543,-0.324308606081953
-0.42709946632385254,-0.2787248492240906,-100.69080352783203,-0.40999870537159255,0.11621570919821367,0.21867667647699543,-0.324308606081953
-0.40251654386520386,0.8951993584632874,-102.50003051757812,-0.40999870537159255,0.11621570919821367,0.21867667647699543,-0.324308606081953
-0.35702499747276306,0.8729766607284546,-104.22039031982422,-0.40999870537159255,0.11621570919821367,0.21867667647699543,-0.324308606081953
-1.1194427013397217,1.2807759046554565,-105.94995880126953,-0.40999870537159255,0.11621570919821367,0.21867667647699543,-0.324308606081953
-1.4291812181472778,0.899833083152771,-107.60221099853516,-0.40999870537159255,0.11621570919821367,0.21867667647699543,-0.324308606081953
-1.3242106437683105,-0.4224628210067749,-109.20906066894531,-0.40999870537159255,0.11621570919821367,0.21867667647699543,-0.324308606081953
0.5286855101585388,0.6869307160377502,-110.9193115234375,-0.40999870537159255,0.11621570919821367,0.21867667647699543,-0.324308606081953
0.25198009610176086,0.03200184181332588,-112.77654266357422,-0.40999870537159255,0.11621570919821367,0.21867667647699543,-0.324308606081953
-0.49654844403266907,1.5532537698745728,-114.83995056152344,-0.40999870537159255,0.11621570919821367,0.21867667647699543,-0.324308606081953
-0.6914746165275574,0.35673630237579346,-117.01210021972656,-0.40999870537159255,0.11621570919821367,0.21867667647699543,-0.324308606081953
1.4413713216781616,0.7556092143058777,-119.33683776855469,-0.40999870537159255,0.11621570919821367,0.21867667647699543,-0.324308606081953
-0.6371757388114929,1.3755830526351929,-121.79559326171875,-0.40999870537159255,0.11621570919821367,0.21867667647699543,-0.324308606081953
1.258734107017517,1.407514214515686,-124.29246520996094,-0.40999870537159255,0.11621570919821367,0.21867667647699543,-0.324308606081953
-1.1149170398712158,0.4293862581253052,-126.97313690185547,-0.40999870537159255,0.11621570919821367,0.21867667647699543,-0.324308606081953
0.2711069881916046,-0.08800792694091797,-129.6669921875,-0.40999870537159255,0.11621570919821367,0.21867667647699543,-0.324308606081953
-1.3730086088180542,1.4263997077941895,-132.3813934326172,-0.40999870537159255,0.11621570919821367,0.21867667647699543,-0.324308606081953
0.9286414384841919,-0.18758662045001984,-135.0049285888672,-0.40999870537159255,0.11621570919821367,0.21867667647699543,-0.324308606081953
0.5805002450942993,1.3011603355407715,-137.6552734375,-0.40999870537159255,0.11621570919821367,0.21867667647699543,-0.324308606081953
0.11932680755853653,0.6134157776832581,-140.35240173339844,-0.40999870537159255,0.11621570919821367,0.21867667647699543,-0.324308606081953
0.28188633918762207,-0.07115717977285385,-143.13717651367188,-0.40999870537159255,0.11621570919821367,0.21867667647699543,-0.324308606081953
-0.6181079149246216,1.3090150356292725,-145.94117736816406,-0.40999870537159255,0.11621570919821367,0.21867667647699543,-0.324308606081953
1.4479223489761353,-0.36938315629959106,-148.7526092529297,-0.40999870537159255,0.11621570919821367,0.21867667647699543,-0.324308606081953
-0.4736371338367462,0.8135658502578735,-151.5345458984375,-0.40999870537159255,0.11621570919821367,0.21867667647699543,-0.324308606081953
-0.5536660552024841,0.4314384460449219,-154.31178283691406,-0.40999870537159255,0.11621570919821367,0.21867667647699543,-0.324308606081953
0.9775813221931458,-0.1345987170934677,-156.9292755126953,-0.40999870537159255,0.11621570919821367,0.21867667647699543,-0.324308606081953
-0.6583831310272217,0.6185306906700134,-159.09495544433594,-0.40999870537159255,0.11621570919821367,0.21867667647699543,-0.324308606081953
0.8306710720062256,-1.4077143669128418,-160.78045654296875,-0.40999870537159255,0.11621570919821367,0.21867667647699543,-0.324308606081953
-0.5835145711898804,-0.9562905430793762,-162.0491943359375,-0.40999870537159255,0.11621570919821367,0.21867667647699543,-0.324308606081953
0.10982625931501389,-1.9548407793045044,-162.94512939453125,-0.40999870537159255,0.11621570919821367,0.21867667647699543,-0.324308606081953
-0.2604498267173767,-1.6115330457687378,-163.43373107910156,-0.40999870537159255,0.11621570919821367,0.21867667647699543,-0.324308606081953
-0.13904577493667603,-1.0752573013305664,-163.51414489746094,-0.40999870537159255,0.11621570919821367,0.21867667647699543,-0.324308606081953
0.36151939630508423,0.31656333804130554,-163.4231414794922,-0.40999870537159255,0.11621570919821367,0.21867667647699543,-0.324308606081953
1.1540552377700806,0.643535852432251,-163.42364501953125,-0.40999870537159255,0.11621570919821367,0.21867667647699543,-0.324308606081953
0.4918825030326843,0.2580026388168335,-163.48573303222656,-0.40999870537159255,0.11621570919821367,0.21867667647699543,-0.324308606081953
-0.013092107139527798,0.12754400074481964,-163.4352264404297,-0.40999870537159255,0.11621570919821367,0.21867667647699543,-0.324308606081953
-0.3006858229637146,-0.07970250397920609,-163.41717529296875,-0.40999870537159255,0.11621570919821367,0.21867667647699543,-0.324308606081953
-0.5147953629493713,0.04220157861709595,-163.4365692138672,-0.40999870537159255,0.11621570919821367,0.21867667647699543,-0.324308606081953
-0.4518260061740875,0.0061445520259439945,-163.42486572265625,-0.40999870537159255,0.11621570919821367,0.21867667647699543,-0.324308606081953
-0.16164907813072205,0.02345453016459942,-163.42889404296875,-0.40999870537159255,0.11621570919821367,0.21867667647699543,-0.324308606081953
0.003144816728308797,0.16059093177318573,-163.44322204589844,-0.40999870537159255,0.11621570919821367,0.21867667647699543,-0.324308606081953
0.12414620816707611,0.17067527770996094,-163.43692016601562,-0.40999870537159255,0.11621570919821367,0.21867667647699543,-0.324308606081953
0.011127890087664127,0.11732164025306702,-163.43812561035156,-0.40999870537159255,0.11621570919821367,0.21867667647699543,-0.324308606081953
-0.1890350729227066,0.05722038820385933,-163.433349609375,-0.40999870537159255,0.11621570919821367,0.21867667647699543,-0.324308606081953
-0.23582439124584198,0.056552376598119736,-163.4282684326172,-0.40999870537159255,0.11621570919821367,0.21867667647699543,-0.324308606081953
-0.181293323636055,0.05665779858827591,-163.43324279785156,-0.40999870537159255,0.11621570919821367,0.21867667647699543,-0.324308606081953
-0.06511803716421127,0.11980390548706055,-163.4326934814453,-0.40999870537159255,0.11621570919821367,0.21867667647699543,-0.324308606081953
-0.011922585777938366,0.09092625975608826,-163.4342498779297,-0.40999870537159255,0.11621570919821367,0.21867667647699543,-0.324308606081953
-0.09591130167245865,0.10029704868793488,-163.43377685546875,-0.40999870537159255,0.11621570919821367,0.21867667647699543,-0.324308606081953
-0.1578642874956131,0.06496789306402206,-163.43145751953125,-0.40999870537159255,0.11621570919821367,0.21867667647699543,-0.324308606081953
-0.14634019136428833,0.07220397144556046,-163.4315643310547,-0.40999870537159255,0.11621570919821367,0.21867667647699543,-0.324308606081953
-0.0934092104434967,0.10790817439556122,-163.43112182617188,-0.40999870537159255,0.11621570919821367,0.21867667647699543,-0.324308606081953
-0.052340369671583176,0.09210855513811111,-163.43165588378906,-0.40999870537159255,0.11621570919821367,0.21867667647699543,-0.324308606081953
-0.08075158298015594,0.0898297056555748,-163.43324279785156,-0.40999870537159255,0.11621570919821367,0.21867667647699543,-0.324308606081953
-0.13375714421272278,0.08503697067499161,-163.43284606933594,-0.40999870537159255,0.11621570919821367,0.21867667647699543,-0.324308606081953
-0.12924067676067352,0.0799654945731163,-163.433349609375,-0.40999870537159255,0.11621570919821367,0.21867667647699543,-0.324308606081953
-0.11302603781223297,0.0944058820605278,-163.43304443359375,-0.40999870537159255,0.11621570919821367,0.21867667647699543,-0.324308606081953
-0.09315136075019836,0.10064077377319336,-163.4329376220703,-0.40999870537159255,0.11621570919821367,0.21867667647699543,-0.324308606081953
-0.10761546343564987,0.08594561368227005,-163.43287658691406,-0.40999870537159255,0.11621570919821367,0.21867667647699543,-0.324308606081953
-0.10939130932092667,0.08292515575885773,-163.4337615966797,-0.40999870537159255,0.11621570919821367,0.21867667647699543,-0.324308606081953
-0.11963693052530289,0.08553224056959152,-163.43350219726562,-0.40999870537159255,0.11621570919821367,0.21867667647699543,-0.324308606081953
-0.09030836075544357,0.09602798521518707,-163.43417358398438,-0.40999870537159255,0.11621570919821367,0.21867667647699543,-0.324308606081953
-0.09828606992959976,0.09370610862970352,-163.4338836669922,-0.40999870537159255,0.11621570919821367,0.21867667647699543,-0.324308606081953
-0.11015353351831436,0.09365587681531906,-163.4343719482422,-0.40999870537159255,0.11621570919821367,0.21867667647699543,-0.324308606081953
-0.10734134912490845,0.08798238635063171,-163.43504333496094,-0.40999870537159255,0.11621570919821367,0.21867667647699543,-0.324308606081953
-0.12003381550312042,0.09828265756368637,-163.43524169921875,-0.40999870537159255,0.11621570919821367,0.21867667647699543,-0.324308606081953
-0.10122928023338318,0.09127864986658096,-163.43463134765625,-0.40999870537159255,0.11621570919821367,0.21867667647699543,-0.324308606081953
-0.10501939803361893,0.09451162070035934,-163.43609619140625,-0.40999870537159255,0.11621570919821367,0.21867667647699543,-0.324308606081953
-0.11704500764608383,0.09649938344955444,-163.43565368652344,-0.40999870537159255,0.11621570919821367,0.21867667647699543,-0.324308606081953
-0.11062759906053543,0.0797073170542717,-163.436279296875,-0.40999870537159255,0.11621570919821367,0.21867667647699543,-0.324308606081953
-0.09578531235456467,0.08948507159948349,-163.43661499023438,-0.40999870537159255,0.11621570919821367,0.21867667647699543,-0.324308606081953
-0.10397425293922424,0.08790955692529678,-163.435302734375,-0.40999870537159255,0.11621570919821367,0.21867667647699543,-0.324308606081953
-0.11466976255178452,0.08743252605199814,-163.43568420410156,-0.40999870537159255,0.11621570919821367,0.21867667647699543,-0.324308606081953
-0.10373133420944214,0.0893256664276123,-163.4353790283203,-0.40999870537159255,0.11621570919821367,0.21867667647699543,-0.324308606081953
-0.10445961356163025,0.09293735027313232,-163.4346466064453,-0.40999870537159255,0.11621570919821367,0.21867667647699543,-0.324308606081953
-0.11116413027048111,0.08438942581415176,-163.4346466064453,-0.40999870537159255,0.11621570919821367,0.21867667647699543,-0.324308606081953
-0.11211185157299042,0.08782383054494858,-163.43446350097656,-0.40999870537159255,0.11621570919821367,0.21867667647699543,-0.324308606081953
-0.1125701442360878,0.07595624029636383,-163.43568420410156,-0.40999870537159255,0.11621570919821367,0.21867667647699543,-0.324308606081953
-0.11270514130592346,0.09341475367546082,-163.43527221679688,-0.40999870537159255,0.11621570919821367,0.21867667647699543,-0.324308606081953
-0.09288996458053589,0.08122693002223969,-163.43406677246094,-0.40999870537159255,0.11621570919821367,0.21867667647699543,-0.324308606081953
-0.10458207875490189,0.08503555506467819,-163.4327392578125,-0.40999870537159255,0.11621570919821367,0.21867667647699543,-0.324308606081953
-0.10200223326683044,0.08928251266479492,-163.4333038330078,-0.40999870537159255,0.11621570919821367,0.21867667647699543,-0.324308606081953
-0.08780111372470856,0.08001258969306946,-163.43353271484375,-0.40999870537159255,0.11621570919821367,0.21867667647699543,-0.324308606081953
-0.10212249308824539,0.10554323345422745,-163.43405151367188,-0.40999870537159255,0.11621570919821367,0.21867667647699543,-0.324308606081953
-0.09878820180892944,0.09503252804279327,-163.43411254882812,-0.40999870537159255,0.11621570919821367,0.21867667647699543,-0.324308606081953
-0.11065761744976044,0.09533610194921494,-163.43368530273438,-0.40999870537159255,0.11621570919821367,0.21867667647699543,-0.324308606081953
-0.11310742050409317,0.08327707648277283,-163.43341064453125,-0.40999870537159255,0.11621570919821367,0.21867667647699543,-0.324308606081953
-0.11914283037185669,0.09632669389247894,-163.4334259033203,-0.40999870537159255,0.11621570919821367,0.21867667647699543,-0.324308606081953
-0.10427050292491913,0.10035916417837143,-163.4337615966797,-0.40999870537159255,0.11621570919821367,0.21867667647699543,-0.324308606081953
-0.08865542709827423,0.09545036405324936,-163.43296813964844,-0.40999870537159255,0.11621570919821367,0.21867667647699543,-0.324308606081953
-0.10396233201026917,0.10643468052148819,-163.43275451660156,-0.40999870537159255,0.11621570919821367,0.21867667647699543,-0.324308606081953
-0.10895255953073502,0.09260773658752441,-163.4320831298828,-0.40999870537159255,0.11621570919821367,0.21867667647699543,-0.324308606081953
-0.11160461604595184,0.10663939267396927,-163.43324279785156,-0.40999870537159255,0.11621570919821367,0.21867667647699543,-0.324308606081953
-0.11146251857280731,0.0834011361002922,-163.43345642089844,-0.40999870537159255,0.11621570919821367,0.21867667647699543,-0.324308606081953
-0.10950994491577148,0.08510451018810272,-163.4346160888672,-0.40999870537159255,0.11621570919821367,0.21867667647699543,-0.324308606081953
-0.09779908508062363,0.09009531140327454,-163.43463134765625,-0.40999870537159255,0.11621570919821367,0.21867667647699543,-0.324308606081953
-0.10800112038850784,0.09327992051839828,-163.4356689453125,-0.40999870537159255,0.11621570919821367,0.21867667647699543,-0.324308606081953
-0.0995175689458847,0.09049811214208603,-163.4355926513672,-0.40999870537159255,0.11621570919821367,0.21867667647699543,-0.324308606081953
-0.10807529091835022,0.08983082324266434,-163.43637084960938,-0.40999870537159255,0.11621570919821367,0.21867667647699543,-0.324308606081953
-0.09787670522928238,0.09141194075345993,-163.4360809326172,-0.40999870537159255,0.11621570919821367,0.21867667647699543,-0.324308606081953
-0.10215824842453003,0.08619188517332077,-163.43716430664062,-0.40999870537159255,0.11621570919821367,0.21867667647699543,-0.324308606081953
-0.11193304508924484,0.08610634505748749,-163.4381561279297,-0.40999870537159255,0.11621570919821367,0.21867667647699543,-0.324308606081953
-0.1047997921705246,0.09533338993787766,-163.43829345703125,-0.40999870537159255,0.11621570919821367,0.21867667647699543,-0.324308606081953
-0.11296070367097855,0.0813073217868805,-163.4393768310547,-0.40999870537159255,0.11621570919821367,0.21867667647699543,-0.324308606081953
-0.11256743967533112,0.09503206610679626,-163.43882751464844,-0.40999870537159255,0.11621570919821367,0.21867667647699543,-0.324308606081953
-0.10549008101224899,0.09745928645133972,-163.4393310546875,-0.40999870537159255,0.11621570919821367,0.21867667647699543,-0.324308606081953
-0.10722285509109497,0.08054063469171524,-163.43902587890625,-0.40999870537159255,0.11621570919821367,0.21867667647699543,-0.324308606081953
-0.11179324984550476,0.08150336891412735,-163.4391632080078,-0.40999870537159255,0.11621570919821367,0.21867667647699543,-0.324308606081953
-0.09059971570968628,0.07599059492349625,-163.44012451171875,-0.40999870537159255,0.11621570919821367,0.21867667647699543,-0.324308606081953
-0.0954718291759491,0.08721897751092911,-163.44076538085938,-0.40999870537159255,0.11621570919821367,0.21867667647699543,-0.324308606081953
-0.09499199688434601,0.0932813435792923,-163.4392852783203,-0.40999870537159255,0.11621570919821367,0.21867667647699543,-0.324308606081953
-0.10655812919139862,0.10457980632781982,-163.4398956298828,-0.40999870537159255,0.11621570919821367,0.21867667647699543,-0.324308606081953
-0.09869891405105591,0.09599640965461731,-163.43995666503906,-0.40636834805831223,0.11082449466740212,0.21696620111664164,-0.32263713761543267
-0.10128084570169449,0.08503233641386032,-163.43959045410156,-0.4027661321896844,0.10545978048117743,0.21529970311870206,-0.3211285647315287
-0.21195317804813385,0,-163.43898010253906,-0.3991995561671331,0.10011354275901403,0.2126894195874535,-0.32041996192807987
-1.36056387424469,-0.2915407717227936,-163.40383911132812,-0.39576393508041807,0.0947529641732875,0.19958511081834662,-0.32284946835910316
-2.4372706413269043,-0.5377158522605896,-163.3072052001953,-0.39270125507480474,0.08931455243508138,0.16793648985525,-0.3297599402256314
-3.5460827350616455,-1.2446210384368896,-163.21400451660156,-0.3903178242283553,0.08369478003613354,0.11807521171867875,-0.3446127476481104
-2.065774440765381,0.3621205985546112,-163.3063507080078,-0.3887396163369209,0.07788994948922875,0.07130973525345354,-0.3519669179804627
-1.2601772546768188,0,-163.33106994628906,-0.38778208961710237,0.07204898145334289,0.04359347112476854,-0.34894924632584096
-1.3581266403198242,-1.1024670600891113,-163.2869110107422,-0.38723735842439766,0.06615660046873935,0.02177427199979651,-0.35813647182658354
-1.3461312055587769,-0.43564754724502563,-163.1726837158203,-0.3870622495748093,0.06008084575723142,-0.0007612100491918329,-0.37095409355436804
-1.2659523487091064,0.8888542056083679,-163.08995056152344,-0.38725633110023105,0.053929750215933846,-0.022528573001424194,-0.36717737140134016
-1.4065525531768799,-2.013289451599121,-163.10179138183594,-0.387817397935108,0.047732041578273265,-0.04479944718380741,-0.37654766511792975
-2.0104727745056152,0.3521827757358551,-163.18905639648438,-0.388801348813705,0.04134089252937282,-0.07327465824782821,-0.39039022075012364
-0.6346486806869507,-0.11608664691448212,-163.09873962402344,-0.39020628210777936,0.03485078441470558,-0.0953173370410996,-0.38842275300994555
-0.8250685334205627,-0.4606154263019562,-163.15318298339844,-0.39189627364277735,0.028337023109455343,-0.10748164715866221,-0.39322860362008255
-0.8709788918495178,0.09576767683029175,-163.25852966308594,-0.39380541549995435,0.02175787639985177,-0.12161537570257955,-0.3962690015323464
-2.117180347442627,-0.17467527091503143,-163.22900390625,-0.39603984948661486,0.015147913346945666,-0.14651670269668077,-0.3969265648163859
-0.28195276856422424,-0.6093368530273438,-163.15672302246094,-0.3986484009979489,0.008478025313621015,-0.16650947866340454,-0.40345999918257236
-1.4326077699661255,-0.2144448161125183,-163.1701202392578,-0.4015426256797369,0.0016964849335545408,-0.18079748315115746,-0.41032484642540457
-0.5689582824707031,0,-163.16302490234375,-0.40469491470811986,-0.005157154507987794,-0.1974772002547977,-0.41211188655967557
-0.988255500793457,-0.2940480411052704,-163.07577514648438,-0.40809434122509314,-0.012046105953503587,-0.21045398178199903,-0.41456228690221947
1.0287272930145264,-0.19753722846508026,-163.03424072265625,-0.411599097047,-0.0189896152678163,-0.21011671684682345,-0.41865883081530575
-1.1606214046478271,0.8093477487564087,-163.03041076660156,-0.41511020164108825,-0.025924775606384495,-0.21121583444376762,-0.413560409812878
-0.5003139972686768,0.6009295582771301,-163.07159423828125,-0.41874580828472857,-0.03271951317916624,-0.22505696279307183,-0.40180809892093183
-0.34432265162467957,-1.2000974416732788,-163.06971740722656,-0.4225554129874529,-0.03945792370863984,-0.2320956015338498,-0.4068011646158997
-1.1489531993865967,-0.804789125919342,-163.0496826171875,-0.4265273727248929,-0.04637717135276544,-0.24453956695894377,-0.42350855267917153
-1.28049898147583,-0.3683873116970062,-162.97454833984375,-0.43077174413121294,-0.053517117816697206,-0.264785001799464,-0.4332850229926411
-0.9159388542175293,0.12296722084283829,-162.8177032470703,-0.43533735789979383,-0.06075557792843943,-0.283088650430242,-0.43533019041642584
-0.7435105443000793,0.7187227606773376,-162.8088836669922,-0.4401707416151949,-0.0679526304088854,-0.29691739541788875,-0.42831610723709107
0.46690985560417175,0.13765108585357666,-162.92529296875,-0.4451385732533192,-0.07503176179016116,-0.2992224011570213,-0.42117965851600014
-0.4613190293312073,0.1488112509250641,-163.039306640625,-0.45012522502077834,-0.08203152954759597,-0.29917581093807993,-0.4187924723761781
0,-0.5895891785621643,-163.0507354736328,-0.4551435245801166,-0.08904201366550707,-0.30302013618250667,-0.42246562177315394
0,0.30314821004867554,-162.97857666015625,-0.4601938601831584,-0.09610299909565084,-0.30302013618250667,-0.42485262984409966
-0.7419033646583557,-0.5610668063163757,-162.97779846191406,-0.4652957168531903,-0.10320178727334887,-0.3092026642213263,-0.42700195147966385
-0.22570694983005524,0.7911764979362488,-163.1089630126953,-0.4705162897509408,-0.11030250662498078,-0.31726608350872976,-0.4250843707161649
-1.2899566888809204,0,-163.1722869873047,-0.47590931222877453,-0.11733230332456018,-0.32989661383132124,-0.41849123323336285
0,-0.39288657903671265,-163.20188903808594,-0.48149716945157994,-0.12433444100199378,-0.3406462529053289,-0.4217652880586688
0.08234873414039612,1.0622007846832275,-163.17312622070312,-0.487168888337909,-0.13131738231646836,-0.33996001345415894,-0.4161876696782812
-0.09242954850196838,0.06836967170238495,-163.2270050048828,-0.49283558861869786,-0.13817533164052404,-0.3400440202405054,-0.4067662492084011
0,-1.29923415184021,-163.28952026367188,-0.4985094076746856,-0.1450402458273403,-0.3408142664780218,-0.41702345320954964
-0.4192914068698883,0.9824491739273071,-163.3876953125,-0.5042187629081297,-0.15201263567096562,-0.3443083615352709,-0.4196633280254905
-0.09856753051280975,-0.31276312470436096,-163.50437927246094,-0.5099931980265914,-0.15896051849575,-0.3486238526801267,-0.41408261094863263
-1.3633159399032593,0.6477764844894409,-163.575439453125,-0.5159051152567057,-0.16583863052824213,-0.36080621493359394,-0.4112908329504236
0,-0.5693708062171936,-163.45016479492188,-0.5220132268903144,-0.17268803290531362,-0.37216718109945446,-0.4106374522981549
-0.5125588178634644,0,-163.4119110107422,-0.5282516076043235,-0.17957153008293683,-0.37643850458165,-0.41538220901663153
1.2133384943008423,0.9608018398284912,-163.46316528320312,-0.5344769174253763,-0.1864278445498926,-0.3705986739446719,-0.4073755270180608
0.5821149945259094,0.992150068283081,-163.50369262695312,-0.5405288777210634,-0.19308181500657476,-0.3556365615377823,-0.3911009277837977
-0.7286739349365234,-0.4784450829029083,-163.5154266357422,-0.5464663314508883,-0.1995644898456533,-0.35685788604120405,-0.3868200529056296
-0.7666006088256836,-0.24474073946475983,-163.5501708984375,-0.5525178013948918,-0.20606171196507822,-0.36931850723922244,-0.39284660142536015
-0.653542697429657,-1.8308717012405396,-163.56179809570312,-0.5587717309118132,-0.21275329507499433,-0.38115303479135026,-0.410143371764571
-0.7899600863456726,0.5574114322662354,-163.43911743164062,-0.5652245247405423,-0.21967745267863817,-0.39318222465614466,-0.4207555406726902
0.3816315233707428,0.9211857914924622,-163.3882598876953,-0.5718059179683513,-0.22658736466042198,-0.39658496268093574,-0.40843389714136774
0,0.3191971778869629,-163.5121307373047,-0.5783891651572439,-0.23330845857323787,-0.39340469998617955,-0.3980973723965392
0,-0.41038212180137634,-163.62100219726562,-0.5849459101570136,-0.23994974706761868,-0.39340469998617955,-0.3988572469291593
0.1689498871564865,-0.14205889403820038,-163.61016845703125,-0.5914909225257307,-0.24663573180920464,-0.3919967842598755,-0.4034609220611558
-0.09326840937137604,0.9226943254470825,-163.49749755859375,-0.5914909225257307,-0.24663573180920464,-0.3919967842598755,-0.4034609220611558
-0.2337060570716858,-0.49705594778060913,-163.5841827392578,-0.5914909225257307,-0.24663573180920464,-0.3919967842598755,-0.4034609220611558
0.7812767624855042,1.3407135009765625,-163.79827880859375,-0.5914909225257307,-0.24663573180920464,-0.3919967842598755,-0.4034609220611558
1.8967193365097046,0.29658034443855286,-164.25376892089844,-0.5914909225257307,-0.24663573180920464,-0.3919967842598755,-0.4034609220611558
2.8996269702911377,1.40561044216156,-164.91453552246094,-0.5914909225257307,-0.24663573180920464,-0.3919967842598755,-0.4034609220611558
2.566254138946533,1.0604472160339355,-165.8213348388672,-0.5914909225257307,-0.24663573180920464,-0.3919967842598755,-0.4034609220611558
1.941167950630188,0.8491641879081726,-166.9577178955078,-0.5914909225257307,-0.24663573180920464,-0.3919967842598755,-0.4034609220611558
1.6635910272598267,0.747818648815155,-168.41387939453125,-0.5914909225257307,-0.24663573180920464,-0.3919967842598755,-0.4034609220611558
1.6057120561599731,0.5986621379852295,-170.0470733642578,-0.5914909225257307,-0.24663573180920464,-0.3919967842598755,-0.4034609220611558
0.7493654489517212,0.722369909286499,-171.81512451171875,-0.5914909225257307,-0.24663573180920464,-0.3919967842598755,-0.4034609220611558
1.7924031019210815,0.21998777985572815,-173.727783203125,-0.5914909225257307,-0.24663573180920464,-0.3919967842598755,-0.4034609220611558
2.4970076084136963,0.7124772667884827,-175.7471466064453,-0.5914909225257307,-0.24663573180920464,-0.3919967842598755,-0.4034609220611558
1.1683562994003296,0.8430989980697632,-177.75975036621094,-0.5914909225257307,-0.24663573180920464,-0.3919967842598755,-0.4034609220611558
0.886734127998352,0.5394865870475769,-179.83935546875,-0.5914909225257307,-0.24663573180920464,-0.3919967842598755,-0.4034609220611558
-0.11895362287759781,1.6036280393600464,178.0108184814453,-0.5914909225257307,-0.24663573180920464,-0.3919967842598755,-0.4034609220611558
1.869249939918518,-0.8748676180839539,175.76931762695312,-0.5914909225257307,-0.24663573180920464,-0.3919967842598755,-0.4034609220611558
-0.00041441485518589616,1.744400978088379,173.50302124023438,-0.5914909225257307,-0.24663573180920464,-0.3919967842598755,-0.4034609220611558
1.8020076751708984,-0.3544613718986511,171.16329956054688,-0.5914909225257307,-0.24663573180920464,-0.3919967842598755,-0.4034609220611558
0.5111613869667053,0.9290523529052734,168.79742431640625,-0.5914909225257307,-0.24663573180920464,-0.3919967842598755,-0.4034609220611558
1.5051158666610718,0.34504833817481995,166.39675903320312,-0.5914909225257307,-0.24663573180920464,-0.3919967842598755,-0.4034609220611558
0.9025857448577881,-0.41573992371559143,163.98495483398438,-0.5914909225257307,-0.24663573180920464,-0.3919967842598755,-0.4034609220611558
0.10901942104101181,0.7631871700286865,161.56019592285156,-0.5914909225257307,-0.24663573180920464,-0.3919967842598755,-0.4034609220611558
0.7114536166191101,-0.017806509509682655,159.14376831054688,-0.5914909225257307,-0.24663573180920464,-0.3919967842598755,-0.4034609220611558
1.620926856994629,0.713950514793396,156.69334411621094,-0.5914909225257307,-0.24663573180920464,-0.3919967842598755,-0.4034609220611558
0.23430407047271729,-0.44158947467803955,154.29502868652344,-0.5914909225257307,-0.24663573180920464,-0.3919967842598755,-0.4034609220611558
0.28065982460975647,1.353356122970581,151.87033081054688,-0.5914909225257307,-0.24663573180920464,-0.3919967842598755,-0.4034609220611558
0.8937247395515442,-1.3853859901428223,149.44818115234375,-0.5914909225257307,-0.24663573180920464,-0.3919967842598755,-0.4034609220611558
0.9619868993759155,0.7422207593917847,147.1086883544922,-0.5914909225257307,-0.24663573180920464,-0.3919967842598755,-0.4034609220611558
0.2803283929824829,-0.6720407605171204,144.72169494628906,-0.5914909225257307,-0.24663573180920464,-0.3919967842598755,-0.4034609220611558
0.8175827860832214,2.382097005844116,142.37026977539062,-0.5914909225257307,-0.24663573180920464,-0.3919967842598755,-0.4034609220611558
0.6733947396278381,-1.4484796524047852,139.8993682861328,-0.5914909225257307,-0.24663573180920464,-0.3919967842598755,-0.4034609220611558
