faccX,faccY,yaw,posX,posY,velX,velY
0,0,-85.87812805175781,0.0,0.0,0.0,0.0
0,0,-85.879150390625,0.0,0.0,0.0,0.0
0,0,-85.87893676757812,0.0,0.0,0.0,0.0
0.11902163922786713,-0.32312554121017456,-85.88168334960938,8.265391613046329e-06,-2.243927369515101e-05,0.0009918469935655595,-0.0026927128434181213
0.20710891485214233,-2.144848585128784,-85.84346771240234,4.7444129983584085e-05,-0.00023870491319232515,0.0037096016108989715,-0.023259163896242777
-0.45027437806129456,-2.547278881072998,-85.76216125488281,9.238433299793137e-05,-0.0009521998299492731,0.001683222750822703,-0.062360226114590966
1.2150593996047974,-1.5561069250106812,-85.73809814453125,0.0001735481164521641,-0.0022764942795038224,0.008056431263685226,-0.09655510783195495
0.06290137767791748,-0.9421972036361694,-85.74949645996094,0.00039656924704710634,-0.004059239418970214,0.018706104407707848,-0.11737430890401204
-0.5543189644813538,-1.5325068235397339,-85.71920776367188,0.0006742114325364429,-0.006187332347035408,0.014610957851012546,-0.13799684246381125
0.4402178227901459,-1.4447146654129028,-85.7123031616211,0.0009098037063247626,-0.00869403121372064,0.013660115003585814,-0.16280702153841656
0.5537867546081543,-1.742058515548706,-85.702392578125,0.0012065003853705192,-0.011628785265816583,0.021943486481904983,-0.18936346471309662
-0.6124849319458008,-1.1155920028686523,-85.6329116821289,0.0015681488977538213,-0.014983290963702732,0.021454335004091264,-0.21317721903324127
0.4602813124656677,-0.9857252240180969,-85.55419921875,0.0019151514520247776,-0.018682169421679443,0.020185971508423488,-0.23068819592396417
-0.5496325492858887,-1.0116753578186035,-85.60078430175781,0.0022453793634970983,-0.022665681060817504,0.01944137786825498,-0.24733320077260335
0.6103874444961548,-0.875867486000061,-85.53643035888672,0.002573621417913172,-0.0269189804378483,0.019947668661673867,-0.2630627244710922
0.34182116389274597,-1.9118996858596802,-85.44768524169922,0.002972208160079188,-0.03149695412152343,0.027882740398248042,-0.28629411756992335
-0.9294154644012451,-0.3346565067768097,-85.40434265136719,0.003396115340292454,-0.03642453359439969,0.02298612122734388,-0.30501541917522745
0.33483609557151794,-1.4111586809158325,-85.4129409790039,0.003737927126801676,-0.0416293610797988,0.018031293153762822,-0.31956387907266615
-0.6158387064933777,-1.2467447519302368,-85.3836898803711,0.004018934609161483,-0.04714000235829088,0.01568960472941399,-0.34171307434638337
0.25024524331092834,-0.48436811566352844,-85.41110229492188,0.004255039586375157,-0.05295543643542462,0.012642992536226912,-0.35613901490966476
0.2826468348503113,-0.4664633870124817,-85.54039764404297,0.004502762522962359,-0.05895711664938265,0.01708375985423724,-0.36406261076529817
0.45076170563697815,-0.44620224833488464,-85.67227172851562,0.0048384230025112634,-0.06508820638681452,0.023195497691631317,-0.3716681577265262
0.0872267559170723,-1.1477116346359253,-85.75546264648438,0.005262374940535261,-0.07139336414635182,0.027678734871248403,-0.38495077341794964
-0.39433223009109497,-0.5311938524246216,-85.86971282958984,0.005702360419349539,-0.07792580102880796,0.025119522586464882,-0.39894165247678753
0.7351555228233337,-1.0551801919937134,-85.9967041015625,0.00614468741334147,-0.08468499343428347,0.02795971669256687,-0.4121614361802737
0.4529196619987488,-0.3866358697414398,-86.08210754394531,0.006693187912719118,-0.09165447681935297,0.03786034323275089,-0.42417657002806664
0.5190401673316956,-0.2071623057126999,-86.19381713867188,0.007391690843635136,-0.09876532230422728,0.045960008477171264,-0.4291248881568511
-1.461661696434021,-0.4168166220188141,-86.2958755493164,0.00809223115651144,-0.1059607356434895,0.03810482906798522,-0.43432471255461375
0.26322370767593384,0.10992154479026794,-86.19843292236328,0.008644086780647438,-0.11322079301087393,0.028117845828334494,-0.4368821715315183
0.4707261621952057,-0.610019326210022,-86.11402893066406,0.009163686285416287,-0.12053689154899783,0.03423409474392732,-0.4410496530433496
-0.3111070692539215,-0.2855510711669922,-86.17695617675781,0.009745339190380443,-0.12794991148842705,0.03556425385177136,-0.448512739688158
-0.6314995288848877,-0.6454187035560608,-86.26768493652344,0.010272617963039216,-0.13548977449536323,0.027709198867281282,-0.4562708211441835
1.1570980548858643,0.5523755550384521,-86.39188385009766,0.010770937841799527,-0.1431007495108578,0.032089186583956084,-0.45704618071516356
-0.22388681769371033,-0.6302268505096436,-86.48760223388672,0.011370563954114917,-0.1507235921960738,0.0398659468938907,-0.45769494151075685
0.47180941700935364,-0.852755069732666,-86.44617462158203,0.012052213249521127,-0.15845482607682548,0.04193196855485439,-0.4700531241794428
0.9511746764183044,1.0486341714859009,-86.3250503540039,0.0128498977319234,-0.16627544209775,0.05379016933341821,-0.46842079833149913
-1.3787215948104858,-1.8824583292007446,-86.25770568847656,0.013716709795925357,-0.17414035985867185,0.0502272783468167,-0.4753693329791228
-1.1552506685256958,0.1988922357559204,-86.18453979492188,0.014377860805640623,-0.18218009638703533,0.029110842819015187,-0.48939905042449633
0.7292705178260803,0,-86.19093322753906,0.014833459564381181,-0.19032293526662722,0.025561008229851724,-0.4877416151265303
-0.26303038001060486,-0.35109785199165344,-86.30752563476562,0.01529185415556034,-0.19847634398067993,0.029446342711647353,-0.49066743055979406
0.2300095111131668,0,-86.45030975341797,0.01578033341819214,-0.20667851628528702,0.0291711688041687,-0.4935932459930578
0.3476240634918213,0.2936820685863495,-86.4987564086914,0.01630663300760919,-0.21488467579707504,0.033984781925876936,-0.4911458954215049
-0.810742974281311,0,-86.5205307006836,0.016840885004235646,-0.22305004613267052,0.030125457669297855,-0.48869854484995195
0.6655656695365906,-0.34233909845352173,-86.61722564697266,0.01733289420811667,-0.23121879542867343,0.028915646796425186,-0.49155137067039795
-0.8876612186431885,-0.4604247510433197,-86.726318359375,0.017799398352702465,-0.23946706576272847,0.027064850553870205,-0.49824106941620494
-0.7711926698684692,-0.3631925582885742,-86.80224609375,0.01813528100856477,-0.24782827923281325,0.01324106814960639,-0.5051045469939707
0.08990601450204849,0.8800627589225769,-86.9399185180664,0.01830865390443554,-0.2562107945854465,0.007563679354886217,-0.5007972953220207
0.6157833337783813,-0.08451822400093079,-87.12252807617188,0.018483721431758676,-0.2645021700258884,0.013444423923889798,-0.49416775753100695
0.45084428787231445,-0.6233303546905518,-87.31854248046875,0.018781866526438137,-0.27278745546936983,0.0223329874376456,-0.5000664956867693
1.0689914226531982,-1.5551371574401855,-87.51211547851562,0.019259627130296504,-0.28127317953026953,0.034998285025358206,-0.5182203916211922
-0.90923011302948,1.2796046733856201,-87.69867706298828,0.01985402641610968,-0.28992932025757095,0.036329629272222524,-0.5205164956549801
0.09154994040727615,0,-87.97634887695312,0.0204027368919924,-0.2985157337495022,0.02951562783370416,-0.5098531233767667
-1.1712309122085571,-0.5098518133163452,-88.1656723022461,0.02081968617729016,-0.3070486921817064,0.020518286402026818,-0.5141018884877362
0.4316186010837555,0.6938281059265137,-88.0606460571289,0.021110295651273606,-0.3156042808584041,0.014354850475986804,-0.5125687527159848
1.1040862798690796,-0.5150559544563293,-88.05105590820312,0.02145618933149511,-0.3241346786709295,0.027152391150593765,-0.5110789847870666
-1.7070585489273071,0.34432440996170044,-88.31816864013672,0.02186685610976485,-0.3326645181079705,0.022127622241775204,-0.5125017476578552
1.1827549934387207,-0.2609535753726959,-88.46680450439453,0.022199239844663286,-0.3412004242609772,0.017758425946036983,-0.5118069907029468
0.533926784992218,-0.8640940189361572,-88.4989013671875,0.022614427622821606,-0.3498086690778533,0.032064107432961474,-0.5211823873221872
-0.7478364109992981,0.7210372090339661,-88.37492370605469,0.023133974578231582,-0.3585049767005774,0.030281527216235806,-0.5223745274047055
0.14638523757457733,-0.5270861983299255,-88.23799896240234,0.02359689925590324,-0.3671977500038014,0.025269434104363133,-0.5207582689821718
-0.4560873508453369,0,-88.26374816894531,0.0239965493997766,-0.37591365769505497,0.022688583160440135,-0.5251506539682546
-0.8935735821723938,0.6883585453033447,-88.34354400634766,0.024280965998768816,-0.3846183659177687,0.011441408718625713,-0.5194143327573933
-0.2908368706703186,0.09972819685935974,-88.33063507080078,0.02438940541818739,-0.39322054321774175,0.001571321611603109,-0.5128469432393709
0.6936256289482117,-1.221312165260315,-88.41345977783203,0.024443565553261184,-0.40184588004731464,0.004927894597252218,-0.5221934763093788
1.070446491241455,0.5650426149368286,-88.48219299316406,0.024443565553261184,-0.40184588004731464,0.004927894597252218,-0.5221934763093788
-0.624398946762085,-0.1050979495048523,-88.51712036132812,0.024443565553261184,-0.40184588004731464,0.004927894597252218,-0.5221934763093788
-0.24627870321273804,-0.21655714511871338,-88.59993743896484,0.024443565553261184,-0.40184588004731464,0.004927894597252218,-0.5221934763093788
-0.6945981383323669,1.6183457374572754,-88.75495910644531,0.024443565553261184,-0.40184588004731464,0.004927894597252218,-0.5221934763093788
-0.8536494970321655,3.978236436843872,-89.30472564697266,0.024443565553261184,-0.40184588004731464,0.004927894597252218,-0.5221934763093788
-0.08578081429004669,1.359078049659729,-90.18184661865234,0.024443565553261184,-0.40184588004731464,0.004927894597252218,-0.5221934763093788
0.07263144850730896,3.0283267498016357,-91.19964599609375,0.024443565553261184,-0.40184588004731464,0.004927894597252218,-0.5221934763093788
-1.2410004138946533,1.354736566543579,-92.44461059570312,0.024443565553261184,-0.40184588004731464,0.004927894597252218,-0.5221934763093788
0.2493223249912262,2.0370900630950928,-93.91197204589844,0.024443565553261184,-0.40184588004731464,0.004927894597252218,-0.5221934763093788
-0.12518826127052307,1.220267653465271,-95.57135772705078,0.024443565553261184,-0.40184588004731464,0.004927894597252218,-0.5221934763093788
0.7619834542274475,2.109614610671997,-97.40669250488281,0.024443565553261184,-0.40184588004731464,0.004927894597252218,-0.5221934763093788
-1.3764517307281494,1.4046217203140259,-99.37915802001953,0.024443565553261184,-0.40184588004731464,0.004927894597252218,-0.5221934763093788
0.4744760990142822,1.6371608972549438,-101.46756744384766,0.024443565553261184,-0.40184588004731464,0.004927894597252218,-0.5221934763093788
0.45965898036956787,2.7830774784088135,-103.63796997070312,0.024443565553261184,-0.40184588004731464,0.004927894597252218,-0.5221934763093788
-0.89848792552948,0.2520875632762909,-105.87537384033203,0.024443565553261184,-0.40184588004731464,0.004927894597252218,-0.5221934763093788
1.5770937204360962,1.4241682291030884,-108.10704803466797,0.024443565553261184,-0.40184588004731464,0.004927894597252218,-0.5221934763093788
-2.0180869102478027,0.43670281767845154,-110.42179870605469,0.024443565553261184,-0.40184588004731464,0.004927894597252218,-0.5221934763093788
0.5876156091690063,0.49625319242477417,-112.74816131591797,0.024443565553261184,-0.40184588004731464,0.004927894597252218,-0.5221934763093788
-0.6234266757965088,1.7365801334381104,-115.17025756835938,0.024443565553261184,-0.40184588004731464,0.004927894597252218,-0.5221934763093788
0.1267145425081253,0.8265953063964844,-117.6181411743164,0.024443565553261184,-0.40184588004731464,0.004927894597252218,-0.5221934763093788
-0.011616573669016361,0.7641506791114807,-120.02765655517578,0.024443565553261184,-0.40184588004731464,0.004927894597252218,-0.5221934763093788
0.8067284226417542,0.7711155414581299,-122.46686553955078,0.024443565553261184,-0.40184588004731464,0.004927894597252218,-0.5221934763093788
-0.7904862761497498,0.6293618679046631,-124.9640121459961,0.024443565553261184,-0.40184588004731464,0.004927894597252218,-0.5221934763093788
0.46624556183815,0.9998274445533752,-127.49700164794922,0.024443565553261184,-0.40184588004731464,0.004927894597252218,-0.5221934763093788
1.1049400568008423,0.37350988388061523,-130.0824737548828,0.024443565553261184,-0.40184588004731464,0.004927894597252218,-0.5221934763093788
-1.4251558780670166,1.3482877016067505,-132.7196044921875,0.024443565553261184,-0.40184588004731464,0.004927894597252218,-0.5221934763093788
0.9017191529273987,0.5529442429542542,-135.35220336914062,0.024443565553261184,-0.40184588004731464,0.004927894597252218,-0.5221934763093788
1.4274237155914307,0.2342015951871872,-138.0187225341797,0.024443565553261184,-0.40184588004731464,0.004927894597252218,-0.5221934763093788
-0.7143004536628723,1.6562250852584839,-140.69630432128906,0.024443565553261184,-0.40184588004731464,0.004927894597252218,-0.5221934763093788
1.3016337156295776,0.3881501257419586,-143.41156005859375,0.024443565553261184,-0.40184588004731464,0.004927894597252218,-0.5221934763093788
-0.9227251410484314,1.0194284915924072,-146.15298461914062,0.024443565553261184,-0.40184588004731464,0.004927894597252218,-0.5221934763093788
-0.020460648462176323,0.5397712588310242,-148.9026336669922,0.024443565553261184,-0.40184588004731464,0.004927894597252218,-0.5221934763093788
1.7389745712280273,0.12709631025791168,-151.6753692626953,0.024443565553261184,-0.40184588004731464,0.004927894597252218,-0.5221934763093788
-1.4063547849655151,1.5815218687057495,-154.4077911376953,0.024443565553261184,-0.40184588004731464,0.004927894597252218,-0.5221934763093788
-0.02332221157848835,0.28852200508117676,-157.05349731445312,0.024443565553261184,-0.40184588004731464,0.004927894597252218,-0.5221934763093788
0.48217344284057617,-0.28025996685028076,-159.69876098632812,0.024443565553261184,-0.40184588004731464,0.004927894597252218,-0.5221934763093788
1.0568418502807617,0.9467012882232666,-162.3715057373047,0.024443565553261184,-0.40184588004731464,0.004927894597252218,-0.5221934763093788
0.01638822630047798,0.5038402080535889,-165.0747528076172,0.024443565553261184,-0.40184588004731464,0.004927894597252218,-0.5221934763093788
-0.15163037180900574,0.1462545245885849,-167.8084259033203,0.024443565553261184,-0.40184588004731464,0.004927894597252218,-0.5221934763093788
0.7041736841201782,0.3510299623012543,-170.53298950195312,0.024443565553261184,-0.40184588004731464,0.004927894597252218,-0.5221934763093788
0.3146764039993286,-0.1446470469236374,-173.2026824951172,0.024443565553261184,-0.40184588004731464,0.004927894597252218,-0.5221934763093788
-0.18116511404514313,-0.6129688620567322,-175.81521606445312,0.024443565553261184,-0.40184588004731464,0.004927894597252218,-0.5221934763093788
0.4596172869205475,0.3993277847766876,-178.40618896484375,0.024443565553261184,-0.40184588004731464,0.004927894597252218,-0.5221934763093788
-0.7576372027397156,0.6039852499961853,179.07582092285156,0.024443565553261184,-0.40184588004731464,0.004927894597252218,-0.5221934763093788
0.850750207901001,-0.9381508231163025,176.5297088623047,0.024443565553261184,-0.40184588004731464,0.004927894597252218,-0.5221934763093788
-1.4791514873504639,2.250293016433716,174.3859405517578,0.024443565553261184,-0.40184588004731464,0.004927894597252218,-0.5221934763093788
0.6511984467506409,-1.9600367546081543,172.599853515625,0.024443565553261184,-0.40184588004731464,0.004927894597252218,-0.5221934763093788
-1.2519326210021973,1.6862505674362183,171.2568359375,0.024443565553261184,-0.40184588004731464,0.004927894597252218,-0.5221934763093788
-0.5761269927024841,-1.1012128591537476,170.43328857421875,0.024443565553261184,-0.40184588004731464,0.004927894597252218,-0.5221934763093788
-1.0328598022460938,-2.076234817504883,169.91285705566406,0.024443565553261184,-0.40184588004731464,0.004927894597252218,-0.5221934763093788
-0.7263845205307007,-0.21025490760803223,169.7315673828125,0.024443565553261184,-0.40184588004731464,0.004927894597252218,-0.5221934763093788
0.046539921313524246,-0.02560325711965561,169.84315490722656,0.024443565553261184,-0.40184588004731464,0.004927894597252218,-0.5221934763093788
1.3794339895248413,-0.045315757393836975,169.8104248046875,0.024443565553261184,-0.40184588004731464,0.004927894597252218,-0.5221934763093788
0.8352075815200806,0.1487806737422943,169.7896270751953,0.024443565553261184,-0.40184588004731464,0.004927894597252218,-0.5221934763093788
0.10617401450872421,0.19251303374767303,169.82461547851562,0.024443565553261184,-0.40184588004731464,0.004927894597252218,-0.5221934763093788
-0.4658547341823578,0.13653674721717834,169.8179473876953,0.024443565553261184,-0.40184588004731464,0.004927894597252218,-0.5221934763093788
-0.4572652280330658,0.405265748500824,169.8173370361328,0.024443565553261184,-0.40184588004731464,0.004927894597252218,-0.5221934763093788
-0.27495241165161133,0.15371103584766388,169.82989501953125,0.024443565553261184,-0.40184588004731464,0.004927894597252218,-0.5221934763093788
0.2992078363895416,0.1228065937757492,169.811279296875,0.024443565553261184,-0.40184588004731464,0.004927894597252218,-0.5221934763093788
0.3841375410556793,0.18135330080986023,169.81483459472656,0.024443565553261184,-0.40184588004731464,0.004927894597252218,-0.5221934763093788
0.2006945013999939,0.10349298268556595,169.8162078857422,0.024443565553261184,-0.40184588004731464,0.004927894597252218,-0.5221934763093788
-0.17491032183170319,0.2629341185092926,169.82040405273438,0.024443565553261184,-0.40184588004731464,0.004927894597252218,-0.5221934763093788
-0.19184932112693787,0.19748149812221527,169.82510375976562,0.024443565553261184,-0.40184588004731464,0.004927894597252218,-0.5221934763093788
-0.008988014422357082,0.19184666872024536,169.8226318359375,0.024443565553261184,-0.40184588004731464,0.004927894597252218,-0.5221934763093788
0.1989135444164276,0.17243386805057526,169.82192993164062,0.024443565553261184,-0.40184588004731464,0.004927894597252218,-0.5221934763093788
0.15301133692264557,0.163084015250206,169.82122802734375,0.024443565553261184,-0.40184588004731464,0.004927894597252218,-0.5221934763093788
-0.036234818398952484,0.20026449859142303,169.82186889648438,0.024443565553261184,-0.40184588004731464,0.004927894597252218,-0.5221934763093788
-0.09754914790391922,0.18642069399356842,169.82412719726562,0.024443565553261184,-0.40184588004731464,0.004927894597252218,-0.5221934763093788
0.018297988921403885,0.18958090245723724,169.82260131835938,0.024443565553261184,-0.40184588004731464,0.004927894597252218,-0.5221934763093788
0.11536435782909393,0.16829338669776917,169.8229522705078,0.024443565553261184,-0.40184588004731464,0.004927894597252218,-0.5221934763093788
0.08571916073560715,0.17311249673366547,169.8230743408203,0.024443565553261184,-0.40184588004731464,0.004927894597252218,-0.5221934763093788
-0.017060741782188416,0.20095182955265045,169.8241729736328,0.024443565553261184,-0.40184588004731464,0.004927894597252218,-0.5221934763093788
-0.03232363611459732,0.18059132993221283,169.8251190185547,0.024443565553261184,-0.40184588004731464,0.004927894597252218,-0.5221934763093788
0.029231755062937737,0.18396712839603424,169.82540893554688,0.024443565553261184,-0.40184588004731464,0.004927894597252218,-0.5221934763093788
0.07260049879550934,0.16722442209720612,169.8260498046875,0.024443565553261184,-0.40184588004731464,0.004927894597252218,-0.5221934763093788
0.04830930754542351,0.19047586619853973,169.82550048828125,0.024443565553261184,-0.40184588004731464,0.004927894597252218,-0.5221934763093788
-0.0005395554471760988,0.1921611726284027,169.82546997070312,0.024443565553261184,-0.40184588004731464,0.004927894597252218,-0.5221934763093788
-0.003456606063991785,0.1820850521326065,169.82675170898438,0.024443565553261184,-0.40184588004731464,0.004927894597252218,-0.5221934763093788
0.03620577231049538,0.18214574456214905,169.8271942138672,0.024443565553261184,-0.40184588004731464,0.004927894597252218,-0.5221934763093788
0.05432673916220665,0.16855184733867645,169.82814025878906,0.024443565553261184,-0.40184588004731464,0.004927894597252218,-0.5221934763093788
0.033270396292209625,0.19330133497714996,169.82766723632812,0.024443565553261184,-0.40184588004731464,0.004927894597252218,-0.5221934763093788
0.010203966870903969,0.187583789229393,169.82815551757812,0.024443565553261184,-0.40184588004731464,0.004927894597252218,-0.5221934763093788
0.03157854452729225,0.17353050410747528,169.828857421875,0.024443565553261184,-0.40184588004731464,0.004927894597252218,-0.5221934763093788
0.037436213344335556,0.18725980818271637,169.82833862304688,0.024443565553261184,-0.40184588004731464,0.004927894597252218,-0.5221934763093788
0.041325803846120834,0.16689051687717438,169.82846069335938,0.024443565553261184,-0.40184588004731464,0.004927894597252218,-0.5221934763093788
0.03191119059920311,0.17998643219470978,169.8282012939453,0.024443565553261184,-0.40184588004731464,0.004927894597252218,-0.5221934763093788
0.016223372891545296,0.18376755714416504,169.82838439941406,0.024443565553261184,-0.40184588004731464,0.004927894597252218,-0.5221934763093788
0.04089910164475441,0.18210482597351074,169.82920837402344,0.024443565553261184,-0.40184588004731464,0.004927894597252218,-0.5221934763093788
0.04092499613761902,0.17984001338481903,169.82974243164062,0.024443565553261184,-0.40184588004731464,0.004927894597252218,-0.5221934763093788
0.02991534024477005,0.1838732212781906,169.8301239013672,0.024443565553261184,-0.40184588004731464,0.004927894597252218,-0.5221934763093788
0.01888999342918396,0.17692099511623383,169.83082580566406,0.024443565553261184,-0.40184588004731464,0.004927894597252218,-0.5221934763093788
0.005807932000607252,0.1837703436613083,169.83187866210938,0.024443565553261184,-0.40184588004731464,0.004927894597252218,-0.5221934763093788
0.026209888979792595,0.18602260947227478,169.83139038085938,0.024443565553261184,-0.40184588004731464,0.004927894597252218,-0.5221934763093788
0.031355198472738266,0.1839454025030136,169.83197021484375,0.024443565553261184,-0.40184588004731464,0.004927894597252218,-0.5221934763093788
0.033856749534606934,0.1764514297246933,169.83224487304688,0.024443565553261184,-0.40184588004731464,0.004927894597252218,-0.5221934763093788
0.026289869099855423,0.17729488015174866,169.83290100097656,0.024443565553261184,-0.40184588004731464,0.004927894597252218,-0.5221934763093788
0.013878241181373596,0.18451644480228424,169.8328399658203,0.024443565553261184,-0.40184588004731464,0.004927894597252218,-0.5221934763093788
0.043234847486019135,0.1807575523853302,169.83335876464844,0.024443565553261184,-0.40184588004731464,0.004927894597252218,-0.5221934763093788
0.03764435276389122,0.17560622096061707,169.8326873779297,0.024443565553261184,-0.40184588004731464,0.004927894597252218,-0.5221934763093788
0.023218460381031036,0.1802922487258911,169.83197021484375,0.024443565553261184,-0.40184588004731464,0.004927894597252218,-0.5221934763093788
0.026645692065358162,0.18025605380535126,169.83303833007812,0.024443565553261184,-0.40184588004731464,0.004927894597252218,-0.5221934763093788
0.012917927466332912,0.1970430165529251,169.8329315185547,0.024443565553261184,-0.40184588004731464,0.004927894597252218,-0.5221934763093788
0.022498227655887604,0.17975278198719025,169.83364868164062,0.024443565553261184,-0.40184588004731464,0.004927894597252218,-0.5221934763093788
0.050797201693058014,0.16295766830444336,169.83314514160156,0.024443565553261184,-0.40184588004731464,0.004927894597252218,-0.5221934763093788
0.02094191685318947,0.16804653406143188,169.83250427246094,0.024443565553261184,-0.40184588004731464,0.004927894597252218,-0.5221934763093788
0.02154136821627617,0.1788107305765152,169.83251953125,0.024443565553261184,-0.40184588004731464,0.004927894597252218,-0.5221934763093788
0.02054268680512905,0.17047367990016937,169.833251953125,0.024443565553261184,-0.40184588004731464,0.004927894597252218,-0.5221934763093788
0.02356174774467945,0.17978638410568237,169.83297729492188,0.024443565553261184,-0.40184588004731464,0.004927894597252218,-0.5221934763093788
0.018002372235059738,0.17505894601345062,169.83265686035156,0.024443565553261184,-0.40184588004731464,0.004927894597252218,-0.5221934763093788
0.03137499839067459,0.1793307065963745,169.8330841064453,0.024443565553261184,-0.40184588004731464,0.004927894597252218,-0.5221934763093788
0.029248548671603203,0.1730802059173584,169.8334197998047,0.024443565553261184,-0.40184588004731464,0.004927894597252218,-0.5221934763093788
0.02457737922668457,0.1651037335395813,169.83348083496094,0.024443565553261184,-0.40184588004731464,0.004927894597252218,-0.5221934763093788
0.017223848029971123,0.17856837809085846,169.83425903320312,0.024443565553261184,-0.40184588004731464,0.004927894597252218,-0.5221934763093788
0.02594580687582493,0.16743260622024536,169.83444213867188,0.024443565553261184,-0.40184588004731464,0.004927894597252218,-0.5221934763093788
0.02372562326490879,0.16794002056121826,169.83480834960938,0.024443565553261184,-0.40184588004731464,0.004927894597252218,-0.5221934763093788
0.028916845098137856,0.17212823033332825,169.83470153808594,0.024443565553261184,-0.40184588004731464,0.004927894597252218,-0.5221934763093788
0.036995988339185715,0.16820292174816132,169.83514404296875,0.024443565553261184,-0.40184588004731464,0.004927894597252218,-0.5221934763093788
0.027896443381905556,0.1750391572713852,169.83493041992188,0.024443565553261184,-0.40184588004731464,0.004927894597252218,-0.5221934763093788
0.029693035408854485,0.16394589841365814,169.83518981933594,0.024443565553261184,-0.40184588004731464,0.004927894597252218,-0.5221934763093788
0.03024362213909626,0.1678416132926941,169.83480834960938,0.024443565553261184,-0.40184588004731464,0.004927894597252218,-0.5221934763093788
0.03492557257413864,0.1751376837491989,169.83555603027344,0.024443565553261184,-0.40184588004731464,0.004927894597252218,-0.5221934763093788
0.036126721650362015,0.16275039315223694,169.83494567871094,0.024443565553261184,-0.40184588004731464,0.004927894597252218,-0.5221934763093788
0.030515329912304878,0.16301028430461884,169.835205078125,0.024443565553261184,-0.40184588004731464,0.004927894597252218,-0.5221934763093788
0.03177117928862572,0.18058261275291443,169.836181640625,0.024443565553261184,-0.40184588004731464,0.004927894597252218,-0.5221934763093788
0.02883797697722912,0.1704525351524353,169.83700561523438,0.024443565553261184,-0.40184588004731464,0.004927894597252218,-0.5221934763093788
0.03719465807080269,0.17377187311649323,169.83705139160156,0.024443565553261184,-0.40184588004731464,0.004927894597252218,-0.5221934763093788
0.04214116558432579,0.17733915150165558,169.83743286132812,0.024443565553261184,-0.40184588004731464,0.004927894597252218,-0.5221934763093788
0.017977215349674225,0.1645270437002182,169.8369903564453,0.024443565553261184,-0.40184588004731464,0.004927894597252218,-0.5221934763093788
0.028076250106096268,0.1605139970779419,169.83660888671875,0.024443565553261184,-0.40184588004731464,0.004927894597252218,-0.5221934763093788
0.03212692216038704,0.17007769644260406,169.83714294433594,0.024443565553261184,-0.40184588004731464,0.004927894597252218,-0.5221934763093788
0.03126553073525429,0.1624682992696762,169.8374786376953,0.024443565553261184,-0.40184588004731464,0.004927894597252218,-0.5221934763093788
0,0.1685485690832138,169.83787536621094,0.024527868347294226,-0.41052611736994643,0.00518844068671267,-0.5194350024064381
0,0.1747794896364212,169.8382110595703,0.02461434235873944,-0.41915952518375377,0.00518844068671267,-0.5165739352504412
-0.1201595738530159,0.17478717863559723,169.83558654785156,0.024692471955333747,-0.4277448153081867,0.004187110904604204,-0.5136608796815076
-1.144067645072937,0.4001690149307251,169.86819458007812,0.024674463580207293,-0.436265902456103,-0.006348115919778736,-0.508869578068455
-2.522277355194092,-0.1992407590150833,170.0146484375,0.02431405435652577,-0.444733108739472,-0.036900990922003975,-0.5071951759358246
-3.064134359359741,0.6878852844238281,170.21385192871094,0.023311092583203907,-0.45315242802413797,-0.08345442187661925,-0.503123138224085
-2.390019416809082,1.5232149362564087,170.2028045654297,0.021541424873026307,-0.4613842650347699,-0.12890570334469278,-0.48469730305174974
-0.5168348550796509,0.7037732005119324,170.28570556640625,0.019191131603955823,-0.4693079014650235,-0.15312948894376555,-0.46613906857868026
-1.5923409461975098,-0.1581999957561493,170.3479766845703,0.016492502913137704,-0.47703899891322676,-0.17070595395440855,-0.4615926252057154
-1.2005503177642822,-0.15136031806468964,170.42782592773438,0.013453452898344659,-0.48475370657733735,-0.1939800478207568,-0.46417229448755576
-1.720460057258606,1.4042004346847534,170.6160888671875,0.010017604158622122,-0.49240290869958686,-0.21832180094594755,-0.45373196018238854
-1.5385029315948486,-0.5823250412940979,170.69207763671875,0.006152590601963728,-0.4999080333558634,-0.24547982585305966,-0.4468829985707997
-0.8782737255096436,1.039585828781128,170.66677856445312,0.001893428458780478,-0.5073243291106901,-0.2656196313289304,-0.4430724920084078
-1.0960997343063354,0,170.6759490966797,-0.0026706746647444726,-0.5146366771838315,-0.2820727434940636,-0.43440927676856506
-0.559181809425354,0.9267119765281677,170.6480255126953,-0.007486837163515789,-0.5218124767982709,-0.29586675635849435,-0.4266866769641637
-1.3203436136245728,-0.13589131832122803,170.58180236816406,-0.012548472368313607,-0.528869003313076,-0.31152946821724375,-0.4200965048124392
-1.2919602394104004,-0.07349445670843124,170.45375061035156,-0.01792204016172843,-0.5358851524054381,-0.3332986669925352,-0.4218413862710197
-1.1924374103546143,0.7651625871658325,170.27842712402344,-0.023649545559504364,-0.5428678096675622,-0.354001980740577,-0.41607748518387466
0.4122876822948456,-0.3539479374885559,170.2068634033203,-0.029603755636295907,-0.5497738778477326,-0.3605032284744084,-0.41265069643656405
-0.6155074238777161,0.7499785423278809,170.23440551757812,-0.035626255259590414,-0.5566238873296726,-0.3621967263209323,-0.40935044139623633
-0.8256999254226685,-0.16305693984031677,170.171142578125,-0.0417629512086407,-0.5634056362416594,-0.3742067875651022,-0.4044594280421733
-0.46750569343566895,0.6432294249534607,170.14549255371094,-0.048089536947146454,-0.5701132813975628,-0.3849835010555883,-0.4004579906662304
-0.6519150733947754,1.0536346435546875,170.20065307617188,-0.054583666184658375,-0.5766697434594646,-0.394312007445842,-0.3863174567619958
-0.4397742450237274,0.2689930498600006,170.1922607421875,-0.061231344733645915,-0.5830165185934553,-0.40340941843266287,-0.3752955593168734
-0.7707847356796265,-0.6873161196708679,170.0067138671875,-0.06803890163673915,-0.5893004947952512,-0.41349740993852413,-0.3787815848986306
-0.17048344016075134,1.7310490608215332,169.8429718017578,-0.07499589098125901,-0.5955410397559817,-0.4213413114038606,-0.37008381038904176
0.08340556919574738,0.8420887589454651,169.75498962402344,-0.08202429324569593,-0.601530413136093,-0.422066960328569,-0.3486409952243168
0.24602870643138885,-1.0734679698944092,169.60861206054688,-0.08903586520425354,-0.607357164390592,-0.41932167469834286,-0.350569155315558
0.08265058696269989,0.1737815886735916,169.5869598388672,-0.0960017348316291,-0.6132624618667694,-0.41658268058672543,-0.35806654182573144
-0.46927881240844727,0,169.68775939941406,-0.10297162869039715,-0.6192181693979848,-0.41980458246544,-0.3566183619201182
-1.3785933256149292,-0.34630444645881653,169.78744506835938,-0.11009669618551722,-0.6251858576832131,-0.43520351694896814,-0.359504232307275
0,0.6061277389526367,169.83221435546875,-0.11744582378227883,-0.6311595516041334,-0.44669179466242587,-0.3573390382031599
-0.17131157219409943,1.6848523616790771,169.845703125,-0.12490258366361051,-0.6369561064005311,-0.4481193910973767,-0.33824753736456226
-0.08808446675539017,-0.6441159248352051,169.8873748779297,-0.13238925379571606,-0.6425212919929375,-0.4502810247552891,-0.32957473372419666
0.23962756991386414,-0.9235016703605652,169.74803161621094,-0.13988341371502933,-0.6481230665546738,-0.4490181655623018,-0.3426382136841614
-0.40487197041511536,0.3845185339450836,169.580078125,-0.14737852511332472,-0.6538711328338831,-0.45039520223314555,-0.3471297398209571
-1.7281627655029297,-0.7837768793106079,169.53985595703125,-0.15503323922942702,-0.6596843547715494,-0.4681704916991293,-0.3504568926990031
0.5940708518028259,0.7008660435676575,169.61236572265625,-0.16291483714064167,-0.665531060680126,-0.47762125764663016,-0.3511478163301944
-0.5831946134567261,1.8057689666748047,169.64772033691406,-0.17087443614042258,-0.671209452409918,-0.4775306223270793,-0.33025919124484054
0.8345953226089478,0.1293160319328308,169.7845916748047,-0.1788158214632939,-0.6765793913613176,-0.4754356164174775,-0.3141334829231103
-0.46622782945632935,-0.16387324035167694,169.89907836914062,-0.1867141673276718,-0.6818173492161763,-0.4723658873078723,-0.314421459659934
-0.12118814140558243,1.2600001096725464,170.0466766357422,-0.19462772489189062,-0.6869815869556946,-0.47726102039838825,-0.3052870690822601
0.08562008291482925,-0.4317060112953186,170.0030517578125,-0.20258454523592562,-0.6920121843502338,-0.4775574208858112,-0.2983846182624499
0,-2.5840532779693604,169.82513427734375,-0.21053788974493115,-0.6971946890496958,-0.4768439201948543,-0.32351594567298886
-0.31828320026397705,1.8126201629638672,169.67318725585938,-0.21850739141486372,-0.7026401932216766,-0.4794962801970541,-0.3299445549647013
-0.9266048669815063,-0.17005768418312073,169.62835693359375,-0.22658544664504,-0.7080252022989507,-0.4898703474240998,-0.3162565343081951
0.2587432861328125,0.45432770252227783,169.61279296875,-0.2347963317118895,-0.7132764035639249,-0.4954358605978389,-0.31388761748870214
0.9795854091644287,1.706230878829956,169.67152404785156,-0.2347963317118895,-0.7132764035639249,-0.4954358605978389,-0.31388761748870214
-0.7528641819953918,-0.9327587485313416,169.55487060546875,-0.2347963317118895,-0.7132764035639249,-0.4954358605978389,-0.31388761748870214
0.277923047542572,0.25414714217185974,169.23744201660156,-0.2347963317118895,-0.7132764035639249,-0.4954358605978389,-0.31388761748870214
0.654858410358429,0.2897629141807556,169.05397033691406,-0.2347963317118895,-0.7132764035639249,-0.4954358605978389,-0.31388761748870214
2.1245930194854736,0.19287918508052826,168.83724975585938,-0.2347963317118895,-0.7132764035639249,-0.4954358605978389,-0.31388761748870214
3.1760447025299072,-1.6458946466445923,168.25396728515625,-0.2347963317118895,-0.7132764035639249,-0.4954358605978389,-0.31388761748870214
1.4578402042388916,0.9256883263587952,167.36782836914062,-0.2347963317118895,-0.7132764035639249,-0.4954358605978389,-0.31388761748870214
2.6240789890289307,-0.6943559646606445,166.2227325439453,-0.2347963317118895,-0.7132764035639249,-0.4954358605978389,-0.31388761748870214
2.4879610538482666,-0.04997595399618149,164.80279541015625,-0.2347963317118895,-0.7132764035639249,-0.4954358605978389,-0.31388761748870214
2.9946444034576416,0.4543806314468384,163.1648712158203,-0.2347963317118895,-0.7132764035639249,-0.4954358605978389,-0.31388761748870214
2.234898328781128,0.14856286346912384,161.25503540039062,-0.2347963317118895,-0.7132764035639249,-0.4954358605978389,-0.31388761748870214
1.8878536224365234,-1.8911006450653076,159.20262145996094,-0.2347963317118895,-0.7132764035639249,-0.4954358605978389,-0.31388761748870214
0.19040337204933167,1.1173089742660522,157.0018310546875,-0.2347963317118895,-0.7132764035639249,-0.4954358605978389,-0.31388761748870214
1.0115684270858765,-1.2649056911468506,154.84901428222656,-0.2347963317118895,-0.7132764035639249,-0.4954358605978389,-0.31388761748870214
1.6317156553268433,-0.6884214282035828,152.62954711914062,-0.2347963317118895,-0.7132764035639249,-0.4954358605978389,-0.31388761748870214
1.2443609237670898,2.264228343963623,150.42294311523438,-0.2347963317118895,-0.7132764035639249,-0.4954358605978389,-0.31388761748870214
0.5597012042999268,-2.3734958171844482,148.35321044921875,-0.2347963317118895,-0.7132764035639249,-0.4954358605978389,-0.31388761748870214
0.7820814847946167,0.4948676824569702,146.34048461914062,-0.2347963317118895,-0.7132764035639249,-0.4954358605978389,-0.31388761748870214
0.40178367495536804,-0.7943506836891174,144.52792358398438,-0.2347963317118895,-0.7132764035639249,-0.4954358605978389,-0.31388761748870214
0.6697826385498047,0.4009428024291992,142.7171630859375,-0.2347963317118895,-0.7132764035639249,-0.4954358605978389,-0.31388761748870214
1.4604908227920532,1.0978344678878784,140.90090942382812,-0.2347963317118895,-0.7132764035639249,-0.4954358605978389,-0.31388761748870214
0.9580807089805603,-0.36919528245925903,138.97877502441406,-0.2347963317118895,-0.7132764035639249,-0.4954358605978389,-0.31388761748870214
1.1431710720062256,1.1599841117858887,136.9746856689453,-0.2347963317118895,-0.7132764035639249,-0.4954358605978389,-0.31388761748870214
1.4451416730880737,0.7241995930671692,134.9273223876953,-0.2347963317118895,-0.7132764035639249,-0.4954358605978389,-0.31388761748870214
0.2595469355583191,0.8732653260231018,132.95651245117188,-0.2347963317118895,-0.7132764035639249,-0.4954358605978389,-0.31388761748870214
0.6543703675270081,0.27800309658050537,130.98635864257812,-0.2347963317118895,-0.7132764035639249,-0.4954358605978389,-0.31388761748870214
0.5805270671844482,-1.1633855104446411,129.0271759033203,-0.2347963317118895,-0.7132764035639249,-0.4954358605978389,-0.31388761748870214
0.7917221188545227,0.32307615876197815,127.02252960205078,-0.2347963317118895,-0.7132764035639249,-0.4954358605978389,-0.31388761748870214
0.813352644443512,1.3684266805648804,124.83550262451172,-0.2347963317118895,-0.7132764035639249,-0.4954358605978389,-0.31388761748870214
0.13498906791210175,-0.8961634039878845,122.50492095947266,-0.2347963317118895,-0.7132764035639249,-0.4954358605978389,-0.31388761748870214
1.3870497941970825,0.49726536870002747,120.0762710571289,-0.2347963317118895,-0.7132764035639249,-0.4954358605978389,-0.31388761748870214
0.801753044128418,0.23531585931777954,117.56659698486328,-0.2347963317118895,-0.7132764035639249,-0.4954358605978389,-0.31388761748870214
0.3415655791759491,-0.787517249584198,115.00447082519531,-0.2347963317118895,-0.7132764035639249,-0.4954358605978389,-0.31388761748870214
1.842667818069458,0.07113677263259888,112.41344451904297,-0.2347963317118895,-0.7132764035639249,-0.4954358605978389,-0.31388761748870214
0.3710404336452484,-0.09166993200778961,109.8558120727539,-0.2347963317118895,-0.7132764035639249,-0.4954358605978389,-0.31388761748870214
1.1843417882919312,0.5453671216964722,107.26458740234375,-0.2347963317118895,-0.7132764035639249,-0.4954358605978389,-0.31388761748870214
0.4138309061527252,-0.4817638397216797,104.6337890625,-0.2347963317118895,-0.7132764035639249,-0.4954358605978389,-0.31388761748870214
0.6719560027122498,-0.3628791272640228,101.96856689453125,-0.2347963317118895,-0.7132764035639249,-0.4954358605978389,-0.31388761748870214
0.4554024040699005,-0.4423467814922333,99.26435852050781,-0.2347963317118895,-0.7132764035639249,-0.4954358605978389,-0.31388761748870214
-0.6202353835105896,-0.8340712189674377,96.5376205444336,-0.2347963317118895,-0.7132764035639249,-0.4954358605978389,-0.31388761748870214
0.34433552622795105,0.6059629917144775,93.86463928222656,-0.2347963317118895,-0.7132764035639249,-0.4954358605978389,-0.31388761748870214
-0.614041268825531,-0.4775294065475464,91.359130859375,-0.2347963317118895,-0.7132764035639249,-0.4954358605978389,-0.31388761748870214
-0.5546990633010864,0.7569858431816101,89.42074584960938,-0.2347963317118895,-0.7132764035639249,-0.4954358605978389,-0.31388761748870214
-0.19030876457691193,0.41189417243003845,87.96018981933594,-0.2347963317118895,-0.7132764035639249,-0.4954358605978389,-0.31388761748870214
-1.2178784608840942,0.5416781306266785,86.9600601196289,-0.2347963317118895,-0.7132764035639249,-0.4954358605978389,-0.31388761748870214
-1.9608659744262695,0.42933228611946106,86.31411743164062,-0.2347963317118895,-0.7132764035639249,-0.4954358605978389,-0.31388761748870214
-1.1751712560653687,0.4279170036315918,86.1794662475586,-0.2347963317118895,-0.7132764035639249,-0.4954358605978389,-0.31388761748870214
0.2832988202571869,0.2227640002965927,86.2993392944336,-0.2347963317118895,-0.7132764035639249,-0.4954358605978389,-0.31388761748870214
0.06707264482975006,-0.8208510279655457,86.2701644897461,-0.2347963317118895,-0.7132764035639249,-0.4954358605978389,-0.31388761748870214
0.2727006673812866,0.04787798598408699,86.26272583007812,-0.2347963317118895,-0.7132764035639249,-0.4954358605978389,-0.31388761748870214
0.21798886358737946,0.07255485653877258,86.29199981689453,-0.2347963317118895,-0.7132764035639249,-0.4954358605978389,-0.31388761748870214
0.035319916903972626,0.41399386525154114,86.28218841552734,-0.2347963317118895,-0.7132764035639249,-0.4954358605978389,-0.31388761748870214
0.34896424412727356,0.2425059676170349,86.28336334228516,-0.2347963317118895,-0.7132764035639249,-0.4954358605978389,-0.31388761748870214
0.0449870340526104,0.024387624114751816,86.2904052734375,-0.2347963317118895,-0.7132764035639249,-0.4954358605978389,-0.31388761748870214
0.2234993278980255,-0.07803907245397568,86.28060913085938,-0.2347963317118895,-0.7132764035639249,-0.4954358605978389,-0.31388761748870214
0.1906559020280838,0.09020306169986725,86.28897857666016,-0.2347963317118895,-0.7132764035639249,-0.4954358605978389,-0.31388761748870214
0.13360950350761414,0.19892704486846924,86.2877197265625,-0.2347963317118895,-0.7132764035639249,-0.4954358605978389,-0.31388761748870214
0.22288809716701508,0.1794281005859375,86.28748321533203,-0.2347963317118895,-0.7132764035639249,-0.4954358605978389,-0.31388761748870214
0.1499636471271515,0.0508301667869091,86.28978729248047,-0.2347963317118895,-0.7132764035639249,-0.4954358605978389,-0.31388761748870214
0.17412061989307404,0.013244418427348137,86.28691101074219,-0.2347963317118895,-0.7132764035639249,-0.4954358605978389,-0.31388761748870214
0.20052650570869446,0.10370852798223495,86.28923797607422,-0.2347963317118895,-0.7132764035639249,-0.4954358605978389,-0.31388761748870214
0.1520678550004959,0.1616913378238678,86.2889633178711,-0.2347963317118895,-0.7132764035639249,-0.4954358605978389,-0.31388761748870214
0.20243647694587708,0.12016099691390991,86.2886734008789,-0.2347963317118895,-0.7132764035639249,-0.4954358605978389,-0.31388761748870214
0.16217085719108582,0.05488715320825577,86.28983306884766,-0.2347963317118895,-0.7132764035639249,-0.4954358605978389,-0.31388761748870214
0.17348432540893555,0.06886683404445648,86.2890396118164,-0.2347963317118895,-0.7132764035639249,-0.4954358605978389,-0.31388761748870214
0.18586577475070953,0.10925876349210739,86.28929901123047,-0.2347963317118895,-0.7132764035639249,-0.4954358605978389,-0.31388761748870214
0.1650780737400055,0.13904355466365814,86.2895736694336,-0.2347963317118895,-0.7132764035639249,-0.4954358605978389,-0.31388761748870214
0.18073105812072754,0.07415095716714859,86.2896499633789,-0.2347963317118895,-0.7132764035639249,-0.4954358605978389,-0.31388761748870214
0.17465840280056,0.05800565332174301,86.29009246826172,-0.2347963317118895,-0.7132764035639249,-0.4954358605978389,-0.31388761748870214
0.17123933136463165,0.10703729838132858,86.28984069824219,-0.2347963317118895,-0.7132764035639249,-0.4954358605978389,-0.31388761748870214
0.18612803518772125,0.12154562026262283,86.28884887695312,-0.2347963317118895,-0.7132764035639249,-0.4954358605978389,-0.31388761748870214
0.17327934503555298,0.11249800771474838,86.2894058227539,-0.2347963317118895,-0.7132764035639249,-0.4954358605978389,-0.31388761748870214
0.17028024792671204,0.08293212205171585,86.29000854492188,-0.2347963317118895,-0.7132764035639249,-0.4954358605978389,-0.31388761748870214
0.17139875888824463,0.10135820508003235,86.28948974609375,-0.2347963317118895,-0.7132764035639249,-0.4954358605978389,-0.31388761748870214
0.1784937083721161,0.10785418003797531,86.29024505615234,-0.2347963317118895,-0.7132764035639249,-0.4954358605978389,-0.31388761748870214
0.16938312351703644,0.10937090963125229,86.28994750976562,-0.2347963317118895,-0.7132764035639249,-0.4954358605978389,-0.31388761748870214
0.17301510274410248,0.08668853342533112,86.2906265258789,-0.2347963317118895,-0.7132764035639249,-0.4954358605978389,-0.31388761748870214
0.17650817334651947,0.08439403027296066,86.29054260253906,-0.2347963317118895,-0.7132764035639249,-0.4954358605978389,-0.31388761748870214
0.1615685075521469,0.09819895029067993,86.29155731201172,-0.2347963317118895,-0.7132764035639249,-0.4954358605978389,-0.31388761748870214
0.17352187633514404,0.11762521415948868,86.29134368896484,-0.2347963317118895,-0.7132764035639249,-0.4954358605978389,-0.31388761748870214
0.1675020158290863,0.1018032506108284,86.29278564453125,-0.2347963317118895,-0.7132764035639249,-0.4954358605978389,-0.31388761748870214
0.17270824313163757,0.08161863684654236,86.2939682006836,-0.2347963317118895,-0.7132764035639249,-0.4954358605978389,-0.31388761748870214
0.17100609838962555,0.08137013763189316,86.29480743408203,-0.2347963317118895,-0.7132764035639249,-0.4954358605978389,-0.31388761748870214
0.1774383932352066,0.09617922455072403,86.29473876953125,-0.2347963317118895,-0.7132764035639249,-0.4954358605978389,-0.31388761748870214
0.16066725552082062,0.10250063240528107,86.29476928710938,-0.2347963317118895,-0.7132764035639249,-0.4954358605978389,-0.31388761748870214
0.15669623017311096,0.10287545621395111,86.29593658447266,-0.2347963317118895,-0.7132764035639249,-0.4954358605978389,-0.31388761748870214
0.16750715672969818,0.08514886349439621,86.2965316772461,-0.2347963317118895,-0.7132764035639249,-0.4954358605978389,-0.31388761748870214
0.1617145836353302,0.09106225520372391,86.29592895507812,-0.2347963317118895,-0.7132764035639249,-0.4954358605978389,-0.31388761748870214
0.1678829938173294,0.09880447387695312,86.29634857177734,-0.2347963317118895,-0.7132764035639249,-0.4954358605978389,-0.31388761748870214
0.1671903133392334,0.08025234192609787,86.29684448242188,-0.2347963317118895,-0.7132764035639249,-0.4954358605978389,-0.31388761748870214
0.17184053361415863,0.0746598020195961,86.29698181152344,-0.2347963317118895,-0.7132764035639249,-0.4954358605978389,-0.31388761748870214
0.17248743772506714,0.09172709286212921,86.29743957519531,-0.2347963317118895,-0.7132764035639249,-0.4954358605978389,-0.31388761748870214
0.16286194324493408,0.09162484109401703,86.29851531982422,-0.2347963317118895,-0.7132764035639249,-0.4954358605978389,-0.31388761748870214
0.17424413561820984,0.08257690072059631,86.29903411865234,-0.2347963317118895,-0.7132764035639249,-0.4954358605978389,-0.31388761748870214
0.17108328640460968,0.07826723903417587,86.29927062988281,-0.2347963317118895,-0.7132764035639249,-0.4954358605978389,-0.31388761748870214
0.16455473005771637,0.08927265554666519,86.2979965209961,-0.2347963317118895,-0.7132764035639249,-0.4954358605978389,-0.31388761748870214
0.17002764344215393,0.08782971650362015,86.29779052734375,-0.2347963317118895,-0.7132764035639249,-0.4954358605978389,-0.31388761748870214
0.1625792235136032,0.0962999239563942,86.29823303222656,-0.2347963317118895,-0.7132764035639249,-0.4954358605978389,-0.31388761748870214
0.17270267009735107,0.08535204827785492,86.29808044433594,-0.2347963317118895,-0.7132764035639249,-0.4954358605978389,-0.31388761748870214
0.1681760996580124,0.08815609663724899,86.29798126220703,-0.2347963317118895,-0.7132764035639249,-0.4954358605978389,-0.31388761748870214
0.18239855766296387,0.1005493700504303,86.29820251464844,-0.2347963317118895,-0.7132764035639249,-0.4954358605978389,-0.31388761748870214
0.17826752364635468,0.08368457853794098,86.297607421875,-0.2347963317118895,-0.7132764035639249,-0.4954358605978389,-0.31388761748870214
0.17260804772377014,0.07059906423091888,86.2975082397461,-0.2347963317118895,-0.7132764035639249,-0.4954358605978389,-0.31388761748870214
0.18449392914772034,0.07540865242481232,86.29790496826172,-0.2347963317118895,-0.7132764035639249,-0.4954358605978389,-0.31388761748870214
0.17736215889453888,0.08686493337154388,86.29849243164062,-0.2347963317118895,-0.7132764035639249,-0.4954358605978389,-0.31388761748870214
0.17979076504707336,0.09193410724401474,86.2983169555664,-0.2347963317118895,-0.7132764035639249,-0.4954358605978389,-0.31388761748870214
0.15410581231117249,0.09317470341920853,86.30044555664062,-0.2347963317118895,-0.7132764035639249,-0.4954358605978389,-0.31388761748870214
0.17066442966461182,0.07541357725858688,86.3005142211914,-0.2347963317118895,-0.7132764035639249,-0.4954358605978389,-0.31388761748870214
0.1615336835384369,0.09624340385198593,86.29997253417969,-0.2347963317118895,-0.7132764035639249,-0.4954358605978389,-0.31388761748870214
0.1708771288394928,0.07724501937627792,86.29914855957031,-0.2347963317118895,-0.7132764035639249,-0.4954358605978389,-0.31388761748870214
0.17129726707935333,0.07374466210603714,86.29873657226562,-0.2347963317118895,-0.7132764035639249,-0.4954358605978389,-0.31388761748870214
0.17238891124725342,0.0712922140955925,86.29822540283203,-0.2347963317118895,-0.7132764035639249,-0.4954358605978389,-0.31388761748870214
0.16718748211860657,0.08851456642150879,86.29756164550781,-0.2347963317118895,-0.7132764035639249,-0.4954358605978389,-0.31388761748870214
0.17345616221427917,0.0681551918387413,86.29712677001953,-0.2347963317118895,-0.7132764035639249,-0.4954358605978389,-0.31388761748870214
0.16570515930652618,0.08178788423538208,86.29731750488281,-0.2347963317118895,-0.7132764035639249,-0.4954358605978389,-0.31388761748870214
0.1589595079421997,0.07726716250181198,86.2961196899414,-0.2347963317118895,-0.7132764035639249,-0.4954358605978389,-0.31388761748870214
0.16649779677391052,0.085366390645504,86.29558563232422,-0.2347963317118895,-0.7132764035639249,-0.4954358605978389,-0.31388761748870214
0.15996645390987396,0.08057287335395813,86.29512023925781,-0.2347963317118895,-0.7132764035639249,-0.4954358605978389,-0.31388761748870214
0.1703546941280365,0.08149509876966476,86.29591369628906,-0.2347963317118895,-0.7132764035639249,-0.4954358605978389,-0.31388761748870214
0.16927069425582886,0.0836651474237442,86.2955322265625,-0.2347963317118895,-0.7132764035639249,-0.4954358605978389,-0.31388761748870214
0.1603880375623703,0.07094060629606247,86.29613494873047,-0.2347963317118895,-0.7132764035639249,-0.4954358605978389,-0.31388761748870214
0.17330817878246307,0.08271229267120361,86.29669189453125,-0.2347963317118895,-0.7132764035639249,-0.4954358605978389,-0.31388761748870214
0.16185730695724487,0.06960639357566833,86.29779052734375,-0.2347963317118895,-0.7132764035639249,-0.4954358605978389,-0.31388761748870214
0.16430255770683289,0.090371273458004,86.29903411865234,-0.2347963317118895,-0.7132764035639249,-0.4954358605978389,-0.31388761748870214
0.17699891328811646,0.07504968345165253,86.29838562011719,-0.2347963317118895,-0.7132764035639249,-0.4954358605978389,-0.31388761748870214
0.16234266757965088,0.08101915568113327,86.29816436767578,-0.2347963317118895,-0.7132764035639249,-0.4954358605978389,-0.31388761748870214
0.15922990441322327,0.07324863225221634,86.29833221435547,-0.2347963317118895,-0.7132764035639249,-0.4954358605978389,-0.31388761748870214
0.17325299978256226,0.0842125341296196,86.29856872558594,-0.2347963317118895,-0.7132764035639249,-0.4954358605978389,-0.31388761748870214
0.16225895285606384,0.07138512283563614,86.29803466796875,-0.2347963317118895,-0.7132764035639249,-0.4954358605978389,-0.31388761748870214
0.15993711352348328,0.06760817021131516,86.29762268066406,-0.2430312213283549,-0.7184982115433861,-0.4927508933780093,-0.3127293400466442
0.11940616369247437,0.23681437969207764,86.30013275146484,-0.25122433737929284,-0.7236892267559758,-0.490423032734543,-0.31019248546411593
0.5406914949417114,1.6663252115249634,86.27027893066406,-0.2593522144763523,-0.7287269390420987,-0.48492221891259146,-0.2943329888706406
0.6734956502914429,3.584613800048828,86.21722412109375,-0.2673499329064765,-0.733267840314139,-0.47480399270231516,-0.2505751637741923
-0.8499129414558411,1.7710720300674438,86.279541015625,-0.27527558398562374,-0.7370721704166175,-0.4762741367953518,-0.20594444852322338
0.8523001074790955,0.9783461689949036,86.25587463378906,-0.283213320490128,-0.7403136460726253,-0.476254243745158,-0.18303263019770383
0.6294854879379272,1.2128750085830688,86.29346466064453,-0.2910479894417544,-0.7432120217719219,-0.46390603045001616,-0.1647724537178874
-0.25688502192497253,1.7979645729064941,86.31304168701172,-0.29875388158355937,-0.7457491432518388,-0.46080102656657485,-0.13968212387214105
0.3382273018360138,2.5280513763427734,86.38674926757812,-0.306428249923564,-0.7477767608754544,-0.46012317423398286,-0.10363199096173048
0.2077351212501526,1.4117299318313599,86.43997955322266,-0.3140590554369716,-0.7492303648006379,-0.4555734873749315,-0.07080048006027936
0.22922445833683014,1.1534204483032227,86.48917388916016,-0.32162160247797134,-0.7502322373585776,-0.45193215754503996,-0.04942422689249118
0.2604001760482788,0.633605420589447,86.50374603271484,-0.3291198033930008,-0.7509318754547794,-0.4478519522584974,-0.034532344651718935
0.8291328549385071,1.043373703956604,86.43592071533203,-0.33650834058126833,-0.7513909576486589,-0.4387725103336075,-0.020557518613835177
-0.5791463255882263,1.7785437107086182,86.4207763671875,-0.3438038555778458,-0.75153761647176,-0.43668928925568845,0.002958459841708342
0.23913656175136566,0.3898967504501343,86.32878875732422,-0.3511056221879293,-0.7513377226645955,-0.43952270395432896,0.02102879701803128
0.1728527992963791,1.4377168416976929,86.21280670166016,-0.35840239021487313,-0.7508603251037292,-0.4360894592789311,0.03625891028592984
0.9161267280578613,0.5873500108718872,86.18555450439453,-0.3655949242912335,-0.7501153802897575,-0.42701462988431244,0.05313446739067634
0.8463393449783325,0.5157126188278198,86.1340103149414,-0.3725894413120112,-0.7491532042617394,-0.41232741260901085,0.06232665597150724
-2.056288957595825,0.2667553424835205,86.04957580566406,-0.3795455891341487,-0.7480600886093454,-0.42241032604748996,0.06884722231576841
1.728697419166565,1.1188229322433472,85.98310852050781,-0.38660851064733115,-0.7468164141905599,-0.42514025553440044,0.0803937079384923
0.7985216975212097,0.7622120380401611,86.07933807373047,-0.39351868024535674,-0.7453458916297597,-0.404080096228669,0.09606899935752154
-0.6093059182167053,0.7561478018760681,86.10613250732422,-0.40024020853116066,-0.743639299984918,-0.4025032980677981,0.10872199802349011
0.19371280074119568,0.8055897951126099,86.0287094116211,-0.40697745746544867,-0.7417188126847356,-0.4059665740467607,0.12173647799839576
0.7599954605102539,0.38965073227882385,85.94044494628906,-0.41367733729253,-0.7396068685703602,-0.3980190052029986,0.1316968157266577
0.08005735278129578,0.9689393043518066,85.78687286376953,-0.4202526503783236,-0.737317575111261,-0.3910185650922357,0.1430183993652463
0,0.5405343770980835,85.54545593261719,-0.4267640669248066,-0.7348291105606284,-0.3903514204857249,0.15559734671066205
0.48688945174217224,0.782759428024292,85.3265380859375,-0.43323611216541996,-0.7321439260456505,-0.3862940083878735,0.16662479508668185
0.33519572019577026,-0.45591920614242554,85.08695983886719,-0.4396172563904999,-0.7293441488899084,-0.37944329862172393,0.16934846360236408
-0.22120606899261475,0.7337924838066101,84.97972106933594,-0.4459333954195284,-0.7265023777411423,-0.37849338486169765,0.17166407424956562
-0.5824366807937622,-0.3129303753376007,85.05471801757812,-0.45229742702484743,-0.7236120833016726,-0.38519040777658414,0.17517125848680737
1.0430024862289429,1.2228631973266602,85.21102905273438,-0.4586852834179686,-0.7206293725475876,-0.38135235939795764,0.18275403200338286
-0.8254790902137756,0,85.18472290039062,-0.4650260502832113,-0.717498550958828,-0.3795396644311646,0.19294455864777169
1.0433294773101807,-0.11186792701482773,84.98603057861328,-0.47133658285796015,-0.7142905769207412,-0.3777242445386946,0.1920123259226481
1.6335129737854004,0.9164611101150513,84.95111083984375,-0.4774460950967234,-0.7110344969620929,-0.35541722411289806,0.19871726911514997
-0.39741796255111694,0,84.88928985595703,-0.4832838755672693,-0.7076588993441935,-0.34511643235261236,0.2063544450327754
-0.8471960425376892,0.9416149258613586,84.82177734375,-0.4891222476346107,-0.7041542686682402,-0.35548821572835243,0.21420123608162003
0.4105282425880432,0,84.94287109375,-0.4950773753828575,-0.7005188581414727,-0.35912711406126613,0.22204802713046468
-0.08934751152992249,0.5239912271499634,85.02128601074219,-0.501040523066444,-0.6967816694096352,-0.3564506079691151,0.2264146206900477
1.146522045135498,-0.6041542291641235,85.03667449951172,-0.5069079516344288,-0.6930136592732742,-0.3476408201890686,0.22574659567326302
0.2806375026702881,0,84.98001098632812,-0.5126028570023157,-0.6892931711668562,-0.33574782395735375,0.22071197709689533
-0.16735468804836273,0.3348039388656616,84.90845489501953,-0.5181907872061451,-0.6855913879417089,-0.33480380050217107,0.22350200992077585
0.3006177842617035,1.3533796072006226,84.82508850097656,-0.5237615961661665,-0.6817491194745525,-0.3336932747003932,0.23757020613799487
0.10227631777524948,0.13076797127723694,84.79061126708984,-0.5292951719874205,-0.6776865502348584,-0.3303358238500853,0.24993810262531035
-0.0930371806025505,-0.11298784613609314,84.66118621826172,-0.5348001274448405,-0.6735196804601906,-0.33025883104031284,0.2500862703348199
-2.0016002655029297,-0.756910502910614,84.3567886352539,-0.5404499022292697,-0.669411985562183,-0.34771414309119186,0.24283711742609734
2.1230785846710205,0.42987602949142456,84.27002716064453,-0.5462367019530695,-0.6653874109990687,-0.3467018237647911,0.2401118301476041
1.589626431465149,0.13395120203495026,84.34745788574219,-0.551757238945251,-0.6613463924944193,-0.3157626152969897,0.24481039041032387
-0.3424015939235687,-0.5252076387405396,84.33152770996094,-0.5569333363642605,-0.6572933899067962,-0.3053690749841432,0.24154992010444395
-0.18978776037693024,1.0498933792114258,84.09669494628906,-0.5620597785413781,-0.6532311213953006,-0.3098039862699807,0.24592230127503467
0.5833150744438171,0.8452569246292114,83.92780303955078,-0.5671958500268454,-0.6490008087140611,-0.30652459198608994,0.26171522047370666
-0.41852283477783203,0,83.77900695800781,-0.5722931493210812,-0.644580189975289,-0.30515132332220674,0.2687590281789501
0.6356401443481445,0.2169915735721588,83.5909423828125,-0.5773639271188423,-0.6400858039796973,-0.3033420124091208,0.2705672912920514
0,-0.4541996121406555,83.4991455078125,-0.5823754856489701,-0.6355928219052859,-0.29804501120621957,0.26859055763731393
0.5208127498626709,-0.17116190493106842,83.53606414794922,-0.5873067349503334,-0.6311597404944607,-0.29370490495736395,0.26337921166171624
0.23557589948177338,0.7948610782623291,83.64278411865234,-0.592149289710085,-0.6267267745241729,-0.2874016662128269,0.2685767047728101
-1.0184698104858398,-0.32211557030677795,83.53496551513672,-0.5969936851130073,-0.6222176665621292,-0.2939257821378608,0.2725162506724397
1.3085252046585083,-0.09545621275901794,83.39783477783203,-0.6018723054129319,-0.6177047270914126,-0.29150865385308855,0.26903648581355805
0.5059903860092163,0.7934176921844482,83.36561584472656,-0.6066047749500203,-0.6131723161140042,-0.27638769059752416,0.27485283147543665
-0.7908434867858887,0.30857518315315247,83.36235809326172,-0.6112310179253108,-0.6085149083064041,-0.27876146643732974,0.2840361054365833
0.7563549280166626,0,83.42897033691406,-0.6158794374047364,-0.603759544383631,-0.27904887109373994,0.2866075652961929
-0.385004460811615,0.44715893268585205,83.53223419189453,-0.6205044636960761,-0.5989516989250357,-0.2759542838670312,0.29033388973524166
0.5905289053916931,-0.8839553594589233,83.54106140136719,-0.6205044636960761,-0.5989516989250357,-0.2759542838670312,0.29033388973524166
0.6233132481575012,-0.7850778698921204,83.46150970458984,-0.6205044636960761,-0.5989516989250357,-0.2759542838670312,0.29033388973524166
0.1439942717552185,-0.9280586838722229,83.29946899414062,-0.6205044636960761,-0.5989516989250357,-0.2759542838670312,0.29033388973524166
-1.3538137674331665,-3.0091466903686523,82.73216247558594,-0.6205044636960761,-0.5989516989250357,-0.2759542838670312,0.29033388973524166
0.7880141139030457,-2.3110501766204834,81.89885711669922,-0.6205044636960761,-0.5989516989250357,-0.2759542838670312,0.29033388973524166
0.36141127347946167,-2.1300199031829834,80.81173706054688,-0.6205044636960761,-0.5989516989250357,-0.2759542838670312,0.29033388973524166
0.4280747175216675,-2.159498453140259,79.46145629882812,-0.6205044636960761,-0.5989516989250357,-0.2759542838670312,0.29033388973524166
0.41543906927108765,-1.1053383350372314,77.9662094116211,-0.6205044636960761,-0.5989516989250357,-0.2759542838670312,0.29033388973524166
-0.5316426157951355,-2.9709224700927734,76.21136474609375,-0.6205044636960761,-0.5989516989250357,-0.2759542838670312,0.29033388973524166
0.4177449941635132,-0.7984523773193359,74.24378967285156,-0.6205044636960761,-0.5989516989250357,-0.2759542838670312,0.29033388973524166
-0.22574451565742493,-2.3589024543762207,72.15277099609375,-0.6205044636960761,-0.5989516989250357,-0.2759542838670312,0.29033388973524166
-0.44041529297828674,-1.5926058292388916,69.94424438476562,-0.6205044636960761,-0.5989516989250357,-0.2759542838670312,0.29033388973524166
0.15355966985225677,-1.2813066244125366,67.68534851074219,-0.6205044636960761,-0.5989516989250357,-0.2759542838670312,0.29033388973524166
-2.4183290004730225,-0.8309970498085022,65.49232482910156,-0.6205044636960761,-0.5989516989250357,-0.2759542838670312,0.29033388973524166
1.4299707412719727,-0.7189813852310181,63.18626022338867,-0.6205044636960761,-0.5989516989250357,-0.2759542838670312,0.29033388973524166
0.18943798542022705,-1.1896283626556396,60.843666076660156,-0.6205044636960761,-0.5989516989250357,-0.2759542838670312,0.29033388973524166
-0.20758302509784698,-1.474496841430664,58.41307067871094,-0.6205044636960761,-0.5989516989250357,-0.2759542838670312,0.29033388973524166
0.7809972763061523,-0.7407816648483276,55.94580841064453,-0.6205044636960761,-0.5989516989250357,-0.2759542838670312,0.29033388973524166
-0.5396214127540588,-0.9206737875938416,53.455711364746094,-0.6205044636960761,-0.5989516989250357,-0.2759542838670312,0.29033388973524166
1.5720012187957764,-0.7905893921852112,50.967628479003906,-0.6205044636960761,-0.5989516989250357,-0.2759542838670312,0.29033388973524166
-2.004518508911133,-0.5618140697479248,48.51161193847656,-0.6205044636960761,-0.5989516989250357,-0.2759542838670312,0.29033388973524166
1.6529189348220825,-1.2988890409469604,46.09952926635742,-0.6205044636960761,-0.5989516989250357,-0.2759542838670312,0.29033388973524166
-0.1851857602596283,-0.30000030994415283,43.697181701660156,-0.6205044636960761,-0.5989516989250357,-0.2759542838670312,0.29033388973524166
-0.5190375447273254,-0.9225127100944519,41.261802673339844,-0.6205044636960761,-0.5989516989250357,-0.2759542838670312,0.29033388973524166
-0.4822782576084137,-0.8548353314399719,38.757537841796875,-0.6205044636960761,-0.5989516989250357,-0.2759542838670312,0.29033388973524166
0.12160181999206543,-0.8465749621391296,36.243953704833984,-0.6205044636960761,-0.5989516989250357,-0.2759542838670312,0.29033388973524166
-1.7070668935775757,0.30837395787239075,33.66753005981445,-0.6205044636960761,-0.5989516989250357,-0.2759542838670312,0.29033388973524166
0.45451658964157104,-0.6233766078948975,31.17164421081543,-0.6205044636960761,-0.5989516989250357,-0.2759542838670312,0.29033388973524166
-0.1604066640138626,0.6643092036247253,28.71689224243164,-0.6205044636960761,-0.5989516989250357,-0.2759542838670312,0.29033388973524166
-0.3405416011810303,-1.5995687246322632,26.29296875,-0.6205044636960761,-0.5989516989250357,-0.2759542838670312,0.29033388973524166
-1.127162218093872,0.24120384454727173,23.864749908447266,-0.6205044636960761,-0.5989516989250357,-0.2759542838670312,0.29033388973524166
1.0263738632202148,-1.2659831047058105,21.46061134338379,-0.6205044636960761,-0.5989516989250357,-0.2759542838670312,0.29033388973524166
-1.290820598602295,1.1998529434204102,19.088058471679688,-0.6205044636960761,-0.5989516989250357,-0.2759542838670312,0.29033388973524166
-0.45833584666252136,-0.4557812511920929,16.77618408203125,-0.6205044636960761,-0.5989516989250357,-0.2759542838670312,0.29033388973524166
0.5320525169372559,-0.23633591830730438,14.521315574645996,-0.6205044636960761,-0.5989516989250357,-0.2759542838670312,0.29033388973524166
-0.5632117986679077,-0.42274779081344604,12.240753173828125,-0.6205044636960761,-0.5989516989250357,-0.2759542838670312,0.29033388973524166
0.8689249753952026,-0.5294541716575623,10.011778831481934,-0.6205044636960761,-0.5989516989250357,-0.2759542838670312,0.29033388973524166
-0.5645589828491211,0.9472002983093262,7.808008670806885,-0.6205044636960761,-0.5989516989250357,-0.2759542838670312,0.29033388973524166
0.6360709071159363,0.6877056360244751,5.9382548332214355,-0.6205044636960761,-0.5989516989250357,-0.2759542838670312,0.29033388973524166
-0.3991961181163788,0.4270523488521576,4.4084978103637695,-0.6205044636960761,-0.5989516989250357,-0.2759542838670312,0.29033388973524166
1.3245035409927368,-0.36919617652893066,3.346330404281616,-0.6205044636960761,-0.5989516989250357,-0.2759542838670312,0.29033388973524166
0.504786491394043,-0.3288547992706299,2.8333873748779297,-0.6205044636960761,-0.5989516989250357,-0.2759542838670312,0.29033388973524166
0.4413546621799469,0.026685727760195732,2.6056759357452393,-0.6205044636960761,-0.5989516989250357,-0.2759542838670312,0.29033388973524166
1.3147855997085571,0.2428094446659088,2.5014944076538086,-0.6205044636960761,-0.5989516989250357,-0.2759542838670312,0.29033388973524166
1.7963895797729492,0.6545775532722473,2.439284086227417,-0.6205044636960761,-0.5989516989250357,-0.2759542838670312,0.29033388973524166
2.4982962608337402,-0.6680529117584229,2.5307981967926025,-0.6205044636960761,-0.5989516989250357,-0.2759542838670312,0.29033388973524166
0.427848219871521,0.3464348614215851,2.612152338027954,-0.6205044636960761,-0.5989516989250357,-0.2759542838670312,0.29033388973524166
-0.01414756290614605,-0.5412636399269104,2.693462371826172,-0.6205044636960761,-0.5989516989250357,-0.2759542838670312,0.29033388973524166
-1.2738516330718994,-0.21686722338199615,2.7726776599884033,-0.6205044636960761,-0.5989516989250357,-0.2759542838670312,0.29033388973524166
-1.0042966604232788,0.014873461797833443,2.7215003967285156,-0.6205044636960761,-0.5989516989250357,-0.2759542838670312,0.29033388973524166
-0.5787465572357178,-0.3886217474937439,2.7113404273986816,-0.6205044636960761,-0.5989516989250357,-0.2759542838670312,0.29033388973524166
-0.06587803363800049,0.20519228279590607,2.7595934867858887,-0.6205044636960761,-0.5989516989250357,-0.2759542838670312,0.29033388973524166
0.5509633421897888,-0.23000264167785645,2.7407143115997314,-0.6205044636960761,-0.5989516989250357,-0.2759542838670312,0.29033388973524166
1.1125037670135498,-0.21057066321372986,2.708099603652954,-0.6205044636960761,-0.5989516989250357,-0.2759542838670312,0.29033388973524166
0.5266239047050476,0.08904792368412018,2.7306694984436035,-0.6205044636960761,-0.5989516989250357,-0.2759542838670312,0.29033388973524166
-0.00718753831461072,-0.26561030745506287,2.7371773719787598,-0.6205044636960761,-0.5989516989250357,-0.2759542838670312,0.29033388973524166
-0.28950953483581543,-0.01076540257781744,2.7443554401397705,-0.6205044636960761,-0.5989516989250357,-0.2759542838670312,0.29033388973524166
-0.20873092114925385,-0.18717527389526367,2.745068073272705,-0.6205044636960761,-0.5989516989250357,-0.2759542838670312,0.29033388973524166
0.14084389805793762,-0.06733232736587524,2.7428901195526123,-0.6205044636960761,-0.5989516989250357,-0.2759542838670312,0.29033388973524166
0.3259972035884857,-0.10929897427558899,2.7438111305236816,-0.6205044636960761,-0.5989516989250357,-0.2759542838670312,0.29033388973524166
0.2624027729034424,-0.08271542936563492,2.741549015045166,-0.6205044636960761,-0.5989516989250357,-0.2759542838670312,0.29033388973524166
0.028537970036268234,-0.1343824416399002,2.7447826862335205,-0.6205044636960761,-0.5989516989250357,-0.2759542838670312,0.29033388973524166
-0.016990114003419876,-0.09467456489801407,2.743333578109741,-0.6205044636960761,-0.5989516989250357,-0.2759542838670312,0.29033388973524166
0.10766194760799408,-0.13114672899246216,2.744176149368286,-0.6205044636960761,-0.5989516989250357,-0.2759542838670312,0.29033388973524166
0.20853297412395477,-0.09231729060411453,2.7446672916412354,-0.6205044636960761,-0.5989516989250357,-0.2759542838670312,0.29033388973524166
0.12988761067390442,-0.1104448065161705,2.7435779571533203,-0.6205044636960761,-0.5989516989250357,-0.2759542838670312,0.29033388973524166
0.04501742124557495,-0.11295109987258911,2.7432665824890137,-0.6205044636960761,-0.5989516989250357,-0.2759542838670312,0.29033388973524166
0.07840034365653992,-0.11862233281135559,2.7436280250549316,-0.6205044636960761,-0.5989516989250357,-0.2759542838670312,0.29033388973524166
0.15756487846374512,-0.10647943615913391,2.7438673973083496,-0.6205044636960761,-0.5989516989250357,-0.2759542838670312,0.29033388973524166
0.13790370523929596,-0.09899382293224335,2.744019031524658,-0.6205044636960761,-0.5989516989250357,-0.2759542838670312,0.29033388973524166
0.08970307558774948,-0.11480071395635605,2.7437446117401123,-0.6205044636960761,-0.5989516989250357,-0.2759542838670312,0.29033388973524166
0.080632284283638,-0.11503265053033829,2.7445764541625977,-0.6205044636960761,-0.5989516989250357,-0.2759542838670312,0.29033388973524166
0.12255190312862396,-0.10300298035144806,2.745134115219116,-0.6205044636960761,-0.5989516989250357,-0.2759542838670312,0.29033388973524166
0.13294261693954468,-0.12361786514520645,2.746103525161743,-0.6205044636960761,-0.5989516989250357,-0.2759542838670312,0.29033388973524166
0.0955590233206749,-0.10837652534246445,2.745427370071411,-0.6205044636960761,-0.5989516989250357,-0.2759542838670312,0.29033388973524166
0.07917969673871994,-0.12371920049190521,2.7449615001678467,-0.6205044636960761,-0.5989516989250357,-0.2759542838670312,0.29033388973524166
0.10546501725912094,-0.12119144946336746,2.7457988262176514,-0.6205044636960761,-0.5989516989250357,-0.2759542838670312,0.29033388973524166
0.11840847134590149,-0.12706272304058075,2.7462317943573,-0.6205044636960761,-0.5989516989250357,-0.2759542838670312,0.29033388973524166
0.08568303287029266,-0.10388179868459702,2.7453019618988037,-0.6205044636960761,-0.5989516989250357,-0.2759542838670312,0.29033388973524166
0.09161694347858429,-0.10924624651670456,2.746363878250122,-0.6205044636960761,-0.5989516989250357,-0.2759542838670312,0.29033388973524166
0.11234256625175476,-0.11253081262111664,2.747372627258301,-0.6205044636960761,-0.5989516989250357,-0.2759542838670312,0.29033388973524166
0.11085736751556396,-0.113156259059906,2.7479963302612305,-0.6205044636960761,-0.5989516989250357,-0.2759542838670312,0.29033388973524166
0.09954963624477386,-0.12004387378692627,2.748915433883667,-0.6205044636960761,-0.5989516989250357,-0.2759542838670312,0.29033388973524166
0.09771580249071121,-0.11195380985736847,2.748760461807251,-0.6205044636960761,-0.5989516989250357,-0.2759542838670312,0.29033388973524166
0.10538385808467865,-0.11053348332643509,2.7493066787719727,-0.6205044636960761,-0.5989516989250357,-0.2759542838670312,0.29033388973524166
0.11825715750455856,-0.11341678351163864,2.7493247985839844,-0.6205044636960761,-0.5989516989250357,-0.2759542838670312,0.29033388973524166
0.09338659048080444,-0.1141146793961525,2.748276948928833,-0.6205044636960761,-0.5989516989250357,-0.2759542838670312,0.29033388973524166
0.09667988866567612,-0.10254170745611191,2.747741222381592,-0.6205044636960761,-0.5989516989250357,-0.2759542838670312,0.29033388973524166
0.09770175069570541,-0.1027783676981926,2.7477197647094727,-0.6205044636960761,-0.5989516989250357,-0.2759542838670312,0.29033388973524166
0.09903883934020996,-0.09890706092119217,2.7474842071533203,-0.6205044636960761,-0.5989516989250357,-0.2759542838670312,0.29033388973524166
0.09176850318908691,-0.1176181361079216,2.7476513385772705,-0.6205044636960761,-0.5989516989250357,-0.2759542838670312,0.29033388973524166
0.09189285337924957,-0.11215314269065857,2.746026039123535,-0.6205044636960761,-0.5989516989250357,-0.2759542838670312,0.29033388973524166
0.10397280752658844,-0.10401918739080429,2.7452423572540283,-0.6205044636960761,-0.5989516989250357,-0.2759542838670312,0.29033388973524166
0.11262645572423935,-0.11535964161157608,2.743842363357544,-0.6205044636960761,-0.5989516989250357,-0.2759542838670312,0.29033388973524166
0.10945704579353333,-0.11542501300573349,2.743344783782959,-0.6205044636960761,-0.5989516989250357,-0.2759542838670312,0.29033388973524166
0.08949096500873566,-0.11322496831417084,2.7431766986846924,-0.6205044636960761,-0.5989516989250357,-0.2759542838670312,0.29033388973524166
0.0931125059723854,-0.10728950053453445,2.74273681640625,-0.6205044636960761,-0.5989516989250357,-0.2759542838670312,0.29033388973524166
0.09496273845434189,-0.1115080714225769,2.741116762161255,-0.6205044636960761,-0.5989516989250357,-0.2759542838670312,0.29033388973524166
0.10434264689683914,-0.11242041736841202,2.7420313358306885,-0.6205044636960761,-0.5989516989250357,-0.2759542838670312,0.29033388973524166
0.10146944969892502,-0.11233574151992798,2.7437989711761475,-0.6205044636960761,-0.5989516989250357,-0.2759542838670312,0.29033388973524166
0.09609398245811462,-0.11665840446949005,2.744446039199829,-0.6205044636960761,-0.5989516989250357,-0.2759542838670312,0.29033388973524166
0.11382908374071121,-0.10975465923547745,2.7448832988739014,-0.6205044636960761,-0.5989516989250357,-0.2759542838670312,0.29033388973524166
0.1119295060634613,-0.11203393340110779,2.742661476135254,-0.6205044636960761,-0.5989516989250357,-0.2759542838670312,0.29033388973524166
0.10838215798139572,-0.1137704849243164,2.742473602294922,-0.6205044636960761,-0.5989516989250357,-0.2759542838670312,0.29033388973524166
0.08316667377948761,-0.10612897574901581,2.7411277294158936,-0.6205044636960761,-0.5989516989250357,-0.2759542838670312,0.29033388973524166
0.09551244974136353,-0.11539022624492645,2.7418835163116455,-0.6205044636960761,-0.5989516989250357,-0.2759542838670312,0.29033388973524166
0.1057860255241394,-0.11752697825431824,2.7428641319274902,-0.6205044636960761,-0.5989516989250357,-0.2759542838670312,0.29033388973524166
0.09722615033388138,-0.11207009106874466,2.742156505584717,-0.6205044636960761,-0.5989516989250357,-0.2759542838670312,0.29033388973524166
0.09189727157354355,-0.11501646786928177,2.743234872817993,-0.6205044636960761,-0.5989516989250357,-0.2759542838670312,0.29033388973524166
0.10314829647541046,-0.11484063416719437,2.7443246841430664,-0.6205044636960761,-0.5989516989250357,-0.2759542838670312,0.29033388973524166
0.09970077872276306,-0.12146040797233582,2.744291305541992,-0.6205044636960761,-0.5989516989250357,-0.2759542838670312,0.29033388973524166
0.10994817316532135,-0.11788700520992279,2.7437551021575928,-0.6205044636960761,-0.5989516989250357,-0.2759542838670312,0.29033388973524166
0.10800119489431381,-0.13057999312877655,2.7439260482788086,-0.6205044636960761,-0.5989516989250357,-0.2759542838670312,0.29033388973524166
0.08523228764533997,-0.12195267528295517,2.744483470916748,-0.6205044636960761,-0.5989516989250357,-0.2759542838670312,0.29033388973524166
0.08618968725204468,-0.11380331218242645,2.744623899459839,-0.6205044636960761,-0.5989516989250357,-0.2759542838670312,0.29033388973524166
0.10878685116767883,-0.11227674782276154,2.74411940574646,-0.6205044636960761,-0.5989516989250357,-0.2759542838670312,0.29033388973524166
0.1018979623913765,-0.1128673404455185,2.7427139282226562,-0.6205044636960761,-0.5989516989250357,-0.2759542838670312,0.29033388973524166
0.10135617852210999,-0.10747768729925156,2.742558002471924,-0.6205044636960761,-0.5989516989250357,-0.2759542838670312,0.29033388973524166
0.09451080858707428,-0.13298743963241577,2.7424843311309814,-0.6205044636960761,-0.5989516989250357,-0.2759542838670312,0.29033388973524166
0.09467476606369019,-0.13873006403446198,2.7424275875091553,-0.6205044636960761,-0.5989516989250357,-0.2759542838670312,0.29033388973524166
0.08097860217094421,-0.11481418460607529,2.74298357963562,-0.6205044636960761,-0.5989516989250357,-0.2759542838670312,0.29033388973524166
0.08677700161933899,-0.11346718668937683,2.743715524673462,-0.6205044636960761,-0.5989516989250357,-0.2759542838670312,0.29033388973524166
0.10088598728179932,-0.12837077677249908,2.744483709335327,-0.6205044636960761,-0.5989516989250357,-0.2759542838670312,0.29033388973524166
0.09712778776884079,-0.11561014503240585,2.743579626083374,-0.6205044636960761,-0.5989516989250357,-0.2759542838670312,0.29033388973524166
0.09823255240917206,-0.1156938225030899,2.74275279045105,-0.6205044636960761,-0.5989516989250357,-0.2759542838670312,0.29033388973524166
0.10271541029214859,-0.11950621753931046,2.742269277572632,-0.6205044636960761,-0.5989516989250357,-0.2759542838670312,0.29033388973524166
0.0935620591044426,-0.10725736618041992,2.743220090866089,-0.6250900713807075,-0.5941285482338734,-0.27431863828872627,0.2884441932042439
0.2541660666465759,-0.13385577499866486,2.736760377883911,-0.6296379008990091,-0.5893378889819401,-0.27142090390746776,0.28643491702775153
1.1544898748397827,-0.1969078630208969,2.7161953449249268,-0.6340637593015304,-0.5845869433952289,-0.25968210439508144,0.2836785533775885
1.6976139545440674,0.20689880847930908,2.7710485458374023,-0.6381937316088523,-0.5798582736899456,-0.23591457248354936,0.2837618112564086
2.4950215816497803,0.7463359236717224,3.0278966426849365,-0.6418344859046757,-0.575062713312606,-0.20097594301526728,0.29170543402433385
1.8398717641830444,0.3600846230983734,3.2945468425750732,-0.6448830506948029,-0.5701241213186747,-0.16485183179999374,0.30092560524741796
1.2154046297073364,-0.43278735876083374,3.4526703357696533,-0.6474184092530049,-0.5651137433656388,-0.13939119518424056,0.30031974911689746
1.2811580896377563,-0.3160615861415863,3.691102981567383,-0.6495682234283432,-0.560160417612642,-0.1185865058563648,0.2940793412427106
0.9619190692901611,0.4777570366859436,3.8587687015533447,-0.6513888959454681,-0.5552478664078646,-0.09989419619863214,0.29542680333058025
2.354764938354492,-0.17413246631622314,3.9292349815368652,-0.6528234739371367,-0.5503030013127459,-0.07225516280159336,0.29795700808366127
2.326859712600708,-1.6547539234161377,3.954683780670166,-0.6537026138275136,-0.5454640571773052,-0.03324162404363336,0.28271628816922495
1.5209591388702393,0.29920506477355957,3.9538466930389404,-0.6539894312524442,-0.5408462543785572,-0.001176466948042132,0.2714200476805368
0.9496973752975464,0.2531638443470001,4.109691143035889,-0.6538374656658722,-0.5362842279651926,0.019412337336689414,0.2760231219232081
0.638193666934967,-0.18528854846954346,4.167366981506348,-0.6534036564989946,-0.5316791290375921,0.032644762688627024,0.2765887493888536
0.6413451433181763,0,4.130311012268066,-0.6527707202590276,-0.5270821838080882,0.04330758610740322,0.2750446781516074
0.4450519382953644,0.4068368673324585,4.0679473876953125,-0.6519734829154589,-0.5224698532786634,0.05236089512084939,0.2784349853793779
0.7871398329734802,0.4373680651187897,3.969773530960083,-0.6510152324571066,-0.5177706448464757,0.06262915988142309,0.2854700264831383
1.9047515392303467,-0.7745795845985413,3.8347153663635254,-0.649784476224902,-0.5130362285383873,0.08506158798312165,0.2826599304874737
1.401144027709961,1.3556411266326904,3.793095111846924,-0.6481372070108125,-0.5082848782009548,0.11261071770762421,0.28750211000442494
1.1948015689849854,-0.6085067987442017,3.755408763885498,-0.6460800877159149,-0.5034412920392222,0.1342435976800821,0.2937282294034957
0,-0.8422456383705139,3.700632333755493,-0.6437597220900673,-0.49864656824618575,0.14420027742162364,0.28163862576087306
0,0.4167427122592926,3.589503049850464,-0.6413563841330402,-0.4939821399644845,0.14420027742162364,0.27809276804327954
-0.22369474172592163,-0.9544822573661804,3.507138967514038,-0.6389685805330775,-0.4893846035210622,0.14233615457390764,0.2736116051673888
1.0277962684631348,-0.26548871397972107,3.509141445159912,-0.6365404709063778,-0.4849091303079492,0.14903700063005107,0.263445180406173
0.06411616504192352,0.5467464923858643,3.4739158153533936,-0.6339806936435501,-0.4804988455110125,0.15813627090925989,0.2657889952262242
1.1434351205825806,0.08194920420646667,3.3725926876068115,-0.6312612314002275,-0.4760253695005343,0.16819919828946409,0.2710281260311603
0.5633939504623413,-0.15368086099624634,3.314934492111206,-0.6283393816321361,-0.47151321543173647,0.1824227738815051,0.2704303622245788
0.24763880670070648,-0.30017855763435364,3.3304576873779297,-0.6252426803481969,-0.46703756074317615,0.18918138019119718,0.26664820040265713
-0.13327334821224213,-1.319311261177063,3.3388290405273438,-0.6220817152992819,-0.46270588864054935,0.19013442567860106,0.25315245191256197
0.4581576883792877,0,3.379511594772339,-0.618890246792127,-0.45857829994625504,0.19284179517999311,0.2421581914027531
0.7816160321235657,0.7188026309013367,3.4374847412109375,-0.6155901214752033,-0.45449241324017436,0.20317324285085023,0.2481482133269309
0.6890589594841003,0.8355661630630493,3.473290205001831,-0.612101770553272,-0.45024866740736685,0.2154288677809141,0.26110128660996745
0.2453814297914505,-1.1694202423095703,3.4463415145874023,-0.6084463977298904,-0.44592016360825953,0.22321587102487703,0.2583191692829131
0.1791885495185852,0.6736209988594055,3.412137746810913,-0.6046966491864681,-0.44164927462322834,0.226753954185794,0.25418750892082836
0,-1.3676663637161255,3.3617477416992188,-0.6009049729674328,-0.4374610137359963,0.22824719209844888,0.24840379754702235
0.13706044852733612,1.3110545873641968,3.3177928924560547,-0.5970913350124221,-0.43332488181690365,0.22938936250284334,0.24793203274408962
0,-0.7139989733695984,3.147468090057373,-0.5932586608840047,-0.42915121907575254,0.2305315329072378,0.2529074961940446
0.8208418488502502,-0.44322469830513,2.9911532402038574,-0.5893594657627139,-0.42501645689416256,0.23737188164765655,0.24326396559675523
0.5009796619415283,0,2.90557861328125,-0.5853114745747813,-0.42099283696048784,0.2483870609042547,0.23957042644421248
0.5053126215934753,0.17620886862277985,2.8427541255950928,-0.5811018088177982,-0.41698775979276326,0.25677282993371303,0.24103883368273565
-0.2093934416770935,-0.2999241054058075,2.708108901977539,-0.5768017117091865,-0.4129790372339387,0.2592388230996829,0.24000787337621043
0.4988477826118469,-1.773202657699585,2.628309726715088,-0.5724609636616269,-0.4091228731473286,0.2616509426074725,0.22273181701699885
-0.48349684476852417,0.2658771574497223,2.6484172344207764,-0.5680990485808188,-0.4055153515790071,0.2617788670895002,0.21017077118158334
0.1436460316181183,0.7801510095596313,2.6024887561798096,-0.5637596682135737,-0.4019398645477162,0.2589467769799135,0.21888767257332795
0.9836065173149109,0.528313159942627,2.4242444038391113,-0.5593656071702325,-0.3982008711041675,0.26834054822102205,0.22979154065251342
1.0997339487075806,0.7488793730735779,2.2694263458251953,-0.5547485882786306,-0.3942823181673884,0.2857017187712095,0.2404348117609818
0.5455367565155029,-1.359891653060913,2.2217862606048584,-0.5498726380556922,-0.39031750271303783,0.29941230798140184,0.23534304276108733
-0.5132244825363159,-0.5398996472358704,2.0699644088745117,-0.5448801890147537,-0.38652704861842924,0.2996815769312284,0.21951144859194746
-0.40791985392570496,-0.32805800437927246,1.878895878791809,-0.5399494644225986,-0.38292879931214785,0.2920053741273782,0.21227846816182128
0.18491291999816895,-0.6721463799476624,1.7982795238494873,-0.5350981947797762,-0.37946028348058464,0.2901469830113154,0.20394343162576348
0.16039669513702393,0.6266143918037415,1.772743821144104,-0.5302384318952031,-0.376064388230443,0.293024563137442,0.2035639983912308
0.8719812035560608,0.3250793218612671,1.6848629713058472,-0.5252829962666143,-0.37260556508269577,0.3016277122932177,0.2114947793384392
-0.18168745934963226,-0.23475098609924316,1.6940468549728394,-0.5202079306628241,-0.3690743792926272,0.30738016016160463,0.2122475154697894
0.6390889883041382,-1.4043973684310913,1.6757667064666748,-0.5150531639983977,-0.3656507504483064,0.31119183956955887,0.1985879458487033
-0.7058581113815308,0.21844927966594696,1.6137254238128662,-0.5098712700835633,-0.36242330885699225,0.3106354302105806,0.18870504510899375
0.08881836384534836,0.32878705859184265,1.6484390497207642,-0.5047368628958547,-0.3592402222483522,0.30549343231444576,0.19326534792780867
0.39850473403930664,0,1.6368095874786377,-0.49961146380881644,-0.35599630068159765,0.3095544581301512,0.1960052400827407
-0.10601256787776947,-1.3563358783721924,1.48549485206604,-0.4944319108839971,-0.35282373667177225,0.31199189284816403,0.18470244109630576
-0.7755023837089539,1.0623806715011597,1.440934658050537,-0.4892932623192768,-0.3497657762095332,0.3046459349182747,0.1822528143723805
0.5895084142684937,0.10234423726797104,1.4574499130249023,-0.4842287463185167,-0.34664734562910676,0.3030959851729375,0.19195885527878992
0.6664336323738098,0.16435673832893372,1.4022018909454346,-0.4790899283679509,-0.34342951047337716,0.3135621688949567,0.19418136340876413
0.2050488144159317,0,1.2580387592315674,-0.4738033726053412,-0.34018174075418045,0.32082452261820454,0.19555100289483857
0.8152874112129211,-1.059719443321228,1.218325138092041,-0.4683854405460358,-0.3369961490006082,0.329327324498445,0.18672000753382834
0.335149884223938,-0.07225875556468964,1.1402850151062012,-0.4628167603255453,-0.33396275847218926,0.33891430196041883,0.1772868558764457
-0.8358343243598938,0.42716947197914124,0.9689269065856934,-0.4572029583789922,-0.3309833309633864,0.3347419316259525,0.18024444517989946
0.2492043524980545,-2.7395479679107666,0.859636127948761,-0.45166466437771674,-0.32813983871705,0.32985334852710385,0.16097462438046925
-0.5221774578094482,0.4212299883365631,0.8288965225219727,-0.4461860650345783,-0.32561792261484596,0.3275785726495089,0.14165530788401756
0.17550097405910492,1.1396890878677368,0.7709795832633972,-0.44075049691290247,-0.32314860365870923,0.32468960195158936,0.15466296685238673
0.8588752150535583,0.2783624231815338,0.5439910888671875,-0.4352671718672432,-0.32047241174512436,0.3333094035275282,0.1664800627777973
1.1863470077514648,-0.2639768719673157,0.36880621314048767,-0.42956998582075623,-0.31769674503554896,0.3503529220509034,0.16659994237124912
-0.07910606265068054,-0.5589836835861206,0.22558286786079407,-0.4236538787209425,-0.3149772293679416,0.35957992992674326,0.15974193774163714
-0.5301135182380676,0.12782177329063416,0.07659479975700378,-0.4177031868041696,-0.3123448055382404,0.35450310008600366,0.15614892182250809
-0.7324570417404175,-0.7558665871620178,-0.06225554645061493,-0.41188248031384583,-0.3097859377310508,0.34398167875284963,0.15091521504024655
-0.08478105068206787,-0.1920316517353058,-0.09460563957691193,-0.4062062049799388,-0.30733651041363674,0.33717136131599557,0.1430160630494355
0.06549190729856491,1.4383373260498047,-0.11630046367645264,-0.40058802181518494,-0.3048663603576521,0.3370106184544664,0.153401943668723
-0.4930974543094635,-0.2957782745361328,-0.14544056355953217,-0.3950008730039307,-0.30223031691792934,0.3334472388960422,0.16292326909800361
0.6966477632522583,-1.2915313243865967,-0.10615544766187668,-0.389429283584209,-0.2996251589328878,0.3351434914705655,0.14969568910698086
0,-0.7380834817886353,-0.10170242935419083,-0.3837951804094737,-0.2972711762537559,0.34094888949766766,0.13278223238885392
0.4436393976211548,0.8398599624633789,-0.047222454100847244,-0.37808189062634445,-0.295051071236117,0.34464588447784394,0.13363036972781012
0.5547247529029846,-0.21644537150859833,0.07381553947925568,-0.3722684617079273,-0.2927806057273928,0.35296558573221176,0.13882549131909996
-1.1215014457702637,-0.10506420582532883,-0.046505723148584366,-0.366425061438284,-0.29048917459272267,0.34824244662498444,0.13614624484131724
-0.38256821036338806,-0.5459441542625427,-0.11909219622612,-0.3607254699428769,-0.28826527942592906,0.3357085328238707,0.13072117517391832
0.2548682391643524,-0.5287118554115295,0.0022089043632149696,-0.3607254699428769,-0.28826527942592906,0.3357085328238707,0.13072117517391832
1.1610413789749146,0.7719610333442688,0.050068993121385574,-0.3607254699428769,-0.28826527942592906,0.3357085328238707,0.13072117517391832
-0.9486429691314697,-0.10232935100793839,-0.023943014442920685,-0.3607254699428769,-0.28826527942592906,0.3357085328238707,0.13072117517391832
-1.348764419555664,-0.8526561260223389,-0.24466362595558167,-0.3607254699428769,-0.28826527942592906,0.3357085328238707,0.13072117517391832
-2.089189291000366,0.20846648514270782,-0.7889078259468079,-0.3607254699428769,-0.28826527942592906,0.3357085328238707,0.13072117517391832
-3.0773351192474365,0.15089203417301178,-1.6727569103240967,-0.3607254699428769,-0.28826527942592906,0.3357085328238707,0.13072117517391832
-2.3249552249908447,-1.8265019655227661,-2.7310290336608887,-0.3607254699428769,-0.28826527942592906,0.3357085328238707,0.13072117517391832
-2.7837374210357666,0.24707843363285065,-4.075005531311035,-0.3607254699428769,-0.28826527942592906,0.3357085328238707,0.13072117517391832
-1.2175471782684326,-0.41838523745536804,-5.709692478179932,-0.3607254699428769,-0.28826527942592906,0.3357085328238707,0.13072117517391832
-1.6195191144943237,-0.40356236696243286,-7.538203239440918,-0.3607254699428769,-0.28826527942592906,0.3357085328238707,0.13072117517391832
-0.967232882976532,0.33566880226135254,-9.467421531677246,-0.3607254699428769,-0.28826527942592906,0.3357085328238707,0.13072117517391832
-2.3634469509124756,0.45456284284591675,-11.376481056213379,-0.3607254699428769,-0.28826527942592906,0.3357085328238707,0.13072117517391832
-0.9492623209953308,-1.1177235841751099,-13.363665580749512,-0.3607254699428769,-0.28826527942592906,0.3357085328238707,0.13072117517391832
-1.922620415687561,0.42365366220474243,-15.336487770080566,-0.3607254699428769,-0.28826527942592906,0.3357085328238707,0.13072117517391832
-0.9746825695037842,-0.46581265330314636,-17.356645584106445,-0.3607254699428769,-0.28826527942592906,0.3357085328238707,0.13072117517391832
-0.9394356608390808,-0.5430682897567749,-19.435760498046875,-0.3607254699428769,-0.28826527942592906,0.3357085328238707,0.13072117517391832
-1.030143141746521,0.7878349423408508,-21.583221435546875,-0.3607254699428769,-0.28826527942592906,0.3357085328238707,0.13072117517391832
-0.8650330305099487,-0.011702022515237331,-23.730085372924805,-0.3607254699428769,-0.28826527942592906,0.3357085328238707,0.13072117517391832
-1.4406487941741943,0.38865718245506287,-25.87724494934082,-0.3607254699428769,-0.28826527942592906,0.3357085328238707,0.13072117517391832
-0.5023437738418579,-1.5828089714050293,-27.94227409362793,-0.3607254699428769,-0.28826527942592906,0.3357085328238707,0.13072117517391832
0.1240144893527031,-0.5391194224357605,-29.923065185546875,-0.3607254699428769,-0.28826527942592906,0.3357085328238707,0.13072117517391832
-1.5637480020523071,1.1389597654342651,-31.96040153503418,-0.3607254699428769,-0.28826527942592906,0.3357085328238707,0.13072117517391832
-1.3882218599319458,-1.8207963705062866,-34.06556701660156,-0.3607254699428769,-0.28826527942592906,0.3357085328238707,0.13072117517391832
-0.8822062015533447,0.948586106300354,-36.33840560913086,-0.3607254699428769,-0.28826527942592906,0.3357085328238707,0.13072117517391832
-0.417630136013031,-0.7577956914901733,-38.745296478271484,-0.3607254699428769,-0.28826527942592906,0.3357085328238707,0.13072117517391832
-0.8232408165931702,2.377328634262085,-41.27315139770508,-0.3607254699428769,-0.28826527942592906,0.3357085328238707,0.13072117517391832
-1.0930185317993164,-0.9637954831123352,-43.842796325683594,-0.3607254699428769,-0.28826527942592906,0.3357085328238707,0.13072117517391832
-0.040610555559396744,0.6195114850997925,-46.43992233276367,-0.3607254699428769,-0.28826527942592906,0.3357085328238707,0.13072117517391832
-0.9816029667854309,-1.1135022640228271,-49.067752838134766,-0.3607254699428769,-0.28826527942592906,0.3357085328238707,0.13072117517391832
-0.8206666111946106,-0.4925263226032257,-51.781044006347656,-0.3607254699428769,-0.28826527942592906,0.3357085328238707,0.13072117517391832
0.05252719670534134,0.9436793923377991,-54.50471878051758,-0.3607254699428769,-0.28826527942592906,0.3357085328238707,0.13072117517391832
-0.8016536235809326,0.15591740608215332,-57.24940490722656,-0.3607254699428769,-0.28826527942592906,0.3357085328238707,0.13072117517391832
-0.357964426279068,0.46750566363334656,-59.92714309692383,-0.3607254699428769,-0.28826527942592906,0.3357085328238707,0.13072117517391832
-0.16441524028778076,0.47118476033210754,-62.56650924682617,-0.3607254699428769,-0.28826527942592906,0.3357085328238707,0.13072117517391832
0.5435242056846619,1.378890037536621,-65.17273712158203,-0.3607254699428769,-0.28826527942592906,0.3357085328238707,0.13072117517391832
-0.23652546107769012,-0.9784027338027954,-67.77669525146484,-0.3607254699428769,-0.28826527942592906,0.3357085328238707,0.13072117517391832
-0.338254451751709,0.2840596139431,-70.43470764160156,-0.3607254699428769,-0.28826527942592906,0.3357085328238707,0.13072117517391832
0.23417377471923828,-0.5930957794189453,-73.07029724121094,-0.3607254699428769,-0.28826527942592906,0.3357085328238707,0.13072117517391832
-0.8228628635406494,0.38782405853271484,-75.7334976196289,-0.3607254699428769,-0.28826527942592906,0.3357085328238707,0.13072117517391832
-0.7007503509521484,-1.4508105516433716,-78.34381103515625,-0.3607254699428769,-0.28826527942592906,0.3357085328238707,0.13072117517391832
0.4448302984237671,1.1429340839385986,-80.99083709716797,-0.3607254699428769,-0.28826527942592906,0.3357085328238707,0.13072117517391832
0.8144042491912842,-0.15316331386566162,-83.14373779296875,-0.3607254699428769,-0.28826527942592906,0.3357085328238707,0.13072117517391832
0.2171550691127777,-0.202731192111969,-84.77428436279297,-0.3607254699428769,-0.28826527942592906,0.3357085328238707,0.13072117517391832
0.2606964111328125,-0.24880482256412506,-86.00767517089844,-0.3607254699428769,-0.28826527942592906,0.3357085328238707,0.13072117517391832
-0.3989711403846741,-0.7027364373207092,-86.90353393554688,-0.3607254699428769,-0.28826527942592906,0.3357085328238707,0.13072117517391832
1.6505935192108154,-0.5724481344223022,-87.56317138671875,-0.3607254699428769,-0.28826527942592906,0.3357085328238707,0.13072117517391832
0.8849718570709229,-0.8410447239875793,-87.96267700195312,-0.3607254699428769,-0.28826527942592906,0.3357085328238707,0.13072117517391832
0.9197129607200623,-0.6386327147483826,-88.04195404052734,-0.3607254699428769,-0.28826527942592906,0.3357085328238707,0.13072117517391832
-0.061020515859127045,-0.5951170325279236,-87.96166229248047,-0.3607254699428769,-0.28826527942592906,0.3357085328238707,0.13072117517391832
-0.3499003052711487,0.15010255575180054,-87.9638671875,-0.3607254699428769,-0.28826527942592906,0.3357085328238707,0.13072117517391832
0.04484687000513077,-0.06872356683015823,-87.9789810180664,-0.3607254699428769,-0.28826527942592906,0.3357085328238707,0.13072117517391832
-0.24816705286502838,0.05128862336277962,-87.98760986328125,-0.3607254699428769,-0.28826527942592906,0.3357085328238707,0.13072117517391832
-0.01654183678328991,0.0892578735947609,-87.9981918334961,-0.3607254699428769,-0.28826527942592906,0.3357085328238707,0.13072117517391832
-0.13098308444023132,0.21061059832572937,-88.01344299316406,-0.3607254699428769,-0.28826527942592906,0.3357085328238707,0.13072117517391832
-0.11388309299945831,0.049388475716114044,-88.01271057128906,-0.3607254699428769,-0.28826527942592906,0.3357085328238707,0.13072117517391832
-0.07268756628036499,-0.1092495545744896,-88.01760864257812,-0.3607254699428769,-0.28826527942592906,0.3357085328238707,0.13072117517391832
-0.11328400671482086,-0.2400594800710678,-88.02066802978516,-0.3607254699428769,-0.28826527942592906,0.3357085328238707,0.13072117517391832
-0.083512082695961,-0.21709251403808594,-88.0262451171875,-0.3607254699428769,-0.28826527942592906,0.3357085328238707,0.13072117517391832
-0.10622559487819672,-0.11726152896881104,-88.03703308105469,-0.3607254699428769,-0.28826527942592906,0.3357085328238707,0.13072117517391832
-0.09733738750219345,-0.022386347874999046,-88.04295349121094,-0.3607254699428769,-0.28826527942592906,0.3357085328238707,0.13072117517391832
-0.0997135117650032,-0.015624945983290672,-88.0496597290039,-0.3607254699428769,-0.28826527942592906,0.3357085328238707,0.13072117517391832
-0.11205394566059113,-0.0631084218621254,-88.052978515625,-0.3607254699428769,-0.28826527942592906,0.3357085328238707,0.13072117517391832
-0.09476279467344284,-0.13342733681201935,-88.05693054199219,-0.3607254699428769,-0.28826527942592906,0.3357085328238707,0.13072117517391832
-0.11636919528245926,-0.15094169974327087,-88.06449890136719,-0.3607254699428769,-0.28826527942592906,0.3357085328238707,0.13072117517391832
-0.09274755418300629,-0.0915321558713913,-88.0670394897461,-0.3607254699428769,-0.28826527942592906,0.3357085328238707,0.13072117517391832
-0.10077285021543503,-0.059977367520332336,-88.07271575927734,-0.3607254699428769,-0.28826527942592906,0.3357085328238707,0.13072117517391832
-0.10346730798482895,-0.06638264656066895,-88.07756805419922,-0.3607254699428769,-0.28826527942592906,0.3357085328238707,0.13072117517391832
-0.10432073473930359,-0.09396865218877792,-88.08122253417969,-0.3607254699428769,-0.28826527942592906,0.3357085328238707,0.13072117517391832
-0.1053619384765625,-0.112907275557518,-88.08451080322266,-0.3607254699428769,-0.28826527942592906,0.3357085328238707,0.13072117517391832
-0.10213518142700195,-0.11530279368162155,-88.08783721923828,-0.3607254699428769,-0.28826527942592906,0.3357085328238707,0.13072117517391832
-0.10006581991910934,-0.08429951965808868,-88.09034729003906,-0.3607254699428769,-0.28826527942592906,0.3357085328238707,0.13072117517391832
-0.11709289997816086,-0.08671728521585464,-88.09481048583984,-0.3607254699428769,-0.28826527942592906,0.3357085328238707,0.13072117517391832
-0.10395323485136032,-0.08762353658676147,-88.09900665283203,-0.3607254699428769,-0.28826527942592906,0.3357085328238707,0.13072117517391832
-0.10420657694339752,-0.10213837772607803,-88.10298919677734,-0.3607254699428769,-0.28826527942592906,0.3357085328238707,0.13072117517391832
-0.10963528603315353,-0.10048853605985641,-88.10453796386719,-0.3607254699428769,-0.28826527942592906,0.3357085328238707,0.13072117517391832
-0.12034709006547928,-0.06686195731163025,-88.1063461303711,-0.3607254699428769,-0.28826527942592906,0.3357085328238707,0.13072117517391832
-0.0931614562869072,-0.1047699823975563,-88.10845184326172,-0.3607254699428769,-0.28826527942592906,0.3357085328238707,0.13072117517391832
-0.09904742985963821,-0.09595298022031784,-88.10979461669922,-0.3607254699428769,-0.28826527942592906,0.3357085328238707,0.13072117517391832
-0.09746959805488586,-0.09442188590765,-88.11325073242188,-0.3607254699428769,-0.28826527942592906,0.3357085328238707,0.13072117517391832
-0.11156854778528214,-0.10133489221334457,-88.11539459228516,-0.3607254699428769,-0.28826527942592906,0.3357085328238707,0.13072117517391832
-0.09846892952919006,-0.07709486037492752,-88.1180648803711,-0.3607254699428769,-0.28826527942592906,0.3357085328238707,0.13072117517391832
-0.1058349609375,-0.08670111000537872,-88.12046813964844,-0.3607254699428769,-0.28826527942592906,0.3357085328238707,0.13072117517391832
-0.10709773749113083,-0.09512374550104141,-88.12151336669922,-0.3607254699428769,-0.28826527942592906,0.3357085328238707,0.13072117517391832
-0.1047469899058342,-0.09954851865768433,-88.12437438964844,-0.3607254699428769,-0.28826527942592906,0.3357085328238707,0.13072117517391832
-0.10386266559362411,-0.09779880940914154,-88.12651824951172,-0.3607254699428769,-0.28826527942592906,0.3357085328238707,0.13072117517391832
-0.10415232926607132,-0.06955815106630325,-88.12931060791016,-0.3607254699428769,-0.28826527942592906,0.3357085328238707,0.13072117517391832
-0.09780149161815643,-0.08102208375930786,-88.13302612304688,-0.3607254699428769,-0.28826527942592906,0.3357085328238707,0.13072117517391832
-0.11705393344163895,-0.08303060382604599,-88.13229370117188,-0.3607254699428769,-0.28826527942592906,0.3357085328238707,0.13072117517391832
-0.10660712420940399,-0.09497867524623871,-88.13455963134766,-0.3607254699428769,-0.28826527942592906,0.3357085328238707,0.13072117517391832
-0.09983724355697632,-0.09369171410799026,-88.1357650756836,-0.3607254699428769,-0.28826527942592906,0.3357085328238707,0.13072117517391832
-0.10971416532993317,-0.09135797619819641,-88.13896179199219,-0.3607254699428769,-0.28826527942592906,0.3357085328238707,0.13072117517391832
-0.09049101173877716,-0.0884968489408493,-88.13993072509766,-0.3607254699428769,-0.28826527942592906,0.3357085328238707,0.13072117517391832
-0.11441466212272644,-0.07856196910142899,-88.14095306396484,-0.3607254699428769,-0.28826527942592906,0.3357085328238707,0.13072117517391832
-0.11498356610536575,-0.10151131451129913,-88.14476776123047,-0.3607254699428769,-0.28826527942592906,0.3357085328238707,0.13072117517391832
-0.10323410481214523,-0.08902909606695175,-88.14726257324219,-0.3607254699428769,-0.28826527942592906,0.3357085328238707,0.13072117517391832
-0.11332154273986816,-0.08491063863039017,-88.14962005615234,-0.3607254699428769,-0.28826527942592906,0.3357085328238707,0.13072117517391832
-0.1118137463927269,-0.09802374243736267,-88.15206909179688,-0.3607254699428769,-0.28826527942592906,0.3357085328238707,0.13072117517391832
-0.10718511044979095,-0.09609224647283554,-88.15331268310547,-0.3607254699428769,-0.28826527942592906,0.3357085328238707,0.13072117517391832
-0.10222567617893219,-0.0897262841463089,-88.15644836425781,-0.3607254699428769,-0.28826527942592906,0.3357085328238707,0.13072117517391832
-0.10099033266305923,-0.09101149439811707,-88.15836334228516,-0.3607254699428769,-0.28826527942592906,0.3357085328238707,0.13072117517391832
-0.10691079497337341,-0.08858204632997513,-88.15927124023438,-0.3607254699428769,-0.28826527942592906,0.3357085328238707,0.13072117517391832
-0.10380124300718307,-0.10517976433038712,-88.15907287597656,-0.3607254699428769,-0.28826527942592906,0.3357085328238707,0.13072117517391832
-0.11593179404735565,-0.08406326919794083,-88.1618423461914,-0.3607254699428769,-0.28826527942592906,0.3357085328238707,0.13072117517391832
-0.11204534769058228,-0.09127454459667206,-88.16246795654297,-0.3607254699428769,-0.28826527942592906,0.3357085328238707,0.13072117517391832
-0.0954388678073883,-0.0786239430308342,-88.16370391845703,-0.3607254699428769,-0.28826527942592906,0.3357085328238707,0.13072117517391832
-0.1057192012667656,-0.1006709411740303,-88.1651611328125,-0.3607254699428769,-0.28826527942592906,0.3357085328238707,0.13072117517391832
-0.11071667075157166,-0.09285160154104233,-88.16786193847656,-0.3607254699428769,-0.28826527942592906,0.3357085328238707,0.13072117517391832
-0.10419323295354843,-0.09593114256858826,-88.16976928710938,-0.3607254699428769,-0.28826527942592906,0.3357085328238707,0.13072117517391832
-0.1041310653090477,-0.09115874022245407,-88.17100524902344,-0.3607254699428769,-0.28826527942592906,0.3357085328238707,0.13072117517391832
-0.1099763810634613,-0.08604023605585098,-88.172119140625,-0.3607254699428769,-0.28826527942592906,0.3357085328238707,0.13072117517391832
-0.0948130264878273,-0.08244252949953079,-88.1720962524414,-0.3607254699428769,-0.28826527942592906,0.3357085328238707,0.13072117517391832
-0.1031373143196106,-0.09360938519239426,-88.17040252685547,-0.3607254699428769,-0.28826527942592906,0.3357085328238707,0.13072117517391832
-0.10603662580251694,-0.08815059065818787,-88.1714096069336,-0.3607254699428769,-0.28826527942592906,0.3357085328238707,0.13072117517391832
-0.1100546345114708,-0.08257926255464554,-88.1739273071289,-0.3607254699428769,-0.28826527942592906,0.3357085328238707,0.13072117517391832
-0.09853766113519669,-0.08440927416086197,-88.17625427246094,-0.3607254699428769,-0.28826527942592906,0.3357085328238707,0.13072117517391832
-0.10041002929210663,-0.08525889366865158,-88.17682647705078,-0.3607254699428769,-0.28826527942592906,0.3357085328238707,0.13072117517391832
-0.10242165625095367,-0.08605050295591354,-88.17948913574219,-0.3607254699428769,-0.28826527942592906,0.3357085328238707,0.13072117517391832
-0.10370907932519913,-0.0867849588394165,-88.17936706542969,-0.3607254699428769,-0.28826527942592906,0.3357085328238707,0.13072117517391832
-0.10415539145469666,-0.09096338599920273,-88.17919921875,-0.3607254699428769,-0.28826527942592906,0.3357085328238707,0.13072117517391832
-0.10288435220718384,-0.1039782240986824,-88.17850494384766,-0.3607254699428769,-0.28826527942592906,0.3357085328238707,0.13072117517391832
-0.10570676624774933,-0.07567305117845535,-88.17930603027344,-0.3607254699428769,-0.28826527942592906,0.3357085328238707,0.13072117517391832
-0.0826120600104332,-0.08825649321079254,-88.18098449707031,-0.3607254699428769,-0.28826527942592906,0.3357085328238707,0.13072117517391832
-0.09046308696269989,-0.09352172911167145,-88.1819839477539,-0.3607254699428769,-0.28826527942592906,0.3357085328238707,0.13072117517391832
-0.1026930958032608,-0.09016846865415573,-88.18280792236328,-0.3607254699428769,-0.28826527942592906,0.3357085328238707,0.13072117517391832
-0.1109934151172638,-0.0913940891623497,-88.18222045898438,-0.3607254699428769,-0.28826527942592906,0.3357085328238707,0.13072117517391832
-0.09808026254177094,-0.08938170969486237,-88.1823959350586,-0.3607254699428769,-0.28826527942592906,0.3357085328238707,0.13072117517391832
-0.11509156227111816,-0.1020098626613617,-88.18480682373047,-0.3607254699428769,-0.28826527942592906,0.3357085328238707,0.13072117517391832
-0.11285218596458435,-0.10155347734689713,-88.18558502197266,-0.3607254699428769,-0.28826527942592906,0.3357085328238707,0.13072117517391832
-0.11005298048257828,-0.09630794823169708,-88.18607330322266,-0.3607254699428769,-0.28826527942592906,0.3357085328238707,0.13072117517391832
-0.1003291979432106,-0.0835132822394371,-88.18518829345703,-0.35514493760264754,-0.2860990807584798,0.3339553480036558,0.1292226649199922
0,-0.1914713829755783,-88.17906951904297,-0.34958598244133265,-0.28396446583378654,0.33311927135412905,0.12693112604320042
0,-1.4253523349761963,-88.14244842529297,-0.3440339945854305,-0.28196122649125765,0.33311927135412905,0.11345759506026896
-0.5837889313697815,-3.3580379486083984,-88.04462432861328,-0.33852254762754014,-0.280402446454391,0.3282543635927142,0.07359600936373067
1.0474196672439575,-3.307110548019409,-88.01078796386719,-0.33301944498878144,-0.27963870383281686,0.33211795305833236,0.018053105225165615
-0.6493573784828186,-1.8918945789337158,-87.9444351196289,-0.32745650255664527,-0.27969886076843586,0.3354351387980085,-0.02527193749944376
0,-0.4549190402030945,-87.89195251464844,-0.32191101117240645,-0.28028303289475553,0.3300238273106517,-0.044828717658917175
-0.22283488512039185,-1.4724156856536865,-87.91729736328125,-0.31642608869536226,-0.28116402087836645,0.32816686993464844,-0.06088984037439035
-0.40837612748146057,-1.2022302150726318,-87.9093246459961,-0.31100047496121547,-0.2823645908499345,0.3229067781629663,-0.08317855621377634
0.20862896740436554,-2.113657236099243,-87.91461181640625,-0.3056325666557269,-0.28398117008205104,0.3212422184956572,-0.11081095164020864
-0.3885478675365448,-1.0121995210647583,-87.90706634521484,-0.30029102404886404,-0.2860450926619687,0.31974289432788905,-0.13685975794990865
0.06723149120807648,-1.415330410003662,-87.92122650146484,-0.2949842894473109,-0.2884946670952358,0.31706525785848516,-0.15708917404214548
0.5447090864181519,-0.6796534061431885,-87.91460418701172,-0.2896573726095566,-0.2912583049831706,0.3221647626720371,-0.1745473725100359
-0.6503214240074158,-2.0768213272094727,-87.9503402709961,-0.2842952940884663,-0.29435884971482074,0.32128465985879323,-0.19751799528797476
0,-0.24749326705932617,-88.02146911621094,-0.2789857109674869,-0.2978122270386668,0.3158653146587314,-0.21688728357354808
0.4655289649963379,-1.5687488317489624,-88.13121032714844,-0.2736889606561611,-0.3015531430217543,0.3197447227003676,-0.23202263439695048
-0.5606427788734436,-0.7794060111045837,-88.23346710205078,-0.268366487070452,-0.3055832532369016,0.31895210758472503,-0.25159059142073004
0.20942245423793793,-0.15320074558258057,-88.38800048828125,-0.26307500891102853,-0.3098411941186837,0.31602527154609583,-0.2593623143931231
0.24157699942588806,-1.3696447610855103,-88.53823852539062,-0.2577766016454225,-0.3142696525187544,0.3197836003266277,-0.27205269361535717
-0.28863221406936646,-0.816005527973175,-88.64999389648438,-0.25245014269655114,-0.3189556453490839,0.31939147353793207,-0.29026644602417956
0.11125094443559647,-0.2640116512775421,-88.63265228271484,-0.2471392696146435,-0.3238684206424904,0.31791329629098397,-0.2992665891846022
-0.6561169624328613,-0.3456675410270691,-88.57843780517578,-0.2418785525943769,-0.3288985359616994,0.31337274614100674,-0.30434724912047395
-0.6597866415977478,-1.055825114250183,-88.52212524414062,-0.23674705568675114,-0.334068315992546,0.302406882774085,-0.3160263545811177
1.7694557905197144,-0.5933613777160645,-88.52938842773438,-0.2316298806162857,-0.33944994874195117,0.31165412568176803,-0.3297695753475031
-0.5963272452354431,-0.3136712610721588,-88.55760955810547,-0.22635417792816703,-0.34500909670876984,0.3214301968924703,-0.33732818067073833
-0.3141508102416992,0.43308505415916443,-88.57373809814453,-0.22106023562270066,-0.3506229404287622,0.3138428797634941,-0.3363330657283466
-0.4795883297920227,-0.2680978775024414,-88.66519165039062,-0.2158846417335892,-0.35621703408141125,0.30722838692987975,-0.3349581725895406
-0.5932449102401733,-1.0192537307739258,-88.793701171875,-0.21083867092642677,-0.36188906970847834,0.29828810992961147,-0.3456861026585103
0.13697420060634613,-0.8538830280303955,-88.78612518310547,-0.2058988878935467,-0.3677805836943705,0.29448585401599625,-0.3612955756485463
-0.1068873181939125,-0.9240756034851074,-88.62458801269531,-0.20098870095977925,-0.37392564597125705,0.29473657803609987,-0.3761118975778422
0.32999783754348755,-0.15878117084503174,-88.48595428466797,-0.19606093087311163,-0.38026937598466065,0.296595832364013,-0.38513570403059333
-0.5958383679389954,-0.2709510028362274,-88.61319732666016,-0.1911361281483222,-0.3867181468972317,0.2943804946107171,-0.38871680547793713
-0.6777539849281311,-0.08636506646871567,-88.76842498779297,-0.18631823048487048,-0.39322157393778795,0.28376722500349105,-0.39169443938881165
0.406300812959671,0.2714889645576477,-88.84651947021484,-0.18160762764953234,-0.39973695876801196,0.2815051152370872,-0.39015174023807053
0.4207552671432495,-0.9334859251976013,-88.96790313720703,-0.17685844127890707,-0.40628545978313535,0.2883972492379449,-0.39566838157673684
0.19078129529953003,-0.42231255769729614,-89.1157455444336,-0.17200935264143835,-0.41297408548183756,0.29349338725830143,-0.4069667022675276
-0.3397897481918335,-0.20651549100875854,-89.26774597167969,-0.16712814399636197,-0.4198005324674565,0.29225165015086557,-0.41220693600674474
-2.2332637310028076,-0.21146105229854584,-89.50959777832031,-0.16243596742990274,-0.4266996742164097,0.27080953782424355,-0.41569007386763895
0.95759117603302,0.27252647280693054,-89.61858367919922,-0.15801106350470492,-0.43362360146000173,0.2601789331994953,-0.4151811953634024
-0.7534093856811523,0.36975184082984924,-89.7043228149414,-0.15366056866038336,-0.44049868538872256,0.2618804481190942,-0.4098288760830959
0.4920526444911957,-1.2410529851913452,-89.7190170288086,-0.14931404429875886,-0.44738967368068816,0.25970247527584456,-0.4170897189527751
-0.4267978072166443,0.07098016887903214,-89.75230407714844,-0.14498113812490626,-0.4544224240532561,0.2602462655864658,-0.42684032575537767
0.39060327410697937,-0.44562411308288574,-89.88490295410156,-0.14064621387437556,-0.46156244642308214,0.2599446444772186,-0.4299623586237431
0,0,-90.15485382080078,-0.13628667790572005,-0.46875943185244195,0.26319967176144343,-0.4336758928994338
-0.11504273116588593,-0.3046956956386566,-90.37456512451172,-0.13190800578824918,-0.4760085228240741,0.26224098233506105,-0.4362150236964226
-0.38560137152671814,-0.41689392924308777,-90.42694854736328,-0.1275720897009074,-0.4833288836096312,0.258068948145956,-0.4422282705704372
-0.25815704464912415,-0.09101323783397675,-90.35780334472656,-0.12331564601070923,-0.4907346261168522,0.25270429467782396,-0.44646083029607936
-0.8592644333839417,-0.11677583307027817,-90.2600326538086,-0.11918150647983113,-0.49819006975171076,0.24339244902754842,-0.44819240588694814
1.9965708255767822,0.5718159079551697,-90.2234878540039,-0.11504598605213637,-0.5056283431779596,0.25287000229582207,-0.44440040526290736
-1.0073909759521484,-0.8233295679092407,-90.31693267822266,-0.11076279296875985,-0.5130524828253937,0.26111316770936066,-0.4464963524291913
-0.6039947867393494,0.13816305994987488,-90.3840103149414,-0.10652280862934631,-0.5205416697067108,0.24768495302026486,-0.45220607332885265
0,-0.7199568152427673,-90.42892456054688,-0.10243667016142101,-0.5281188399396426,0.24265166313077027,-0.45705435462296007
-0.20424596965312958,-0.46246954798698425,-90.4615249633789,-0.09840665952380075,-0.5358185254585829,0.24094961338366086,-0.46690790764987466
-0.6316365003585815,-0.6994810700416565,-90.38545227050781,-0.09444888002782388,-0.543681014934555,0.23398392613356328,-0.47659082946678
0.6534469723701477,0,-90.32786560058594,-0.09054763330948591,-0.5516727704999764,0.234165680066993,-0.4824198383837938
-0.6872890591621399,0.7397139072418213,-90.44083404541016,-0.08664722211995214,-0.5596617321183701,0.23388366267705973,-0.4762555558234453
-0.4549682140350342,0.1627577543258667,-90.61119842529297,-0.08282848449708428,-0.5675366530722631,0.2243648520670833,-0.46873495864371456
0.26496317982673645,0.18028990924358368,-90.73414611816406,-0.07910226509000848,-0.5753250796285772,0.22278147678201413,-0.4658762281139691
0.5332427620887756,-1.1221208572387695,-90.84368133544922,-0.07910226509000848,-0.5753250796285772,0.22278147678201413,-0.4658762281139691
-0.005504724103957415,-0.07004889845848083,-90.99676513671875,-0.07910226509000848,-0.5753250796285772,0.22278147678201413,-0.4658762281139691
-1.970199465751648,0.6996733546257019,-91.1751480102539,-0.07910226509000848,-0.5753250796285772,0.22278147678201413,-0.4658762281139691
0.6796587109565735,0.9380092024803162,-91.30228424072266,-0.07910226509000848,-0.5753250796285772,0.22278147678201413,-0.4658762281139691
-0.2087985724210739,2.2982327938079834,-91.689453125,-0.07910226509000848,-0.5753250796285772,0.22278147678201413,-0.4658762281139691
-0.794613242149353,3.0580310821533203,-92.375,-0.07910226509000848,-0.5753250796285772,0.22278147678201413,-0.4658762281139691
-0.9797786474227905,1.3601861000061035,-93.24232482910156,-0.07910226509000848,-0.5753250796285772,0.22278147678201413,-0.4658762281139691
0.3095805048942566,2.8656623363494873,-94.3662338256836,-0.07910226509000848,-0.5753250796285772,0.22278147678201413,-0.4658762281139691
-0.24187132716178894,1.5340797901153564,-95.7693862915039,-0.07910226509000848,-0.5753250796285772,0.22278147678201413,-0.4658762281139691
0.5814021825790405,2.3860905170440674,-97.37793731689453,-0.07910226509000848,-0.5753250796285772,0.22278147678201413,-0.4658762281139691
0.6249422430992126,1.457390308380127,-99.094970703125,-0.07910226509000848,-0.5753250796285772,0.22278147678201413,-0.4658762281139691
-0.49960851669311523,1.3159955739974976,-100.93106079101562,-0.07910226509000848,-0.5753250796285772,0.22278147678201413,-0.4658762281139691
-0.09955932199954987,1.378029465675354,-102.88729095458984,-0.07910226509000848,-0.5753250796285772,0.22278147678201413,-0.4658762281139691
-0.36984163522720337,1.167195439338684,-104.95988464355469,-0.07910226509000848,-0.5753250796285772,0.22278147678201413,-0.4658762281139691
-1.1585131883621216,1.5401358604431152,-107.08443450927734,-0.07910226509000848,-0.5753250796285772,0.22278147678201413,-0.4658762281139691
0.25358933210372925,1.6139854192733765,-109.25896453857422,-0.07910226509000848,-0.5753250796285772,0.22278147678201413,-0.4658762281139691
-0.4527547061443329,0.9227735996246338,-111.52375030517578,-0.07910226509000848,-0.5753250796285772,0.22278147678201413,-0.4658762281139691
0.6050681471824646,0.7674053311347961,-113.82972717285156,-0.07910226509000848,-0.5753250796285772,0.22278147678201413,-0.4658762281139691
-0.4795673191547394,0.6435275673866272,-116.18972778320312,-0.07910226509000848,-0.5753250796285772,0.22278147678201413,-0.4658762281139691
-0.4328095316886902,0.608523428440094,-118.57648468017578,-0.07910226509000848,-0.5753250796285772,0.22278147678201413,-0.4658762281139691
-0.8256739974021912,1.3578171730041504,-120.98992919921875,-0.07910226509000848,-0.5753250796285772,0.22278147678201413,-0.4658762281139691
0.16360074281692505,1.0250802040100098,-123.37577056884766,-0.07910226509000848,-0.5753250796285772,0.22278147678201413,-0.4658762281139691
-0.41705286502838135,0.6760855913162231,-125.71726989746094,-0.07910226509000848,-0.5753250796285772,0.22278147678201413,-0.4658762281139691
0.3354645371437073,0.5383433103561401,-127.99735260009766,-0.07910226509000848,-0.5753250796285772,0.22278147678201413,-0.4658762281139691
0.6117790937423706,0.5390536785125732,-130.23321533203125,-0.07910226509000848,-0.5753250796285772,0.22278147678201413,-0.4658762281139691
0.3968116343021393,-0.1854780912399292,-132.44497680664062,-0.07910226509000848,-0.5753250796285772,0.22278147678201413,-0.4658762281139691
0.4747557044029236,0.9482470154762268,-134.66273498535156,-0.07910226509000848,-0.5753250796285772,0.22278147678201413,-0.4658762281139691
-0.25866949558258057,1.1106761693954468,-136.8927001953125,-0.07910226509000848,-0.5753250796285772,0.22278147678201413,-0.4658762281139691
0.5007839798927307,0.3787933886051178,-139.18141174316406,-0.07910226509000848,-0.5753250796285772,0.22278147678201413,-0.4658762281139691
-0.18486455082893372,0.18437279760837555,-141.47105407714844,-0.07910226509000848,-0.5753250796285772,0.22278147678201413,-0.4658762281139691
0.35712578892707825,0.38643330335617065,-143.808837890625,-0.07910226509000848,-0.5753250796285772,0.22278147678201413,-0.4658762281139691
-0.8708942532539368,0.957337498664856,-146.10877990722656,-0.07910226509000848,-0.5753250796285772,0.22278147678201413,-0.4658762281139691
0.6639872193336487,-0.056172676384449005,-148.4136199951172,-0.07910226509000848,-0.5753250796285772,0.22278147678201413,-0.4658762281139691
-1.1835458278656006,1.1165590286254883,-150.75790405273438,-0.07910226509000848,-0.5753250796285772,0.22278147678201413,-0.4658762281139691
