faccX,faccY,yaw,posX,posY,velX,velY
0,0,67.3788833618164,0.0,0.0,0.0,0.0
0,0,67.37869262695312,0.0,0.0,0.0,0.0
0,0,67.38085174560547,0.0,0.0,0.0,0.0
-0.06840485334396362,0.265525221824646,67.38863372802734,-4.750337037775251e-06,1.8439251515600418e-05,-0.0005700404445330301,0.00221271018187205
1.406246542930603,1.6508725881576538,67.37362670898438,7.865466177463534e-05,0.00018840093579557208,0.0105786403020223,0.018182691931724546
0.5978736877441406,2.161961555480957,67.45638275146484,0.0003941403494940864,0.0007562259501881069,0.02727964222431183,0.049956309795379635
-0.14884884655475616,2.518219470977783,67.57524871826172,0.0008799833338707686,0.001913843684726291,0.031021515900890032,0.08895781834920247
1.114100694656372,1.5576398372650146,67.68244934082031,0.0014640399772259925,0.003679519775840971,0.03906528130173683,0.12292331258455912
0.09614522755146027,1.1620219945907593,67.81632232666016,0.0021991728546304837,0.005917107057240275,0.049150663986802096,0.14558716118335724
0.6880257725715637,1.0107872486114502,67.9386215209961,0.0030728069071968398,0.008494449274407493,0.05568542232116063,0.16369390487670898
1.2804486751556396,0.940492570400238,68.0246353149414,0.0041375968936416836,0.011358186565339566,0.07208937605222066,0.1799545700351397
0.07285315543413162,1.9829273223876953,68.10159301757812,0.0054330657883029845,0.014560444669591057,0.08336689130713541,0.20431640247503915
0.19654302299022675,0.988063395023346,68.27909088134766,0.006841222044701377,0.018172036843995255,0.08561185946067174,0.2290746584534645
0.8382901549339294,0.5188913345336914,68.3515625,0.008339949784179528,0.02209459745221668,0.09423546927670637,0.24163261453310647
0.7394173741340637,0.8208156824111938,68.33587646484375,0.010020103961643245,0.026214842903945185,0.10738303201893964,0.2527968396743138
0.4763133227825165,1.773308277130127,68.37114715576172,0.011894246904800334,0.03060827106237412,0.11751412115991114,0.27441453933715815
-0.3419293463230133,1.385701298713684,68.37335968017578,0.01386214781138632,0.03540122238298257,0.118633987630407,0.30073961913585656
-0.40171346068382263,1.7211074829101562,68.43218994140625,0.01578773907696207,0.04062929997841517,0.11243696423868337,0.3266296923160552
-0.5805524587631226,0.8053082823753357,68.53852844238281,0.01759347556986742,0.046248573722938696,0.10425141490995882,0.34768315702676766
2.233759880065918,-0.34331071376800537,68.55370330810547,0.019445805222623874,0.05207537617120478,0.11802814342081544,0.35153313676516207
0.06605947762727737,0.8328253626823425,68.61177825927734,0.021572650623921715,0.05796825585679875,0.13719330473492541,0.3556124255061149
0.18821850419044495,0.11625092476606369,68.66029357910156,0.023876863896018924,0.06396103769075125,0.13931228791673977,0.36352139456818494
1.3303591012954712,1.1426628828048706,68.65666961669922,0.026304192139456666,0.0701071521701912,0.15196710129578908,0.3740123429646094
-0.9507607221603394,-0.2840096354484558,68.58638000488281,0.0288633381596042,0.07640031991733444,0.1551304211219152,0.3811677866925795
0.8566411733627319,0.6743854284286499,68.55082702636719,0.031442309098525176,0.08278022579227884,0.1543460915486018,0.38442091830074776
-0.664372444152832,0.6160415410995483,68.55660247802734,0.03402809595275256,0.08927685408128631,0.1559483309586843,0.3951744763801494
-0.4722655117511749,1.0544424057006836,68.4976806640625,0.03654830161068174,0.0959791011839277,0.14647634799281756,0.409095175936818
0.6895264983177185,0,68.4653091430664,0.03900466164574026,0.10287057928327055,0.14828685621420543,0.4178821959843237
0.9098235964775085,-0.07108595222234726,68.43168640136719,0.04158717522811558,0.10983034602521606,0.16161477367083232,0.4172898130491375
0.24889788031578064,0.4976712763309479,68.38986206054688,0.04436122155851788,0.11681480022354256,0.17127078597744305,0.4208446907500425
0.3669249713420868,0.16173812747001648,68.44002532958984,0.047258500133951505,0.12387467072241833,0.17640264307459194,0.4263397691150505
0.17226341366767883,-0.4084306061267853,68.52899932861328,0.0502359878230426,0.13096320211887355,0.18089587961634,0.4242839984595774
-0.730380654335022,1.227144718170166,68.54106140136719,0.05321216100826859,0.13809145723986951,0.1762449026107788,0.43110661605993894
0.7456737160682678,0.06808434426784515,68.5230712890625,0.05615063806995749,0.14536651397020448,0.17637234479188918,0.4419001915802557
-2.317176103591919,-0.4345906972885132,68.53585052490234,0.05898104503957761,0.15270606533313785,0.1632764915625254,0.4388459719717501
1.3879518508911133,0.8720604181289673,68.62511444091797,0.06163779043695992,0.1600505447077254,0.15553295612335202,0.4424915529787539
-0.3970075845718384,0.19165493547916412,68.69140625,0.06429882194639906,0.1674992730458163,0.16379082500934597,0.451355847592155
0.25775498151779175,0,68.66964721679688,0.06701899871023163,0.17503517987620493,0.16263038665056226,0.4529529720544814
0.9845510721206665,0.942632257938385,68.74365997314453,0.06981577640813257,0.1826498566505809,0.17298293709754942,0.4608082408706346
0,0,68.87469482421875,0.072767196961989,0.19039545457189275,0.18118752936522164,0.4686635096867878
0.691335916519165,-0.14680227637290955,68.90144348144531,0.07583499855672318,0.19819631846414665,0.18694866200288135,0.4674401573836802
0.9105225205421448,-0.8435853719711304,68.77462768554688,0.0790620497593449,0.20591821083385076,0.2002974823117256,0.4591869269808132
-0.8049163222312927,1.1111676692962646,68.6643295288086,0.08240767489497858,0.21358990838751188,0.20117753396431604,0.46141677945852266
-1.4703333377838135,0.869838297367096,68.60228729248047,0.08560263034577169,0.22141775790395,0.1822171201308568,0.47792516251405065
-0.31898969411849976,0.8139491677284241,68.72794342041016,0.08851532380407053,0.22950010696426024,0.1673060948650042,0.49195672472318
0,0,68.777099609375,0.0912816066563957,0.23775590995740548,0.1646478474140167,0.4987396344542502
1.008649230003357,-1.297324299812317,68.73783111572266,0.09409578253204622,0.2459781452330449,0.17305325766404467,0.4879285986224809
1.363862156867981,0.488853394985199,68.64704895019531,0.09714476122831303,0.25405414473058435,0.19282418588797248,0.4811913410822549
-1.124436616897583,0.16274966299533844,68.64230346679688,0.1003751244333883,0.26211925062764835,0.19481939872105913,0.48662136656542604
0.3252270221710205,-0.3568991422653198,68.51920318603516,0.10356661374577215,0.27021612413434504,0.18815931876500444,0.4850034542381762
-0.6260940432548523,0.6131824254989624,68.49370574951172,0.10668170884872474,0.2783173124885392,0.18565209358930584,0.4871391482651232
0.17095644772052765,-0.3943288326263428,68.39523315429688,0.10974430363107884,0.2864514964591296,0.18185928029318646,0.4889629282057284
0.6490141749382019,0,68.34259796142578,0.11283223404031659,0.2945734946491816,0.18869236881534254,0.48567685460050886
-0.08497181534767151,0.8391229510307312,68.34272003173828,0.11601627646221052,0.30272638131967833,0.1933927218119303,0.4926695458590983
0.39970916509628296,-0.9424278736114502,68.47604370117188,0.11926134525280857,0.310930366464373,0.19601553305983538,0.49180867150425894
-0.16252663731575012,-0.2500106990337372,68.57444763183594,0.12254474181267948,0.3190443694218992,0.19799205412467316,0.48187168339888237
-0.24254122376441956,0.7176840901374817,68.4986801147461,0.125816479668849,0.32710804146404054,0.19461648861567174,0.48576896165808026
-1.0643419027328491,-1.1117383241653442,68.42155456542969,0.12896933203977012,0.33517682594764553,0.18372579589486115,0.4824851763745147
0.39442092180252075,0.7167697548866272,68.47457885742188,0.13198490634767543,0.34319081718102085,0.17814312105377508,0.4791937716305254
0.11426887661218643,0.15648087859153748,68.47172546386719,0.1349892840456838,0.35123802244663227,0.182382202707231,0.4864708602428434
-0.07580042630434036,0,68.45659637451172,0.1380316588442979,0.3593567368450263,0.18270277312646305,0.48777486756443955
1.5893856287002563,0.5043302774429321,68.47857666015625,0.14118181514657202,0.3675213409070338,0.195315983146429,0.491977619876464
-0.5278900861740112,0.24610978364944458,68.54095458984375,0.14451079650057683,0.3757730817981063,0.20416177933414772,0.4982312870522338
0.8284779191017151,-0.9942080974578857,68.50423431396484,0.14451079650057683,0.3757730817981063,0.20416177933414772,0.4982312870522338
0.321527898311615,-0.6712441444396973,68.43409729003906,0.14451079650057683,0.3757730817981063,0.20416177933414772,0.4982312870522338
-1.2861772775650024,0.15508632361888885,68.39122009277344,0.14451079650057683,0.3757730817981063,0.20416177933414772,0.4982312870522338
-2.2434465885162354,-0.3522776961326599,68.26325225830078,0.14451079650057683,0.3757730817981063,0.20416177933414772,0.4982312870522338
0.3437540531158447,-2.916741132736206,67.75302124023438,0.14451079650057683,0.3757730817981063,0.20416177933414772,0.4982312870522338
-0.34316718578338623,-2.353487730026245,67.01089477539062,0.14451079650057683,0.3757730817981063,0.20416177933414772,0.4982312870522338
-0.20363393425941467,-2.858738899230957,66.09619140625,0.14451079650057683,0.3757730817981063,0.20416177933414772,0.4982312870522338
0.23142363131046295,-2.173649787902832,64.94596099853516,0.14451079650057683,0.3757730817981063,0.20416177933414772,0.4982312870522338
-0.5281415581703186,-1.2597204446792603,63.562137603759766,0.14451079650057683,0.3757730817981063,0.20416177933414772,0.4982312870522338
-0.052856702357530594,-1.0715101957321167,62.0301513671875,0.14451079650057683,0.3757730817981063,0.20416177933414772,0.4982312870522338
-0.6553270816802979,-1.3055570125579834,60.38912582397461,0.14451079650057683,0.3757730817981063,0.20416177933414772,0.4982312870522338
-0.4298212230205536,-2.015716314315796,58.552978515625,0.14451079650057683,0.3757730817981063,0.20416177933414772,0.4982312870522338
-1.0268207788467407,-1.8543707132339478,56.53115463256836,0.14451079650057683,0.3757730817981063,0.20416177933414772,0.4982312870522338
-0.6452192068099976,-1.5281786918640137,54.34158706665039,0.14451079650057683,0.3757730817981063,0.20416177933414772,0.4982312870522338
0.5058978796005249,-1.251638412475586,52.04378890991211,0.14451079650057683,0.3757730817981063,0.20416177933414772,0.4982312870522338
-1.1014412641525269,-1.3550856113433838,49.69518280029297,0.14451079650057683,0.3757730817981063,0.20416177933414772,0.4982312870522338
0.3717578053474426,-1.8130844831466675,47.2414665222168,0.14451079650057683,0.3757730817981063,0.20416177933414772,0.4982312870522338
-1.8882546424865723,-1.308361291885376,44.77045440673828,0.14451079650057683,0.3757730817981063,0.20416177933414772,0.4982312870522338
0.9564469456672668,-1.4566187858581543,42.23518371582031,0.14451079650057683,0.3757730817981063,0.20416177933414772,0.4982312870522338
-1.0511375665664673,-1.0129507780075073,39.63349914550781,0.14451079650057683,0.3757730817981063,0.20416177933414772,0.4982312870522338
0.7331129908561707,-1.538940191268921,37.03081512451172,0.14451079650057683,0.3757730817981063,0.20416177933414772,0.4982312870522338
-0.4609360098838806,-0.26923632621765137,34.396942138671875,0.14451079650057683,0.3757730817981063,0.20416177933414772,0.4982312870522338
-0.173694908618927,-0.9021999835968018,31.76337432861328,0.14451079650057683,0.3757730817981063,0.20416177933414772,0.4982312870522338
0.3996693193912506,-1.8974790573120117,29.143404006958008,0.14451079650057683,0.3757730817981063,0.20416177933414772,0.4982312870522338
-2.0268607139587402,-0.394641637802124,26.50864028930664,0.14451079650057683,0.3757730817981063,0.20416177933414772,0.4982312870522338
0.7555243968963623,-2.6264443397521973,23.773317337036133,0.14451079650057683,0.3757730817981063,0.20416177933414772,0.4982312870522338
-0.784869909286499,0.04201087728142738,21.085119247436523,0.14451079650057683,0.3757730817981063,0.20416177933414772,0.4982312870522338
-0.053943704813718796,-1.4450280666351318,18.334217071533203,0.14451079650057683,0.3757730817981063,0.20416177933414772,0.4982312870522338
-0.043506234884262085,-0.038320545107126236,15.539312362670898,0.14451079650057683,0.3757730817981063,0.20416177933414772,0.4982312870522338
-0.5393102169036865,-1.4069454669952393,12.730259895324707,0.14451079650057683,0.3757730817981063,0.20416177933414772,0.4982312870522338
-1.8559503555297852,0.10249419510364532,9.845951080322266,0.14451079650057683,0.3757730817981063,0.20416177933414772,0.4982312870522338
0.1409829556941986,-0.7625455260276794,6.9187235832214355,0.14451079650057683,0.3757730817981063,0.20416177933414772,0.4982312870522338
-0.5725895166397095,-0.5546619296073914,3.9990603923797607,0.14451079650057683,0.3757730817981063,0.20416177933414772,0.4982312870522338
-0.2678644061088562,0.07468098402023315,1.0805212259292603,0.14451079650057683,0.3757730817981063,0.20416177933414772,0.4982312870522338
-1.6084309816360474,0.6944184303283691,-1.8989098072052002,0.14451079650057683,0.3757730817981063,0.20416177933414772,0.4982312870522338
0.11495570093393326,-1.6473854780197144,-4.79541540145874,0.14451079650057683,0.3757730817981063,0.20416177933414772,0.4982312870522338
-1.654093861579895,2.096810817718506,-7.687420845031738,0.14451079650057683,0.3757730817981063,0.20416177933414772,0.4982312870522338
-0.265703946352005,-1.8972514867782593,-10.536286354064941,0.14451079650057683,0.3757730817981063,0.20416177933414772,0.4982312870522338
-0.6793703436851501,1.891122579574585,-13.425115585327148,0.14451079650057683,0.3757730817981063,0.20416177933414772,0.4982312870522338
-0.42756935954093933,-0.44416317343711853,-16.34028434753418,0.14451079650057683,0.3757730817981063,0.20416177933414772,0.4982312870522338
-0.694429874420166,2.2849154472351074,-19.250656127929688,0.14451079650057683,0.3757730817981063,0.20416177933414772,0.4982312870522338
-0.209439218044281,-1.3607752323150635,-22.006759643554688,0.14451079650057683,0.3757730817981063,0.20416177933414772,0.4982312870522338
-0.24772557616233826,1.2221566438674927,-24.71803855895996,0.14451079650057683,0.3757730817981063,0.20416177933414772,0.4982312870522338
-0.9057685732841492,0.2886851727962494,-27.377662658691406,0.14451079650057683,0.3757730817981063,0.20416177933414772,0.4982312870522338
-0.3584738075733185,0.44621139764785767,-30.043100357055664,0.14451079650057683,0.3757730817981063,0.20416177933414772,0.4982312870522338
0.08849441260099411,-0.485315203666687,-32.715511322021484,0.14451079650057683,0.3757730817981063,0.20416177933414772,0.4982312870522338
-0.306739866733551,0.41572102904319763,-35.33675003051758,0.14451079650057683,0.3757730817981063,0.20416177933414772,0.4982312870522338
-0.13833819329738617,0.6620920896530151,-37.70466232299805,0.14451079650057683,0.3757730817981063,0.20416177933414772,0.4982312870522338
-0.04365832358598709,-1.411237120628357,-39.6119499206543,0.14451079650057683,0.3757730817981063,0.20416177933414772,0.4982312870522338
0.22140254080295563,1.0882415771484375,-41.097251892089844,0.14451079650057683,0.3757730817981063,0.20416177933414772,0.4982312870522338
1.4582362174987793,-0.02625325880944729,-42.30686569213867,0.14451079650057683,0.3757730817981063,0.20416177933414772,0.4982312870522338
1.3911855220794678,0.7197504639625549,-43.20259475708008,0.14451079650057683,0.3757730817981063,0.20416177933414772,0.4982312870522338
1.2650471925735474,0.3897840976715088,-43.762245178222656,0.14451079650057683,0.3757730817981063,0.20416177933414772,0.4982312870522338
0.7579748034477234,0.010057475417852402,-43.95804214477539,0.14451079650057683,0.3757730817981063,0.20416177933414772,0.4982312870522338
1.2542119026184082,0.005156520754098892,-43.91425323486328,0.14451079650057683,0.3757730817981063,0.20416177933414772,0.4982312870522338
0.0948781967163086,-0.5358959436416626,-43.78195571899414,0.14451079650057683,0.3757730817981063,0.20416177933414772,0.4982312870522338
-0.5344952344894409,-0.23259955644607544,-43.69701385498047,0.14451079650057683,0.3757730817981063,0.20416177933414772,0.4982312870522338
-0.45868930220603943,-0.12073253095149994,-43.73766326904297,0.14451079650057683,0.3757730817981063,0.20416177933414772,0.4982312870522338
-0.058143194764852524,0.09978307038545609,-43.750152587890625,0.14451079650057683,0.3757730817981063,0.20416177933414772,0.4982312870522338
-0.12511110305786133,-0.24843387305736542,-43.72763442993164,0.14451079650057683,0.3757730817981063,0.20416177933414772,0.4982312870522338
-0.04390949755907059,-0.21890056133270264,-43.735408782958984,0.14451079650057683,0.3757730817981063,0.20416177933414772,0.4982312870522338
-0.03883202373981476,-0.1997484713792801,-43.729347229003906,0.14451079650057683,0.3757730817981063,0.20416177933414772,0.4982312870522338
-0.15812352299690247,-0.11348646879196167,-43.73167419433594,0.14451079650057683,0.3757730817981063,0.20416177933414772,0.4982312870522338
-0.16275067627429962,-0.11393463611602783,-43.730186462402344,0.14789120989230767,0.38406114345002496,0.2014878276735544,0.4963361111780005
0.09236154705286026,-0.16300085186958313,-43.72300720214844,0.15124445221955987,0.3923141803385482,0.20090125159670905,0.4940283154447871
0.3245117664337158,-0.7244611978530884,-43.721221923828125,0.15462175594849714,0.4004863562869528,0.20437519587576386,0.48663279836376483
0.888826310634613,-1.821976900100708,-43.64503860473633,0.1581122688017785,0.4084200669473243,0.21448634651799994,0.46541248088081655
3.1639199256896973,-2.3950512409210205,-43.54728698730469,0.16196848195460103,0.4158840924522114,0.24825923182070253,0.4302705797056355
1.1343194246292114,-0.8481006026268005,-43.42002868652344,0.16640462466205155,0.4228300499026145,0.2840778930733601,0.403244314342737
0.3903658986091614,-0.8455484509468079,-43.18819046020508,0.17124513713849912,0.4294331739573842,0.29678360410034654,0.3891305722296236
1.2078001499176025,-0.7131857872009277,-42.96648406982422,0.1763025142935415,0.43581043806133984,0.31010165450473626,0.37614112024505914
1.5697555541992188,-1.380075216293335,-42.78968048095703,0.18166376101473966,0.44193409138462597,0.3332479520390431,0.35869727854927363
0.2457265406847,-1.6164454221725464,-42.701255798339844,0.18734396869420175,0.44770428764944264,0.3483769694964091,0.3337262732287246
0.2623874545097351,-1.4838595390319824,-42.706146240234375,0.19318553721325263,0.4530510932476155,0.3526112527896961,0.3078903985520202
1.4347001314163208,-0.3550430238246918,-42.6370735168457,0.19918024473099244,0.4580548983232841,0.3667536493390799,0.2925662105282146
1.4209386110305786,-0.6409702897071838,-42.53833770751953,0.2054911137993137,0.4628618342408702,0.3905506388594707,0.28426609958211563
0.577955424785614,-1.2449432611465454,-42.6015625,0.21213910319945878,0.4674686363484295,0.407208089157939,0.2685501533250012
0.8358315229415894,-0.7712695002555847,-42.55268859863281,0.21902408433457216,0.47180445746208216,0.41898964705566566,0.2517483803133168
0.13931533694267273,-0.8301891684532166,-42.446495056152344,0.22607496365076965,0.47588905139308824,0.4271158708880345,0.23840289140741014
0.1811193972826004,-0.46408432722091675,-42.42477798461914,0.23321581391100255,0.47977255281267883,0.42978616033991174,0.22761727894345904
0.8254953026771545,-0.48416560888290405,-42.40803527832031,0.24044882038194273,0.48350032343839594,0.4381746161729097,0.21971519614259385
-0.5043611526489258,-1.169731855392456,-42.375057220458984,0.24777403163413209,0.48704738938353115,0.4408507340898116,0.20593271727363252
1.1961804628372192,-0.38108962774276733,-42.2571907043457,0.25516958687661423,0.49037190540176284,0.4466158950080474,0.19300920491417234
0.24708451330661774,-0.3511309325695038,-42.30429458618164,0.2627134118612028,0.49353787683364403,0.45864310314257933,0.1869073669115701
1.164147973060608,-0.7472816109657288,-42.417720794677734,0.27045546583624347,0.4965767209666469,0.47040337386230624,0.1777539290487765
-0.32710516452789307,-0.07502911984920502,-42.5162353515625,0.27835365004009666,0.49948218153893104,0.47737873060007885,0.1709013396253187
0.9078042507171631,-0.49472278356552124,-42.53645706176758,0.28635028854219446,0.5022909710949492,0.4822178896516561,0.16615340709686266
-0.8575389981269836,-0.8807566165924072,-42.58116912841797,0.29439074401226306,0.5049646751437749,0.48263676675657424,0.15469107876221325
0,-0.388338565826416,-42.49217224121094,0.3023751388055583,0.5074547281799215,0.4754906084388494,0.14411528557538972
0.2889193892478943,-1.0223212242126465,-42.35628890991211,0.31032004612601466,0.5097586871207587,0.47789827001591517,0.1323597873250642
-0.3018159568309784,0.44971534609794617,-42.30268096923828,0.31828412169797554,0.5119249192790851,0.47779079861938945,0.12758807167410838
-0.0789405032992363,-0.2155604511499405,-42.35392379760742,0.326220860254123,0.5140676478969138,0.47461782811830433,0.12953936246534176
0.6120656132698059,-0.14992950856685638,-42.424293518066406,0.3341681799665094,0.5162012560241337,0.4790605373680591,0.1264936128010351
0.22112911939620972,-0.24951425194740295,-42.353126525878906,0.3422103830013011,0.5182817437541152,0.48600382680694254,0.12316491479674961
0.321614146232605,-0.2477950155735016,-42.27644348144531,0.35034813728597436,0.5202999569682609,0.49052668735384936,0.11902067090074207
-0.34238189458847046,-0.5523062348365784,-42.33305740356445,0.3585221398704582,0.5222280722297726,0.4903536227842171,0.11235316048065808
-0.2453577220439911,-1.409520149230957,-42.44876480102539,0.36665388499904017,0.5239643869611122,0.4854557926456133,0.09600460728009529
0.18036799132823944,-1.0001100301742554,-42.48673629760742,0.3747403017007229,0.5253971283199885,0.48491421155631537,0.07592435578505186
0.6215499043464661,0.6782475113868713,-42.51715850830078,0.3828778939694167,0.5266401826859347,0.4915968606869379,0.07324216812849033
-0.5082535147666931,0.13598592579364777,-42.4654541015625,0.39107904278569755,0.5279174294767693,0.49254099726676936,0.08002744677166132
-0.8506050109863281,-0.34684962034225464,-42.39210510253906,0.3991936942314109,0.5292365769441756,0.48121717621882754,0.07827024931708959
0.6115279197692871,-0.1595347374677658,-42.329795837402344,0.4071973779259457,0.5305059155190569,0.47922486712535217,0.07405037966867276
-0.5976158380508423,0.29137036204338074,-42.357330322265625,0.41518542516148754,0.5317492437652415,0.47934080113967253,0.07514900987346955
1.4450223445892334,-0.5301566123962402,-42.482608795166016,0.4232332861878806,0.5329851448846359,0.48640252202749246,0.07315912445386238
1.3813247680664062,-0.8701426982879639,-42.54897689819336,0.4315362689933843,0.5341072206178472,0.5099554146329561,0.06148996353149402
-1.2918115854263306,-1.1086691617965698,-42.42601776123047,0.4400417420971725,0.5349946358530885,0.5107013578216234,0.04499986469745623
0.08369633555412292,1.0598154067993164,-42.21488571166992,0.44846953450184734,0.5357412409761713,0.500633730739355,0.04459275007247912
-0.5373536348342896,-0.2252877801656723,-42.18461990356445,0.45678192603505324,0.5365424067847844,0.4968532532453536,0.05154714696109282
-0.7897606492042542,-0.8833827972412109,-42.17759704589844,0.46497065287497313,0.5373245348884826,0.4857939675450324,0.042308225482702126
1.290001392364502,0.4279390573501587,-42.17001724243164,0.4731019579412209,0.5379980439423686,0.4899626404047011,0.03851286098361002
0.5852252840995789,0.5429792404174805,-42.2758674621582,0.48139822602272037,0.5387073498405516,0.5055895293752352,0.04660384679834035
-1.0322473049163818,-0.24863594770431519,-42.35970687866211,0.48979367498308424,0.5395045211269623,0.5018643458684284,0.04905670757095006
0.4491969048976898,-1.2191150188446045,-42.44584655761719,0.49811759113644566,0.5402202057693567,0.4970055925349393,0.03682544951637573
-0.6616009473800659,-0.47951820492744446,-42.45948028564453,0.5063862673979667,0.5407160026207566,0.4952355588475862,0.022670172651608658
0.17383255064487457,1.5068081617355347,-42.34428405761719,0.5146063205734309,0.5411651784119507,0.49117082220812625,0.031230922291676077
-0.014253092929720879,-0.87184739112854,-42.172340393066406,0.5146063205734309,0.5411651784119507,0.49117082220812625,0.031230922291676077
-1.1579605340957642,0.4961243271827698,-42.16222381591797,0.5146063205734309,0.5411651784119507,0.49117082220812625,0.031230922291676077
0.3270948529243469,-0.5322135090827942,-42.26776123046875,0.5146063205734309,0.5411651784119507,0.49117082220812625,0.031230922291676077
-0.21668337285518646,0.24833504855632782,-42.37831115722656,0.5146063205734309,0.5411651784119507,0.49117082220812625,0.031230922291676077
-0.6239568591117859,-0.3342764973640442,-42.51383590698242,0.5146063205734309,0.5411651784119507,0.49117082220812625,0.031230922291676077
-2.280161142349243,1.0990068912506104,-42.92362594604492,0.5146063205734309,0.5411651784119507,0.49117082220812625,0.031230922291676077
-2.308448076248169,1.2193152904510498,-43.59699249267578,0.5146063205734309,0.5411651784119507,0.49117082220812625,0.031230922291676077
-1.3066109418869019,0.1921134889125824,-44.372676849365234,0.5146063205734309,0.5411651784119507,0.49117082220812625,0.031230922291676077
-2.321155309677124,1.5211539268493652,-45.359989166259766,0.5146063205734309,0.5411651784119507,0.49117082220812625,0.031230922291676077
-2.243684768676758,-0.08268199861049652,-46.67222213745117,0.5146063205734309,0.5411651784119507,0.49117082220812625,0.031230922291676077
-2.006998300552368,3.3459036350250244,-48.127864837646484,0.5146063205734309,0.5411651784119507,0.49117082220812625,0.031230922291676077
-1.5759245157241821,-0.22220143675804138,-49.703853607177734,0.5146063205734309,0.5411651784119507,0.49117082220812625,0.031230922291676077
-1.2146930694580078,0.534724771976471,-51.31939697265625,0.5146063205734309,0.5411651784119507,0.49117082220812625,0.031230922291676077
-0.07633862644433975,0.9162557125091553,-52.89602279663086,0.5146063205734309,0.5411651784119507,0.49117082220812625,0.031230922291676077
-1.9173388481140137,-0.1412574201822281,-54.41246795654297,0.5146063205734309,0.5411651784119507,0.49117082220812625,0.031230922291676077
-0.728756308555603,0.3715892732143402,-55.86235809326172,0.5146063205734309,0.5411651784119507,0.49117082220812625,0.031230922291676077
-1.4393069744110107,0.4388785660266876,-57.166465759277344,0.5146063205734309,0.5411651784119507,0.49117082220812625,0.031230922291676077
-1.131139874458313,-0.12993121147155762,-58.337806701660156,0.5146063205734309,0.5411651784119507,0.49117082220812625,0.031230922291676077
-0.9806434512138367,-0.586054801940918,-59.351905822753906,0.5146063205734309,0.5411651784119507,0.49117082220812625,0.031230922291676077
0.6680928468704224,2.9099066257476807,-60.50104522705078,0.5146063205734309,0.5411651784119507,0.49117082220812625,0.031230922291676077
-2.2537283897399902,-0.7773278951644897,-61.54170608520508,0.5146063205734309,0.5411651784119507,0.49117082220812625,0.031230922291676077
0.09999947249889374,2.4146206378936768,-62.591285705566406,0.5146063205734309,0.5411651784119507,0.49117082220812625,0.031230922291676077
-1.8051552772521973,-0.8838967680931091,-63.42618179321289,0.5146063205734309,0.5411651784119507,0.49117082220812625,0.031230922291676077
0.3701651692390442,0.9660171866416931,-64.29669189453125,0.5146063205734309,0.5411651784119507,0.49117082220812625,0.031230922291676077
-0.6230347752571106,1.1997469663619995,-65.00359344482422,0.5146063205734309,0.5411651784119507,0.49117082220812625,0.031230922291676077
0.8128405213356018,1.8249115943908691,-65.72625732421875,0.5146063205734309,0.5411651784119507,0.49117082220812625,0.031230922291676077
0.8781121373176575,0.7538660764694214,-66.53414916992188,0.5146063205734309,0.5411651784119507,0.49117082220812625,0.031230922291676077
-0.08738204836845398,0.03509330004453659,-67.46300506591797,0.5146063205734309,0.5411651784119507,0.49117082220812625,0.031230922291676077
-0.437246710062027,1.7032500505447388,-68.57234191894531,0.5146063205734309,0.5411651784119507,0.49117082220812625,0.031230922291676077
-0.1964591145515442,-0.02745758928358555,-69.76960754394531,0.5146063205734309,0.5411651784119507,0.49117082220812625,0.031230922291676077
-1.8562531471252441,-1.1307380199432373,-71.10233306884766,0.5146063205734309,0.5411651784119507,0.49117082220812625,0.031230922291676077
0.1950562447309494,1.2480682134628296,-72.5141830444336,0.5146063205734309,0.5411651784119507,0.49117082220812625,0.031230922291676077
0.08050988614559174,-0.2293814718723297,-73.91873931884766,0.5146063205734309,0.5411651784119507,0.49117082220812625,0.031230922291676077
0.11294180154800415,1.560410976409912,-75.22986602783203,0.5146063205734309,0.5411651784119507,0.49117082220812625,0.031230922291676077
-1.4134738445281982,0.1639244556427002,-76.70938110351562,0.5146063205734309,0.5411651784119507,0.49117082220812625,0.031230922291676077
-0.622818648815155,-0.16610579192638397,-78.31466674804688,0.5146063205734309,0.5411651784119507,0.49117082220812625,0.031230922291676077
-1.6394120454788208,-0.6191968321800232,-80.18831634521484,0.5146063205734309,0.5411651784119507,0.49117082220812625,0.031230922291676077
-0.8661057949066162,-0.8155454993247986,-82.29910278320312,0.5146063205734309,0.5411651784119507,0.49117082220812625,0.031230922291676077
-1.062288761138916,0.6141750812530518,-84.57422637939453,0.5146063205734309,0.5411651784119507,0.49117082220812625,0.031230922291676077
-1.0669493675231934,0.4112415909767151,-86.9440689086914,0.5146063205734309,0.5411651784119507,0.49117082220812625,0.031230922291676077
-0.44962358474731445,0.4624338746070862,-89.41708374023438,0.5146063205734309,0.5411651784119507,0.49117082220812625,0.031230922291676077
0.1253962516784668,0.20073288679122925,-91.93942260742188,0.5146063205734309,0.5411651784119507,0.49117082220812625,0.031230922291676077
-1.1538206338882446,0.6961199045181274,-94.53121948242188,0.5146063205734309,0.5411651784119507,0.49117082220812625,0.031230922291676077
-0.6209328770637512,-0.03759505972266197,-97.15988159179688,0.5146063205734309,0.5411651784119507,0.49117082220812625,0.031230922291676077
0.005084050353616476,0.009522364474833012,-99.8529052734375,0.5146063205734309,0.5411651784119507,0.49117082220812625,0.031230922291676077
0.6066003441810608,0.15067201852798462,-102.5974349975586,0.5146063205734309,0.5411651784119507,0.49117082220812625,0.031230922291676077
-2.250246524810791,-0.06013000011444092,-105.32758331298828,0.5146063205734309,0.5411651784119507,0.49117082220812625,0.031230922291676077
0.14616601169109344,0.8065701723098755,-108.14160919189453,0.5146063205734309,0.5411651784119507,0.49117082220812625,0.031230922291676077
-0.7382774949073792,-0.18461765348911285,-110.90619659423828,0.5146063205734309,0.5411651784119507,0.49117082220812625,0.031230922291676077
0.2276688814163208,0.437437504529953,-113.81034088134766,0.5146063205734309,0.5411651784119507,0.49117082220812625,0.031230922291676077
-0.2949695289134979,0.2713848352432251,-116.67740631103516,0.5146063205734309,0.5411651784119507,0.49117082220812625,0.031230922291676077
0.8031736612319946,-0.0012797968229278922,-119.35481262207031,0.5146063205734309,0.5411651784119507,0.49117082220812625,0.031230922291676077
-0.6455735564231873,-0.41061434149742126,-121.58202362060547,0.5146063205734309,0.5411651784119507,0.49117082220812625,0.031230922291676077
0.5700251460075378,-1.5433653593063354,-123.4823226928711,0.5146063205734309,0.5411651784119507,0.49117082220812625,0.031230922291676077
2.7850024700164795,-1.5305777788162231,-124.99956512451172,0.5146063205734309,0.5411651784119507,0.49117082220812625,0.031230922291676077
-0.8342410922050476,-0.7900745868682861,-126.04996490478516,0.5146063205734309,0.5411651784119507,0.49117082220812625,0.031230922291676077
1.8943697214126587,-1.4145227670669556,-126.72196197509766,0.5146063205734309,0.5411651784119507,0.49117082220812625,0.031230922291676077
0.5832099914550781,-1.1120184659957886,-127.0403060913086,0.5146063205734309,0.5411651784119507,0.49117082220812625,0.031230922291676077
0.4345921576023102,-0.48217645287513733,-126.96536254882812,0.5146063205734309,0.5411651784119507,0.49117082220812625,0.031230922291676077
-0.766767144203186,0.4557276666164398,-126.91597747802734,0.5146063205734309,0.5411651784119507,0.49117082220812625,0.031230922291676077
0.09197412431240082,-0.4066654145717621,-126.97525024414062,0.5146063205734309,0.5411651784119507,0.49117082220812625,0.031230922291676077
-0.4662189781665802,0.07114449888467789,-126.92810821533203,0.5146063205734309,0.5411651784119507,0.49117082220812625,0.031230922291676077
-0.05518684536218643,-0.07117689400911331,-126.95330047607422,0.5146063205734309,0.5411651784119507,0.49117082220812625,0.031230922291676077
-0.24116326868534088,0.08638852834701538,-126.94473266601562,0.5146063205734309,0.5411651784119507,0.49117082220812625,0.031230922291676077
-0.1293749362230301,0.04521194100379944,-126.94234466552734,0.5146063205734309,0.5411651784119507,0.49117082220812625,0.031230922291676077
-0.1596803069114685,-0.04987518861889839,-126.94566345214844,0.5146063205734309,0.5411651784119507,0.49117082220812625,0.031230922291676077
-0.2958942651748657,0.028306780382990837,-126.94145965576172,0.5146063205734309,0.5411651784119507,0.49117082220812625,0.031230922291676077
-0.1415989100933075,-0.09941580146551132,-126.94305419921875,0.5146063205734309,0.5411651784119507,0.49117082220812625,0.031230922291676077
-0.26500797271728516,0.046046674251556396,-126.94316864013672,0.5146063205734309,0.5411651784119507,0.49117082220812625,0.031230922291676077
-0.11628776788711548,-0.05591513589024544,-126.9417724609375,0.5146063205734309,0.5411651784119507,0.49117082220812625,0.031230922291676077
-0.2544315457344055,0,-126.94491577148438,0.5227667565467871,0.5416818107879307,0.4880814945946136,0.03076496282592403
-0.18570145964622498,-0.06144919618964195,-126.94308471679688,0.5308708833313236,0.5421902928630717,0.484413719549775,0.030252886191010346
-0.4654211103916168,-1.0162298679351807,-126.91095733642578,0.5388992284786783,0.5426196688090243,0.478987698132793,0.021272227323303493
-1.4358524084091187,-1.5481956005096436,-126.79217529296875,0.5467503238976414,0.5427961208291041,0.4631437521427869,-9.798491373671017e-05
-1.4986008405685425,-2.077599048614502,-126.72290802001953,0.5542656049577311,0.5425426964521304,0.4386899750679731,-0.030312940323104588
-2.1797945499420166,-1.313289999961853,-126.77452850341797,0.5613216604178564,0.5418020023739275,0.40803668014705174,-0.05857034906124088
-0.9440288543701172,-1.1678493022918701,-126.8690414428711,0.5679053395727856,0.5406535285491392,0.3820048184444506,-0.07924650991335525
-0.9804365634918213,-1.6268664598464966,-126.79535675048828,0.5741384431150638,0.5391386759004347,0.36596760662893446,-0.10253580793117496
-0.7593050599098206,-0.29912248253822327,-126.67544555664062,0.580117087835032,0.5372959965361385,0.3514697597672541,-0.11858571578438096
-0.7616757750511169,-1.664294958114624,-126.75968170166016,0.5858692934953917,0.5351832195063534,0.33879491947591295,-0.13494752778982136
-1.9391262531280518,0.29693737626075745,-126.91908264160156,0.5913283197902556,0.532839138655561,0.31628823590775323,-0.14634217430527025
0.13724741339683533,-1.842294692993164,-126.88618469238281,0.5964746599137368,0.5302927859368112,0.3012725789099931,-0.15922015194470696
-1.1307368278503418,-0.48154744505882263,-126.79443359375,0.6014268772417886,0.5274777388114791,0.29299350045621386,-0.17858550309514018
-0.7419817447662354,-1.4206956624984741,-126.69761657714844,0.606180052348516,0.5243692135440908,0.2773875123510757,-0.19443752899145098
-0.2702864110469818,-0.5243405103683472,-126.76194763183594,0.6107328811546581,0.5209935161044509,0.2689519443859656,-0.21064616376534115
-1.3566968441009521,-0.5297672748565674,-126.76619720458984,0.6151024286128167,0.5174095447788324,0.2553937505930661,-0.21943039530888211
-0.23380829393863678,-0.9649664759635925,-126.7624282836914,0.619248539377004,0.5136485705687663,0.2421395411094029,-0.2318865098990501
-0.4185745418071747,-0.5713784098625183,-126.76205444335938,0.6232388940319006,0.5096771047867109,0.23670301747818778,-0.24468938394760104
-1.297958254814148,-0.8797025084495544,-126.65438842773438,0.6270647406567716,0.5054981788793681,0.22239857750634343,-0.25678172493353496
-0.6647802591323853,0.10438817739486694,-126.61284637451172,0.6306350823295199,0.5011646421908192,0.20604242322345565,-0.263242677692324
-0.23112119734287262,-0.7407838106155396,-126.62750244140625,0.6340069073376556,0.49673307008808465,0.1985765777528285,-0.26854597463582963
0.3151426613330841,-0.3441055715084076,-126.68354797363281,0.6373223517907577,0.4921819643037289,0.1992767566194136,-0.27758671948686253
-1.6678630113601685,-0.3700106143951416,-126.63624572753906,0.6405496921545516,0.487505927577149,0.18800408703585456,-0.2835376877027254
0,-1.662267804145813,-126.56786346435547,0.6435672697849159,0.4826391690030382,0.17410522860785316,-0.3004733411905667
-0.17468537390232086,-0.7853606939315796,-126.42803192138672,0.6464568926663036,0.47746130578194007,0.17264951715866714,-0.3208702453412116
-0.4002327024936676,0,-126.34049987792969,0.6492944597525316,0.47205892942250793,0.16785853318870056,-0.32741491779064147
-1.260851263999939,0.322908878326416,-126.2445297241211,0.6519767489191146,0.4666244383536588,0.15401616680125385,-0.32472401047125465
-0.765238881111145,-0.6201373934745789,-126.24278259277344,0.6544029843279472,0.4611917306433637,0.13713208225866147,-0.327200914764156
-0.6772775650024414,-0.49056684970855713,-126.3967056274414,0.6565883442790559,0.4556612498248512,0.1251111118743816,-0.3364567834573488
-0.6661192178726196,-0.6739334464073181,-126.43670654296875,0.658580238033707,0.4499727686911095,0.11391613868375608,-0.34616095259164775
-0.25048181414604187,-0.7082000970840454,-126.49893188476562,0.6604151874956572,0.44410743798517294,0.10627779675026723,-0.35767873212074247
-0.2669859528541565,0,-126.54085540771484,0.6621505488465644,0.43809694522086307,0.10196556535859891,-0.36358039959644284
-1.0069471597671509,0,-126.46774291992188,0.6637615073586091,0.43203727189425567,0.09134945608675468,-0.36358039959644284
1.0087769031524658,-0.423929363489151,-126.41275787353516,0.6652841253589011,0.4259481590285171,0.09136470394829897,-0.3671131442921858
-0.5928118228912354,-0.21305255591869354,-126.48576354980469,0.6668357568886132,0.4197853717681329,0.09483107961714256,-0.37242132695391783
-0.9076043367385864,0.5240132808685303,-126.64604949951172,0.6683120793155912,0.41359994414702245,0.08232761162022738,-0.3698299875793359
0.7827420234680176,-1.8039945363998413,-126.93670654296875,0.6696755351819512,0.4073472234335105,0.08128709234297264,-0.3804964980420968
-0.8964470028877258,1.713800311088562,-127.13030242919922,0.6710224238752077,0.40099935164494005,0.0803395508478084,-0.38124811658635743
-0.672964870929718,-0.32480478286743164,-127.19465637207031,0.672252429453656,0.3947416743912939,0.06726111856599637,-0.3696731538511813
-0.29478296637535095,0.22788642346858978,-127.18431091308594,0.6733062433854987,0.3885737247188159,0.0591965532551208,-0.3704808068461717
0.1746295690536499,-0.2192453145980835,-127.06909942626953,0.6742845086204923,0.38239964468171794,0.058195274944106624,-0.37040879760558415
-0.4561382234096527,-0.8985676765441895,-126.96990966796875,0.6752348806574526,0.3761485388194622,0.05584936949113994,-0.3797239058651031
0.5663334727287292,0,-126.94998168945312,0.6761733559301744,0.36975740652195044,0.056767663235465574,-0.3872119698363046
-0.5359155535697937,-0.1554797738790512,-126.91812896728516,0.6771215960062626,0.363293076484826,0.05702114589512337,-0.38850763461863
-0.8734577894210815,-0.23745742440223694,-126.78669738769531,0.6779740752890292,0.356790661935746,0.04527636803686608,-0.3917821112709741
-0.6375035643577576,0.771864652633667,-126.7733383178711,0.6786237535511868,0.3502980716943014,0.032685023422042415,-0.38732871770237887
0.360666960477829,-0.09329591691493988,-126.89613342285156,0.6791492791773958,0.3438897158947978,0.03037805172304301,-0.38167397823805616
-0.5498461127281189,-0.5848466753959656,-126.98131561279297,0.679642442598318,0.3374813896885864,0.02880155878762393,-0.3873251665073137
0.1643151193857193,-1.1212778091430664,-126.93247985839844,0.680095695592463,0.33090748937981596,0.0255888005097706,-0.40154287054513893
-0.25306805968284607,0.2850131690502167,-126.72552490234375,0.6805160122023274,0.32415703427072384,0.02484919267396121,-0.40851174254591266
-0.6985414028167725,0.1895865499973297,-126.51223754882812,0.6808640814231087,0.3173814635421147,0.016919113819797722,-0.40455674488718313
-0.0644848570227623,0.3049095869064331,-126.50323486328125,0.6810930787187276,0.31067319113683556,0.010560561654468267,-0.4004359437463184
0.33875441551208496,0.4745346009731293,-126.72977447509766,0.6812881345767527,0.3040533868096663,0.012846141308545956,-0.3939405755139887
-0.9645710587501526,-0.9487364888191223,-126.86064147949219,0.6814587774427814,0.29745477986444385,0.007631002614895393,-0.3978922579127053
0,-0.9300967454910278,-126.90617370605469,0.6815189767183942,0.290692767702405,-0.0004070895413558779,-0.41354920153195657
0.10496257990598679,0.33404627442359924,-126.8909683227539,0.681519480960754,0.2837588886163816,0.00046759862452734526,-0.4185162887908518
-0.28829875588417053,0.7446273565292358,-126.98601531982422,0.6815145425922754,0.27685852502757247,-0.0010602028419575192,-0.40952734186624484
-0.6209238171577454,0.42763838171958923,-127.07298278808594,0.6814337320884482,0.2701144766727357,-0.008637057617306819,-0.3997584607141713
-0.7314934134483337,-0.07065580040216446,-127.17862701416016,0.6811958632649232,0.26347662611786876,-0.01990720120569081,-0.39678360586985945
2.061899185180664,-1.0061743259429932,-127.28990936279297,0.6809564658678653,0.2567887861501527,-0.008820486441254724,-0.4057571902560691
-1.198851466178894,0.6293462514877319,-127.38606262207031,0.6808693916298861,0.24999999769626996,-0.0016284221162399743,-0.40889742420986297
-1.009036660194397,0.3198016881942749,-127.3764419555664,0.6806889256969506,0.24325095367747238,-0.020027489836017397,-0.40098785804584625
-0.10403647273778915,0,-127.30766296386719,0.6802778374543411,0.23659003116061064,-0.02930309927711895,-0.3983228439775606
-0.2818686068058014,0.35286957025527954,-127.24279022216797,0.679762653502532,0.2299758219255857,-0.0325189749399822,-0.3953822642254333
0.18528024852275848,-0.7294943332672119,-127.2051010131836,0.6792139630619848,0.2233599630243971,-0.033323877925674227,-0.3985208039171994
0.3951273262500763,0.6699709892272949,-127.27342224121094,0.6786988711781383,0.21671381606021878,-0.028487148135900604,-0.3990168317841987
-0.35942456126213074,-0.5065013766288757,-127.22979736328125,0.678226564734553,0.2100748875869126,-0.02818962509433439,-0.39765458501254525
-0.9899066090583801,0.702282726764679,-127.2051010131836,0.6776630340961529,0.2034609070971296,-0.03943405151367198,-0.39602307376141355
0,0.2876679599285126,-127.27273559570312,0.6769370563897404,0.1969292691099042,-0.047683273255825144,-0.38777348470563694
0.4508361518383026,-0.961808443069458,-127.35739135742188,0.6761736432349099,0.19041956238681434,-0.04392630532383929,-0.3933913220651448
0,-0.5814571976661682,-127.3399429321289,0.6754728462122791,0.18375586912734418,-0.04016933739185343,-0.40625186907127503
0.2371283620595932,0.5484542846679688,-127.17096710205078,0.6748198245031135,0.1769827127738647,-0.03819326770802349,-0.40652689334626
-0.2425384372472763,-0.2156606912612915,-126.96913146972656,0.6741828943416474,0.17023037521763584,-0.03823835166792085,-0.40375361340120436
-0.9780635237693787,1.0260285139083862,-126.90644836425781,0.6741828943416474,0.17023037521763584,-0.03823835166792085,-0.40375361340120436
0.6225568652153015,-0.38630205392837524,-127.04056549072266,0.6741828943416474,0.17023037521763584,-0.03823835166792085,-0.40375361340120436
-1.5116503238677979,-0.10505638271570206,-127.22547149658203,0.6741828943416474,0.17023037521763584,-0.03823835166792085,-0.40375361340120436
0.2888892590999603,-0.2441902458667755,-127.27619171142578,0.6741828943416474,0.17023037521763584,-0.03823835166792085,-0.40375361340120436
0.010306580923497677,-0.902321994304657,-127.13786315917969,0.6741828943416474,0.17023037521763584,-0.03823835166792085,-0.40375361340120436
-0.6318854689598083,1.114721655845642,-127.14461517333984,0.6741828943416474,0.17023037521763584,-0.03823835166792085,-0.40375361340120436
-0.010466479696333408,0.36461231112480164,-127.2122573852539,0.6741828943416474,0.17023037521763584,-0.03823835166792085,-0.40375361340120436
0.3587144911289215,1.3554730415344238,-127.34781646728516,0.6741828943416474,0.17023037521763584,-0.03823835166792085,-0.40375361340120436
1.8471540212631226,2.736546039581299,-127.701904296875,0.6741828943416474,0.17023037521763584,-0.03823835166792085,-0.40375361340120436
1.120840072631836,1.212324619293213,-128.36911010742188,0.6741828943416474,0.17023037521763584,-0.03823835166792085,-0.40375361340120436
0.40881413221359253,3.214571475982666,-129.2498016357422,0.6741828943416474,0.17023037521763584,-0.03823835166792085,-0.40375361340120436
1.701907992362976,1.9460856914520264,-130.41195678710938,0.6741828943416474,0.17023037521763584,-0.03823835166792085,-0.40375361340120436
1.2598780393600464,2.0767464637756348,-131.8412628173828,0.6741828943416474,0.17023037521763584,-0.03823835166792085,-0.40375361340120436
-1.0675493478775024,1.4496161937713623,-133.45681762695312,0.6741828943416474,0.17023037521763584,-0.03823835166792085,-0.40375361340120436
2.785661220550537,0.8297366499900818,-135.103759765625,0.6741828943416474,0.17023037521763584,-0.03823835166792085,-0.40375361340120436
-0.22743943333625793,1.6608831882476807,-136.8109130859375,0.6741828943416474,0.17023037521763584,-0.03823835166792085,-0.40375361340120436
1.7491919994354248,1.016603946685791,-138.6199493408203,0.6741828943416474,0.17023037521763584,-0.03823835166792085,-0.40375361340120436
0.23405903577804565,1.4227049350738525,-140.4858856201172,0.6741828943416474,0.17023037521763584,-0.03823835166792085,-0.40375361340120436
0.14103801548480988,1.184407114982605,-142.4131622314453,0.6741828943416474,0.17023037521763584,-0.03823835166792085,-0.40375361340120436
0.9401492476463318,0.4169079661369324,-144.4043426513672,0.6741828943416474,0.17023037521763584,-0.03823835166792085,-0.40375361340120436
-0.5402895212173462,1.0002433061599731,-146.42340087890625,0.6741828943416474,0.17023037521763584,-0.03823835166792085,-0.40375361340120436
0.9630770683288574,0.5406358242034912,-148.35821533203125,0.6741828943416474,0.17023037521763584,-0.03823835166792085,-0.40375361340120436
0.8803154230117798,0.35129034519195557,-150.25856018066406,0.6741828943416474,0.17023037521763584,-0.03823835166792085,-0.40375361340120436
0.38953056931495667,0.6121321320533752,-152.1161346435547,0.6741828943416474,0.17023037521763584,-0.03823835166792085,-0.40375361340120436
-0.16573645174503326,0.5555083751678467,-153.91616821289062,0.6741828943416474,0.17023037521763584,-0.03823835166792085,-0.40375361340120436
-0.4995357096195221,0.4889560043811798,-155.7258758544922,0.6741828943416474,0.17023037521763584,-0.03823835166792085,-0.40375361340120436
0.464949369430542,1.8253295421600342,-157.50982666015625,0.6741828943416474,0.17023037521763584,-0.03823835166792085,-0.40375361340120436
0.5517299771308899,0.10110140591859818,-159.34603881835938,0.6741828943416474,0.17023037521763584,-0.03823835166792085,-0.40375361340120436
-0.6680328845977783,0.7536294460296631,-161.2250518798828,0.6741828943416474,0.17023037521763584,-0.03823835166792085,-0.40375361340120436
0.6861343383789062,-0.09148251265287399,-163.1963348388672,0.6741828943416474,0.17023037521763584,-0.03823835166792085,-0.40375361340120436
0.8020206093788147,1.7249691486358643,-165.1845703125,0.6741828943416474,0.17023037521763584,-0.03823835166792085,-0.40375361340120436
-0.7399661540985107,1.6354718208312988,-167.14443969726562,0.6741828943416474,0.17023037521763584,-0.03823835166792085,-0.40375361340120436
0.7543289065361023,0.19416210055351257,-169.18679809570312,0.6741828943416474,0.17023037521763584,-0.03823835166792085,-0.40375361340120436
-0.4700344502925873,0.5639910101890564,-171.2648162841797,0.6741828943416474,0.17023037521763584,-0.03823835166792085,-0.40375361340120436
0.4119163751602173,0.28434276580810547,-173.43724060058594,0.6741828943416474,0.17023037521763584,-0.03823835166792085,-0.40375361340120436
0.05112162232398987,0.9222834706306458,-175.65455627441406,0.6741828943416474,0.17023037521763584,-0.03823835166792085,-0.40375361340120436
0.9178053736686707,0.7828921675682068,-177.9305419921875,0.6741828943416474,0.17023037521763584,-0.03823835166792085,-0.40375361340120436
0.01977132260799408,0.8021412491798401,179.67828369140625,0.6741828943416474,0.17023037521763584,-0.03823835166792085,-0.40375361340120436
0.9878710508346558,-0.8074437975883484,177.23016357421875,0.6741828943416474,0.17023037521763584,-0.03823835166792085,-0.40375361340120436
-0.489784836769104,2.0590615272521973,174.76153564453125,0.6741828943416474,0.17023037521763584,-0.03823835166792085,-0.40375361340120436
1.0070993900299072,-0.5279629826545715,172.30764770507812,0.6741828943416474,0.17023037521763584,-0.03823835166792085,-0.40375361340120436
0.6370272040367126,0.6471375823020935,169.7923126220703,0.6741828943416474,0.17023037521763584,-0.03823835166792085,-0.40375361340120436
0.10479636490345001,0.4820247292518616,167.17385864257812,0.6741828943416474,0.17023037521763584,-0.03823835166792085,-0.40375361340120436
-0.8568232655525208,0.7637437582015991,164.44607543945312,0.6741828943416474,0.17023037521763584,-0.03823835166792085,-0.40375361340120436
0.16438359022140503,0.7821532487869263,161.6826934814453,0.6741828943416474,0.17023037521763584,-0.03823835166792085,-0.40375361340120436
0.9995118379592896,-1.5154175758361816,158.90594482421875,0.6741828943416474,0.17023037521763584,-0.03823835166792085,-0.40375361340120436
0.7801055312156677,1.3347276449203491,156.0745849609375,0.6741828943416474,0.17023037521763584,-0.03823835166792085,-0.40375361340120436
0.760506272315979,-2.7669026851654053,153.23658752441406,0.6741828943416474,0.17023037521763584,-0.03823835166792085,-0.40375361340120436
1.021491289138794,1.3657445907592773,150.3523712158203,0.6741828943416474,0.17023037521763584,-0.03823835166792085,-0.40375361340120436
-0.14151984453201294,0.802400529384613,147.43951416015625,0.6741828943416474,0.17023037521763584,-0.03823835166792085,-0.40375361340120436
-0.25221943855285645,-2.1594154834747314,144.71148681640625,0.6741828943416474,0.17023037521763584,-0.03823835166792085,-0.40375361340120436
0.11814344674348831,1.289793848991394,142.35328674316406,0.6741828943416474,0.17023037521763584,-0.03823835166792085,-0.40375361340120436
-0.3793219029903412,-1.2948468923568726,140.48809814453125,0.6741828943416474,0.17023037521763584,-0.03823835166792085,-0.40375361340120436
-0.23778581619262695,-0.8298318386077881,138.9464569091797,0.6741828943416474,0.17023037521763584,-0.03823835166792085,-0.40375361340120436
-0.8097769618034363,-0.15683098137378693,137.8892364501953,0.6741828943416474,0.17023037521763584,-0.03823835166792085,-0.40375361340120436
-2.0216400623321533,-0.6444160342216492,137.17189025878906,0.6741828943416474,0.17023037521763584,-0.03823835166792085,-0.40375361340120436
-1.7072656154632568,-0.4835610091686249,136.8336181640625,0.6741828943416474,0.17023037521763584,-0.03823835166792085,-0.40375361340120436
-0.8766083121299744,0.08135845512151718,136.84451293945312,0.6741828943416474,0.17023037521763584,-0.03823835166792085,-0.40375361340120436
0.8145360946655273,-0.10869354754686356,136.92857360839844,0.6741828943416474,0.17023037521763584,-0.03823835166792085,-0.40375361340120436
0.26762616634368896,-0.04392290860414505,136.93312072753906,0.6741828943416474,0.17023037521763584,-0.03823835166792085,-0.40375361340120436
0.23851270973682404,-0.23725707828998566,136.92857360839844,0.6741828943416474,0.17023037521763584,-0.03823835166792085,-0.40375361340120436
0.23343589901924133,0.03093704953789711,136.9352569580078,0.6741828943416474,0.17023037521763584,-0.03823835166792085,-0.40375361340120436
-0.09103817492723465,0.1686365306377411,136.9346923828125,0.6741828943416474,0.17023037521763584,-0.03823835166792085,-0.40375361340120436
-0.11904540657997131,0.27198225259780884,136.9351806640625,0.6741828943416474,0.17023037521763584,-0.03823835166792085,-0.40375361340120436
-0.11325997114181519,0.20656363666057587,136.93585205078125,0.6741828943416474,0.17023037521763584,-0.03823835166792085,-0.40375361340120436
0.03557554632425308,0.11799592524766922,136.9341278076172,0.6741828943416474,0.17023037521763584,-0.03823835166792085,-0.40375361340120436
0.059529490768909454,0.0848708301782608,136.93466186523438,0.6741828943416474,0.17023037521763584,-0.03823835166792085,-0.40375361340120436
0,0.13118813931941986,136.9345703125,0.6735497224729299,0.16351615242271977,-0.037742272578179935,-0.4019531219887237
0,0.1823974847793579,136.93568420410156,0.6729206845966269,0.156838710502359,-0.037742272578179935,-0.3993399084545672
0,0.17878024280071259,136.9388427734375,0.6722916467203239,0.15020812714808707,-0.037742272578179935,-0.3963300940580666
-0.9281505942344666,0.9237020611763,136.95782470703125,0.6715981539416436,0.14367918685156214,-0.04547686086346715,-0.3871427415249248
-2.1948447227478027,2.6628544330596924,137.0002899169922,0.6706233315857953,0.13747587424935756,-0.0715018218383194,-0.35725477073962486
-2.41768217086792,1.8133505582809448,137.02345275878906,0.6691113201875445,0.13183247563920691,-0.10993954595178375,-0.3199530624784529
-0.6915549039840698,1.2875269651412964,136.9776153564453,0.6670630751803722,0.12671526331480368,-0.13584985490888365,-0.29411241644993424
-1.1534451246261597,0.8342525362968445,137.01853942871094,0.664670785929904,0.12196073550601576,-0.15122485514730225,-0.2764309206046164
-2.2456257343292236,0.5282151103019714,137.14364624023438,0.6619143250900216,0.1174481693047304,-0.1795504456385971,-0.26507702354962626
-0.6883302330970764,1.5377097129821777,137.29110717773438,0.6587180707205292,0.11317368591385359,-0.20400007870048292,-0.24786098335559167
-0.7639279961585999,1.050183892250061,137.30926513671875,0.655217218142934,0.1092223843582904,-0.21610223061094688,-0.22629520331198968
-0.5050375461578369,1.4244966506958008,137.17709350585938,0.6515273916923129,0.10562265045190626,-0.22667694346358386,-0.2056728654541075
-1.453178882598877,1.3308385610580444,137.22874450683594,0.6476134553825895,0.10238611208404293,-0.24299541370322314,-0.18271173868949214
0.831274151802063,0,137.20755004882812,0.6435203439923416,0.09943333578373598,-0.24817795312652993,-0.17162141734734176
-1.7081505060195923,0.7977250814437866,137.15521240234375,0.6393231505823009,0.09662837640304721,-0.25548525607834266,-0.16497370833531022
-0.2466563880443573,0.782037079334259,137.1602783203125,0.6349293125022408,0.09398852030306828,-0.2717753135288756,-0.15180902366215984
-0.9332702159881592,1.3275314569473267,137.19956970214844,0.630317784595924,0.09160486772371851,-0.28160803522914657,-0.1342292858598133
-1.0718590021133423,0.19471049308776855,137.2728729248047,0.6254850722575145,0.0894734242059185,-0.2983174453799924,-0.12154393627618751
-0.47151979804039,0.7053036689758301,137.4207763671875,0.6204059357511706,0.08751019291812535,-0.3111789353812735,-0.11404381825899085
-0.8086783289909363,0.7339112758636475,137.46395874023438,0.6151307175137722,0.08570940809608936,-0.32184725310653456,-0.10205036038532854
-0.9416934847831726,0.6864880323410034,137.46827697753906,0.6096450430304846,0.08410720759718143,-0.3364336848879855,-0.09021369948362312
-1.1882904767990112,0.5946027040481567,137.5233917236328,0.6038898993961306,0.08269261057359252,-0.3541835512345037,-0.07953794334704678
0.5328257083892822,0.8331475853919983,137.48208618164062,0.5979413218221937,0.08146612751013065,-0.35964575763791806,-0.06764002426837883
0.25421178340911865,0.17204637825489044,137.34339904785156,0.5920018812429366,0.0804085989086887,-0.3530871118729314,-0.05926340790465475
-0.2616264820098877,-0.1582685261964798,137.2574005126953,0.5861165811354294,0.07942183223889296,-0.35314890102793783,-0.05914859247083466
0.16870273649692535,1.3976322412490845,137.30970764160156,0.5802243130804142,0.07852208928903548,-0.3539232655738792,-0.04882056151206296
-1.3665623664855957,-0.3251223862171173,137.39993286132812,0.5742424072909893,0.07778289311487832,-0.36390542915711815,-0.039882979386796566
-1.3294143676757812,0.23964142799377441,137.392578125,0.5679900961984984,0.07711224061411065,-0.38637190194179627,-0.04059532070532442
0,1.4963059425354004,137.40740966796875,0.5614582440572687,0.07655620383641977,-0.3974503550057611,-0.026129092617581298
0,-0.7396398186683655,137.38385009765625,0.5548340714738393,0.07617326521806196,-0.3974503550057611,-0.019823541585356007
0.37724366784095764,0.8687388300895691,137.3008270263672,0.5482360963673434,0.0758518380674325,-0.3943066577737531,-0.01874771649017931
0.15042468905448914,-0.31020233035087585,137.2677001953125,0.5417009623736764,0.0755781633828558,-0.38990942146629104,-0.014093245659023534
0.3942357897758484,0.6491692066192627,137.23236083984375,0.5352402956602681,0.07536681532161293,-0.3853705841427049,-0.011268521690120312
-0.9334717988967896,1.0007790327072144,137.28085327148438,0.5287800056461451,0.07529358636561971,-0.3898642175520461,0.002481046970933664
-0.6011678576469421,0.21801161766052246,137.32630920410156,0.5221756964885733,0.07541957538807748,-0.4026528813565772,0.012637635723998137
0.6628351807594299,0.747037947177887,137.36767578125,0.5154690975856243,0.07569721998103567,-0.40213898699730644,0.02067971543098488
0.13324446976184845,0,137.4328155517578,0.5088220644447332,0.0760937595401061,-0.3955049899096291,0.02690503165746727
-1.1656196117401123,-0.623985230922699,137.40579223632812,0.5021586218947132,0.07649884442669425,-0.4041081160927813,0.021705154733111447
-1.0527130365371704,0.42086362838745117,137.42620849609375,0.4952694357481476,0.07684649133873671,-0.42259422149509196,0.020012474711984383
-0.4145849049091339,1.5392546653747559,137.4483184814453,0.48812430303285115,0.07731615190989216,-0.43482170434047784,0.036346793826669443
1.426598072052002,-1.7782613039016724,137.3456268310547,0.4809475533193392,0.07790533412377228,-0.4263882612809539,0.034355071838945136
0.09452387690544128,0.6988672614097595,137.2557373046875,0.4739467157666676,0.07840296073480386,-0.4137122450396419,0.025360121484845864
0.16225244104862213,0.3181038498878479,137.25694274902344,0.46706934337142036,0.07889625242005807,-0.41157244239002466,0.03383488074565926
-0.562061607837677,0.41230225563049316,137.28582763671875,0.46018203813944847,0.07951088974536895,-0.4149041854466001,0.03992159829164544
-0.4188307821750641,0.49016839265823364,137.33883666992188,0.4531988508549209,0.0802389212896942,-0.42307828869670633,0.04744218702738483
-0.7117578387260437,0.2872641682624817,137.2514190673828,0.44606903294463546,0.08108361277910345,-0.4324998605375489,0.05392079170172412
-0.2680942714214325,0.35244330763816833,137.09100341796875,0.4387926566502494,0.08202671677106972,-0.44066529478877786,0.05925168733422954
0.4644031524658203,0.8229615092277527,137.01287841796875,0.4314618676316201,0.08309587022781145,-0.4390293874467413,0.06904672747477889
1.2776012420654297,-0.6506481170654297,136.8802947998047,0.4242656837015724,0.08425861522684681,-0.4245126841589809,0.07048267240946492
0.43674236536026,1.0917434692382812,136.7909393310547,0.4173095239383273,0.0854639580553499,-0.4102264874304335,0.07415846701090535
-1.4687364101409912,-0.49981603026390076,136.86404418945312,0.410400749561377,0.08674103857768266,-0.41882643780360623,0.07909119566902519
-0.8530105948448181,0.2704255282878876,136.9217071533203,0.4032590765004151,0.08804329527619585,-0.43817432951182134,0.07717960815255841
0.4468625783920288,0.6065549850463867,136.9027557373047,0.3959279662851866,0.08939052350327559,-0.4415588963155946,0.08448777909701069
0.4485308825969696,-0.15755508840084076,136.81883239746094,0.38863083144805094,0.0908298337032706,-0.43409728414068627,0.08822944490239024
-0.06606953591108322,0.2798624038696289,136.7956085205078,0.3814224365281149,0.09230881801521798,-0.4309101062516372,0.0892486725312968
0.5176592469215393,-0.10715243220329285,136.72897338867188,0.3742719618205189,0.09380828963877198,-0.42714685865988344,0.09068792229518294
0.387380987405777,0,136.66900634765625,0.3672156975257936,0.09531231386923314,-0.4196048567071558,0.0897949853601555
-0.09671765565872192,0.1859278380870819,136.6842498779297,0.36024246820093453,0.09682180861399178,-0.41718266227593037,0.09134438401088119
0.7030442953109741,0.9428971409797668,136.76329040527344,0.35333152984631155,0.09842260563771944,-0.41212994027882827,0.10075125883643826
-1.0249605178833008,-0.5389915704727173,136.89881896972656,0.3464403422150969,0.10012984228294529,-0.414812575466931,0.10411713859066367
-0.8279688954353333,0.11518886685371399,136.99969482421875,0.3393981236369454,0.10183569718281614,-0.430253653911253,0.10058544939383864
0.3997279405593872,0.3353843688964844,137.04002380371094,0.33219749044989144,0.10354341114741833,-0.4338223285352192,0.10434022635842362
0.1454947590827942,-1.6263102293014526,136.96954345703125,0.32500498099511294,0.10519276729086394,-0.429278806038201,0.09358251085504889
0,1.0681324005126953,137.0443115234375,0.31786043803052366,0.10671371345589331,-0.42806634971251106,0.0889310289484759
0.3256368339061737,0.3801371455192566,137.10507202148438,0.3107486125376697,0.10829647154573124,-0.4253527094299596,0.1009999418320755
0.11422009021043777,0.6822909712791443,137.22329711914062,0.3036899463335674,0.1100535836399324,-0.4216872350623212,0.10985350947206218
-0.49837416410446167,-0.5754445791244507,137.3735809326172,0.29663514838295274,0.11189189535281084,-0.42488851901143804,0.11074389607335129
-1.601315975189209,0.280028760433197,137.3529815673828,0.2894078612508667,0.11371711196662425,-0.4423859368388853,0.10828209758425751
1.2458877563476562,0.7047135233879089,137.27911376953125,0.28201007978835463,0.11559019847384945,-0.4453478386625649,0.11648828328276672
-0.17664207518100739,0.9249157309532166,137.23196411132812,0.2746618689829485,0.1176448385601137,-0.43643745798617617,0.13006852706894276
1.3301424980163574,-1.06512451171875,137.17759704589844,0.2746618689829485,0.1176448385601137,-0.43643745798617617,0.13006852706894276
0.1936945766210556,0.22410079836845398,137.1505889892578,0.2746618689829485,0.1176448385601137,-0.43643745798617617,0.13006852706894276
-1.0390716791152954,0.30157288908958435,137.1749725341797,0.2746618689829485,0.1176448385601137,-0.43643745798617617,0.13006852706894276
0.49693629145622253,0.04177398234605789,137.19728088378906,0.2746618689829485,0.1176448385601137,-0.43643745798617617,0.13006852706894276
0.8695703148841858,-1.8849388360977173,136.99269104003906,0.2746618689829485,0.1176448385601137,-0.43643745798617617,0.13006852706894276
2.2147276401519775,-1.6939042806625366,136.43873596191406,0.2746618689829485,0.1176448385601137,-0.43643745798617617,0.13006852706894276
2.5503005981445312,-0.8848999738693237,135.71875,0.2746618689829485,0.1176448385601137,-0.43643745798617617,0.13006852706894276
2.2957754135131836,-1.9004982709884644,134.66915893554688,0.2746618689829485,0.1176448385601137,-0.43643745798617617,0.13006852706894276
1.5138391256332397,-1.3258318901062012,133.29742431640625,0.2746618689829485,0.1176448385601137,-0.43643745798617617,0.13006852706894276
1.3443870544433594,-0.4000057876110077,131.72335815429688,0.2746618689829485,0.1176448385601137,-0.43643745798617617,0.13006852706894276
0.879210352897644,-1.4850385189056396,129.9446563720703,0.2746618689829485,0.1176448385601137,-0.43643745798617617,0.13006852706894276
1.265364170074463,-1.2581257820129395,127.956298828125,0.2746618689829485,0.1176448385601137,-0.43643745798617617,0.13006852706894276
1.4679460525512695,0.09571606665849686,125.87423706054688,0.2746618689829485,0.1176448385601137,-0.43643745798617617,0.13006852706894276
0.26605117321014404,-1.9236429929733276,123.7417221069336,0.2746618689829485,0.1176448385601137,-0.43643745798617617,0.13006852706894276
1.8801929950714111,-0.6326881647109985,121.51844024658203,0.2746618689829485,0.1176448385601137,-0.43643745798617617,0.13006852706894276
-0.5075652599334717,-1.3701072931289673,119.23310089111328,0.2746618689829485,0.1176448385601137,-0.43643745798617617,0.13006852706894276
1.3946123123168945,-0.5635865926742554,116.86744689941406,0.2746618689829485,0.1176448385601137,-0.43643745798617617,0.13006852706894276
1.4197193384170532,0.40785813331604004,114.51460266113281,0.2746618689829485,0.1176448385601137,-0.43643745798617617,0.13006852706894276
-0.3350498080253601,-1.9730830192565918,112.04554748535156,0.2746618689829485,0.1176448385601137,-0.43643745798617617,0.13006852706894276
2.3344483375549316,0.10210053622722626,109.48278045654297,0.2746618689829485,0.1176448385601137,-0.43643745798617617,0.13006852706894276
-1.356587290763855,-0.3428908586502075,106.92217254638672,0.2746618689829485,0.1176448385601137,-0.43643745798617617,0.13006852706894276
2.062744617462158,-1.1199934482574463,104.30680847167969,0.2746618689829485,0.1176448385601137,-0.43643745798617617,0.13006852706894276
0.788297176361084,0.14848855137825012,101.62813568115234,0.2746618689829485,0.1176448385601137,-0.43643745798617617,0.13006852706894276
-0.9412897229194641,-0.8687505125999451,98.97399139404297,0.2746618689829485,0.1176448385601137,-0.43643745798617617,0.13006852706894276
1.3541339635849,-0.1402243822813034,96.28089904785156,0.2746618689829485,0.1176448385601137,-0.43643745798617617,0.13006852706894276
0.6213851571083069,-1.2795206308364868,93.58731079101562,0.2746618689829485,0.1176448385601137,-0.43643745798617617,0.13006852706894276
0.03926185891032219,-0.7353853583335876,90.8324966430664,0.2746618689829485,0.1176448385601137,-0.43643745798617617,0.13006852706894276
1.1992861032485962,0.4705268442630768,88.06585693359375,0.2746618689829485,0.1176448385601137,-0.43643745798617617,0.13006852706894276
0.02890525385737419,0.014572564512491226,85.28260040283203,0.2746618689829485,0.1176448385601137,-0.43643745798617617,0.13006852706894276
1.3094936609268188,0.3237398862838745,82.53437805175781,0.2746618689829485,0.1176448385601137,-0.43643745798617617,0.13006852706894276
0.5893363356590271,0.08705499768257141,79.93018341064453,0.2746618689829485,0.1176448385601137,-0.43643745798617617,0.13006852706894276
-0.43715184926986694,-0.9042717218399048,77.29190063476562,0.2746618689829485,0.1176448385601137,-0.43643745798617617,0.13006852706894276
0.5231207013130188,0.11896585673093796,74.78428649902344,0.2746618689829485,0.1176448385601137,-0.43643745798617617,0.13006852706894276
1.9016238451004028,0.12589310109615326,72.24981689453125,0.2746618689829485,0.1176448385601137,-0.43643745798617617,0.13006852706894276
-0.2816649377346039,-0.9034830927848816,69.74459075927734,0.2746618689829485,0.1176448385601137,-0.43643745798617617,0.13006852706894276
-0.9250823259353638,-1.2307826280593872,67.26140594482422,0.2746618689829485,0.1176448385601137,-0.43643745798617617,0.13006852706894276
2.404461145401001,0.37214717268943787,64.77046966552734,0.2746618689829485,0.1176448385601137,-0.43643745798617617,0.13006852706894276
-0.7990611791610718,-0.5688815116882324,62.25151443481445,0.2746618689829485,0.1176448385601137,-0.43643745798617617,0.13006852706894276
3.3408350944519043,0.13616985082626343,60.19740676879883,0.2746618689829485,0.1176448385601137,-0.43643745798617617,0.13006852706894276
-2.9520039558410645,-0.42492207884788513,58.34649658203125,0.2746618689829485,0.1176448385601137,-0.43643745798617617,0.13006852706894276
1.4063981771469116,0.48523423075675964,56.82999801635742,0.2746618689829485,0.1176448385601137,-0.43643745798617617,0.13006852706894276
-0.06353769451379776,0.46562108397483826,55.79709243774414,0.2746618689829485,0.1176448385601137,-0.43643745798617617,0.13006852706894276
-0.9822717308998108,1.543097734451294,55.143123626708984,0.2746618689829485,0.1176448385601137,-0.43643745798617617,0.13006852706894276
-0.6627229452133179,1.2145824432373047,54.74304962158203,0.2746618689829485,0.1176448385601137,-0.43643745798617617,0.13006852706894276
-0.29337644577026367,0.8083412647247314,54.713661193847656,0.2746618689829485,0.1176448385601137,-0.43643745798617617,0.13006852706894276
-0.014519412070512772,-0.39297252893447876,54.814666748046875,0.2746618689829485,0.1176448385601137,-0.43643745798617617,0.13006852706894276
0.19329914450645447,-0.2690032124519348,54.77059555053711,0.2746618689829485,0.1176448385601137,-0.43643745798617617,0.13006852706894276
0.12284206598997116,0.09209448099136353,54.76258087158203,0.2746618689829485,0.1176448385601137,-0.43643745798617617,0.13006852706894276
0.09516248852014542,0.18046657741069794,54.79314422607422,0.2746618689829485,0.1176448385601137,-0.43643745798617617,0.13006852706894276
0.3099220097064972,-0.0026631243526935577,54.779563903808594,0.2746618689829485,0.1176448385601137,-0.43643745798617617,0.13006852706894276
0.05641578137874603,0.0643041655421257,54.78342819213867,0.2746618689829485,0.1176448385601137,-0.43643745798617617,0.13006852706894276
0.11467190086841583,-0.1220402792096138,54.786434173583984,0.2746618689829485,0.1176448385601137,-0.43643745798617617,0.13006852706894276
0.15421199798583984,0.009824546985328197,54.78335952758789,0.2746618689829485,0.1176448385601137,-0.43643745798617617,0.13006852706894276
0.13891418278217316,0.0497872494161129,54.78865432739258,0.2746618689829485,0.1176448385601137,-0.43643745798617617,0.13006852706894276
0.16953948140144348,0.03258731961250305,54.785213470458984,0.2746618689829485,0.1176448385601137,-0.43643745798617617,0.13006852706894276
0.1162763461470604,-0.0005469691823236644,54.787593841552734,0.2746618689829485,0.1176448385601137,-0.43643745798617617,0.13006852706894276
0.1410413384437561,0,54.786155700683594,0.2674057806334977,0.11981260936062507,-0.43429314394791935,0.1300639689924234
0.1343216449022293,0,54.78641128540039,0.26018668399709804,0.12198034217716547,-0.43199845242003615,0.1300639689924234
0.08962995558977127,0.36314135789871216,54.79835510253906,0.25300226198457604,0.12417329314355993,-0.4301321890826028,0.13309014697491267
0.9634590744972229,0.6381362080574036,54.85896682739258,0.2459065233491776,0.126460995424111,-0.4213564471652112,0.14143412669121364
1.472664475440979,2.40151047706604,55.03875732421875,0.23905309114294757,0.12902931744432034,-0.4010554175823928,0.166764515733909
1.482094407081604,3.3381130695343018,55.12275314331055,0.2325740257723051,0.1322073110083994,-0.37643242689470463,0.2145947119555785
1.8747811317443848,1.2185505628585815,55.12928009033203,0.2265332683475896,0.13610032451546408,-0.3484584640711547,0.25256690889218586
0.24992138147354126,0.32478147745132446,55.195762634277344,0.22087317606537715,0.14041694883313316,-0.3307526097943387,0.2654280092281017
0.15571655333042145,1.7960280179977417,55.23272705078125,0.2153888018698329,0.14498802742411881,-0.3273722936709723,0.28310142169017727
1.8539118766784668,-0.13048219680786133,55.32891082763672,0.2100721545051784,0.14982204735653773,-0.3106253900875649,0.29698097020009295
0.8186460733413696,2.0335001945495605,55.31093215942383,0.20508065897247038,0.1549038842208269,-0.2883540738373996,0.3128394535146071
1.0236538648605347,0.6543563604354858,55.28974151611328,0.20040269523755552,0.16030453181794432,-0.2730015743523837,0.3352382581394825
1.136826753616333,1.1361547708511353,55.32162094116211,0.19600270237463224,0.16601617717105283,-0.2549975691984098,0.35015918423353765
0.3056185245513916,0.0929199829697609,55.33694839477539,0.19185291269897595,0.1719375159884049,-0.24297719188034544,0.3604014738487118
0.5574421286582947,2.1777355670928955,55.39954376220703,0.18786322760188753,0.17810189163241555,-0.23578501977026473,0.37932360343256727
1.6107618808746338,-0.6039088368415833,55.48561096191406,0.18408404699526734,0.18453324521255912,-0.217716653024157,0.3924388261846615
-0.7719137072563171,2.1888139247894287,55.55909729003906,0.18051368945692156,0.19118395516896652,-0.21072625157733768,0.4056463685842269
1.7822906970977783,-0.2451806664466858,55.601837158203125,0.17707175033270492,0.198079702510533,-0.20230644332865882,0.4218433124037498
1.0035815238952637,0.5629234910011292,55.63893508911133,0.17389343962590734,0.20513248985785623,-0.17909084148705015,0.42449116927503683
-0.6149221062660217,1.5727742910385132,55.63317108154297,0.1709355825051252,0.21235565502508183,-0.17585201300680647,0.44228865079203383
0,0.3241477310657501,55.66746520996094,0.16796201269763217,0.21985886323426185,-0.18097636389235666,0.45809633430956936
0.7104724645614624,0.8764747977256775,55.67528533935547,0.16499507833168744,0.22757717870392075,-0.17505576002101114,0.46810152204949795
0.3383661210536957,-0.18077586591243744,55.68951416015625,0.1621503183442272,0.2354271831638994,-0.16631543847421815,0.47389901314794164
1.35206937789917,0.4606097936630249,55.68927764892578,0.15949578572375084,0.2433449329613478,-0.15222847598294426,0.4762309625458632
0.5250045657157898,-0.27820783853530884,55.61961364746094,0.15708899681456392,0.25129478247288495,-0.13658619311948625,0.4777509788385942
0.3570541441440582,1.242316722869873,55.482398986816406,0.1548738143396461,0.2593242507927181,-0.1292357038706542,0.4857852195413822
0.3583667576313019,-0.08138057589530945,55.39456558227539,0.1527695679488696,0.2675012916841699,-0.1232738630225262,0.4954596874328369
0,0.6546513438224792,55.36911392211914,0.1507398901455519,0.2757987636113788,-0.12028747337559868,0.50023694383223
-0.29105204343795776,1.1332942247390747,55.4068489074707,0.14871488697516427,0.2842602088952883,-0.12271290707091499,0.5151364902369097
0.7064024806022644,0.9861988425254822,55.41069793701172,0.14669851563767433,0.2929930040844635,-0.1192516534278791,0.5327989324641142
0.28629517555236816,-0.48236989974975586,55.44483947753906,0.14477992541777598,0.3019079744132248,-0.11097917295992384,0.5369975069872454
0.4684583246707916,0.3343169093132019,55.37199783325195,0.1429826859726261,0.31084765140534304,-0.10468956045806417,0.5357637320669407
1.6234327554702759,-0.6468411684036255,55.24912643432617,0.14138313017889037,0.3197553438662441,-0.08725713479022194,0.5331593632411872
-0.3528335392475128,0.4854004681110382,55.23451232910156,0.14001708065573548,0.32863012209385467,-0.07666880798836559,0.5318140240720823
0,0.5824162364006042,55.380821228027344,0.1387147648601483,0.337567843099536,-0.07960908748209486,0.5407124966096793
0.2819710373878479,0,55.3842887878418,0.13740752805748754,0.3466201636150029,-0.07725932883719612,0.545565965246351
0.39141425490379333,-0.3596884310245514,55.29984664916992,0.13616663544438787,0.3556879513391765,-0.07164778473476578,0.5425685616544798
-0.07063964754343033,0.9220723509788513,55.280738830566406,0.13499478171320847,0.3647698151389702,-0.06897466300676276,0.5472550943207656
-0.6575940847396851,0.4069069027900696,55.298282623291016,0.133794632209465,0.3739830236036058,-0.0750432774424554,0.5583299214355066
1.1978691816329956,-1.5990668535232544,55.245079040527344,0.13258143002270834,0.38320573340873,-0.07054098496834448,0.5483952551793968
0.9624009728431702,0.9002032279968262,55.14500427246094,0.1315557657006301,0.3922971221321695,-0.052538733681043094,0.5425713916333432
0,-0.3985363841056824,55.06673049926758,0.13074695354017127,0.4013748166346621,-0.044518725574016677,0.5467519486657694
0.7271325588226318,0.527840793132782,55.059295654296875,0.13005547009718924,0.4104963285852741,-0.03845928758382808,0.5478294854076619
-0.39168593287467957,0.1455465853214264,55.13294219970703,0.1294377768753718,0.4196735830211278,-0.03566389903426181,0.5534410468947802
0.4836311340332031,0.3042599856853485,55.108402252197266,0.1288497636415479,0.4289288370368051,-0.034897689024607444,0.5571894349865034
-0.8388260006904602,0.5209936499595642,55.042423248291016,0.12824346918095325,0.43827263690016666,-0.03785764624675125,0.5640665486168777
-0.1284119337797165,0.5767362713813782,55.04307174682617,0.12754533910916918,0.44774997728831883,-0.04591796236733606,0.5732142979613856
0.5353838801383972,-0.5922728180885315,55.01766586303711,0.1268083016770996,0.4573024699941539,-0.042526529481013715,0.573084826738826
0.6789827942848206,-0.8659680485725403,55.04732894897461,0.12618385720480654,0.4667526170462829,-0.032406807194153564,0.5609328195166504
0.360350638628006,0.2554689943790436,55.01853942871094,0.12571591968441181,0.4760591016039081,-0.023745695253213343,0.5558453273983712
0,0.9333097338676453,54.89844512939453,0.125345182446763,0.4854057444722314,-0.020742773264646627,0.565751816800427
0.18019652366638184,0.2572881877422333,54.8566780090332,0.1250119832064957,0.4949176218301281,-0.01924113556742678,0.575673466147176
-1.0719050168991089,1.1359410285949707,54.998722076416016,0.1250119832064957,0.4949176218301281,-0.01924113556742678,0.575673466147176
0.31813517212867737,-0.5357832312583923,54.9890251159668,0.1250119832064957,0.4949176218301281,-0.01924113556742678,0.575673466147176
1.7999337911605835,-0.6205628514289856,54.98801040649414,0.1250119832064957,0.4949176218301281,-0.01924113556742678,0.575673466147176
-0.7244778275489807,-1.4706565141677856,54.92722702026367,0.1250119832064957,0.4949176218301281,-0.01924113556742678,0.575673466147176
-0.8261516690254211,-0.9049763679504395,54.778465270996094,0.1250119832064957,0.4949176218301281,-0.01924113556742678,0.575673466147176
-2.332789659500122,-3.5077948570251465,54.24126434326172,0.1250119832064957,0.4949176218301281,-0.01924113556742678,0.575673466147176
0.14393404126167297,-0.7459336519241333,53.43906784057617,0.1250119832064957,0.4949176218301281,-0.01924113556742678,0.575673466147176
-0.7628015279769897,-3.121317148208618,52.330909729003906,0.1250119832064957,0.4949176218301281,-0.01924113556742678,0.575673466147176
-0.33062082529067993,-0.7830864787101746,50.98126220703125,0.1250119832064957,0.4949176218301281,-0.01924113556742678,0.575673466147176
-2.6024329662323,-1.9878922700881958,49.437721252441406,0.1250119832064957,0.4949176218301281,-0.01924113556742678,0.575673466147176
-0.1307736039161682,-2.425997257232666,47.64564514160156,0.1250119832064957,0.4949176218301281,-0.01924113556742678,0.575673466147176
-3.0896170139312744,-0.4868410527706146,45.75968551635742,0.1250119832064957,0.4949176218301281,-0.01924113556742678,0.575673466147176
0.3255993723869324,-1.4491887092590332,43.718929290771484,0.1250119832064957,0.4949176218301281,-0.01924113556742678,0.575673466147176
-0.32430338859558105,-0.7937117218971252,41.64878463745117,0.1250119832064957,0.4949176218301281,-0.01924113556742678,0.575673466147176
-1.0329359769821167,-0.7289223074913025,39.48667526245117,0.1250119832064957,0.4949176218301281,-0.01924113556742678,0.575673466147176
0.12137783318758011,-2.4017014503479004,37.24242401123047,0.1250119832064957,0.4949176218301281,-0.01924113556742678,0.575673466147176
-1.3785511255264282,-0.3313714265823364,34.912200927734375,0.1250119832064957,0.4949176218301281,-0.01924113556742678,0.575673466147176
0.9964269995689392,-1.767723560333252,32.60063171386719,0.1250119832064957,0.4949176218301281,-0.01924113556742678,0.575673466147176
-1.4330388307571411,0.15055274963378906,30.207380294799805,0.1250119832064957,0.4949176218301281,-0.01924113556742678,0.575673466147176
0.5823854207992554,-1.792460322380066,27.79527473449707,0.1250119832064957,0.4949176218301281,-0.01924113556742678,0.575673466147176
-0.9681392312049866,-0.34979817271232605,25.322378158569336,0.1250119832064957,0.4949176218301281,-0.01924113556742678,0.575673466147176
-0.003641822375357151,-1.5356196165084839,22.85057258605957,0.1250119832064957,0.4949176218301281,-0.01924113556742678,0.575673466147176
-0.40575775504112244,-0.09492891281843185,20.289941787719727,0.1250119832064957,0.4949176218301281,-0.01924113556742678,0.575673466147176
-0.6097452640533447,-0.6457093954086304,17.739633560180664,0.1250119832064957,0.4949176218301281,-0.01924113556742678,0.575673466147176
0.19355639815330505,-1.7300480604171753,15.164353370666504,0.1250119832064957,0.4949176218301281,-0.01924113556742678,0.575673466147176
-1.048973560333252,0.9528343677520752,12.474822044372559,0.1250119832064957,0.4949176218301281,-0.01924113556742678,0.575673466147176
0.6796993613243103,-1.997104525566101,9.851202011108398,0.1250119832064957,0.4949176218301281,-0.01924113556742678,0.575673466147176
-1.3934612274169922,0.7349546551704407,7.2428975105285645,0.1250119832064957,0.4949176218301281,-0.01924113556742678,0.575673466147176
-0.1790807694196701,-0.22448904812335968,4.693447589874268,0.1250119832064957,0.4949176218301281,-0.01924113556742678,0.575673466147176
-0.5577839016914368,1.182923436164856,2.170759439468384,0.1250119832064957,0.4949176218301281,-0.01924113556742678,0.575673466147176
0.8669191002845764,-1.8414075374603271,-0.2319674789905548,0.1250119832064957,0.4949176218301281,-0.01924113556742678,0.575673466147176
-0.7129758596420288,0.012495704926550388,-2.5776257514953613,0.1250119832064957,0.4949176218301281,-0.01924113556742678,0.575673466147176
-0.1480058878660202,-0.3662494421005249,-4.969091892242432,0.1250119832064957,0.4949176218301281,-0.01924113556742678,0.575673466147176
-0.19955146312713623,-0.17300762236118317,-7.404340744018555,0.1250119832064957,0.4949176218301281,-0.01924113556742678,0.575673466147176
-0.5632323622703552,-0.17518222332000732,-9.890535354614258,0.1250119832064957,0.4949176218301281,-0.01924113556742678,0.575673466147176
-0.5755251049995422,-0.3526231646537781,-12.490457534790039,0.1250119832064957,0.4949176218301281,-0.01924113556742678,0.575673466147176
-0.03199373930692673,-2.4451942443847656,-15.088557243347168,0.1250119832064957,0.4949176218301281,-0.01924113556742678,0.575673466147176
-0.7707382440567017,1.6717426776885986,-17.762107849121094,0.1250119832064957,0.4949176218301281,-0.01924113556742678,0.575673466147176
-0.3278316259384155,-1.664281964302063,-20.351293563842773,0.1250119832064957,0.4949176218301281,-0.01924113556742678,0.575673466147176
-0.21819859743118286,1.181528091430664,-22.923084259033203,0.1250119832064957,0.4949176218301281,-0.01924113556742678,0.575673466147176
0.18228964507579803,0.28381869196891785,-25.43499755859375,0.1250119832064957,0.4949176218301281,-0.01924113556742678,0.575673466147176
-0.7190728187561035,-0.8018078804016113,-27.74113655090332,0.1250119832064957,0.4949176218301281,-0.01924113556742678,0.575673466147176
0.6181561946868896,-0.26018479466438293,-29.683780670166016,0.1250119832064957,0.4949176218301281,-0.01924113556742678,0.575673466147176
0.502205491065979,1.3009324073791504,-31.23467445373535,0.1250119832064957,0.4949176218301281,-0.01924113556742678,0.575673466147176
-0.4740813076496124,-0.9467014074325562,-32.39393615722656,0.1250119832064957,0.4949176218301281,-0.01924113556742678,0.575673466147176
1.9132494926452637,2.5253124237060547,-33.251461029052734,0.1250119832064957,0.4949176218301281,-0.01924113556742678,0.575673466147176
0.7686440944671631,0.13979482650756836,-33.785335540771484,0.1250119832064957,0.4949176218301281,-0.01924113556742678,0.575673466147176
1.346778392791748,0.3664819002151489,-33.86637496948242,0.1250119832064957,0.4949176218301281,-0.01924113556742678,0.575673466147176
1.1427271366119385,-0.14827318489551544,-33.75975036621094,0.1250119832064957,0.4949176218301281,-0.01924113556742678,0.575673466147176
0.2384757250547409,-1.0330263376235962,-33.75907516479492,0.1250119832064957,0.4949176218301281,-0.01924113556742678,0.575673466147176
0.2792917490005493,0.037465259432792664,-33.78410720825195,0.1250119832064957,0.4949176218301281,-0.01924113556742678,0.575673466147176
-0.20631854236125946,0.014937959611415863,-33.730464935302734,0.1250119832064957,0.4949176218301281,-0.01924113556742678,0.575673466147176
-0.04890399053692818,-0.1093476191163063,-33.71449661254883,0.1250119832064957,0.4949176218301281,-0.01924113556742678,0.575673466147176
-0.10684044659137726,-0.04196499288082123,-33.73363494873047,0.1250119832064957,0.4949176218301281,-0.01924113556742678,0.575673466147176
-0.10566402226686478,-0.014013268053531647,-33.7204475402832,0.1250119832064957,0.4949176218301281,-0.01924113556742678,0.575673466147176
-0.05942662060260773,-0.030693620443344116,-33.71494674682617,0.1250119832064957,0.4949176218301281,-0.01924113556742678,0.575673466147176
-0.03722810372710228,-0.12393172085285187,-33.722686767578125,0.1250119832064957,0.4949176218301281,-0.01924113556742678,0.575673466147176
0.07878199219703674,-0.13988299667835236,-33.71492004394531,0.1250119832064957,0.4949176218301281,-0.01924113556742678,0.575673466147176
0.07939676940441132,-0.13913299143314362,-33.71874237060547,0.1250119832064957,0.4949176218301281,-0.01924113556742678,0.575673466147176
0.007488129194825888,-0.1363404244184494,-33.71709442138672,0.1250119832064957,0.4949176218301281,-0.01924113556742678,0.575673466147176
0,-0.07712136209011078,-33.71552276611328,0.12469181762267711,0.5044973558640735,-0.01917873449080323,0.5738946179262713
0,-0.11123790591955185,-33.71719741821289,0.1243721720478304,0.5140491856581219,-0.01917873449080323,0.572324957359524
0.6085222363471985,-0.42055606842041016,-33.737205505371094,0.1240947849616189,0.5235510048103403,-0.014107715854576576,0.5678933409066911
1.4554166793823242,-1.5940577983856201,-33.72872543334961,0.12400298545541273,0.5328759900847014,0.003091775109836114,0.5511048920166408
3.5586013793945312,-1.4713466167449951,-33.62946319580078,0.12440271073910283,0.5418481963117058,0.04487525893297657,0.5255598552238857
1.5931956768035889,-0.43290501832962036,-33.45817947387695,0.12550839540577732,0.5504752875352237,0.08780690106796091,0.5096910915982639
0.5291897058486938,-1.6161426305770874,-33.313507080078125,0.1271192316307053,0.5588278440862429,0.1054934459233966,0.4926156945240413
1.0997538566589355,-0.12461390346288681,-33.23616027832031,0.12899057681015827,0.5669172197912241,0.11906797561096018,0.4781093900737082
1.925300121307373,-1.4798779487609863,-33.199745178222656,0.13118511626325527,0.5747742865804926,0.1442767587606794,0.46473862463850923
1.936633586883545,-1.1875011920928955,-33.094425201416016,0.1338579187501132,0.5823346956619084,0.1764595396622704,0.4425104651313936
0.6621720790863037,-1.122007966041565,-33.04177474975586,0.13697938369351004,0.589549487500339,0.19811625354535248,0.4232645554802731
0.483661413192749,-0.5923108458518982,-33.10134506225586,0.1403608930228964,0.5964848468408509,0.20766486598101125,0.4089785653811609
0.34141483902931213,-0.3849775791168213,-33.13993453979492,0.14387927108453977,0.6032332890121364,0.2145405014161951,0.4008344951730882
1.6949564218521118,-0.4901275932788849,-33.0674934387207,0.14759636077903757,0.6098530927391603,0.2315102619235403,0.39354195206979065
-0.130243718624115,-0.8615232110023499,-33.12055587768555,0.15156352574882073,0.6163182606344706,0.24454953445044025,0.382278195367447
0.2966785430908203,-1.220616340637207,-33.3561897277832,0.15565090929691602,0.6225449708661753,0.24593649132099613,0.3649270324371174
1.8492863178253174,0.5629854202270508,-33.42115020751953,0.15989887615649626,0.6285814192595433,0.2638195318286306,0.35944677476703274
-0.07852232456207275,-0.7620506286621094,-33.450321197509766,0.16441883807539448,0.6345583748661858,0.27857589843915764,0.35778789803007394
1.0867582559585571,-0.8895052075386047,-33.390586853027344,0.16913178610017188,0.6404068151225064,0.2869778645341283,0.34402493272840134
1.1327497959136963,0.7309948801994324,-33.24143600463867,0.17406888301267626,0.6461295563396924,0.3054737649663971,0.34270401333390826
0.6066790223121643,-0.919449508190155,-33.091339111328125,0.17928090609671524,0.6518282027683138,0.3199690051182793,0.34113355810065227
0,-1.1066958904266357,-33.00072479248047,0.18465585333634713,0.6573730575284207,0.32502466363754734,0.324249013112179
-0.2597276568412781,-0.3673274517059326,-32.99195861816406,0.1900548944208034,0.6626748450148645,0.32286026649720334,0.31196548526107426
0.6537117958068848,0.48761653900146484,-33.009464263916016,0.19546325887207383,0.6678826231780557,0.32614346765525004,0.3129678943218704
0.27295124530792236,-0.6949517130851746,-33.05316925048828,0.20096333493307209,0.6730843564741088,0.3338656596645401,0.3112401012045061
0.4603025019168854,-0.6591604351997375,-33.05793762207031,0.2065786829932606,0.6781776559283308,0.33997610755808017,0.2999558333021319
1.6394113302230835,0.15608280897140503,-32.973243713378906,0.21239076491312722,0.6831419838704338,0.3574737228259132,0.29576351975022913
0.32205304503440857,-0.26989346742630005,-32.9825553894043,0.21848487309739645,0.6880634723483227,0.3738192592863923,0.2948150975964383
0.08581134676933289,-0.45578619837760925,-33.06428527832031,0.22474351800160047,0.6929266628870269,0.37721812921809017,0.2887677670480724
-0.48092716932296753,-1.679144024848938,-33.190147399902344,0.23100304822311352,0.6975911999612151,0.3739254973634765,0.27097668185451784
1.088376760482788,1.1110076904296875,-33.15232467651367,0.23727732384522424,0.7020680240800112,0.37898757728980836,0.2662422124010241
0.09416859596967697,-0.1565965712070465,-33.04431915283203,0.24367590467203024,0.706571672836641,0.38884212192691225,0.2741956383945461
-0.3116946816444397,-0.8713010549545288,-32.99135971069336,0.2501415007259736,0.7110702183636223,0.38702940454628926,0.26562982484319964
1.906861662864685,0.41913774609565735,-33.26296615600586,0.25670276628655203,0.7154659818812271,0.40032246272312466,0.2618617972693757
-0.5341222286224365,0.4093600809574127,-33.49417495727539,0.2634701364593154,0.7198878797403732,0.41176195800847676,0.2687659458281513
-0.07463836669921875,-2.114880323410034,-33.49931716918945,0.27029056071811486,0.7242488732651164,0.40668895304746294,0.2545532771410461
-0.8729601502418518,0.39367860555648804,-33.40016174316406,0.27700290448300724,0.7283718999870608,0.3987922987396207,0.24020992949226655
0.7208089232444763,0.07372190803289413,-33.27480697631836,0.2836388767379039,0.7324078571809312,0.3975243718479759,0.24410493377217807
0.37291622161865234,-0.41157442331314087,-33.186622619628906,0.2903402360704301,0.7364528107635729,0.40663874805516864,0.24128949614484269
0.8952588438987732,-0.26747986674308777,-33.219295501708984,0.29720561625089936,0.7404271458180665,0.41720687360114717,0.2356307103943741
-0.6534339785575867,-0.3830106556415558,-33.3120231628418,0.3041758575376783,0.744309151371696,0.4192220808123237,0.23020995604116876
0.35072311758995056,-0.44227704405784607,-33.37913513183594,0.3111418706303165,0.7480886723265696,0.41669949030426007,0.22333255854367373
-0.3930201232433319,0.25960519909858704,-33.50355529785156,0.31808392484332826,0.751798196090842,0.41634701525714857,0.22181029316901324
0.4269859790802002,0.2516922950744629,-33.590858459472656,0.3250254005042694,0.7555305410807542,0.4166300640557891,0.22607110562045532
1.1715309619903564,-0.9832850098609924,-33.5582160949707,0.33208024302610695,0.7592475877914572,0.4299510385647104,0.2199744996639009
-0.670940101146698,-0.2754055857658386,-33.371097564697266,0.33928085692307736,0.7628264203833814,0.4341226290717409,0.20948541136701063
0.2402038723230362,-0.11002226173877716,-33.26693344116211,0.3464863218361603,0.7662910780834216,0.43053316049821033,0.2062735126378055
-0.8056405186653137,0.23597262799739838,-33.26412582397461,0.3536226080773567,0.7697377165139307,0.42582118844535805,0.20732309902329402
-0.09053703397512436,-0.19858160614967346,-33.29335021972656,0.3606573933325126,0.7731956980963918,0.4183530421733544,0.20763469087202505
0.4185061454772949,0.5246491432189941,-33.331268310546875,0.36765271966814506,0.7766789198565553,0.42108611810253915,0.21035192034760272
0.8021397590637207,-0.45011159777641296,-33.30851745605469,0.37475558871322495,0.7801899614141156,0.43125816730704764,0.21097306655962422
0.9047542214393616,-0.44520431756973267,-33.18605041503906,0.3820617591392107,0.7836440044737658,0.44548228381124,0.20351210059840635
-0.6075665950775146,-0.3108856976032257,-33.19681167602539,0.3895071018990065,0.7869833665660189,0.4479588473642554,0.19721135047196503
-0.4174979031085968,-0.446235328912735,-33.32079315185547,0.3969018976538145,0.7902176445581547,0.43941664321270446,0.190902008584332
0.8256846070289612,0.40769287943840027,-33.33173370361328,0.3969018976538145,0.7902176445581547,0.43941664321270446,0.190902008584332
-0.7979358434677124,-0.5846958160400391,-33.223838806152344,0.3969018976538145,0.7902176445581547,0.43941664321270446,0.190902008584332
0.11576845496892929,0.7091356515884399,-33.28542709350586,0.3969018976538145,0.7902176445581547,0.43941664321270446,0.190902008584332
-2.4409515857696533,0.4941903352737427,-33.770538330078125,0.3969018976538145,0.7902176445581547,0.43941664321270446,0.190902008584332
-2.291929006576538,2.879183769226074,-34.50786209106445,0.3969018976538145,0.7902176445581547,0.43941664321270446,0.190902008584332
-1.7842704057693481,0.0707794576883316,-35.558773040771484,0.3969018976538145,0.7902176445581547,0.43941664321270446,0.190902008584332
-2.368152618408203,1.8080236911773682,-36.83366012573242,0.3969018976538145,0.7902176445581547,0.43941664321270446,0.190902008584332
-1.871800422668457,0.6615199446678162,-38.345001220703125,0.3969018976538145,0.7902176445581547,0.43941664321270446,0.190902008584332
-1.656782865524292,0.11843085289001465,-40.04612350463867,0.3969018976538145,0.7902176445581547,0.43941664321270446,0.190902008584332
-1.4951305389404297,1.2231806516647339,-41.93412780761719,0.3969018976538145,0.7902176445581547,0.43941664321270446,0.190902008584332
-1.306597113609314,0.2994208037853241,-43.96833801269531,0.3969018976538145,0.7902176445581547,0.43941664321270446,0.190902008584332
-1.0617271661758423,1.3375822305679321,-46.077919006347656,0.3969018976538145,0.7902176445581547,0.43941664321270446,0.190902008584332
-2.0669643878936768,0.22815626859664917,-48.254730224609375,0.3969018976538145,0.7902176445581547,0.43941664321270446,0.190902008584332
-0.4308244287967682,0.4009254276752472,-50.537227630615234,0.3969018976538145,0.7902176445581547,0.43941664321270446,0.190902008584332
-0.6020691394805908,0.10507455468177795,-52.8580207824707,0.3969018976538145,0.7902176445581547,0.43941664321270446,0.190902008584332
-2.0370538234710693,-0.2187366485595703,-55.2794075012207,0.3969018976538145,0.7902176445581547,0.43941664321270446,0.190902008584332
-0.738924503326416,0.6188885569572449,-57.72755813598633,0.3969018976538145,0.7902176445581547,0.43941664321270446,0.190902008584332
-1.859590768814087,0.25845396518707275,-60.20217514038086,0.3969018976538145,0.7902176445581547,0.43941664321270446,0.190902008584332
-0.52521812915802,1.4218449592590332,-62.671199798583984,0.3969018976538145,0.7902176445581547,0.43941664321270446,0.190902008584332
-1.6799088716506958,-0.05874857306480408,-65.12651824951172,0.3969018976538145,0.7902176445581547,0.43941664321270446,0.190902008584332
-0.02994503267109394,0.0184456966817379,-67.5632095336914,0.3969018976538145,0.7902176445581547,0.43941664321270446,0.190902008584332
0.0086069256067276,1.0401601791381836,-69.99860382080078,0.3969018976538145,0.7902176445581547,0.43941664321270446,0.190902008584332
-1.2998040914535522,-0.29656559228897095,-72.39075469970703,0.3969018976538145,0.7902176445581547,0.43941664321270446,0.190902008584332
0.3941001296043396,1.1838520765304565,-74.83517456054688,0.3969018976538145,0.7902176445581547,0.43941664321270446,0.190902008584332
-1.6205418109893799,-0.4916841387748718,-77.22136688232422,0.3969018976538145,0.7902176445581547,0.43941664321270446,0.190902008584332
-0.5114325881004333,-0.606145441532135,-79.66490936279297,0.3969018976538145,0.7902176445581547,0.43941664321270446,0.190902008584332
-0.4006785452365875,1.7240195274353027,-82.14644622802734,0.3969018976538145,0.7902176445581547,0.43941664321270446,0.190902008584332
-1.4494078159332275,0.43135327100753784,-84.63810729980469,0.3969018976538145,0.7902176445581547,0.43941664321270446,0.190902008584332
1.3354089260101318,1.1631499528884888,-87.16493225097656,0.3969018976538145,0.7902176445581547,0.43941664321270446,0.190902008584332
-2.267435073852539,-0.3973146378993988,-89.7410888671875,0.3969018976538145,0.7902176445581547,0.43941664321270446,0.190902008584332
1.4695863723754883,0.1847435086965561,-92.3220443725586,0.3969018976538145,0.7902176445581547,0.43941664321270446,0.190902008584332
-0.7167096138000488,0.36099931597709656,-95.02215576171875,0.3969018976538145,0.7902176445581547,0.43941664321270446,0.190902008584332
-0.19499489665031433,0.2060997486114502,-97.73954772949219,0.3969018976538145,0.7902176445581547,0.43941664321270446,0.190902008584332
0.32462549209594727,0.8932122588157654,-100.48047637939453,0.3969018976538145,0.7902176445581547,0.43941664321270446,0.190902008584332
-0.6976222395896912,-0.3783509135246277,-103.23147583007812,0.3969018976538145,0.7902176445581547,0.43941664321270446,0.190902008584332
-0.2230834662914276,1.1084449291229248,-106.0060043334961,0.3969018976538145,0.7902176445581547,0.43941664321270446,0.190902008584332
0.12904046475887299,0.41850054264068604,-108.78276824951172,0.3969018976538145,0.7902176445581547,0.43941664321270446,0.190902008584332
-0.8868006467819214,0.06353537738323212,-111.57791900634766,0.3969018976538145,0.7902176445581547,0.43941664321270446,0.190902008584332
0.11596078425645828,0.05087645724415779,-114.45649719238281,0.3969018976538145,0.7902176445581547,0.43941664321270446,0.190902008584332
-0.2027432769536972,0.39871278405189514,-117.39219665527344,0.3969018976538145,0.7902176445581547,0.43941664321270446,0.190902008584332
0.5344033241271973,0.37464439868927,-120.27594757080078,0.3969018976538145,0.7902176445581547,0.43941664321270446,0.190902008584332
-0.3580716550350189,0.015801621600985527,-123.21057891845703,0.3969018976538145,0.7902176445581547,0.43941664321270446,0.190902008584332
-0.2923126816749573,0.5357221961021423,-125.95565795898438,0.3969018976538145,0.7902176445581547,0.43941664321270446,0.190902008584332
1.2420015335083008,-0.6173260807991028,-128.24758911132812,0.3969018976538145,0.7902176445581547,0.43941664321270446,0.190902008584332
1.930356502532959,-0.21662944555282593,-130.1797637939453,0.3969018976538145,0.7902176445581547,0.43941664321270446,0.190902008584332
-1.7466633319854736,0.4365069568157196,-131.592529296875,0.3969018976538145,0.7902176445581547,0.43941664321270446,0.190902008584332
0.5155860781669617,-0.8412730097770691,-132.45639038085938,0.3969018976538145,0.7902176445581547,0.43941664321270446,0.190902008584332
1.7190250158309937,-2.498215436935425,-133.0106964111328,0.3969018976538145,0.7902176445581547,0.43941664321270446,0.190902008584332
-0.021852562204003334,-1.287173867225647,-133.27664184570312,0.3969018976538145,0.7902176445581547,0.43941664321270446,0.190902008584332
-0.5917277932167053,-0.4112694561481476,-133.16912841796875,0.3969018976538145,0.7902176445581547,0.43941664321270446,0.190902008584332
0.1833997517824173,-1.2522780895233154,-132.935302734375,0.3969018976538145,0.7902176445581547,0.43941664321270446,0.190902008584332
-1.4506018161773682,0.9877692461013794,-132.8884735107422,0.3969018976538145,0.7902176445581547,0.43941664321270446,0.190902008584332
0.5079672336578369,-0.009739232249557972,-132.99560546875,0.3969018976538145,0.7902176445581547,0.43941664321270446,0.190902008584332
0.4984603822231293,0.31583380699157715,-133.00552368164062,0.3969018976538145,0.7902176445581547,0.43941664321270446,0.190902008584332
0.18226087093353271,0.8935637474060059,-132.96536254882812,0.3969018976538145,0.7902176445581547,0.43941664321270446,0.190902008584332
-0.00798941869288683,-0.2491512894630432,-132.9504852294922,0.3969018976538145,0.7902176445581547,0.43941664321270446,0.190902008584332
-0.5118526220321655,-0.22220934927463531,-132.93577575683594,0.3969018976538145,0.7902176445581547,0.43941664321270446,0.190902008584332
-0.4323183298110962,-0.37019920349121094,-132.93658447265625,0.3969018976538145,0.7902176445581547,0.43941664321270446,0.190902008584332
0,0.20261621475219727,-132.94566345214844,0.40419548626778934,0.7933877069936756,0.43581399046427866,0.18950548367817358
0.07167373597621918,0.3062759041786194,-132.95082092285156,0.41146403011830346,0.7965814714521264,0.43641127159741383,0.19374625133593038
0,0,-132.9427032470703,0.41874252865436984,0.7998318448010711,0.437008552730549,0.19629855053741888
-0.5370862483978271,-0.38593244552612305,-132.93666076660156,0.4259887068770736,0.8030766864457554,0.43253283399390047,0.1930824468247012
-1.3304030895233154,-0.7618467211723328,-132.89022827148438,0.4330679006840607,0.8062150203395908,0.4169704228445576,0.1835176204355474
-1.5604404211044312,-2.2345051765441895,-132.6905517578125,0.4398166547098986,0.809065567353953,0.39288006025599304,0.1585480212879097
-0.08158470690250397,-3.095097780227661,-132.3782501220703,0.4462506261913869,0.8113379230589757,0.3791965175226019,0.11413466331481095
-1.9461724758148193,-0.5796083807945251,-132.26336669921875,0.4524297516790749,0.812984979519707,0.36229854099995756,0.08351211197295941
-1.804530382156372,-0.17275786399841309,-132.22506713867188,0.45820759521949284,0.8143246003967013,0.33104268385019764,0.07724239326635159
-0.7607462406158447,-1.1507902145385742,-132.1622314453125,0.46354682907374806,0.8155200605567976,0.30966537866042915,0.06621282594521002
-0.8416315317153931,-1.5018857717514038,-132.1031494140625,0.4685966424838989,0.8164393940457254,0.2963122305576688,0.04410719272612687
-1.6467006206512451,-1.0620290040969849,-132.0699920654297,0.4733623788159457,0.8169964642872825,0.27557612928794684,0.02274123626072363
-0.16248585283756256,0.11615417897701263,-132.08004760742188,0.4778296763545303,0.8173097991398834,0.26049957534220675,0.01485894605139053
-0.8947821855545044,-1.2022892236709595,-132.2604522705078,0.48209791455201206,0.8174820221959695,0.2516890083556062,0.005807820678940973
-1.4748300313949585,-0.2839226722717285,-132.24317932128906,0.486128174953984,0.8174756100478447,0.23194223988102736,-0.006577278453914761
-0.06465032696723938,-0.9559518098831177,-132.1338653564453,0.48988697059378156,0.8172798863456854,0.2191132368946757,-0.016909565805205147
-1.2526508569717407,-0.06314169615507126,-132.18035888671875,0.4934473786264748,0.8169272898665682,0.20813572702851754,-0.025402011688856724
-1.1261554956436157,-0.6255053877830505,-132.22543334960938,0.4967511125246851,0.8164561002909249,0.1883123407567229,-0.031140737388341073
0.5726236701011658,-2.453357458114624,-132.11480712890625,0.49985121182719006,0.8157232780812652,0.18369957554386915,-0.056797927770821696
-1.1408435106277466,0.20797602832317352,-132.0811767578125,0.5028734117084402,0.8146207166857938,0.17896441020614764,-0.07550943968575045
-0.2503894865512848,0.4325886368751526,-131.99124145507812,0.5057595384759608,0.8134067096816701,0.1673708018963224,-0.07017140080909774
-0.4492541253566742,-0.4927188754081726,-132.04513549804688,0.5085004654789614,0.8122330106238426,0.16154043846375607,-0.07067248613020624
-1.646414041519165,-0.4317515194416046,-132.0475311279297,0.5110472736084355,0.8109909365220301,0.14407653707312407,-0.07837640608728771
0,-1.1651183366775513,-132.07647705078125,0.5133342149178821,0.8095737693472337,0.13035642006046436,-0.09168365488828067
-0.4625876843929291,-0.5988751649856567,-132.151123046875,0.5154746977741403,0.8079232088837024,0.12650152269052328,-0.10638360073547408
-0.5168945789337158,0.6781424283981323,-132.23191833496094,0.5175150368840291,0.8061556535425148,0.11833917049613457,-0.10572304020703678
-0.6113213300704956,0,-132.22984313964844,0.5194090080652839,0.8044406960965919,0.10893737125443281,-0.10007185330371901
0.12223849445581436,-0.5902822613716125,-132.12030029296875,0.5211906668337178,0.8027318400511568,0.10486168095764381,-0.10499087214848245
-0.6590288281440735,-0.8853902816772461,-131.99427795410156,0.5229010844098391,0.8008795149220815,0.10038842817690832,-0.11728814334055628
-0.764246940612793,-0.07796426117420197,-131.84388732910156,0.5244753862844016,0.7988578129120409,0.0885277967706011,-0.12531609786431835
-0.18332603573799133,-0.18094371259212494,-131.72535705566406,0.5258850458849984,0.7967512315605685,0.08063135530101123,-0.1274736643123711
-0.3791912794113159,0,-131.77276611328125,0.527189838104241,0.7946141049530989,0.07594371100810034,-0.12898152858397213
-0.22170725464820862,-0.34777987003326416,-131.853271484375,0.5284138375561774,0.7924402614301693,0.07093622322427097,-0.13187969416758266
0.10784423351287842,-2.018340826034546,-131.89663696289062,0.5295882007890031,0.7900779525901493,0.06998736471480989,-0.1515973666348144
0,-0.6577718257904053,-131.98365783691406,0.5307621460504661,0.7873654886565257,0.07088606666075054,-0.17389830540002232
0.41169750690460205,0.3622052073478699,-132.07089233398438,0.5319721705994581,0.7844466581069113,0.07431687921828889,-0.17636136055371013
-1.6132460832595825,0.9498570561408997,-131.9634246826172,0.5331273443797383,0.7815984175326472,0.06430397441533071,-0.16542750835797038
0.7063384056091309,0,-131.78562927246094,0.5341360975868237,0.7789072546889131,0.056746410434910285,-0.15751203289012955
-0.16367587447166443,0.6043263077735901,-131.67864990234375,0.5351195559920678,0.7763240212454507,0.06126859819438917,-0.15247598032534962
0,-2.0272374153137207,-131.66705322265625,0.536129332915136,0.7736839416353379,0.05990463257379197,-0.16433357288818404
-0.7391941547393799,0.1457093358039856,-131.82115173339844,0.53707641053062,0.77081438708168,0.05374468128429714,-0.18001297355076518
-1.2734739780426025,0.4582490026950836,-131.9084014892578,0.5378323865983596,0.7678561124071186,0.03697244684444728,-0.17497998739660628
0.2442898005247116,0.6297239661216736,-131.99119567871094,0.5383771229223283,0.7650153329622319,0.02839591203179819,-0.16591354598979996
-0.3654339015483856,0.16232435405254364,-132.11228942871094,0.538841975338065,0.7623051105513029,0.027386377856600908,-0.15931314332168148
0,-0.36724692583084106,-132.09854125976562,0.5392730376147341,0.7596356607617902,0.024341095343697695,-0.16102083141983395
0.249266117811203,-0.20151901245117188,-131.9505157470703,0.5396960326841993,0.7569124826035234,0.02641831299212439,-0.16576054757218406
-0.7300267219543457,0.7808212041854858,-131.8906707763672,0.5401029517476692,0.7541900361295241,0.022411974624264867,-0.16093302930773143
0.40838387608528137,-0.8311451077461243,-131.99789428710938,0.5404541483493327,0.7515043242588701,0.019731617575356,-0.16135239517073674
-1.5026808977127075,-0.5144116878509521,-132.15501403808594,0.5407070157935312,0.7487216762285526,0.010612475728460781,-0.17256536846737905
0.126178577542305,-0.11894528567790985,-132.1842041015625,0.5407882999501048,0.7458016036309345,-0.0008583769396259058,-0.17784334324678625
0.13772177696228027,0.3433740735054016,-132.25392150878906,0.540792320081285,0.7428531332426428,0.001340792681245638,-0.1759731033482238
-0.06571236252784729,0.9967523217201233,-132.22276306152344,0.5408196672797526,0.7400133125198408,0.001940871134865913,-0.1648053833880111
0.5899829268455505,-1.3243272304534912,-132.1939239501953,0.540888422810078,0.7372438078724897,0.006309792504180106,-0.16753517429412249
-1.2162176370620728,0.9899904131889343,-132.0964813232422,0.5409500974969381,0.7344283371330553,0.0010911699190424215,-0.17032131443799378
-0.20807601511478424,0.18623171746730804,-132.0241241455078,0.5408693743808544,0.7316713306514955,-0.010777943849098054,-0.16051946334919176
0.42233240604400635,-0.28382769227027893,-132.06455993652344,0.5407046208994062,0.7289892287640921,-0.008992473924687869,-0.16133276313921652
0,-1.0019499063491821,-132.15695190429688,0.5405840749733033,0.7262110592674232,-0.005473037207654482,-0.17204757646104535
-0.38413169980049133,-1.3980358839035034,-132.30706787109375,0.540466181874023,0.7231769339798605,-0.00867413470599191,-0.1920474580464844
0.16123732924461365,0.4125431478023529,-132.36874389648438,0.5403061341865234,0.7199077060168565,-0.010531587793957558,-0.20025989751399398
-0.49962979555130005,0.32115092873573303,-132.32431030273438,0.5401071082464639,0.7166209920358273,-0.013351525013179944,-0.19414578020950993
-0.0650942474603653,0.6967592239379883,-132.21072387695312,0.5398453658821462,0.7134559172373822,-0.018057558704943823,-0.18566319560389558
0.18307621777057648,1.0493525266647339,-132.16195678710938,0.5395525997627797,0.7104827884044425,-0.017074375619025396,-0.1711122643488729
0.12762688100337982,-1.2050989866256714,-132.22364807128906,0.5392896034398774,0.7076201016055751,-0.014485183129242428,-0.17241015151521402
-0.23003439605236053,0.3226032257080078,-132.4042205810547,0.5390410720880672,0.70468531465248,-0.015338579087983934,-0.17976428285619456
-1.2046918869018555,-0.2588045001029968,-132.46493530273438,0.5386857953336178,0.7016936737385993,-0.027294631445935733,-0.17923262680948612
-0.4177315831184387,1.164829134941101,-132.5204620361328,0.5381182165129897,0.6987693816691938,-0.040814827029438186,-0.1716824215191686
0.7165777683258057,0,-132.61683654785156,0.5374587226031385,0.6959888988893563,-0.03832444215271013,-0.1619755120613261
0.4310699999332428,-1.254138469696045,-132.54293823242188,0.536899679662278,0.6932022140723831,-0.028760710750551394,-0.1724266659754598
-0.3586856424808502,1.4996875524520874,-132.46812438964844,0.5364253611745919,0.6903454883257613,-0.028157507771781456,-0.17038042361915945
0.10205268859863281,0.1662992686033249,-132.45925903320312,0.5359382476454871,0.6876215081280153,-0.030296115720799936,-0.15649720011036436
-0.7697159051895142,-0.3835392892360687,-132.6157989501953,0.5353869468823217,0.6849981353469653,-0.03585997585905728,-0.15830753361563724
0.3280813694000244,-0.49780407547950745,-132.70701599121094,0.5347586115530187,0.6822984720530438,-0.039540263657303024,-0.1656520616549337
-0.49622872471809387,0.07587594538927078,-132.6793212890625,0.5340879302590554,0.6795083037942053,-0.04094149161828694,-0.16916812940568568
0.2500509023666382,0.13717131316661835,-132.58840942382812,0.5333884763833096,0.6767036299192881,-0.04299297347121574,-0.1673927355843866
0.18825487792491913,-0.3839426636695862,-132.52976989746094,0.532702364726865,0.6738966140935412,-0.039340425302119425,-0.16944916350524467
-1.0223783254623413,0.9443480372428894,-132.41323852539062,0.5319887657324174,0.6711113784082853,-0.04629145403159794,-0.16477911872546713
0.38931652903556824,0.1912762075662613,-132.2924041748047,0.5311732788738055,0.6684439225576393,-0.05156696900182105,-0.15531558335205756
-0.23090486228466034,0.21257036924362183,-132.2123260498047,0.5303248302006328,0.665883374402939,-0.050246871778896814,-0.1519501952119752
0.3734780550003052,-0.17044271528720856,-132.22940063476562,0.529497283253812,0.6633537966809309,-0.04905876183959977,-0.15159913142900508
-0.11576070636510849,-2.13773775100708,-132.38076782226562,0.5286975342612517,0.6606668541802881,-0.0469111172676398,-0.17083396864812414
1.2865686416625977,0.4389106035232544,-132.47158813476562,0.5279969884134089,0.657701647262022,-0.03715438447349406,-0.1849908615438227
-1.2684155702590942,-0.7245854735374451,-132.37672424316406,0.5273790093021425,0.6545986277036517,-0.03700310887846487,-0.1873714854606076
-0.20071661472320557,1.6546591520309448,-132.26686096191406,0.5266602677524332,0.651540358062537,-0.0492458770866507,-0.17962087147316178
0,1.3226232528686523,-132.2654266357422,0.5258255644805222,0.6487534325938801,-0.050918515542677414,-0.15481018476566513
0.48655596375465393,-1.8023695945739746,-132.34542846679688,0.525010711163405,0.6461399471296116,-0.046863882511388635,-0.1588080709465428
-0.7165675163269043,0.5066518187522888,-132.5376434326172,0.5242136734303977,0.6434031655460706,-0.04878064544949072,-0.1696057190783902
-0.46738067269325256,0.15180175006389618,-132.5956573486328,0.5233184440486687,0.6406221295037097,-0.05864688035799202,-0.16411860600492198
-0.23149025440216064,1.1442341804504395,-132.66810607910156,0.5222924633394316,0.6379768218988022,-0.0644708047504538,-0.1533183065839692
1.1878690719604492,-0.3640606701374054,-132.69960021972656,0.5212843651225878,0.6354756955050633,-0.0565009812708014,-0.1468168606646939
-0.3566186726093292,-0.4439750015735626,-132.64805603027344,0.520400407823585,0.6329726342390052,-0.04957389460954207,-0.15355049126228532
-0.3678567707538605,1.1806567907333374,-132.54595947265625,0.5195238654520813,0.6304646178422143,-0.05561118997090198,-0.14741147635262053
0.4304465651512146,-0.6021482348442078,-132.4582061767578,0.5186013587993994,0.6280479341082741,-0.05508960835092403,-0.1425905717202111
-0.9666503667831421,-0.13125979900360107,-132.5448760986328,0.517645962285104,0.6256204934661422,-0.059557973364523425,-0.14870230533560952
0.08573838323354721,-0.3307405412197113,-132.61288452148438,0.5165921549523932,0.6231100383535888,-0.06689890656077005,-0.15255230817080379
-0.06030282378196716,0.44652679562568665,-132.70452880859375,0.5154789395346756,0.6205755405961869,-0.06668694356534022,-0.15158742271742065
-0.36701565980911255,0.07269643992185593,-132.73716735839844,0.5143378155805595,0.6180851407200318,-0.07024793092859921,-0.14726056242119112
0.2708401381969452,0,-132.61949157714844,0.513160337876082,0.6156358463768955,-0.0710493936087006,-0.14665475875517567
-0.37372511625289917,0.8920579552650452,-132.51284790039062,0.5119690365257942,0.6132535488667582,-0.07190676842583356,-0.1392209424613003
0.11362035572528839,0.3255094587802887,-132.50674438476562,0.5107525275547714,0.6110177531183786,-0.07407430809689698,-0.12907454734425583
-0.37752461433410645,0,-132.59381103515625,0.5094996290685309,0.6088891154861674,-0.07627351025197046,-0.12636196852108675
0.371065229177475,-1.6761608123779297,-132.66424560546875,0.508227955329251,0.6066666826210675,-0.07632733846160905,-0.14032997529090283
-0.26022353768348694,-1.7312202453613281,-132.73829650878906,0.5069635303612446,0.6040912260149872,-0.07540365769915915,-0.16872481743872997
1.6628506183624268,0.523841381072998,-132.69400024414062,0.5058042073913058,0.6011952999698772,-0.06371509869350131,-0.17878630797446604
-1.3046516180038452,0.9102635383605957,-132.67250061035156,0.504767164010328,0.5983151187897079,-0.060730107023846465,-0.16683543364585277
0.4892423152923584,1.035162091255188,-132.66958618164062,0.5036983699139089,0.5956696272310004,-0.06752518454644219,-0.15062355339905456
-0.6981632709503174,1.0773290395736694,-132.7093963623047,0.5025584417717698,0.5933059354473237,-0.0692661925102585,-0.13301946064214742
-0.0984555184841156,-1.3335024118423462,-132.81748962402344,0.5013486844806658,0.5910711546191025,-0.07590468242221211,-0.1351542387443864
0,0.8486916422843933,-132.9149932861328,0.500076769251512,0.5887849165588102,-0.0767251450762464,-0.13919432849070268
-1.0749601125717163,-0.3579007089138031,-132.9207305908203,0.4987233668257571,0.5864990937876714,-0.08568314601434404,-0.13510440404594776
0.14836488664150238,1.003115177154541,-132.9765625,0.4972309675014951,0.5842921602805334,-0.09340477289709583,-0.12972761681060826
0.8746640682220459,2.6137564182281494,-132.98255920410156,0.4957452649639646,0.5823812049722582,-0.08487953160656625,-0.09958702018241918
1.9820142984390259,-0.4633708894252777,-132.8853302001953,0.4945289865459844,0.5808707536309403,-0.06107387855105732,-0.08166714077572858
0.7557402849197388,-0.36962997913360596,-132.7590789794922,0.4937012104162,0.5794517873354726,-0.03825925702306762,-0.08860881468038594
-0.6329810619354248,1.5435396432876587,-132.6837921142578,0.4930720810785228,0.5780564952619214,-0.03723626349819834,-0.07882623414576884
0.6912584900856018,-0.40289491415023804,-132.68553161621094,0.4924555237305077,0.5768219361323487,-0.03675061826361353,-0.069320861402957
0.9600345492362976,-0.09902297705411911,-132.40956115722656,0.49195768655384486,0.5756317330331879,-0.022989842935931037,-0.07350351049632664
0.7948813438415527,1.6572412252426147,-132.065185546875,0.4916963916641542,0.5745148841254845,-0.008365543826948952,-0.060518358428089176
1.1750212907791138,2.472691535949707,-131.7007293701172,0.49169376472777593,0.5737930457045436,0.008050311461556601,-0.02610225208481983
1.559213399887085,1.7690913677215576,-131.32077026367188,0.4920178139945426,0.573652576426996,0.030835600550441593,0.009245938779107371
1.0404160022735596,1.490889072418213,-130.82818603515625,0.4927122704899778,0.574033062937213,0.0524991789017803,0.036412442446938795
1.2226934432983398,-0.2166251540184021,-130.33718872070312,0.4937444171831722,0.5747284275278842,0.07135842428154612,0.04703130843360388
-1.7508974075317383,-1.387747049331665,-129.99981689453125,0.49489704342368174,0.5754008679321005,0.06695672457960114,0.03366154007235332
-1.6469742059707642,-1.5612916946411133,-129.89523315429688,0.49577702552684855,0.5757570992427528,0.03864112780041362,0.009086217205913502
-0.42972394824028015,-1.3252270221710205,-129.69203186035156,0.49627682917392413,0.5757080835075171,0.02133530984865492,-0.014968105434187612
-1.457018494606018,0.1442849487066269,-129.82594299316406,0.4965013938906485,0.5753766052174012,0.005612456158269101,-0.024809289379724226
-4.205329418182373,3.039630889892578,-129.80213928222656,0.4962017162215649,0.5751842223276419,-0.04157377644830083,0.0017233426086024836
0.5615739822387695,0.8498632311820984,-129.81106567382812,0.49525578137548604,0.5754830484628599,-0.0719384050811642,0.03413579361755812
0.9238378405570984,1.5940319299697876,-129.8939971923828,0.4941599615562719,0.5762216932982326,-0.059559973224531965,0.05450158662715717
1.399976372718811,0.8101083636283875,-129.92518615722656,0.4933286713228961,0.5772970072624073,-0.04019485478056605,0.07453608907380863
2.0748579502105713,0.38633182644844055,-129.8109130859375,0.49290006501564565,0.5786223615379483,-0.011237902089487866,0.08450642399111552
4.5915093421936035,0.7817352414131165,-129.7312774658203,0.49317570882057116,0.5801119177064018,0.04431515868054692,0.09424031622329516
3.0699071884155273,2.1869349479675293,-129.69410705566406,0.4944463376132059,0.581888747295497,0.10816029643562301,0.11897923446813388
4.521541595458984,-1.0112102031707764,-129.73704528808594,0.4967761931637909,0.5839533820883546,0.17142236963457727,0.1287769406747735
2.8218538761138916,-1.1749789714813232,-129.96652221679688,0.5001431906765598,0.5859478457402499,0.23261733189768458,0.11055869755267267
-3.1802289485931396,-0.8352415561676025,-130.2584228515625,0.5039952590503768,0.5876508920517077,0.2296308729603575,0.09380685982226496
-4.4345831871032715,2.2409090995788574,-130.33692932128906,0.5072936338680705,0.589311955517038,0.16617410516288741,0.10552075601735875
-3.0805559158325195,2.480729579925537,-130.1391143798828,0.5095413176275259,0.5913985263589595,0.10354794597175582,0.1448677450132287
-0.27163633704185486,-0.3815195858478546,-129.7255401611328,0.5110343255983832,0.5939587672476576,0.07561301053113603,0.1623611616305427
0.7490563988685608,0,-129.20932006835938,0.512327696611529,0.5966382921924828,0.07959151104635859,0.15918183174847725
1.8188279867172241,-0.9165681004524231,-128.84117126464844,0.5138325471001896,0.5992276721590927,0.1009905475929068,0.15154376424470706
