faccX,faccY,yaw,posX,posY,velX,velY
0,0,-28.676637649536133,0.0,0.0,0.0,0.0
0,0,-28.675153732299805,0.0,0.0,0.0,0.0
0,0,-28.675331115722656,0.0,0.0,0.0,0.0
0,0,-28.669647216796875,0.0,0.0,0.0,0.0
0.47282975912094116,-0.30433106422424316,-28.66620445251465,3.283539993895425e-05,-2.1134101682239107e-05,0.0039402479926745095,-0.002536092201868693
3.615163564682007,-1.8090194463729858,-28.577978134155273,0.0003823946250809562,-0.00021016275717152487,0.038006859024365736,-0.0201473464568456
3.282633066177368,-0.20541097223758698,-28.338594436645508,0.0014948559304078417,-0.0006858428660780191,0.09548849761486053,-0.036934266611933705
0,-1.1427111625671387,-28.190471649169922,0.0033142915202511677,-0.0013950335689716866,0.1228437731663386,-0.04816861773530642
0.7931634187698364,-0.4707379639148712,-28.01669692993164,0.005416768532660272,-0.002309888942788044,0.1294534683227539,-0.0616140271226565
0.8645200133323669,-1.4662445783615112,-27.809303283691406,0.007689443243046601,-0.0034713020713792904,0.14326749692360558,-0.07775554830829301
1.8606756925582886,0,-27.580724716186523,0.010266484560237989,-0.004869050416681502,0.16597746113936104,-0.08997425312797228
1.2555248737335205,-0.5242465734481812,-27.477676391601562,0.013249178396330937,-0.0064050273141927185,0.19194579919179278,-0.09434297457337379
0.6795199513435364,-1.2059072256088257,-27.41762924194336,0.016582653162380057,-0.008097559793127908,0.20807117273410158,-0.10876092289884884
1.5606764554977417,0.19173993170261383,-27.29861068725586,0.020206075236201285,-0.009980670125741097,0.22673947612444556,-0.11721231701473393
0.6166105270385742,-0.2500705420970917,-27.305112838745117,0.0241362669898404,-0.011938259479486278,0.24488353431224819,-0.11769840543468792
0.7727340459823608,-0.9823988080024719,-27.24419593811035,0.028314141490393213,-0.01398548771937688,0.2564614057540893,-0.1279689833521843
1.4097670316696167,0.3023022711277008,-27.271188735961914,0.03274006082779831,-0.016165533034751812,0.27464891473452246,-0.1336364544928074
0.08989349007606506,-0.24073892831802368,-27.38263511657715,0.03742168583182825,-0.01838853204415904,0.2871460857490698,-0.13312342663606008
1.105879783630371,-1.1415343284606934,-27.49343490600586,0.04229049373832014,-0.02070324701981412,0.29711086302995676,-0.14464237044254938
0.7774166464805603,-0.42493903636932373,-27.405733108520508,0.047373125929799344,-0.02322273606641425,0.31280499994754785,-0.1576963151494662
0.6459234952926636,-0.8023737668991089,-27.34905433654785,0.05268538566099273,-0.02593623804135455,0.32466616779565804,-0.1679239218433698
1.4164546728134155,0.10787643492221832,-27.302114486694336,0.05823970916370551,-0.028783199053464662,0.34185265252987534,-0.1737113996098439
-0.4797716736793518,-0.624830961227417,-27.259267807006836,0.06400230080303218,-0.031714288666844365,0.3496583441893259,-0.17801935399572055
-0.09601595252752304,-0.21374697983264923,-27.178028106689453,0.06978995462103435,-0.03473951247934665,0.3448601139709353,-0.18500750350455444
0.4103054106235504,0.5670762062072754,-27.239675521850586,0.07555944884402883,-0.03779843411925766,0.34747919278840217,-0.1820630932847659
1.2248494625091553,0,-27.377073287963867,0.08146432114558086,-0.04079343871523936,0.3611054833978414,-0.1773374582330386
0.20669451355934143,-0.32044994831085205,-27.51224136352539,0.08758215864499408,-0.043771316487756035,0.37303501653174553,-0.18000787446896235
0.5466331839561462,0,-27.551660537719727,0.09385172334396175,-0.046793701197538104,0.3793127473443746,-0.18267829070488611
0.6390907764434814,-0.7393938899040222,-27.572858810424805,0.1002559444080624,-0.04988968617386287,0.3891937803477048,-0.1888399064540863
-0.18233464658260345,-0.9004878997802734,-27.517515182495117,0.10677422658954226,-0.05315089862793683,0.3930000814298788,-0.20250558803478877
-0.4063587486743927,0,-27.41006851196289,0.11328334646092517,-0.05658852564377916,0.3880943031360705,-0.21000965386629106
0.5221879482269287,0.4594768285751343,-27.376380920410156,0.11975962854093972,-0.060056778428455186,0.389059546465675,-0.2061806802948316
0.19856710731983185,0.09160597622394562,-27.325183868408203,0.1262940067497806,-0.06345485346081356,0.3950658385952313,-0.2015883235881726
0.383394330739975,-0.7489256858825684,-27.291996002197266,0.13291885138178863,-0.0668603060560094,0.3999155172457297,-0.20706598783532779
0.6944551467895508,0.7296631932258606,-27.265213012695312,0.13965896066071257,-0.07031274352636602,0.40889759622514243,-0.20722650860746702
0.20013561844825745,-0.2796156108379364,-27.26087760925293,0.14653604495649533,-0.07373526536549131,0.41635251926879085,-0.20347611208756766
0.11807560920715332,-0.9283267855644226,-27.272375106811523,0.15349735161289568,-0.07721041878892317,0.4190042794992526,-0.21354229872425398
-0.10062620043754578,0,-27.25333023071289,0.16048196803571446,-0.08083392423888049,0.41914969123899937,-0.22127835527062417
0.11510350555181503,-0.051145974546670914,-27.10740089416504,0.16746880159144184,-0.08452544863051219,0.41927033544828496,-0.22170457172517977
0.5693787336349487,0.6284345984458923,-26.981435775756836,0.17450417400441234,-0.08818043533816107,0.42497435410817463,-0.21689383319268626
-0.15577173233032227,-1.1827852725982666,-26.94537925720215,0.1816158026146392,-0.09183382913263309,0.42842107911904653,-0.22151342214395606
-0.4628749489784241,0.18911434710025787,-26.910388946533203,0.18871319235819908,-0.09559472442708083,0.4232656901081403,-0.2297940131897728
0,0.6953680515289307,-26.80765724182129,0.19573547643298903,-0.09936320225811669,0.41940839886665343,-0.22242332653452956
0.7775931358337402,0.6996785402297974,-26.73794937133789,0.2027796159374217,-0.10297337946482005,0.42588834166526796,-0.2107979382698735
0.4048597514629364,0.3461185693740845,-26.802663803100586,0.2099598697490162,-0.10641405363670656,0.4357421157260736,-0.20208296235650783
0,-0.9411710500717163,-26.943742752075195,0.21725035360496903,-0.10982342609825235,0.4391159469882647,-0.2070417330289881
0.5069218873977661,-1.1485601663589478,-27.031068801879883,0.22460415563028718,-0.11341924187209873,0.44334029604991276,-0.22445615983257697
0.6364220976829529,0.13338102400302887,-26.977458953857422,0.23207255945230523,-0.11723067642086084,0.4528681625922521,-0.23291598601887628
-0.2536342740058899,0.3321923315525055,-26.928884506225586,0.23964694464993144,-0.12108027803815075,0.45605806112289426,-0.2290362080559135
-1.0962510108947754,-0.3584604859352112,-26.970836639404297,0.24715417030163936,-0.12489937234980365,0.4448090170820554,-0.22925510934243604
-0.2964436709880829,1.4064847230911255,-27.0693359375,0.25447093901120954,-0.12864751137793065,0.4332032280663649,-0.22052157403280342
-0.13980145752429962,-0.1484321802854538,-27.19567108154297,0.2616606980117245,-0.13223550618522698,0.4295678519954284,-0.21003780284275617
0.9884278178215027,-0.8131729960441589,-27.236507415771484,0.26887909459778003,-0.13580291436985137,0.4366397383312384,-0.2180511793121696
1.2523038387298584,-0.20026886463165283,-27.206405639648438,0.27631202993500564,-0.13950747859871224,0.4553125021358331,-0.2264965281511347
-0.7371095418930054,-0.4860069751739502,-27.162750244140625,0.2839363490189943,-0.14333007877899542,0.4596057879428069,-0.23221549348284806
-0.4558138847351074,-0.5588477253913879,-27.054964065551758,0.29151360358008077,-0.1472728963579155,0.4496647593875726,-0.2409226159875592
0.4270218312740326,0.6963629722595215,-26.94515037536621,0.2990060167883833,-0.15127872362112008,0.4494248256087303,-0.23977665559699143
-1.3344749212265015,0.17885148525238037,-26.886083602905273,0.30643341297283766,-0.1552142224326316,0.44186271652579306,-0.23248320178439225
1.1311405897140503,0.4950343668460846,-26.864700317382812,0.3137836711419125,-0.15904214483375353,0.4401682637631893,-0.22686748635023837
-0.17192493379116058,0,-26.980531692504883,0.32118642106962697,-0.16278889221967097,0.4481617275625467,-0.22274219995985434
0.5328540802001953,-0.22166606783866882,-26.92263412475586,0.3286808477197256,-0.1665166556959351,0.4511694704492886,-0.22458941719184325
0,-0.6449334025382996,-26.902084350585938,0.3362373426494499,-0.17031999316790866,0.4556099211176236,-0.23181107944498466
-0.7817423343658447,0.839874804019928,-26.823320388793945,0.3437765536726349,-0.1741699735613333,0.4490954016645749,-0.2301865677659711
0.6631895303726196,0,-26.685327529907227,0.3512532442001005,-0.17794809171826476,0.448107461631298,-0.22318761106580504
-0.6564284563064575,-0.9372985363006592,-26.61749267578125,0.35872217141298784,-0.18173297541216016,0.4481638039151827,-0.23099843220164387
-0.7997398972511292,1.2432321310043335,-26.499589920043945,0.35872217141298784,-0.18173297541216016,0.4481638039151827,-0.23099843220164387
0.1941247135400772,1.2011518478393555,-26.39645767211914,0.35872217141298784,-0.18173297541216016,0.4481638039151827,-0.23099843220164387
-1.505171537399292,0.2704618573188782,-26.572885513305664,0.35872217141298784,-0.18173297541216016,0.4481638039151827,-0.23099843220164387
-2.1903321743011475,0.6442556977272034,-27.093486785888672,0.35872217141298784,-0.18173297541216016,0.4481638039151827,-0.23099843220164387
-2.0022876262664795,-0.1368470937013626,-27.942398071289062,0.35872217141298784,-0.18173297541216016,0.4481638039151827,-0.23099843220164387
-2.3140532970428467,-0.6744055151939392,-28.94915199279785,0.35872217141298784,-0.18173297541216016,0.4481638039151827,-0.23099843220164387
-1.0417612791061401,0.6103271842002869,-30.05562973022461,0.35872217141298784,-0.18173297541216016,0.4481638039151827,-0.23099843220164387
-1.8988209962844849,-0.3521713614463806,-31.339685440063477,0.35872217141298784,-0.18173297541216016,0.4481638039151827,-0.23099843220164387
-1.9448837041854858,0.8129355907440186,-32.70112228393555,0.35872217141298784,-0.18173297541216016,0.4481638039151827,-0.23099843220164387
-2.543552875518799,1.2255603075027466,-34.22335433959961,0.35872217141298784,-0.18173297541216016,0.4481638039151827,-0.23099843220164387
-0.4579503834247589,0.38194042444229126,-35.866737365722656,0.35872217141298784,-0.18173297541216016,0.4481638039151827,-0.23099843220164387
-0.7016676664352417,0.8311680555343628,-37.653682708740234,0.35872217141298784,-0.18173297541216016,0.4481638039151827,-0.23099843220164387
-1.0256431102752686,-0.15443305671215057,-39.5310173034668,0.35872217141298784,-0.18173297541216016,0.4481638039151827,-0.23099843220164387
-1.3632559776306152,1.2890688180923462,-41.4547233581543,0.35872217141298784,-0.18173297541216016,0.4481638039151827,-0.23099843220164387
-1.6409714221954346,-0.02704858034849167,-43.4264030456543,0.35872217141298784,-0.18173297541216016,0.4481638039151827,-0.23099843220164387
-1.0034250020980835,1.6371123790740967,-45.46440887451172,0.35872217141298784,-0.18173297541216016,0.4481638039151827,-0.23099843220164387
-1.7482889890670776,-0.33889442682266235,-47.63145446777344,0.35872217141298784,-0.18173297541216016,0.4481638039151827,-0.23099843220164387
-0.576297402381897,-0.11217593401670456,-49.8719367980957,0.35872217141298784,-0.18173297541216016,0.4481638039151827,-0.23099843220164387
-0.7283713817596436,1.1024588346481323,-52.158714294433594,0.35872217141298784,-0.18173297541216016,0.4481638039151827,-0.23099843220164387
-1.4855016469955444,0.8628923892974854,-54.521392822265625,0.35872217141298784,-0.18173297541216016,0.4481638039151827,-0.23099843220164387
-0.8371562361717224,0.9269895553588867,-56.946346282958984,0.35872217141298784,-0.18173297541216016,0.4481638039151827,-0.23099843220164387
-1.3257476091384888,-0.09362803399562836,-59.381038665771484,0.35872217141298784,-0.18173297541216016,0.4481638039151827,-0.23099843220164387
-0.951564371585846,-0.6738953590393066,-61.872074127197266,0.35872217141298784,-0.18173297541216016,0.4481638039151827,-0.23099843220164387
0.1218017116189003,2.5032804012298584,-64.40225982666016,0.35872217141298784,-0.18173297541216016,0.4481638039151827,-0.23099843220164387
-1.8570678234100342,-1.364220380783081,-66.99449920654297,0.35872217141298784,-0.18173297541216016,0.4481638039151827,-0.23099843220164387
1.2992055416107178,1.7806507349014282,-69.5483627319336,0.35872217141298784,-0.18173297541216016,0.4481638039151827,-0.23099843220164387
-1.7720720767974854,-0.5493454933166504,-72.0781021118164,0.35872217141298784,-0.18173297541216016,0.4481638039151827,-0.23099843220164387
0.39485105872154236,0.6236425042152405,-74.69217681884766,0.35872217141298784,-0.18173297541216016,0.4481638039151827,-0.23099843220164387
-0.9510538578033447,1.83878493309021,-77.34764862060547,0.35872217141298784,-0.18173297541216016,0.4481638039151827,-0.23099843220164387
-1.366931676864624,-0.5711490511894226,-80.06610870361328,0.35872217141298784,-0.18173297541216016,0.4481638039151827,-0.23099843220164387
0.6467158198356628,0.6209632754325867,-82.78441619873047,0.35872217141298784,-0.18173297541216016,0.4481638039151827,-0.23099843220164387
-1.719539761543274,-0.14599168300628662,-85.5246810913086,0.35872217141298784,-0.18173297541216016,0.4481638039151827,-0.23099843220164387
0.1806420385837555,0.8743376731872559,-88.30339813232422,0.35872217141298784,-0.18173297541216016,0.4481638039151827,-0.23099843220164387
-0.8028919100761414,1.257419228553772,-91.06739044189453,0.35872217141298784,-0.18173297541216016,0.4481638039151827,-0.23099843220164387
-0.5243933796882629,-0.031756360083818436,-93.81063079833984,0.35872217141298784,-0.18173297541216016,0.4481638039151827,-0.23099843220164387
-0.04013064131140709,0.9510553479194641,-96.53644561767578,0.35872217141298784,-0.18173297541216016,0.4481638039151827,-0.23099843220164387
-1.051345944404602,0.2107839584350586,-99.3002700805664,0.35872217141298784,-0.18173297541216016,0.4481638039151827,-0.23099843220164387
1.1224803924560547,0.08241183310747147,-102.07608795166016,0.35872217141298784,-0.18173297541216016,0.4481638039151827,-0.23099843220164387
-1.3299616575241089,0.43607330322265625,-104.97195434570312,0.35872217141298784,-0.18173297541216016,0.4481638039151827,-0.23099843220164387
-0.4465283751487732,0.06674078106880188,-107.88912963867188,0.35872217141298784,-0.18173297541216016,0.4481638039151827,-0.23099843220164387
1.2036041021347046,1.5595653057098389,-110.90533447265625,0.35872217141298784,-0.18173297541216016,0.4481638039151827,-0.23099843220164387
-1.324620008468628,0.44900521636009216,-113.8761978149414,0.35872217141298784,-0.18173297541216016,0.4481638039151827,-0.23099843220164387
-0.5084595084190369,0.3042554557323456,-116.77399444580078,0.35872217141298784,-0.18173297541216016,0.4481638039151827,-0.23099843220164387
0.2885607182979584,0.684714138507843,-119.65467071533203,0.35872217141298784,-0.18173297541216016,0.4481638039151827,-0.23099843220164387
0.3297266662120819,0.16927151381969452,-122.40586853027344,0.35872217141298784,-0.18173297541216016,0.4481638039151827,-0.23099843220164387
0.22059330344200134,0.5882701873779297,-124.91954040527344,0.35872217141298784,-0.18173297541216016,0.4481638039151827,-0.23099843220164387
1.2336505651474,-0.5947288274765015,-127.0531005859375,0.35872217141298784,-0.18173297541216016,0.4481638039151827,-0.23099843220164387
2.1295671463012695,-0.445688396692276,-128.84036254882812,0.35872217141298784,-0.18173297541216016,0.4481638039151827,-0.23099843220164387
0.44219645857810974,-1.0408648252487183,-130.27833557128906,0.35872217141298784,-0.18173297541216016,0.4481638039151827,-0.23099843220164387
0.5604312419891357,-1.043466567993164,-131.22003173828125,0.35872217141298784,-0.18173297541216016,0.4481638039151827,-0.23099843220164387
1.283528447151184,-1.4118908643722534,-131.72940063476562,0.35872217141298784,-0.18173297541216016,0.4481638039151827,-0.23099843220164387
0.7058218121528625,-0.8287113308906555,-131.8155517578125,0.35872217141298784,-0.18173297541216016,0.4481638039151827,-0.23099843220164387
-0.1745382845401764,-0.9786607623100281,-131.56480407714844,0.35872217141298784,-0.18173297541216016,0.4481638039151827,-0.23099843220164387
-1.2575820684432983,-0.49093756079673767,-131.28515625,0.35872217141298784,-0.18173297541216016,0.4481638039151827,-0.23099843220164387
-1.7813061475753784,0.3446257710456848,-131.27572631835938,0.35872217141298784,-0.18173297541216016,0.4481638039151827,-0.23099843220164387
0.04509824514389038,-0.25465431809425354,-131.37435913085938,0.35872217141298784,-0.18173297541216016,0.4481638039151827,-0.23099843220164387
0.16676698625087738,-0.03259730711579323,-131.33905029296875,0.35872217141298784,-0.18173297541216016,0.4481638039151827,-0.23099843220164387
0.2967677414417267,0.8021577000617981,-131.25665283203125,0.35872217141298784,-0.18173297541216016,0.4481638039151827,-0.23099843220164387
0.44763970375061035,1.1047214269638062,-131.28250122070312,0.35872217141298784,-0.18173297541216016,0.4481638039151827,-0.23099843220164387
0.2660274803638458,0.2713635265827179,-131.27609252929688,0.35872217141298784,-0.18173297541216016,0.4481638039151827,-0.23099843220164387
-0.5717992186546326,-0.06876389682292938,-131.2630157470703,0.35872217141298784,-0.18173297541216016,0.4481638039151827,-0.23099843220164387
-0.373738169670105,-0.331988662481308,-131.29225158691406,0.35872217141298784,-0.18173297541216016,0.4481638039151827,-0.23099843220164387
-0.40334469079971313,-0.03160484507679939,-131.28114318847656,0.35872217141298784,-0.18173297541216016,0.4481638039151827,-0.23099843220164387
-0.08714111894369125,0.09693127870559692,-131.28338623046875,0.35872217141298784,-0.18173297541216016,0.4481638039151827,-0.23099843220164387
-0.052813444286584854,0.32974910736083984,-131.28379821777344,0.35872217141298784,-0.18173297541216016,0.4481638039151827,-0.23099843220164387
-0.12060652673244476,0.11187653243541718,-131.28384399414062,0.35872217141298784,-0.18173297541216016,0.4481638039151827,-0.23099843220164387
-0.27261030673980713,0.017476778477430344,-131.28497314453125,0.35872217141298784,-0.18173297541216016,0.4481638039151827,-0.23099843220164387
-0.21195772290229797,0.05641123279929161,-131.28480529785156,0.35872217141298784,-0.18173297541216016,0.4481638039151827,-0.23099843220164387
-0.10995714366436005,0.16851399838924408,-131.28524780273438,0.35872217141298784,-0.18173297541216016,0.4481638039151827,-0.23099843220164387
-0.12925291061401367,0.16978956758975983,-131.2852783203125,0.35872217141298784,-0.18173297541216016,0.4481638039151827,-0.23099843220164387
-0.1990363597869873,0.05181948095560074,-131.283935546875,0.35872217141298784,-0.18173297541216016,0.4481638039151827,-0.23099843220164387
-0.20003795623779297,0.06965850293636322,-131.2840576171875,0.35872217141298784,-0.18173297541216016,0.4481638039151827,-0.23099843220164387
-0.14390113949775696,0.1349630504846573,-131.28407287597656,0.35872217141298784,-0.18173297541216016,0.4481638039151827,-0.23099843220164387
-0.13249461352825165,0.12814252078533173,-131.28379821777344,0.3661723739953919,-0.18556467806196048,0.4458605059732993,-0.22880588577439395
-0.18273676931858063,0.06793691962957382,-131.28440856933594,0.37358149136002694,-0.1893644928637271,0.443233577782909,-0.22717189043760308
-0.36023393273353577,-0.07356397807598114,-131.29530334472656,0.3809310113576551,-0.19315108180563484,0.4387088219324747,-0.22721878259132314
-1.6293905973434448,-0.5369607210159302,-131.3125457763672,0.38810465668638544,-0.19698045906403827,0.4221286175151665,-0.23230648841708906
-2.4011857509613037,-1.7621113061904907,-131.39828491210938,0.3948602325096726,-0.20101189165065686,0.3885404812792936,-0.25146542197714256
-0.48049864172935486,-2.8856589794158936,-131.2996063232422,0.4011357902259462,-0.2055257438423319,0.3645264446735381,-0.29019684102386245
-1.3426542282104492,-1.5173659324645996,-131.1528778076172,0.4070846231323149,-0.21066812347827688,0.3493335040907064,-0.3268887152895332
-1.196229100227356,-0.797652006149292,-131.0423126220703,0.41273053685824074,-0.2162770338677284,0.3281761430203914,-0.346180531444649
-1.4819852113723755,0.4371158480644226,-131.0239715576172,0.4180141521369417,-0.22207174662500623,0.30585769042372696,-0.3491849994286896
-0.9324719905853271,-1.9138236045837402,-131.0464630126953,0.42294410967164564,-0.22799404576524268,0.2857372137407461,-0.3614908973996839
-1.3661566972732544,-1.2615233659744263,-131.07913208007812,0.42754676957511234,-0.23423940426152617,0.26658197467525796,-0.3879521221543353
-1.1008353233337402,-0.7838999629020691,-131.11964416503906,0.4318184835960467,-0.24084731625082595,0.24602370783686633,-0.4049973165616394
-0.49641501903533936,-0.05511176958680153,-131.26539611816406,0.4358079585639966,-0.24765553623049832,0.232713288317124,-0.41198908099904663
-1.2444695234298706,-1.4477170705795288,-131.25100708007812,0.4395656186093886,-0.2546263840277162,0.21820591712991394,-0.42451265466709937
-0.6004941463470459,-0.4499030113220215,-131.27479553222656,0.4430742614178193,-0.2618333741111888,0.20283121988177297,-0.4403261553496123
-0.3627128005027771,-1.0512720346450806,-131.39761352539062,0.4463878923778732,-0.2692763916340967,0.1948044953246911,-0.45283594739933813
-1.1156455278396606,-0.6847972869873047,-131.3758087158203,0.44953197019381647,-0.2769442177936435,0.18248484258850411,-0.46730319174627466
-0.5130634903907776,0.290715754032135,-131.3520050048828,0.45246027944402556,-0.2847599710958699,0.1689122674365838,-0.4705872045209011
-1.2076971530914307,-0.5518161654472351,-131.2164306640625,0.4551559866343935,-0.2926212231442332,0.1545725954075654,-0.4727630412826936
-0.8527621626853943,-0.4962739646434784,-131.0896453857422,0.45758910910536843,-0.3005733912024233,0.1374021011094252,-0.4814971257001162
-0.07678887993097305,-0.1704424023628235,-131.16183471679688,0.4598145919681216,-0.30864464304513406,0.12965584242095546,-0.4870530954251687
-0.7476101517677307,0.49099427461624146,-131.35531616210938,0.4619182727423806,-0.31673993408886925,0.12278585049013292,-0.4843818298230569
-1.1661840677261353,-1.366471529006958,-131.4320831298828,0.4638318012075291,-0.3248737616174751,0.10683756532768404,-0.4916774736096462
0.6845111846923828,-0.9067568778991699,-131.45176696777344,0.46557897779055757,-0.3332262492614488,0.1028236246357361,-0.5106210436671973
-0.270807147026062,0,-131.37680053710938,0.46732143431488,-0.34179956921686727,0.10627115828295544,-0.5181773509830238
-1.1324955224990845,0.8523815870285034,-131.2625274658203,0.46899516871199,-0.3503766652341518,0.09457696937024589,-0.5110741710911195
-0.07316658645868301,-0.6077553033828735,-131.10202026367188,0.4704877249994831,-0.35887758014930615,0.08452978512893115,-0.509035618727406
-0.07881966233253479,-0.823922872543335,-131.01060485839844,0.47188600015102145,-0.3674609292236467,0.083263233055671,-0.5209662701934578
-0.9278411865234375,0.5214796662330627,-130.94802856445312,0.4732038136985565,-0.3761647033939759,0.0748743926485379,-0.5234866302460434
0,-0.5726432800292969,-130.9542999267578,0.474387286826968,-0.38489303359347915,0.06714238276084258,-0.5239129936943453
-0.22392436861991882,-0.31258735060691833,-130.98109436035156,0.47549077623627234,-0.39368639117106796,0.0652763463556766,-0.5312899156163138
-0.3346027433872223,0,-130.9164581298828,0.4765399287371998,-0.40256293055290976,0.06062195375561709,-0.5338948102047048
-0.8999354839324951,-0.48013338446617126,-130.82174682617188,0.4774645628117851,-0.41149451998579833,0.05033413519461945,-0.5378959217419228
-0.8899552226066589,0.48422032594680786,-130.86337280273438,0.47817916709929686,-0.4204591681994498,0.03541837930679316,-0.5378618638962508
1.9348758459091187,0,-130.9501495361328,0.47884203735325054,-0.42938990618619655,0.04412605116764699,-0.5338266945133607
-0.6405882239341736,-0.2662864029407501,-130.96340942382812,0.4796673526242374,-0.43830550987273453,0.05491178135077154,-0.5360457478712003
-1.7079867124557495,0.8803589940071106,-130.83285522460938,0.4804194534983898,-0.4471969617406527,0.03534032354752217,-0.5309284762789807
0.14233295619487762,0,-130.66981506347656,0.48089973293555266,-0.45598463363738523,0.02229320891201491,-0.5235921513289215
-0.48320433497428894,-1.1422430276870728,-130.5857696533203,0.4812476147938932,-0.4647904919253455,0.019452614088853147,-0.5331108432263137
-0.2185320407152176,0.19149626791477203,-130.60171508789062,0.4815230933359512,-0.4737416967263238,0.013604810958107259,-0.5410337328910829
-0.7096228003501892,-0.39617130160331726,-130.69960021972656,0.4816853849879568,-0.482773139151848,0.005870187282562202,-0.5427393581718208
-0.7895110249519348,0.4692176282405853,-130.87034606933594,0.4816791149270202,-0.4918137224598063,-0.006622594594955499,-0.5421306387831769
0.5677064657211304,-0.4991196393966675,-131.08871459960938,0.4815533352560466,-0.5008513096347451,-0.008470965921878869,-0.5423798222094776
0.32613474130630493,-0.17620457708835602,-131.16090393066406,0.4814742247967255,-0.5099378708532701,-0.0010222891966502412,-0.5480075240135194
-0.15928977727890015,0.7493051290512085,-131.0485382080078,0.48146877309928326,-0.519031530937387,0.00036808550357813187,-0.5432316860804957
-0.6592102646827698,0.9390872120857239,-130.86849975585938,0.48141806757698447,-0.5279681429039274,-0.006452748179435783,-0.5291617499043546
0.055436816066503525,-0.30615031719207764,-130.9347381591797,0.4812685930622844,-0.5367435514512989,-0.011484193584571336,-0.5238872757802409
-0.3853820264339447,-0.7135799527168274,-131.18899536132812,0.48105427697404385,-0.5455458206497132,-0.014233737004300012,-0.5323850280294817
-0.45570263266563416,-1.3902260065078735,-131.27854919433594,0.4807586393670903,-0.5545650020862619,-0.021242775830129835,-0.5499167443563543
0,1.2921169996261597,-131.1861572265625,0.48037294708709743,-0.5637370942843457,-0.02504029776901012,-0.5507343194137019
-0.5755962133407593,0.6772473454475403,-131.0458526611328,0.48037294708709743,-0.5637370942843457,-0.02504029776901012,-0.5507343194137019
0.13897529244422913,-0.4614865779876709,-130.908447265625,0.48037294708709743,-0.5637370942843457,-0.02504029776901012,-0.5507343194137019
-0.2682165503501892,0.7145716547966003,-130.8809814453125,0.48037294708709743,-0.5637370942843457,-0.02504029776901012,-0.5507343194137019
0.561086118221283,0.03418734669685364,-130.9235382080078,0.48037294708709743,-0.5637370942843457,-0.02504029776901012,-0.5507343194137019
0.34860554337501526,1.5766100883483887,-131.0287322998047,0.48037294708709743,-0.5637370942843457,-0.02504029776901012,-0.5507343194137019
1.6891400814056396,2.137327194213867,-131.4498291015625,0.48037294708709743,-0.5637370942843457,-0.02504029776901012,-0.5507343194137019
0.5790950059890747,3.057279348373413,-132.3242645263672,0.48037294708709743,-0.5637370942843457,-0.02504029776901012,-0.5507343194137019
1.0205329656600952,1.5667083263397217,-133.4521942138672,0.48037294708709743,-0.5637370942843457,-0.02504029776901012,-0.5507343194137019
0.7333596348762512,1.7159885168075562,-134.80125427246094,0.48037294708709743,-0.5637370942843457,-0.02504029776901012,-0.5507343194137019
0.8030663728713989,1.4349262714385986,-136.27734375,0.48037294708709743,-0.5637370942843457,-0.02504029776901012,-0.5507343194137019
-0.5743399858474731,1.9583210945129395,-137.82806396484375,0.48037294708709743,-0.5637370942843457,-0.02504029776901012,-0.5507343194137019
1.5497366189956665,1.0288987159729004,-139.59463500976562,0.48037294708709743,-0.5637370942843457,-0.02504029776901012,-0.5507343194137019
0.0353899709880352,1.4698145389556885,-141.44400024414062,0.48037294708709743,-0.5637370942843457,-0.02504029776901012,-0.5507343194137019
1.882378101348877,0.9250950217247009,-143.35385131835938,0.48037294708709743,-0.5637370942843457,-0.02504029776901012,-0.5507343194137019
0.2749686539173126,1.3822619915008545,-145.34217834472656,0.48037294708709743,-0.5637370942843457,-0.02504029776901012,-0.5507343194137019
0.5184497833251953,0.5550792813301086,-147.42169189453125,0.48037294708709743,-0.5637370942843457,-0.02504029776901012,-0.5507343194137019
0.013778990134596825,1.2012661695480347,-149.623291015625,0.48037294708709743,-0.5637370942843457,-0.02504029776901012,-0.5507343194137019
2.0447864532470703,-0.054602351039648056,-151.8820343017578,0.48037294708709743,-0.5637370942843457,-0.02504029776901012,-0.5507343194137019
-0.620712161064148,2.045071840286255,-154.24607849121094,0.48037294708709743,-0.5637370942843457,-0.02504029776901012,-0.5507343194137019
1.8656734228134155,0.5114587545394897,-156.57936096191406,0.48037294708709743,-0.5637370942843457,-0.02504029776901012,-0.5507343194137019
-1.2481498718261719,2.8573427200317383,-158.9480438232422,0.48037294708709743,-0.5637370942843457,-0.02504029776901012,-0.5507343194137019
0.45530492067337036,-0.3247767984867096,-161.3612060546875,0.48037294708709743,-0.5637370942843457,-0.02504029776901012,-0.5507343194137019
0.3045063018798828,1.4055390357971191,-163.7966766357422,0.48037294708709743,-0.5637370942843457,-0.02504029776901012,-0.5507343194137019
0.26281508803367615,0.3549671471118927,-166.3115997314453,0.48037294708709743,-0.5637370942843457,-0.02504029776901012,-0.5507343194137019
0.8020510077476501,0.8047279715538025,-168.8257598876953,0.48037294708709743,-0.5637370942843457,-0.02504029776901012,-0.5507343194137019
0.5627368092536926,1.2595722675323486,-171.34860229492188,0.48037294708709743,-0.5637370942843457,-0.02504029776901012,-0.5507343194137019
1.0936778783798218,0.09332635253667831,-173.88185119628906,0.48037294708709743,-0.5637370942843457,-0.02504029776901012,-0.5507343194137019
-0.2405022382736206,0.6730322241783142,-176.4022979736328,0.48037294708709743,-0.5637370942843457,-0.02504029776901012,-0.5507343194137019
-0.005897161550819874,0.6055901646614075,-178.9520721435547,0.48037294708709743,-0.5637370942843457,-0.02504029776901012,-0.5507343194137019
0.27951884269714355,0.41120409965515137,178.50453186035156,0.48037294708709743,-0.5637370942843457,-0.02504029776901012,-0.5507343194137019
0.9232475161552429,0.5783219337463379,175.97889709472656,0.48037294708709743,-0.5637370942843457,-0.02504029776901012,-0.5507343194137019
0.49398621916770935,0.5410853028297424,173.4915008544922,0.48037294708709743,-0.5637370942843457,-0.02504029776901012,-0.5507343194137019
-0.04927133768796921,0.6981775164604187,170.98565673828125,0.48037294708709743,-0.5637370942843457,-0.02504029776901012,-0.5507343194137019
0.4400757849216461,0.1951107680797577,168.5041046142578,0.48037294708709743,-0.5637370942843457,-0.02504029776901012,-0.5507343194137019
0.6178860068321228,0.6995304226875305,166.07662963867188,0.48037294708709743,-0.5637370942843457,-0.02504029776901012,-0.5507343194137019
0.19794215261936188,-0.6098803877830505,163.64251708984375,0.48037294708709743,-0.5637370942843457,-0.02504029776901012,-0.5507343194137019
-0.048591211438179016,1.9709488153457642,161.27532958984375,0.48037294708709743,-0.5637370942843457,-0.02504029776901012,-0.5507343194137019
1.1310007572174072,-1.2288453578948975,158.92066955566406,0.48037294708709743,-0.5637370942843457,-0.02504029776901012,-0.5507343194137019
-0.4081996977329254,0.6851921677589417,156.55389404296875,0.48037294708709743,-0.5637370942843457,-0.02504029776901012,-0.5507343194137019
0.7027255296707153,-0.18861447274684906,154.21795654296875,0.48037294708709743,-0.5637370942843457,-0.02504029776901012,-0.5507343194137019
-0.17182175815105438,0.4749157428741455,151.864501953125,0.48037294708709743,-0.5637370942843457,-0.02504029776901012,-0.5507343194137019
0.5710705518722534,-1.5383784770965576,149.457275390625,0.48037294708709743,-0.5637370942843457,-0.02504029776901012,-0.5507343194137019
0.13630175590515137,2.3230972290039062,147.03134155273438,0.48037294708709743,-0.5637370942843457,-0.02504029776901012,-0.5507343194137019
0.11155709624290466,-2.958202838897705,144.87930297851562,0.48037294708709743,-0.5637370942843457,-0.02504029776901012,-0.5507343194137019
-0.05348379164934158,3.5235159397125244,143.04705810546875,0.48037294708709743,-0.5637370942843457,-0.02504029776901012,-0.5507343194137019
0.529171347618103,-2.7935590744018555,141.62400817871094,0.48037294708709743,-0.5637370942843457,-0.02504029776901012,-0.5507343194137019
-1.7739514112472534,-0.09442368149757385,140.52630615234375,0.48037294708709743,-0.5637370942843457,-0.02504029776901012,-0.5507343194137019
-1.2536416053771973,0.011890240013599396,139.7510986328125,0.48037294708709743,-0.5637370942843457,-0.02504029776901012,-0.5507343194137019
-1.334713339805603,-0.3889860510826111,139.26010131835938,0.48037294708709743,-0.5637370942843457,-0.02504029776901012,-0.5507343194137019
-1.1934733390808105,-0.28968319296836853,139.09762573242188,0.48037294708709743,-0.5637370942843457,-0.02504029776901012,-0.5507343194137019
0.09077896922826767,-0.322750985622406,139.236572265625,0.48037294708709743,-0.5637370942843457,-0.02504029776901012,-0.5507343194137019
0.679465651512146,-0.3569849729537964,139.4308319091797,0.48037294708709743,-0.5637370942843457,-0.02504029776901012,-0.5507343194137019
0.8594773411750793,0.14781875908374786,139.38604736328125,0.48037294708709743,-0.5637370942843457,-0.02504029776901012,-0.5507343194137019
-0.5722675919532776,0.4265002906322479,139.39019775390625,0.48037294708709743,-0.5637370942843457,-0.02504029776901012,-0.5507343194137019
-0.31899526715278625,0.5334811806678772,139.42276000976562,0.48037294708709743,-0.5637370942843457,-0.02504029776901012,-0.5507343194137019
-0.024670422077178955,0.1651017665863037,139.40240478515625,0.48037294708709743,-0.5637370942843457,-0.02504029776901012,-0.5507343194137019
0.26073727011680603,0.10706058144569397,139.4181671142578,0.48037294708709743,-0.5637370942843457,-0.02504029776901012,-0.5507343194137019
-0.0654793232679367,0.08600103855133057,139.4102783203125,0.48037294708709743,-0.5637370942843457,-0.02504029776901012,-0.5507343194137019
-0.11731640249490738,0.440814733505249,139.4148406982422,0.48037294708709743,-0.5637370942843457,-0.02504029776901012,-0.5507343194137019
-0.13456574082374573,0.2004297971725464,139.41421508789062,0.48037294708709743,-0.5637370942843457,-0.02504029776901012,-0.5507343194137019
0.11016365140676498,0.1773529052734375,139.4137420654297,0.48037294708709743,-0.5637370942843457,-0.02504029776901012,-0.5507343194137019
0.015291486866772175,0.1740361750125885,139.41424560546875,0.48037294708709743,-0.5637370942843457,-0.02504029776901012,-0.5507343194137019
-0.12151777744293213,0.26726505160331726,139.41452026367188,0.48037294708709743,-0.5637370942843457,-0.02504029776901012,-0.5507343194137019
-0.0784018486738205,0.2631431221961975,139.4134521484375,0.48037294708709743,-0.5637370942843457,-0.02504029776901012,-0.5507343194137019
0.0073841642588377,0.16551928222179413,139.4134063720703,0.48037294708709743,-0.5637370942843457,-0.02504029776901012,-0.5507343194137019
0.016140075400471687,0.1974361389875412,139.41270446777344,0.48037294708709743,-0.5637370942843457,-0.02504029776901012,-0.5507343194137019
-0.07350622862577438,0.24590162932872772,139.41351318359375,0.48037294708709743,-0.5637370942843457,-0.02504029776901012,-0.5507343194137019
-0.06809104233980179,0.22446510195732117,139.41156005859375,0.48037294708709743,-0.5637370942843457,-0.02504029776901012,-0.5507343194137019
-0.00013126322301104665,0.20005586743354797,139.41172790527344,0.48037294708709743,-0.5637370942843457,-0.02504029776901012,-0.5507343194137019
-0.0001527536369394511,0.19119219481945038,139.41151428222656,0.48037294708709743,-0.5637370942843457,-0.02504029776901012,-0.5507343194137019
-0.05085737630724907,0.24158906936645508,139.41209411621094,0.47995206642081223,-0.57288594535345,-0.02546538218521169,-0.5471278088788193
0,0.23116791248321533,139.4115447998047,0.4795241116221485,-0.5819719118221353,-0.02588919365443877,-0.5431881673634054
-0.0753227099776268,0.302585244178772,139.4077606201172,0.4790873943174927,-0.5909879817534238,-0.026516882904252324,-0.5387402243912222
-0.33258527517318726,0.5626713633537292,139.4002227783203,0.47861711932567524,-0.5999068982288656,-0.029916116113842442,-0.5315297526617846
-0.8294939398765564,1.145571231842041,139.5034942626953,0.478037817444955,-0.6086470994818955,-0.0396001095725903,-0.5172943977018198
-2.3628275394439697,2.1387569904327393,139.62875366210938,0.4771561266271257,-0.6170405944281568,-0.06620278856692802,-0.48992499584953003
-2.5710270404815674,1.0851322412490845,139.60182189941406,0.4757101180274043,-0.6249821298290045,-0.10731824339964083,-0.4630592522521815
0.5364606380462646,1.6493074893951416,139.50967407226562,0.47378019130390786,-0.6325098923852461,-0.12427296341993502,-0.44027225449681295
-1.293802261352539,0,139.48426818847656,0.47165638207862376,-0.6397332280512072,-0.13058414361415396,-0.4265280254185201
-1.5152699947357178,1.356564998626709,139.4132843017578,0.4692849052228262,-0.6467478225721668,-0.1539930790815561,-0.41522331709663085
-1.359089732170105,2.578685760498047,139.36907958984375,0.46651874559043177,-0.653394929887727,-0.1779460768057713,-0.3824295607705912
-0.6046899557113647,1.8007574081420898,139.3458251953125,0.4634166040542327,-0.659464627902748,-0.19431090753811686,-0.3459342010319234
-1.5016357898712158,-0.42265981435775757,139.32266235351562,0.4600318163073764,-0.665134496698156,-0.21186362208463838,-0.33445005441705394
-0.4415898323059082,1.4343386888504028,139.31602478027344,0.45636580971553675,-0.6706384087943783,-0.2280571689361144,-0.32601939712961525
-1.956821322441101,0.303012877702713,139.48634338378906,0.45239830056974406,-0.6759514159988612,-0.24804392855900614,-0.31154146740833927
-0.10680896043777466,1.0544263124465942,139.60855102539062,0.44812092743522736,-0.6810495071785732,-0.26524084758299676,-0.30022947415709506
-1.0189484357833862,0.5052070021629333,139.76077270507812,0.4436220690452176,-0.685945023878788,-0.2746221592181731,-0.2872325298686823
-0.43652889132499695,0.8566312193870544,139.94949340820312,0.43894395824386556,-0.6906376606112139,-0.28675113694407633,-0.2758838780224324
-0.2745949923992157,-0.23400473594665527,140.06285095214844,0.43411538902509456,-0.6951924872946822,-0.2926771693084448,-0.27069532399376245
-1.4153122901916504,1.5212559700012207,140.1863250732422,0.429120081530885,-0.6996146835811022,-0.306759729996702,-0.2599682303766411
-0.3291165232658386,0.5746155977249146,140.2517547607422,0.4238862784744499,-0.7038019407840653,-0.3212966367755144,-0.24250263397892327
-0.34777700901031494,0.907766580581665,140.27978515625,0.41848432803289437,-0.7077407081435538,-0.326937416211149,-0.23014944915970179
-1.5155400037765503,1.0926246643066406,140.04519653320312,0.412905974081265,-0.7114376162375428,-0.3424650579843729,-0.2134795221189659
-0.12345092743635178,1.0139579772949219,139.8910675048828,0.4070844043001912,-0.7148493178116365,-0.3561233157444804,-0.1959246667722862
0,0.12574224174022675,139.93392944335938,0.4011404427233779,-0.7180355830759638,-0.35715207347311667,-0.1864271649469933
0.28650540113449097,0.4435899555683136,139.95704650878906,0.39520780437390474,-0.7211031655336007,-0.3547645284636626,-0.1816827299694221
-0.7846505641937256,0.12852348387241364,139.988037109375,0.3892604688187424,-0.7240914809331298,-0.35891573815582284,-0.17691511797408271
-0.7255496978759766,1.0690443515777588,140.0942840576172,0.3831736648312794,-0.7269569017996804,-0.371500740339737,-0.16693538601199795
-0.7851374745368958,0.06522995233535767,140.21646118164062,0.37687707699419953,-0.7296603891843308,-0.3840898001098443,-0.15748310014605532
-0.10386715829372406,0.5684506893157959,140.08267211914062,0.3704138438928667,-0.7322411019199838,-0.39149817205009946,-0.1522024281322957
-0.16739170253276825,0,139.9044647216797,0.3638700369378076,-0.7347383333132085,-0.3937586625569869,-0.14746533905466408
-0.3919951915740967,0.786928653717041,139.8516845703125,0.35726854624976706,-0.7371414411409447,-0.3984202200078774,-0.14090760027368873
0.27780815958976746,0,139.9679718017578,0.3506202795946369,-0.7394352533223314,-0.3993717786077468,-0.13434986149271338
0,0.6365376710891724,140.05490112304688,0.3439833755178126,-0.7416302136756066,-0.39705671061116543,-0.12904538090030362
-0.31957995891571045,0.24055716395378113,140.07171630859375,0.3373435706215907,-0.7437200606604003,-0.399719876935463,-0.12173625727494568
-0.4663430452346802,-0.3291526734828949,140.0109405517578,0.330626994686267,-0.7457551507475889,-0.40626923530338294,-0.1224745531876883
-0.5496866106987,0.699681282043457,140.0392608642578,0.3237852831495486,-0.7477706621473448,-0.41473614910282774,-0.11938681478301695
-0.11171077936887741,0.369793564081192,140.13143920898438,0.3168270836235245,-0.749686173307192,-0.4202477940200576,-0.11047452439864487
-0.31518882513046265,0.368794709444046,140.17869567871094,0.30979330791732224,-0.7514761245281746,-0.42380529072421874,-0.10431962211926789
1.0678701400756836,0.6385564804077148,140.06423950195312,0.302782155941012,-0.7531448299530893,-0.4175329464330086,-0.09592502887050322
-0.4144115746021271,0.5136984586715698,139.80633544921875,0.2958686525675086,-0.7546635627301617,-0.41208745838739563,-0.08632290437817584
-0.7056448459625244,1.1886234283447266,139.74583435058594,0.28892274656517947,-0.7559840610054218,-0.42142126189210105,-0.07213688865304003
-0.8540490865707397,-0.08001155406236649,139.88597106933594,0.28179074678832966,-0.7571093555472584,-0.43441871132987825,-0.0628984563673537
0.7101370096206665,-0.16815969347953796,140.07167053222656,0.27454044103859904,-0.7581748972677936,-0.4356179786377955,-0.06496655009686957
0.3739429712295532,0.6431829333305359,140.19361877441406,0.26735542472663926,-0.7592246853777518,-0.42658397879737703,-0.06100802309811125
-0.8883396983146667,0.11649662256240845,140.30975341796875,0.2602099697517465,-0.7601887302380055,-0.430870618189753,-0.05467736013233671
-0.46884921193122864,0.1321888267993927,140.31182861328125,0.2529345435520391,-0.761082749750672,-0.44218052577513545,-0.052604981387655035
0,0.33490726351737976,140.16619873046875,0.24553230914940272,-0.761927062211972,-0.44608760254122903,-0.048712513968348595
0.3676129877567291,-0.4160940945148468,139.9766387939453,0.2381230444534209,-0.7627445754191526,-0.44302416097658964,-0.04938907089332749
0.3213728666305542,1.0218183994293213,139.89036560058594,0.2307871546770324,-0.7635256624128668,-0.43728261219002895,-0.04434136835237353
-0.21609418094158173,0.8078234195709229,139.98660278320312,0.22350642216037142,-0.7641376267590869,-0.4364052898092875,-0.029094353194038164
-0.3738850951194763,-0.4440169930458069,140.1134033203125,0.21619202988049016,-0.7645972683104789,-0.441321783776463,-0.02606263297299553
-0.5359288454055786,0,140.23023986816406,0.20877348529390155,-0.7650624800401015,-0.44890356661417175,-0.029762774581710588
0.07208001613616943,0.4163788855075836,140.16046142578125,0.20125954745941055,-0.7655296110827475,-0.45276897352475015,-0.02629295053581406
0.9176487326622009,-0.09110811352729797,139.95127868652344,0.1937821290637757,-0.765945238676957,-0.4445212339514304,-0.023582360769311677
-1.2098520994186401,0.8258781433105469,139.8697052001953,0.18635314993078267,-0.7662872523265994,-0.44695626200773403,-0.017459277187784603
1.0908914804458618,0.7839101552963257,140.00210571289062,0.1788956177432251,-0.7664664494256592,-0.44794760049917387,-0.0040443746993939975
-0.35662367939949036,0.20418179035186768,140.11825561523438,0.17148081522108932,-0.7664652381744236,-0.4418287021571208,0.00418972484767428
-0.6707601547241211,-2.269948720932007,140.23617553710938,0.16404565741887872,-0.7665388654638082,-0.4503902341081509,-0.01302499957382688
0,1.2931348085403442,140.3680419921875,0.15649257295077593,-0.7668237830895103,-0.4559799020641852,-0.02116511551042407
-0.09166083484888077,0,140.51548767089844,0.14888654258061945,-0.7670867339863131,-0.45674374235459253,-0.0103889921059212
0,0.3018460273742676,140.50730895996094,0.1412677815389562,-0.7672389223250664,-0.45750758264499986,-0.00787360854446897
0.8703738451004028,1.1025642156600952,140.40257263183594,0.13370309778967152,-0.7672726206450413,-0.4502544672691632,0.003829810147484052
-0.5618850588798523,-0.0024766430724412203,140.20509338378906,0.13370309778967152,-0.7672726206450413,-0.4502544672691632,0.003829810147484052
-0.923725426197052,1.1545037031173706,140.179931640625,0.13370309778967152,-0.7672726206450413,-0.4502544672691632,0.003829810147484052
-0.17479681968688965,-1.0283656120300293,140.44351196289062,0.13370309778967152,-0.7672726206450413,-0.4502544672691632,0.003829810147484052
0.5551357269287109,-0.7930194139480591,140.71011352539062,0.13370309778967152,-0.7672726206450413,-0.4502544672691632,0.003829810147484052
2.0271522998809814,-0.1418396383523941,140.73599243164062,0.13370309778967152,-0.7672726206450413,-0.4502544672691632,0.003829810147484052
1.897718906402588,-0.7479231357574463,140.31187438964844,0.13370309778967152,-0.7672726206450413,-0.4502544672691632,0.003829810147484052
2.1286535263061523,-1.3380329608917236,139.5838165283203,0.13370309778967152,-0.7672726206450413,-0.4502544672691632,0.003829810147484052
1.6260939836502075,-0.8087464570999146,138.56393432617188,0.13370309778967152,-0.7672726206450413,-0.4502544672691632,0.003829810147484052
2.289789915084839,-1.6148958206176758,137.2928009033203,0.13370309778967152,-0.7672726206450413,-0.4502544672691632,0.003829810147484052
0.9782432317733765,0.29034891724586487,135.79269409179688,0.13370309778967152,-0.7672726206450413,-0.4502544672691632,0.003829810147484052
1.009264588356018,-0.4183382987976074,134.17361450195312,0.13370309778967152,-0.7672726206450413,-0.4502544672691632,0.003829810147484052
1.275673270225525,-0.3029133975505829,132.39915466308594,0.13370309778967152,-0.7672726206450413,-0.4502544672691632,0.003829810147484052
1.6600840091705322,-1.5314724445343018,130.50762939453125,0.13370309778967152,-0.7672726206450413,-0.4502544672691632,0.003829810147484052
1.515095829963684,-0.8586090207099915,128.56936645507812,0.13370309778967152,-0.7672726206450413,-0.4502544672691632,0.003829810147484052
0.7449610233306885,-0.5357744097709656,126.519775390625,0.13370309778967152,-0.7672726206450413,-0.4502544672691632,0.003829810147484052
0.5192095041275024,-0.4176732897758484,124.38755798339844,0.13370309778967152,-0.7672726206450413,-0.4502544672691632,0.003829810147484052
0.5735723972320557,0.22285692393779755,122.19343566894531,0.13370309778967152,-0.7672726206450413,-0.4502544672691632,0.003829810147484052
1.3651257753372192,-1.7302229404449463,119.90925598144531,0.13370309778967152,-0.7672726206450413,-0.4502544672691632,0.003829810147484052
1.5140875577926636,0.17961296439170837,117.53751373291016,0.13370309778967152,-0.7672726206450413,-0.4502544672691632,0.003829810147484052
0.5029277205467224,-1.052154541015625,115.10993194580078,0.13370309778967152,-0.7672726206450413,-0.4502544672691632,0.003829810147484052
1.9521881341934204,0.5905949473381042,112.63025665283203,0.13370309778967152,-0.7672726206450413,-0.4502544672691632,0.003829810147484052
-0.7731693387031555,-1.3618773221969604,110.19699096679688,0.13370309778967152,-0.7672726206450413,-0.4502544672691632,0.003829810147484052
1.7479935884475708,0.6578425765037537,107.81959533691406,0.13370309778967152,-0.7672726206450413,-0.4502544672691632,0.003829810147484052
-0.23920130729675293,-2.627234697341919,105.4413070678711,0.13370309778967152,-0.7672726206450413,-0.4502544672691632,0.003829810147484052
0.25102049112319946,0.667620062828064,103.0933837890625,0.13370309778967152,-0.7672726206450413,-0.4502544672691632,0.003829810147484052
1.3895097970962524,0.37724846601486206,100.70414733886719,0.13370309778967152,-0.7672726206450413,-0.4502544672691632,0.003829810147484052
0.08927848190069199,0.6568301320075989,98.33588409423828,0.13370309778967152,-0.7672726206450413,-0.4502544672691632,0.003829810147484052
0.21451984345912933,-1.623872995376587,95.93177032470703,0.13370309778967152,-0.7672726206450413,-0.4502544672691632,0.003829810147484052
1.666048526763916,-0.20097953081130981,93.4599838256836,0.13370309778967152,-0.7672726206450413,-0.4502544672691632,0.003829810147484052
0.5894615650177002,-0.4042328894138336,91.06463623046875,0.13370309778967152,-0.7672726206450413,-0.4502544672691632,0.003829810147484052
-0.16909544169902802,-1.046090841293335,88.65421295166016,0.13370309778967152,-0.7672726206450413,-0.4502544672691632,0.003829810147484052
1.3694480657577515,0.11389482766389847,86.33670043945312,0.13370309778967152,-0.7672726206450413,-0.4502544672691632,0.003829810147484052
0.20742227137088776,0.09383825212717056,84.04267120361328,0.13370309778967152,-0.7672726206450413,-0.4502544672691632,0.003829810147484052
1.0276304483413696,0.8319528698921204,81.80429077148438,0.13370309778967152,-0.7672726206450413,-0.4502544672691632,0.003829810147484052
-0.3334801197052002,-1.391446828842163,79.43216705322266,0.13370309778967152,-0.7672726206450413,-0.4502544672691632,0.003829810147484052
0.8502839803695679,-0.5363820195198059,77.0030517578125,0.13370309778967152,-0.7672726206450413,-0.4502544672691632,0.003829810147484052
-1.0676851272583008,-0.9847273230552673,74.52904510498047,0.13370309778967152,-0.7672726206450413,-0.4502544672691632,0.003829810147484052
0.6588642001152039,-0.19433021545410156,71.97565460205078,0.13370309778967152,-0.7672726206450413,-0.4502544672691632,0.003829810147484052
0.3752857446670532,-0.19725362956523895,69.36053466796875,0.13370309778967152,-0.7672726206450413,-0.4502544672691632,0.003829810147484052
0.6192065477371216,-0.6447792053222656,66.7285385131836,0.13370309778967152,-0.7672726206450413,-0.4502544672691632,0.003829810147484052
0.3103809356689453,-0.24326267838478088,64.01614379882812,0.13370309778967152,-0.7672726206450413,-0.4502544672691632,0.003829810147484052
-1.0889272689819336,-0.26119527220726013,61.243492126464844,0.13370309778967152,-0.7672726206450413,-0.4502544672691632,0.003829810147484052
-0.2283933162689209,-0.9257320165634155,58.431312561035156,0.13370309778967152,-0.7672726206450413,-0.4502544672691632,0.003829810147484052
1.6716961860656738,0.17778442800045013,55.848636627197266,0.13370309778967152,-0.7672726206450413,-0.4502544672691632,0.003829810147484052
-0.17486193776130676,1.0555777549743652,53.743568420410156,0.13370309778967152,-0.7672726206450413,-0.4502544672691632,0.003829810147484052
0.931119441986084,0.45676854252815247,51.99284744262695,0.13370309778967152,-0.7672726206450413,-0.4502544672691632,0.003829810147484052
-1.279141902923584,1.4710215330123901,50.77955627441406,0.13370309778967152,-0.7672726206450413,-0.4502544672691632,0.003829810147484052
-0.7362530827522278,1.6219452619552612,49.84236526489258,0.13370309778967152,-0.7672726206450413,-0.4502544672691632,0.003829810147484052
-0.8457604646682739,0.3635586202144623,49.36162567138672,0.13370309778967152,-0.7672726206450413,-0.4502544672691632,0.003829810147484052
-0.7934832572937012,1.4158730506896973,49.327171325683594,0.13370309778967152,-0.7672726206450413,-0.4502544672691632,0.003829810147484052
0.1710011065006256,-0.9321224093437195,49.39208984375,0.13370309778967152,-0.7672726206450413,-0.4502544672691632,0.003829810147484052
-0.29451826214790344,0.34277719259262085,49.35824966430664,0.13370309778967152,-0.7672726206450413,-0.4502544672691632,0.003829810147484052
0.560797393321991,-0.3777429759502411,49.39223861694336,0.13370309778967152,-0.7672726206450413,-0.4502544672691632,0.003829810147484052
-0.35911110043525696,0.28887903690338135,49.37928009033203,0.13370309778967152,-0.7672726206450413,-0.4502544672691632,0.003829810147484052
0.5386484265327454,-0.09544670581817627,49.38716125488281,0.13370309778967152,-0.7672726206450413,-0.4502544672691632,0.003829810147484052
-0.014820915646851063,0.2327742874622345,49.39608383178711,0.13370309778967152,-0.7672726206450413,-0.4502544672691632,0.003829810147484052
0.3360382616519928,0.055097296833992004,49.38557052612305,0.13370309778967152,-0.7672726206450413,-0.4502544672691632,0.003829810147484052
0.06526543945074081,0.06881587952375412,49.39268112182617,0.13370309778967152,-0.7672726206450413,-0.4502544672691632,0.003829810147484052
0.11475901305675507,-0.006002356763929129,49.387977600097656,0.13370309778967152,-0.7672726206450413,-0.4502544672691632,0.003829810147484052
0.14004218578338623,-0.005443137604743242,49.38932800292969,0.13370309778967152,-0.7672726206450413,-0.4502544672691632,0.003829810147484052
0.1335507035255432,0.08107665926218033,49.39223861694336,0.13370309778967152,-0.7672726206450413,-0.4502544672691632,0.003829810147484052
0.20053723454475403,0.07497819513082504,49.391788482666016,0.13370309778967152,-0.7672726206450413,-0.4502544672691632,0.003829810147484052
0.14850156009197235,0.040625810623168945,49.39545822143555,0.13370309778967152,-0.7672726206450413,-0.4502544672691632,0.003829810147484052
0.1278657764196396,0.03483793884515762,49.39329147338867,0.13370309778967152,-0.7672726206450413,-0.4502544672691632,0.003829810147484052
0.12466508895158768,0.030295355245471,49.3945426940918,0.13370309778967152,-0.7672726206450413,-0.4502544672691632,0.003829810147484052
0.14240270853042603,0.06529778987169266,49.39506530761719,0.13370309778967152,-0.7672726206450413,-0.4502544672691632,0.003829810147484052
0.15900327265262604,0.05865753814578056,49.39569091796875,0.13370309778967152,-0.7672726206450413,-0.4502544672691632,0.003829810147484052
0.14636069536209106,0.04449449107050896,49.395713806152344,0.13370309778967152,-0.7672726206450413,-0.4502544672691632,0.003829810147484052
0.13537611067295074,0.03353217989206314,49.395347595214844,0.13370309778967152,-0.7672726206450413,-0.4502544672691632,0.003829810147484052
0.13997381925582886,0.02877258136868477,49.396018981933594,0.13370309778967152,-0.7672726206450413,-0.4502544672691632,0.003829810147484052
0.14022764563560486,0.05424302816390991,49.395565032958984,0.1262183151035807,-0.7672030255030323,-0.4479194550617346,0.0045216068935890075
0.4234130084514618,0.5615471005439758,49.3895263671875,0.11879213256464116,-0.7670849021847567,-0.44322244961100904,0.009653191299488054
1.2133500576019287,0.9880533218383789,49.40766906738281,0.11151875583960028,-0.7668164045226553,-0.42958275739389745,0.022566528152674344
1.8254320621490479,3.1485376358032227,49.543556213378906,0.10457006975246247,-0.7661530324591634,-0.4042595730626393,0.057038119466354356
2.673577308654785,1.8078237771987915,49.70326614379883,0.09814484140772431,-0.7648582053699324,-0.36676782830594074,0.09834113124137114
0.6233842968940735,0.6674174070358276,49.724334716796875,0.09226099993634397,-0.7630472947670044,-0.33929314825970025,0.11896814110999297
1.1545559167861938,1.0402299165725708,49.724945068359375,0.0867295822024101,-0.7609459057954762,-0.3244769798123647,0.1331985354733963
1.1100269556045532,1.024044156074524,49.87704849243164,0.08147889523834227,-0.7585825778380968,-0.30560545587577514,0.15040081941212208
0.6082671284675598,1.9579768180847168,50.08159255981445,0.07650479695180658,-0.7558688127246893,-0.29128633850850755,0.17525099419678242
1.0418015718460083,0.5783266425132751,50.050785064697266,0.0717646127475199,-0.7527718306366459,-0.27753576600589447,0.19638685636843234
1.5077341794967651,0.4918774664402008,50.132789611816406,0.0673160677412649,-0.7494243966340502,-0.2562896347447047,0.20530522394304462
0.6497668623924255,1.618580937385559,50.268089294433594,0.06319440029009546,-0.7458560832902894,-0.2383104593956281,0.22289237730825928
0.05855267494916916,1.0524154901504517,50.38453674316406,0.05927174815692816,-0.7419557244721284,-0.23240779658444813,0.24515068087105937
1.0431028604507446,-1.1236951351165771,50.25830841064453,0.05547478873714568,-0.7378748297662889,-0.22322733378944884,0.244556683829675
0.9562826156616211,1.4317656755447388,50.20137405395508,0.05189317938760712,-0.7337774912482646,-0.20656578815517912,0.247123938333243
0.10831831395626068,1.8621714115142822,50.12884521484375,0.048524346871799816,-0.7294300133116648,-0.19769411374169676,0.27457341405873487
0,-0.2198493331670761,50.02872085571289,0.04523696708124072,-0.7247397395996895,-0.19679146112539458,0.2882594313782949
1.37710440158844,1.4951295852661133,50.169254302978516,0.04205274164592778,-0.7198468546147666,-0.1853155911121576,0.2988867668124536
0.31651580333709717,-0.3630319833755493,50.375308990478516,0.039081760974956095,-0.7147867906122055,-0.17120208940444478,0.30832091349487495
0.4498102366924286,0.20865705609321594,50.646759033203125,0.03628160990432851,-0.7096588292016855,-0.1648160390708654,0.3070344557675222
0.26070982217788696,1.2033555507659912,50.843074798583984,0.03358401759056897,-0.7044435318411949,-0.15889503858027942,0.3188012274913489
1.1349378824234009,1.3522629737854004,50.898677825927734,0.031032686927050513,-0.698952704541023,-0.14726464104193537,0.34009804852927716
1.036466360092163,-0.27035826444625854,50.87445831298828,0.02872906820430406,-0.6932092714607199,-0.12916960568763902,0.3491139211071033
0.32098373770713806,0.19811512529850006,50.84275817871094,0.02667050881074614,-0.6873957229935979,-0.1178575215393115,0.34851189494753865
0,0.27815285325050354,50.71678924560547,0.02472850732243172,-0.6815541172459618,-0.1151826570584187,0.35248079476878036
0.7730923295021057,0.17543375492095947,50.595550537109375,0.02286248333878461,-0.675647938263137,-0.10874022097923448,0.3562606831702092
0.05312300845980644,0.3212779760360718,50.606414794921875,0.021107522387600282,-0.6696757663400947,-0.10185509316288521,0.3603999475948511
-0.0732310339808464,0.4292256236076355,50.61625671386719,0.019408541110891013,-0.6636169822413164,-0.10202266004222721,0.3666541442585487
0.9572628736495972,0.15348070859909058,50.67243194580078,0.017769554543497556,-0.6574656141194929,-0.09465572804498762,0.3715100303602714
0.4169059693813324,0.7869920134544373,50.785099029541016,0.016287387467958242,-0.6512084696744569,-0.08320432101972987,0.3793473030440508
1.1939774751663208,0.13822171092033386,50.7141227722168,0.015012515690167443,-0.6448217636706411,-0.0697802923151661,0.38705741741384053
-0.051038067787885666,-0.42540261149406433,50.47000503540039,0.013928881610427065,-0.6383907498318392,-0.06025579725367913,0.3846642432423928
0.38147372007369995,0.6041105389595032,50.291805267333984,0.012947565243163373,-0.6319672688383919,-0.057502166817964016,0.3861534759712714
-0.2562379539012909,0.28686919808387756,50.208580017089844,0.011997892724403722,-0.6254695039793539,-0.05645853543319394,0.3935783071132996
0.6665903329849243,-0.33224865794181824,50.266441345214844,0.01108541382684241,-0.6189130168788446,-0.05303893227416367,0.39320014494781674
-0.7930384278297424,1.08927583694458,50.32077407836914,0.010192650504575459,-0.6123071097978391,-0.054092666397870484,0.3995087047728398
0.925624668598175,-0.5072175860404968,50.34739303588867,0.009300313442442093,-0.6056082106730901,-0.052987781058133544,0.4043591901970405
0.7321266531944275,0.12348226457834244,50.43478012084961,0.008532305377708797,-0.5988955391226854,-0.039173186709861856,0.4011613958515225
0.1643734574317932,0.9616101980209351,50.59041213989258,0.007941675884671253,-0.5921341622152574,-0.03170235245464335,0.4102038330398498
-0.22188352048397064,-0.18018966913223267,50.71790313720703,0.007409309589381907,-0.5852431663500871,-0.03218160298007816,0.416715670780589
0.8037933111190796,-0.2600005865097046,50.683834075927734,0.006913359941841376,-0.5783284739381636,-0.027332354724785585,0.41304741865023953
-0.16287678480148315,0,50.53630447387695,0.0065023287885336714,-0.5714624058902783,-0.02199138367213895,0.410880747095992
-0.2522505819797516,0.7046037912368774,50.38657760620117,0.0061069774379715475,-0.5645654626198425,-0.025450778395315905,0.4167524453562993
0.10121358186006546,0.38765424489974976,50.407691955566406,0.005672309117485749,-0.5575437372780614,-0.026709420062979956,0.42585459565743783
0.49746832251548767,0.3116256296634674,50.60801315307617,0.0052687272486843855,-0.5503975995813706,-0.02172040419318368,0.4316819279454646
0.07169628888368607,0,50.90003204345703,0.004946245832367378,-0.5431812601135528,-0.01697736576485723,0.4342788081926602
-0.15358282625675201,1.1385136842727661,51.095008850097656,0.004657603171191072,-0.5358642165267118,-0.017659753576299446,0.44376642222826657
1.1032497882843018,-0.8265434503555298,51.032310485839844,0.004429223039504661,-0.5284464448899965,-0.009745862226069865,0.44636617417757685
0.8007912039756775,0.27062302827835083,50.97704315185547,0.00439901707131044,-0.52104561423857,0.006121146042763294,0.44173350399360034
-0.5235838890075684,0,50.93183898925781,0.004520286680007058,-0.5136645959061573,0.00843120700083087,0.44398869589591994
-0.07154285162687302,-0.4069002866744995,50.89850616455078,0.00461947855081018,-0.5062930412722444,0.003471817495543858,0.44059786017363245
-0.5064322352409363,0.6672208309173584,50.9620361328125,0.004637205016925647,-0.49893166578711146,-0.001344641561687886,0.44276719804232295
2.4590442180633545,-0.42333877086639404,50.982566833496094,0.004750392378593517,-0.49153527623223586,0.014927124961832265,0.44479954854274767
-1.3341642618179321,0.07606889307498932,51.113197326660156,0.005077294458252209,-0.4841460663869256,0.024301124597210785,0.441905632894486
0.6022434830665588,-1.3125313520431519,50.9763069152832,0.005431485369681321,-0.4768668379538903,0.018201784774282675,0.4316017790697513
0.3309817910194397,0.5010771155357361,50.82656478881836,0.005799655759953115,-0.4697298259580408,0.02597866205833266,0.42483966043218946
-0.5026239156723022,0.3581969439983368,50.772178649902344,0.006220713868935544,-0.4625894931411478,0.024548311019558806,0.4320002775949734
0.5466616749763489,-0.13636966049671173,50.79572677612305,0.0066329105636576385,-0.4553740838420995,0.024915292347092527,0.43384883829082027
-0.5359517335891724,0.9649462103843689,50.855587005615234,0.007048909182038846,-0.4480857298323992,0.02500454185865233,0.4407536428732174
0.06949099898338318,0,50.87611770629883,0.007433258439779871,-0.44067282563101334,0.021117369070270755,0.44879486129308716
0.7729122042655945,-0.660121738910675,50.892494201660156,0.007843714813398897,-0.4332387530635529,0.028137395764012234,0.4432938468021649
-0.057499635964632034,0.47113004326820374,50.98540115356445,0.00836235283782,-0.42586364670682536,0.034099167166520256,0.4417189160051443
-0.6521779298782349,0.1353248655796051,51.08599090576172,0.008881389126300696,-0.41845954984918077,0.02818518745116303,0.4467727069122094
1.2174463272094727,-0.35346725583076477,51.05337142944336,0.009390397000301415,-0.4110284868444114,0.032895757428923346,0.4449548536601164
-0.47103551030158997,0.15737783908843994,50.861148834228516,0.009990493708624296,-0.4036261899373499,0.039115847569822365,0.4433207751872637
0.10613317042589188,-0.1346634030342102,50.747379302978516,0.010617084061185523,-0.3962359329595028,0.03607499473752488,0.44351006215438227
1.0949621200561523,2.2693872451782227,50.87921905517578,0.011301743368649968,-0.38869585387900313,0.04608412215820858,0.4612994275055824
-0.8164432048797607,-1.8699510097503662,51.08183670043945,0.01208915366261847,-0.38097979145978317,0.04840511311801185,0.46462806280081453
0.6266846656799316,0.6671659350395203,51.29770278930664,0.01208915366261847,-0.38097979145978317,0.04840511311801185,0.46462806280081453
0.04834938794374466,0.05783919245004654,51.34086990356445,0.01208915366261847,-0.38097979145978317,0.04840511311801185,0.46462806280081453
0.03627391532063484,-1.750166893005371,51.21244812011719,0.01208915366261847,-0.38097979145978317,0.04840511311801185,0.46462806280081453
-0.765114426612854,-0.5265200138092041,50.891963958740234,0.01208915366261847,-0.38097979145978317,0.04840511311801185,0.46462806280081453
-2.9652183055877686,-2.5274579524993896,50.270042419433594,0.01208915366261847,-0.38097979145978317,0.04840511311801185,0.46462806280081453
1.1403437852859497,-1.5776664018630981,49.457149505615234,0.01208915366261847,-0.38097979145978317,0.04840511311801185,0.46462806280081453
-2.1401100158691406,-1.753646969795227,48.457496643066406,0.01208915366261847,-0.38097979145978317,0.04840511311801185,0.46462806280081453
0.7107923626899719,-1.1219024658203125,47.31418991088867,0.01208915366261847,-0.38097979145978317,0.04840511311801185,0.46462806280081453
-0.6543973684310913,-1.618748426437378,45.92558288574219,0.01208915366261847,-0.38097979145978317,0.04840511311801185,0.46462806280081453
-1.6593884229660034,-1.942347526550293,44.39493942260742,0.01208915366261847,-0.38097979145978317,0.04840511311801185,0.46462806280081453
0.7879365682601929,-0.6809456944465637,42.76792907714844,0.01208915366261847,-0.38097979145978317,0.04840511311801185,0.46462806280081453
-2.6414072513580322,-1.6278504133224487,41.093971252441406,0.01208915366261847,-0.38097979145978317,0.04840511311801185,0.46462806280081453
0.2574973702430725,-1.323774814605713,39.2261848449707,0.01208915366261847,-0.38097979145978317,0.04840511311801185,0.46462806280081453
-1.5867934226989746,-1.4424179792404175,37.261390686035156,0.01208915366261847,-0.38097979145978317,0.04840511311801185,0.46462806280081453
-1.391088843345642,-0.3943825364112854,35.17609405517578,0.01208915366261847,-0.38097979145978317,0.04840511311801185,0.46462806280081453
-0.19842560589313507,-0.7667637467384338,33.08527374267578,0.01208915366261847,-0.38097979145978317,0.04840511311801185,0.46462806280081453
-0.3770994544029236,-0.4869345426559448,30.939769744873047,0.01208915366261847,-0.38097979145978317,0.04840511311801185,0.46462806280081453
-0.6794375777244568,-1.3212369680404663,28.758481979370117,0.01208915366261847,-0.38097979145978317,0.04840511311801185,0.46462806280081453
-1.062524676322937,-0.593515157699585,26.51020050048828,0.01208915366261847,-0.38097979145978317,0.04840511311801185,0.46462806280081453
-0.8418831825256348,-1.3694020509719849,24.290283203125,0.01208915366261847,-0.38097979145978317,0.04840511311801185,0.46462806280081453
-0.13741454482078552,-0.3217991888523102,22.019834518432617,0.01208915366261847,-0.38097979145978317,0.04840511311801185,0.46462806280081453
-0.04446094483137131,-0.6309061646461487,19.762428283691406,0.01208915366261847,-0.38097979145978317,0.04840511311801185,0.46462806280081453
-0.5018098950386047,0.5621626973152161,17.53056526184082,0.01208915366261847,-0.38097979145978317,0.04840511311801185,0.46462806280081453
-1.7838749885559082,-0.08058195561170578,15.291839599609375,0.01208915366261847,-0.38097979145978317,0.04840511311801185,0.46462806280081453
0.27196064591407776,-0.8059545755386353,13.113434791564941,0.01208915366261847,-0.38097979145978317,0.04840511311801185,0.46462806280081453
0.9204187989234924,-1.309664249420166,10.912230491638184,0.01208915366261847,-0.38097979145978317,0.04840511311801185,0.46462806280081453
-1.2510515451431274,0.1018138974905014,8.747406959533691,0.01208915366261847,-0.38097979145978317,0.04840511311801185,0.46462806280081453
0.5916362404823303,-2.2821197509765625,6.49862813949585,0.01208915366261847,-0.38097979145978317,0.04840511311801185,0.46462806280081453
-1.9626829624176025,1.318865180015564,4.183815956115723,0.01208915366261847,-0.38097979145978317,0.04840511311801185,0.46462806280081453
0.31266939640045166,-1.842159390449524,1.7990585565567017,0.01208915366261847,-0.38097979145978317,0.04840511311801185,0.46462806280081453
-1.249535083770752,0.46852198243141174,-0.6667248010635376,0.01208915366261847,-0.38097979145978317,0.04840511311801185,0.46462806280081453
-0.01778271049261093,-1.6091666221618652,-3.099552631378174,0.01208915366261847,-0.38097979145978317,0.04840511311801185,0.46462806280081453
-0.15792454779148102,0.4036872088909149,-5.595152378082275,0.01208915366261847,-0.38097979145978317,0.04840511311801185,0.46462806280081453
0.48278531432151794,-1.2622636556625366,-8.091181755065918,0.01208915366261847,-0.38097979145978317,0.04840511311801185,0.46462806280081453
-1.1731021404266357,0.6414915919303894,-10.575204849243164,0.01208915366261847,-0.38097979145978317,0.04840511311801185,0.46462806280081453
0.26102766394615173,-1.4450451135635376,-13.064837455749512,0.01208915366261847,-0.38097979145978317,0.04840511311801185,0.46462806280081453
-1.4050636291503906,0.21530744433403015,-15.575329780578613,0.01208915366261847,-0.38097979145978317,0.04840511311801185,0.46462806280081453
0.26987606287002563,-0.5299986004829407,-18.098896026611328,0.01208915366261847,-0.38097979145978317,0.04840511311801185,0.46462806280081453
-0.2071063071489334,0.1927001029253006,-20.693662643432617,0.01208915366261847,-0.38097979145978317,0.04840511311801185,0.46462806280081453
0.13095133006572723,-1.2150914669036865,-23.341693878173828,0.01208915366261847,-0.38097979145978317,0.04840511311801185,0.46462806280081453
-0.5419685244560242,1.1759352684020996,-26.106319427490234,0.01208915366261847,-0.38097979145978317,0.04840511311801185,0.46462806280081453
0.287484347820282,-2.359179735183716,-28.800453186035156,0.01208915366261847,-0.38097979145978317,0.04840511311801185,0.46462806280081453
-1.0405681133270264,1.8841967582702637,-31.373804092407227,0.01208915366261847,-0.38097979145978317,0.04840511311801185,0.46462806280081453
0.21763773262500763,-1.455444097518921,-33.60407638549805,0.01208915366261847,-0.38097979145978317,0.04840511311801185,0.46462806280081453
0.7743877172470093,-0.8299239277839661,-35.49761199951172,0.01208915366261847,-0.38097979145978317,0.04840511311801185,0.46462806280081453
0.08539058268070221,1.9094939231872559,-37.065185546875,0.01208915366261847,-0.38097979145978317,0.04840511311801185,0.46462806280081453
0.8996321558952332,0.7876484394073486,-38.283939361572266,0.01208915366261847,-0.38097979145978317,0.04840511311801185,0.46462806280081453
0.8007497191429138,1.2285714149475098,-39.06257629394531,0.01208915366261847,-0.38097979145978317,0.04840511311801185,0.46462806280081453
1.9104528427124023,0.5277787446975708,-39.43349838256836,0.01208915366261847,-0.38097979145978317,0.04840511311801185,0.46462806280081453
1.3399845361709595,0.9076849818229675,-39.47004699707031,0.01208915366261847,-0.38097979145978317,0.04840511311801185,0.46462806280081453
-0.2926511764526367,-1.4742486476898193,-39.34506607055664,0.01208915366261847,-0.38097979145978317,0.04840511311801185,0.46462806280081453
0.6842515468597412,0.09264861792325974,-39.328948974609375,0.01208915366261847,-0.38097979145978317,0.04840511311801185,0.46462806280081453
0.29425498843193054,-0.688292920589447,-39.37204360961914,0.01208915366261847,-0.38097979145978317,0.04840511311801185,0.46462806280081453
-0.11814428120851517,-0.08041875809431076,-39.348297119140625,0.01208915366261847,-0.38097979145978317,0.04840511311801185,0.46462806280081453
0.14235180616378784,-0.01308680884540081,-39.33942794799805,0.01208915366261847,-0.38097979145978317,0.04840511311801185,0.46462806280081453
-0.3060751259326935,0.0016614887863397598,-39.3571891784668,0.01208915366261847,-0.38097979145978317,0.04840511311801185,0.46462806280081453
-0.10702338069677353,0.029796825721859932,-39.345767974853516,0.01208915366261847,-0.38097979145978317,0.04840511311801185,0.46462806280081453
-0.08129341155290604,-0.04558568075299263,-39.34588623046875,0.01208915366261847,-0.38097979145978317,0.04840511311801185,0.46462806280081453
0.08815343677997589,-0.22248640656471252,-39.34303665161133,0.01208915366261847,-0.38097979145978317,0.04840511311801185,0.46462806280081453
0.12292160838842392,-0.18780463933944702,-39.33702850341797,0.01208915366261847,-0.38097979145978317,0.04840511311801185,0.46462806280081453
0.13099870085716248,-0.256387323141098,-39.34080505371094,0.01208915366261847,-0.38097979145978317,0.04840511311801185,0.46462806280081453
0.042145974934101105,-0.15375494956970215,-39.33928680419922,0.01208915366261847,-0.38097979145978317,0.04840511311801185,0.46462806280081453
-0.018475357443094254,-0.07496184855699539,-39.341949462890625,0.01208915366261847,-0.38097979145978317,0.04840511311801185,0.46462806280081453
-0.044752590358257294,-0.09820549190044403,-39.34062194824219,0.01208915366261847,-0.38097979145978317,0.04840511311801185,0.46462806280081453
0.02569064497947693,-0.13953042030334473,-39.3396110534668,0.01208915366261847,-0.38097979145978317,0.04840511311801185,0.46462806280081453
0.050444427877664566,-0.18242260813713074,-39.33954620361328,0.01208915366261847,-0.38097979145978317,0.04840511311801185,0.46462806280081453
0.06847365200519562,-0.1772981733083725,-39.33885192871094,0.01208915366261847,-0.38097979145978317,0.04840511311801185,0.46462806280081453
0.030489398166537285,-0.14896845817565918,-39.341041564941406,0.01208915366261847,-0.38097979145978317,0.04840511311801185,0.46462806280081453
-0.005989665165543556,-0.12739545106887817,-39.340553283691406,0.01208915366261847,-0.38097979145978317,0.04840511311801185,0.46462806280081453
0,-0.12369528412818909,-39.33946990966797,0.012895489598948838,-0.37325342726971383,0.04835519924163232,0.46253564000750563
0,-0.15784655511379242,-39.33903503417969,0.013701409586309377,-0.3655640514528694,0.04835519924163232,0.46018945801382244
0.1462583839893341,-0.15402305126190186,-39.33826446533203,0.014517486405891396,-0.3579158847641929,0.049574019108210104,0.4575905446273583
0.8981612324714661,-0.9021122455596924,-39.3050537109375,0.015416249197726897,-0.3503627184160162,0.058277515912050104,0.448789417153845
1.5934984683990479,-1.4660500288009644,-39.1995964050293,0.016560573053265963,-0.3430473505102827,0.07904134675263771,0.4290547315341729
1.563422441482544,-1.5703085660934448,-39.238433837890625,0.01809715945121837,-0.336107296553803,0.10534902100165097,0.40375174324338614
0.841850221157074,-1.8732776641845703,-39.45773696899414,0.02002000929170697,-0.3296172387657381,0.12539295985698112,0.3750551913244027
1.220107913017273,-0.08682001382112503,-39.4586181640625,0.02225308349308543,-0.32350243680463736,0.142575944308434,0.35872104400768856
0.9884093999862671,-0.8824961185455322,-39.469505310058594,0.0247827184894068,-0.31759106635814577,0.16098025525013018,0.35064340957129975
0.26878678798675537,-0.965052604675293,-39.49946212768555,0.027553028034407095,-0.31187531152662556,0.17145689014990537,0.3352471702111262
2.4218015670776367,-1.3718674182891846,-39.59480667114258,0.03059748928378499,-0.30645014480247934,0.19387845977544196,0.31577283668642225
0.4542004466056824,-0.7720898985862732,-39.68488311767578,0.034028519308770364,-0.301336150115822,0.21784514322280296,0.2979065257124601
0,-1.1155898571014404,-39.655879974365234,0.03769081339349803,-0.2965021302258704,0.221630146944517,0.2821758610817292
2.549929618835449,0.5615907311439514,-39.52079391479492,0.041561727621659106,-0.2918376713693664,0.2428795604348124,0.27755920169875015
0.836102306842804,-2.1332507133483887,-39.49586486816406,0.045844861401522524,-0.287320827728707,0.27109649314879786,0.26446203518037986
0.7085429430007935,-0.8056690096855164,-39.30194091796875,0.05047040331857496,-0.28311721878980023,0.2839685368974945,0.23997103748843066
0.0717429667711258,0,-39.158531188964844,0.05525739878837847,-0.2791736507351101,0.29047091947892717,0.23325712907438467
1.3282768726348877,-0.8106860518455505,-39.05915451049805,0.060195804379652676,-0.27534232955969296,0.30213775147397726,0.22650141197567175
0.5672680139541626,-0.6205839514732361,-38.98219680786133,0.06536306863245431,-0.2716666997769956,0.3179339588622193,0.2145741619480152
1.057742714881897,-1.209941029548645,-38.851463317871094,0.07077481591410491,-0.2682175835348774,0.33147571493585315,0.1993197871061662
0.21046987175941467,-0.6240951418876648,-38.9244499206543,0.07638748148155255,-0.26502295070612436,0.3420441531578641,0.18403615234419696
0.08903844654560089,0.248875692486763,-39.00794219970703,0.08210901655628813,-0.26198173840659617,0.34454005581040587,0.18090932359918943
0.3042663633823395,-0.7352603673934937,-38.99021911621094,0.08787866365381768,-0.2590003597268115,0.3478175958931387,0.17685611797496667
0.9563189744949341,-0.12155751883983612,-38.87672805786133,0.09376316423383368,-0.2561122590026616,0.3583224737087827,0.16971596892302226
0.8263124227523804,-1.0715028047561646,-38.74336242675781,0.09985899930934446,-0.25336651093197204,0.3731777353525103,0.15977379955972226
-0.22007738053798676,-0.21223245561122894,-38.56846237182617,0.10612072788759563,-0.2507927625546133,0.37822969403763024,0.14907600572332733
-0.11368310451507568,-1.0525243282318115,-38.502193450927734,0.11240137831009411,-0.24839599279143584,0.37544835666218807,0.13853636585796866
0.5920710563659668,0.3671685457229614,-38.337181091308594,0.11869207230667578,-0.24613464751203282,0.37943492292761216,0.13282506767039493
1.11483633518219,-0.8137997984886169,-38.27997589111328,0.12513452292432684,-0.24395191244341274,0.3936591511905135,0.12910314056401445
-0.548423707485199,-0.592525064945221,-38.2976188659668,0.13173484298775878,-0.24189785488286208,0.3983792564213217,0.1173837667020658
0,-0.6073748469352722,-38.26099395751953,0.138336412281761,-0.24002478515393047,0.39380905885894507,0.10738460076972835
0.5529147386550903,0.5536532402038574,-38.17836380004883,0.1449382934529278,-0.23823877247490247,0.3984166816810708,0.10693692071363323
0.8177950978279114,0.051004379987716675,-38.09756088256836,0.15167375966403474,-0.23641450035049527,0.4098392636517625,0.11197573421522967
0.6515082120895386,-0.576801598072052,-38.011165618896484,0.15860644901030838,-0.23458475180927507,0.42208345790107454,0.10759409073119355
0.6586374640464783,-0.6402913928031921,-38.042076110839844,0.16573215564728017,-0.23287603731034373,0.43300133853554135,0.09745164914056652
0.05802494287490845,-1.165420651435852,-38.07789611816406,0.17299861284557538,-0.23137723982773978,0.43897352525988625,0.08240404877190782
-0.10868778824806213,-0.49990665912628174,-38.212852478027344,0.18031132001342257,-0.2301194867447748,0.43855133488177667,0.06852632118389004
0.3555622100830078,0.5631631016731262,-38.235843658447266,0.18763765298519072,-0.22897298858319978,0.4406086217304012,0.06905345820511374
-0.7647042870521545,-0.1373092234134674,-38.275718688964844,0.19495271736979677,-0.2277925244271243,0.437199104422325,0.07260224052394423
0.14636027812957764,0.06819012761116028,-38.300960540771484,0.20219642855399367,-0.22658728702226705,0.4320462376813035,0.072026248058925
0.4778153896331787,-1.053407073020935,-38.44230651855469,0.2094405447144989,-0.22545526739804952,0.43724770157932646,0.06381610684717688
0.706800103187561,0.14298883080482483,-38.483192443847656,0.2168102713722669,-0.22445488910630604,0.44711949735283263,0.05622928816204263
1.0596740245819092,-0.3053278625011444,-38.518741607666016,0.22438493480924257,-0.22352900784747312,0.4618401150842449,0.05487646289790663
-0.8743351101875305,0.07066453248262405,-38.422142028808594,0.2320951408185907,-0.22263069619709264,0.4633846060375314,0.0529209351477523
-0.11900308728218079,-0.18515834212303162,-38.20445251464844,0.23974923576661417,-0.22175663157029957,0.4551067877252838,0.05196682006741557
0.33119189739227295,-0.6576914191246033,-38.09477615356445,0.24734908422940433,-0.22094904913592928,0.45687502780953454,0.04494307205701861
0.20085464417934418,-0.20991027355194092,-38.10403823852539,0.2550006157027279,-0.22026024805252595,0.461308748989298,0.037713057951380746
-0.8175447583198547,1.1997562646865845,-38.20611572265625,0.2626462691501787,-0.21956295778172968,0.45616966470479375,0.04596177454416944
0.6915444731712341,-0.9074487090110779,-38.179893493652344,0.2702403468754566,-0.21877662907018272,0.4551196623285553,0.04839767084146533
0.3949340581893921,-0.6202791333198547,-37.95399475097656,0.2779011244789437,-0.21807609343409795,0.4641736500898938,0.03566660548870756
0.49370965361595154,-0.9487865567207336,-37.73262405395508,0.28569906334931733,-0.21759061290442785,0.4715790143549383,0.022591058071702655
-0.599095344543457,0.4354371130466461,-37.636940002441406,0.2935513951378074,-0.21724974453682128,0.4707008002638758,0.01831314604108526
-0.38962307572364807,-0.759086012840271,-37.59767150878906,0.30132774747413127,-0.21696700105417774,0.4624614800949832,0.015616071876138385
0.5073114633560181,0.8695610165596008,-37.610740661621094,0.30904361161374433,-0.21669906131431715,0.4634422166585863,0.0165366969071328
-1.5466930866241455,-1.3043363094329834,-37.711971282958984,0.3166954692786605,-0.21645364242787005,0.45478070313135194,0.012913569466521278
1.1489298343658447,0.12811152637004852,-37.65742111206055,0.32424752521610956,-0.2163200985466963,0.4514660093625328,0.0031116962743301547
0.27076825499534607,1.1995975971221924,-37.53273010253906,0.33187054885057965,-0.2161760349196594,0.463296826773876,0.014175938970098828
0.27295124530792236,-0.44517478346824646,-37.38339614868164,0.3396299209287764,-0.21588737879698733,0.4678278226097366,0.02046279575054838
0.750597357749939,0,-37.369544982910156,0.3474981310697066,-0.21557724711666348,0.47635739430188545,0.016753005888312994
-0.20801284909248352,-1.2051641941070557,-37.4322395324707,0.3554751004545059,-0.21538172230978236,0.4808789318740309,0.006709970937420864
0.46251341700553894,0.22900347411632538,-37.51817321777344,0.36350742296962263,-0.2153376783997136,0.48299976993997307,-0.001424701729168554
0,0.6801717877388,-37.50045394897461,0.3715895381225809,-0.21529828625757091,0.4868540484150192,0.006151758786290824
-1.3203572034835815,-0.35741695761680603,-37.488525390625,0.37961208079036707,-0.21517334341459649,0.4758510717193227,0.008841382370640775
-0.016430923715233803,0.11270652711391449,-37.63347625732422,0.37961208079036707,-0.21517334341459649,0.4758510717193227,0.008841382370640775
-0.03675936535000801,-1.0906344652175903,-37.82807922363281,0.37961208079036707,-0.21517334341459649,0.4758510717193227,0.008841382370640775
1.1488664150238037,-0.673483669757843,-37.782257080078125,0.37961208079036707,-0.21517334341459649,0.4758510717193227,0.008841382370640775
0.7875445485115051,0.7437516450881958,-37.69807052612305,0.37961208079036707,-0.21517334341459649,0.4758510717193227,0.008841382370640775
-1.4171254634857178,0.9277713298797607,-37.643707275390625,0.37961208079036707,-0.21517334341459649,0.4758510717193227,0.008841382370640775
-2.7318568229675293,1.2544606924057007,-37.9619255065918,0.37961208079036707,-0.21517334341459649,0.4758510717193227,0.008841382370640775
-2.5557830333709717,0.8908509016036987,-38.634033203125,0.37961208079036707,-0.21517334341459649,0.4758510717193227,0.008841382370640775
-2.091686725616455,1.2384694814682007,-39.62144470214844,0.37961208079036707,-0.21517334341459649,0.4758510717193227,0.008841382370640775
-1.7762365341186523,1.4968292713165283,-40.917964935302734,0.37961208079036707,-0.21517334341459649,0.4758510717193227,0.008841382370640775
-1.0304111242294312,0.8374952673912048,-42.42259979248047,0.37961208079036707,-0.21517334341459649,0.4758510717193227,0.008841382370640775
-1.3952975273132324,0.864310622215271,-44.067649841308594,0.37961208079036707,-0.21517334341459649,0.4758510717193227,0.008841382370640775
-1.4439702033996582,-0.0036911037750542164,-45.87726974487305,0.37961208079036707,-0.21517334341459649,0.4758510717193227,0.008841382370640775
-1.7639461755752563,0.5276491045951843,-47.84336471557617,0.37961208079036707,-0.21517334341459649,0.4758510717193227,0.008841382370640775
-1.30811607837677,0.6147164106369019,-49.94694519042969,0.37961208079036707,-0.21517334341459649,0.4758510717193227,0.008841382370640775
-0.8996132612228394,0.958594560623169,-52.12571334838867,0.37961208079036707,-0.21517334341459649,0.4758510717193227,0.008841382370640775
-1.3947656154632568,1.2498083114624023,-54.33086013793945,0.37961208079036707,-0.21517334341459649,0.4758510717193227,0.008841382370640775
-0.4381263256072998,0.06707599759101868,-56.656349182128906,0.37961208079036707,-0.21517334341459649,0.4758510717193227,0.008841382370640775
-2.5538909435272217,0.24025486409664154,-58.97780227661133,0.37961208079036707,-0.21517334341459649,0.4758510717193227,0.008841382370640775
-0.23105280101299286,1.0014442205429077,-61.409847259521484,0.37961208079036707,-0.21517334341459649,0.4758510717193227,0.008841382370640775
-0.5856983065605164,0.8255811929702759,-63.88407897949219,0.37961208079036707,-0.21517334341459649,0.4758510717193227,0.008841382370640775
-1.6350126266479492,-0.7384580373764038,-66.46833038330078,0.37961208079036707,-0.21517334341459649,0.4758510717193227,0.008841382370640775
0.09132422506809235,0.9738366603851318,-69.08244323730469,0.37961208079036707,-0.21517334341459649,0.4758510717193227,0.008841382370640775
-1.5023136138916016,0.005276754964143038,-71.71247863769531,0.37961208079036707,-0.21517334341459649,0.4758510717193227,0.008841382370640775
-0.7477329969406128,0.47695234417915344,-74.34923553466797,0.37961208079036707,-0.21517334341459649,0.4758510717193227,0.008841382370640775
0.1337655484676361,0.9306254982948303,-76.95974731445312,0.37961208079036707,-0.21517334341459649,0.4758510717193227,0.008841382370640775
-2.270749807357788,-0.3752715289592743,-79.50435638427734,0.37961208079036707,-0.21517334341459649,0.4758510717193227,0.008841382370640775
1.274894118309021,1.2325748205184937,-82.07064056396484,0.37961208079036707,-0.21517334341459649,0.4758510717193227,0.008841382370640775
-2.387298107147217,-1.2189600467681885,-84.64252471923828,0.37961208079036707,-0.21517334341459649,0.4758510717193227,0.008841382370640775
1.4029892683029175,1.1213314533233643,-87.28245544433594,0.37961208079036707,-0.21517334341459649,0.4758510717193227,0.008841382370640775
-2.3968794345855713,-0.9452590942382812,-89.92765808105469,0.37961208079036707,-0.21517334341459649,0.4758510717193227,0.008841382370640775
-0.5168105959892273,0.8565247654914856,-92.68099975585938,0.37961208079036707,-0.21517334341459649,0.4758510717193227,0.008841382370640775
-0.36561107635498047,0.299824982881546,-95.39778137207031,0.37961208079036707,-0.21517334341459649,0.4758510717193227,0.008841382370640775
-0.8479915857315063,0.49324706196784973,-98.09989166259766,0.37961208079036707,-0.21517334341459649,0.4758510717193227,0.008841382370640775
-0.12052009999752045,0.38072165846824646,-100.77742004394531,0.37961208079036707,-0.21517334341459649,0.4758510717193227,0.008841382370640775
-0.5424800515174866,0.6169511675834656,-103.52226257324219,0.37961208079036707,-0.21517334341459649,0.4758510717193227,0.008841382370640775
0.4970216155052185,0.9864432215690613,-106.2532958984375,0.37961208079036707,-0.21517334341459649,0.4758510717193227,0.008841382370640775
-0.807689368724823,0.15836867690086365,-109.01183319091797,0.37961208079036707,-0.21517334341459649,0.4758510717193227,0.008841382370640775
-0.22289682924747467,0.05306888744235039,-111.74455261230469,0.37961208079036707,-0.21517334341459649,0.4758510717193227,0.008841382370640775
0.18430373072624207,0.547020673751831,-114.4806137084961,0.37961208079036707,-0.21517334341459649,0.4758510717193227,0.008841382370640775
0.34864264726638794,0.18248143792152405,-117.12550354003906,0.37961208079036707,-0.21517334341459649,0.4758510717193227,0.008841382370640775
-0.17057456076145172,0.20505690574645996,-119.34877014160156,0.37961208079036707,-0.21517334341459649,0.4758510717193227,0.008841382370640775
1.9611303806304932,0.390722393989563,-121.22831726074219,0.37961208079036707,-0.21517334341459649,0.4758510717193227,0.008841382370640775
-0.23049181699752808,-0.7057427167892456,-122.67868041992188,0.37961208079036707,-0.21517334341459649,0.4758510717193227,0.008841382370640775
1.9148980379104614,-0.8797574639320374,-123.7933578491211,0.37961208079036707,-0.21517334341459649,0.4758510717193227,0.008841382370640775
0.23290611803531647,-1.3623102903366089,-124.62686920166016,0.37961208079036707,-0.21517334341459649,0.4758510717193227,0.008841382370640775
0.3444494307041168,-0.7635951638221741,-125.0683364868164,0.37961208079036707,-0.21517334341459649,0.4758510717193227,0.008841382370640775
0.30481964349746704,-1.8373851776123047,-125.20616912841797,0.37961208079036707,-0.21517334341459649,0.4758510717193227,0.008841382370640775
-0.011325704865157604,-0.8235142230987549,-125.1710205078125,0.37961208079036707,-0.21517334341459649,0.4758510717193227,0.008841382370640775
-0.616315484046936,0.6096605658531189,-125.11572265625,0.37961208079036707,-0.21517334341459649,0.4758510717193227,0.008841382370640775
0.3822914958000183,0.024699950590729713,-125.10903930664062,0.37961208079036707,-0.21517334341459649,0.4758510717193227,0.008841382370640775
0.022857366129755974,0.3809675872325897,-125.11886596679688,0.37961208079036707,-0.21517334341459649,0.4758510717193227,0.008841382370640775
-0.027977610006928444,0.26170486211776733,-125.11052703857422,0.37961208079036707,-0.21517334341459649,0.4758510717193227,0.008841382370640775
0.07033729553222656,0.05428890883922577,-125.10387420654297,0.37961208079036707,-0.21517334341459649,0.4758510717193227,0.008841382370640775
-0.15403927862644196,0.058378104120492935,-125.11477661132812,0.37961208079036707,-0.21517334341459649,0.4758510717193227,0.008841382370640775
-0.10258854180574417,-0.08969998359680176,-125.10393524169922,0.37961208079036707,-0.21517334341459649,0.4758510717193227,0.008841382370640775
-0.23832501471042633,-0.16512629389762878,-125.0985336303711,0.37961208079036707,-0.21517334341459649,0.4758510717193227,0.008841382370640775
-0.26107099652290344,-0.22203226387500763,-125.10321044921875,0.37961208079036707,-0.21517334341459649,0.4758510717193227,0.008841382370640775
-0.14553841948509216,-0.10137752443552017,-125.09944915771484,0.37961208079036707,-0.21517334341459649,0.4758510717193227,0.008841382370640775
-0.08209080249071121,0.0698859840631485,-125.09742736816406,0.37961208079036707,-0.21517334341459649,0.4758510717193227,0.008841382370640775
-0.06636408716440201,0.044208768755197525,-125.09793853759766,0.37961208079036707,-0.21517334341459649,0.4758510717193227,0.008841382370640775
-0.09654412418603897,-0.014173231087625027,-125.09973907470703,0.37961208079036707,-0.21517334341459649,0.4758510717193227,0.008841382370640775
-0.178457573056221,-0.10579181462526321,-125.10034942626953,0.37961208079036707,-0.21517334341459649,0.4758510717193227,0.008841382370640775
-0.15930186212062836,-0.08009599149227142,-125.09809875488281,0.37961208079036707,-0.21517334341459649,0.4758510717193227,0.008841382370640775
-0.1155191957950592,-0.003182791406288743,-125.09706115722656,0.37961208079036707,-0.21517334341459649,0.4758510717193227,0.008841382370640775
-0.09369330108165741,0.015425845980644226,-125.09613037109375,0.37961208079036707,-0.21517334341459649,0.4758510717193227,0.008841382370640775
-0.12084992229938507,-0.00990439672023058,-125.09616088867188,0.37961208079036707,-0.21517334341459649,0.4758510717193227,0.008841382370640775
-0.13877898454666138,-0.07256411015987396,-125.09688568115234,0.37961208079036707,-0.21517334341459649,0.4758510717193227,0.008841382370640775
-0.13637006282806396,0,-125.09562683105469,0.38752382441295474,-0.21503102621606912,0.4735581629912,0.008236681452641826
-0.11349061876535416,0,-125.09469604492188,0.3953991090265863,-0.2148937481918584,0.47147599064458817,0.008236681452641826
-0.2922172248363495,-0.20448504388332367,-125.11095428466797,0.40322886804819047,-0.2147706705179174,0.4680950919479073,0.006532639420280795
-0.6603999137878418,-1.2671815156936646,-125.10111999511719,0.4109642989460289,-0.21476399226088336,0.4601566157927057,-0.005731248576194107
-2.564528226852417,-2.240084409713745,-124.88863372802734,0.41840962253280733,-0.21510307320419544,0.4332822146207036,-0.034958464621255854
-0.823733389377594,-3.1468780040740967,-124.78321075439453,0.4253956968309142,-0.21605980889328497,0.40504670115212016,-0.07984981806948788
-0.9862194061279297,-0.5936151146888733,-124.7372055053711,0.432020784017095,-0.21765039566102387,0.38996376118957415,-0.1110205940591793
-0.7209086418151855,-0.40574759244918823,-124.7551040649414,0.4384016294780363,-0.21957013908333922,0.37573769412338154,-0.11934861661866314
-0.7301198244094849,-1.710587739944458,-124.8227310180664,0.4445631585143826,-0.2217062504250665,0.36364579023817595,-0.1369847443886102
-1.6086411476135254,-0.8193112015724182,-124.7878189086914,0.45046150772862836,-0.22416501692470422,0.3441561154713175,-0.1580672355679175
-0.7384918928146362,-1.5084723234176636,-124.82322692871094,0.4560344476364539,-0.22696112248451605,0.3245966734677495,-0.1774654316095015
-1.2168614864349365,-1.505455732345581,-124.91685485839844,0.46130860376513516,-0.23012818023743575,0.30830206197400306,-0.2025814987408619
-0.648991584777832,-0.08536625653505325,-124.91466522216797,0.46631739833475655,-0.23361501229901127,0.2927532863805633,-0.2158383486482005
-0.5057903528213501,-1.0326021909713745,-124.94219207763672,0.47111642658432157,-0.2372899548075581,0.2831301035672368,-0.22515475237742075
-0.7517071962356567,-1.3723936080932617,-124.92639923095703,0.475747935425091,-0.24120954761100571,0.27265095732509503,-0.2451963840362927
-0.46709874272346497,-0.4584091603755951,-124.87248229980469,0.4802074787458593,-0.24542329309275426,0.26249424116710235,-0.26045307377353316
0.23420307040214539,-0.8459680676460266,-124.80915832519531,0.4845662094547331,-0.24985475940759244,0.26055344389775803,-0.2713228840070467
-1.4384760856628418,0.18076495826244354,-124.69955444335938,0.48882513678252487,-0.2544230021347504,0.2505178354372522,-0.2768662432519099
-0.615011990070343,-0.11969487369060516,-124.57213592529297,0.4928578307012198,-0.25903319854418694,0.23340543480614234,-0.2763573258804779
-0.27450376749038696,-1.546830177307129,-124.6005630493164,0.4966861493537138,-0.2637548848818475,0.22599280349313625,-0.29024503463879237
-0.3258022367954254,0.5262934565544128,-124.69519805908203,0.5004110081616351,-0.2686631727314352,0.22099025345742115,-0.29874950731173167
-1.3271703720092773,-1.1609898805618286,-124.77477264404297,0.5039793892880918,-0.2736864073271868,0.20721548171738197,-0.3040386441784601
-0.07686828821897507,-0.677878737449646,-124.72367095947266,0.5073354779653101,-0.2788814172730786,0.1955151595488132,-0.31936254932855573
0.3259163796901703,-1.648462176322937,-124.58097076416016,0.5106113589641424,-0.28436567788089984,0.19759056031107317,-0.3387487236099939
-0.6201748847961426,0.27586865425109863,-124.4466323852539,0.5138841003509169,-0.2901068089356547,0.19513840610185673,-0.3501870029605926
-0.5161762237548828,-1.1390668153762817,-124.34900665283203,0.517057493847854,-0.29600320330174273,0.1856688135305982,-0.3573803209699691
-0.16510097682476044,-0.6311631202697754,-124.29503631591797,0.520104663156657,-0.3020824746189954,0.17999150352576784,-0.37213223710035287
-1.226988673210144,0.17581932246685028,-124.22138977050781,0.5230078486563896,-0.3083162996677376,0.16839075644214363,-0.37592676874871056
-0.12099527567625046,0.10976817458868027,-124.22346496582031,0.5257207512673082,-0.31456191334847616,0.15715755686809035,-0.37354687293991445
0.24990910291671753,-0.47877368330955505,-124.28624725341797,0.5283489962308903,-0.3208133199466915,0.15823183876176092,-0.3766219188459217
0.3392271399497986,-0.5407729148864746,-124.36457824707031,0.5310271057826742,-0.3271611537745538,0.16314130745231523,-0.38511814049755533
-0.8630795478820801,-0.595633864402771,-124.30057525634766,0.5337097489341064,-0.33365870658696367,0.1587758707195462,-0.3945881969916324
-0.6285638213157654,0.457886278629303,-124.3205337524414,0.5362524271010156,-0.3402447423413918,0.14634550930956416,-0.39573609353974465
0.2466890662908554,-0.6085416078567505,-124.34098815917969,0.5386649998426316,-0.3468508060760283,0.14316321968435658,-0.39699155461664004
-0.3301810920238495,-0.5981377959251404,-124.22441864013672,0.541045255446695,-0.35355112916712383,0.1424674528032483,-0.4070472163148225
-0.141962468624115,0.20538021624088287,-124.11463165283203,0.5433869252461486,-0.36036252427096005,0.13853292313118193,-0.4103201961455246
-0.9204407334327698,1.2122098207473755,-124.08609771728516,0.5456220292981921,-0.36710275045415014,0.12967956311404122,-0.39850694583728913
-0.08196419477462769,-1.0933570861816406,-124.0511245727539,0.5477137438967451,-0.373736279222649,0.1213261887123129,-0.3975165063825747
0.5902737975120544,-0.594996988773346,-124.10315704345703,0.5497711463199182,-0.38047880113978605,0.12556210206845814,-0.41158612367386627
-0.4983920454978943,0.09693120419979095,-124.177978515625,0.5518702286982824,-0.3873731577693903,0.1263277833352428,-0.4157366718786459
-0.7432720065116882,-1.0778732299804688,-124.25238800048828,0.5538894650835914,-0.3943702232747136,0.11598058290182961,-0.42391118876015155
-1.211000919342041,-0.3304518163204193,-124.31041717529297,0.5556867614009932,-0.401533210104487,0.09969497518638187,-0.43564723081265894
0.6831828355789185,-0.10944567620754242,-124.28868103027344,0.5573116902871715,-0.4088245457216791,0.09529649115502252,-0.43931304325039194
0.23707111179828644,-0.2173604667186737,-124.20146179199219,0.5589638716638786,-0.4161691246468888,0.10296527404983256,-0.4420364277747771
-0.6984574794769287,0.795522153377533,-124.08438873291016,0.5606479188447315,-0.423496248326006,0.09912038765251055,-0.4372184137192866
0.07319896668195724,0.27564674615859985,-124.03223419189453,0.5622565045755515,-0.43070883515885966,0.09390990004588579,-0.42829200622315217
-0.6353499293327332,0.8328651785850525,-124.1935806274414,0.5637826313150212,-0.437770055267805,0.08922530869046265,-0.4190544068502884
-0.5465431809425354,-0.9037566781044006,-124.24600219726562,0.5651876438827598,-0.44475921840277644,0.07937619943816875,-0.41964516934628293
0.9318599104881287,-1.6967414617538452,-124.14969635009766,0.566537338646281,-0.45193389470714906,0.08258717218438202,-0.44131598717843495
-0.18840494751930237,-0.05224088206887245,-123.93016052246094,0.5679654203328935,-0.45941061826733287,0.08878263020912225,-0.4558908400436243
-0.20967547595500946,-0.9797611236572266,-123.70866394042969,0.5694174863625265,-0.4670804657406798,0.08546529334683632,-0.46449085675800844
-0.31496626138687134,0.7513976693153381,-123.64384460449219,0.5708054744643251,-0.4748378385931981,0.08109327886898732,-0.46639388554419087
-0.7783070802688599,0,-123.68065643310547,0.5720811073523043,-0.4825588896252322,0.07198266768852289,-0.46013223829989636
0.4081779420375824,-0.32151487469673157,-123.72908020019531,0.5732551150680693,-0.4902500876854177,0.06889825820326224,-0.4628115289223691
0.3199710249900818,0.0751652866601944,-123.71687316894531,0.574453985271945,-0.49798072077773753,0.07496616626182612,-0.4648644421560069
0.1070474237203598,-0.5254763960838318,-123.71106719970703,0.575733075435247,-0.5057597330851588,0.07852465333441314,-0.46861703473453725
-1.0756385326385498,0.6105682849884033,-123.8526382446289,0.5769745563860346,-0.5135641078384493,0.07045306076009489,-0.4679079356603325
1.157533049583435,0.052523598074913025,-123.81503295898438,0.5781544611846018,-0.5213165253853532,0.07113551506796893,-0.4623821699681382
-0.5668419599533081,-0.21856382489204407,-123.72650146484375,0.5793810733169589,-0.5290344254561289,0.07605794081488666,-0.4637658385249476
-0.6466516852378845,1.604716420173645,-123.67131042480469,0.5805644352718465,-0.5366675955013168,0.06594549377162673,-0.452214566897601
-0.1485011875629425,-0.6955491304397583,-123.60249328613281,0.5816083078852069,-0.5441413683322676,0.059319219831619835,-0.44463817281648527
0.434604287147522,-1.1275756359100342,-123.64996337890625,0.5826168298198717,-0.5516786104324277,0.061703412328158,-0.4598308792027335
-0.7579621076583862,0.982980489730835,-123.7000961303711,0.5836227646211389,-0.5593524997487357,0.0590087638239008,-0.4610358387542268
-0.24203206598758698,-1.3738912343978882,-123.79823303222656,0.5836227646211389,-0.5593524997487357,0.0590087638239008,-0.4610358387542268
-0.006890342105180025,1.0725176334381104,-124.00031280517578,0.5836227646211389,-0.5593524997487357,0.0590087638239008,-0.4610358387542268
0.022075757384300232,-0.7907029986381531,-123.88334655761719,0.5836227646211389,-0.5593524997487357,0.0590087638239008,-0.4610358387542268
0.6752487421035767,0.9751941561698914,-123.7066650390625,0.5836227646211389,-0.5593524997487357,0.0590087638239008,-0.4610358387542268
0.8980703949928284,3.036942958831787,-124.00894165039062,0.5836227646211389,-0.5593524997487357,0.0590087638239008,-0.4610358387542268
1.3353972434997559,1.1687005758285522,-124.67945098876953,0.5836227646211389,-0.5593524997487357,0.0590087638239008,-0.4610358387542268
1.210809588432312,1.8963478803634644,-125.572021484375,0.5836227646211389,-0.5593524997487357,0.0590087638239008,-0.4610358387542268
0.13198339939117432,1.4025774002075195,-126.63057708740234,0.5836227646211389,-0.5593524997487357,0.0590087638239008,-0.4610358387542268
0.14220936596393585,1.415239930152893,-127.91912841796875,0.5836227646211389,-0.5593524997487357,0.0590087638239008,-0.4610358387542268
1.6138665676116943,2.076977491378784,-129.45660400390625,0.5836227646211389,-0.5593524997487357,0.0590087638239008,-0.4610358387542268
0.06584306061267853,1.284073829650879,-131.1837921142578,0.5836227646211389,-0.5593524997487357,0.0590087638239008,-0.4610358387542268
-0.12906913459300995,1.1883165836334229,-133.01284790039062,0.5836227646211389,-0.5593524997487357,0.0590087638239008,-0.4610358387542268
0.7423295378684998,1.866579294204712,-134.9312286376953,0.5836227646211389,-0.5593524997487357,0.0590087638239008,-0.4610358387542268
-0.5621458292007446,1.212113380432129,-136.90158081054688,0.5836227646211389,-0.5593524997487357,0.0590087638239008,-0.4610358387542268
1.7423591613769531,1.0856553316116333,-138.89671325683594,0.5836227646211389,-0.5593524997487357,0.0590087638239008,-0.4610358387542268
-2.0863897800445557,2.044036388397217,-140.9057159423828,0.5836227646211389,-0.5593524997487357,0.0590087638239008,-0.4610358387542268
2.333753824234009,0.3204566240310669,-142.93653869628906,0.5836227646211389,-0.5593524997487357,0.0590087638239008,-0.4610358387542268
-0.3076229393482208,2.1663057804107666,-145.02328491210938,0.5836227646211389,-0.5593524997487357,0.0590087638239008,-0.4610358387542268
-1.250545620918274,0.22443002462387085,-147.1388397216797,0.5836227646211389,-0.5593524997487357,0.0590087638239008,-0.4610358387542268
2.004910707473755,1.3256382942199707,-149.3658905029297,0.5836227646211389,-0.5593524997487357,0.0590087638239008,-0.4610358387542268
0.8800874352455139,1.4372252225875854,-151.5435028076172,0.5836227646211389,-0.5593524997487357,0.0590087638239008,-0.4610358387542268
-0.6475972533226013,0.037886396050453186,-153.7493133544922,0.5836227646211389,-0.5593524997487357,0.0590087638239008,-0.4610358387542268
0.4997612237930298,0.44897863268852234,-156.05056762695312,0.5836227646211389,-0.5593524997487357,0.0590087638239008,-0.4610358387542268
0.6318938732147217,0.5870916247367859,-158.38803100585938,0.5836227646211389,-0.5593524997487357,0.0590087638239008,-0.4610358387542268
1.3431240320205688,-0.08298759907484055,-160.77027893066406,0.5836227646211389,-0.5593524997487357,0.0590087638239008,-0.4610358387542268
-1.1963825225830078,1.779787302017212,-163.1291046142578,0.5836227646211389,-0.5593524997487357,0.0590087638239008,-0.4610358387542268
3.0324866771698,-1.1396517753601074,-165.5056610107422,0.5836227646211389,-0.5593524997487357,0.0590087638239008,-0.4610358387542268
-1.2775119543075562,2.1735355854034424,-167.86900329589844,0.5836227646211389,-0.5593524997487357,0.0590087638239008,-0.4610358387542268
0.7122609615325928,-1.0545722246170044,-170.2333984375,0.5836227646211389,-0.5593524997487357,0.0590087638239008,-0.4610358387542268
-0.27334606647491455,1.3468561172485352,-172.6732940673828,0.5836227646211389,-0.5593524997487357,0.0590087638239008,-0.4610358387542268
1.231832504272461,-0.09937696903944016,-175.1466827392578,0.5836227646211389,-0.5593524997487357,0.0590087638239008,-0.4610358387542268
0.11224973201751709,0.9711910486221313,-177.70262145996094,0.5836227646211389,-0.5593524997487357,0.0590087638239008,-0.4610358387542268
1.0653162002563477,-0.1218160018324852,179.73736572265625,0.5836227646211389,-0.5593524997487357,0.0590087638239008,-0.4610358387542268
0.03971268981695175,1.2568552494049072,177.1216583251953,0.5836227646211389,-0.5593524997487357,0.0590087638239008,-0.4610358387542268
0.801023542881012,-0.7951638698577881,174.5869598388672,0.5836227646211389,-0.5593524997487357,0.0590087638239008,-0.4610358387542268
-0.7315024733543396,1.408592939376831,172.15933227539062,0.5836227646211389,-0.5593524997487357,0.0590087638239008,-0.4610358387542268
1.2133978605270386,-2.129094123840332,169.8746337890625,0.5836227646211389,-0.5593524997487357,0.0590087638239008,-0.4610358387542268
0.27353915572166443,0.571790337562561,167.6082000732422,0.5836227646211389,-0.5593524997487357,0.0590087638239008,-0.4610358387542268
0.6591768860816956,-0.2455025464296341,165.4040069580078,0.5836227646211389,-0.5593524997487357,0.0590087638239008,-0.4610358387542268
-0.42265191674232483,1.8902662992477417,163.0830078125,0.5836227646211389,-0.5593524997487357,0.0590087638239008,-0.4610358387542268
0.5512790679931641,-1.280693531036377,160.71217346191406,0.5836227646211389,-0.5593524997487357,0.0590087638239008,-0.4610358387542268
0.45649632811546326,1.7121895551681519,158.29173278808594,0.5836227646211389,-0.5593524997487357,0.0590087638239008,-0.4610358387542268
0.006616635713726282,-0.9507330060005188,155.8907928466797,0.5836227646211389,-0.5593524997487357,0.0590087638239008,-0.4610358387542268
0.5428647398948669,1.0935492515563965,153.77903747558594,0.5836227646211389,-0.5593524997487357,0.0590087638239008,-0.4610358387542268
0.22778934240341187,-0.9477386474609375,152.041748046875,0.5836227646211389,-0.5593524997487357,0.0590087638239008,-0.4610358387542268
-0.5032327175140381,0.42213183641433716,150.70919799804688,0.5836227646211389,-0.5593524997487357,0.0590087638239008,-0.4610358387542268
0.07794396579265594,-0.5498968362808228,149.74252319335938,0.5836227646211389,-0.5593524997487357,0.0590087638239008,-0.4610358387542268
-1.1900686025619507,-0.6307936906814575,149.1139678955078,0.5836227646211389,-0.5593524997487357,0.0590087638239008,-0.4610358387542268
-1.374990701675415,-0.6677804589271545,148.77024841308594,0.5836227646211389,-0.5593524997487357,0.0590087638239008,-0.4610358387542268
-0.8057851791381836,-0.340553879737854,148.75881958007812,0.5836227646211389,-0.5593524997487357,0.0590087638239008,-0.4610358387542268
-0.27308574318885803,0.6943783164024353,148.84849548339844,0.5836227646211389,-0.5593524997487357,0.0590087638239008,-0.4610358387542268
0.20672819018363953,-0.17928583920001984,148.83206176757812,0.5836227646211389,-0.5593524997487357,0.0590087638239008,-0.4610358387542268
0.17146547138690948,0.1327981799840927,148.8259735107422,0.5836227646211389,-0.5593524997487357,0.0590087638239008,-0.4610358387542268
0.3203749358654022,-0.10680011659860611,148.8425750732422,0.5836227646211389,-0.5593524997487357,0.0590087638239008,-0.4610358387542268
0.06866856664419174,0.07336962968111038,148.831787109375,0.5836227646211389,-0.5593524997487357,0.0590087638239008,-0.4610358387542268
-0.018967539072036743,0.21493344008922577,148.83775329589844,0.5836227646211389,-0.5593524997487357,0.0590087638239008,-0.4610358387542268
-0.2209709733724594,0.15669132769107819,148.8402099609375,0.5836227646211389,-0.5593524997487357,0.0590087638239008,-0.4610358387542268
-0.05269183963537216,0.17925679683685303,148.8354034423828,0.5836227646211389,-0.5593524997487357,0.0590087638239008,-0.4610358387542268
0.07911249995231628,0.1073133572936058,148.83909606933594,0.5836227646211389,-0.5593524997487357,0.0590087638239008,-0.4610358387542268
0.06715741753578186,0.05155269801616669,148.8385009765625,0.5836227646211389,-0.5593524997487357,0.0590087638239008,-0.4610358387542268
-0.019133979454636574,0.16980098187923431,148.8384246826172,0.5836227646211389,-0.5593524997487357,0.0590087638239008,-0.4610358387542268
-0.09045737236738205,0.14896555244922638,148.8397216796875,0.5836227646211389,-0.5593524997487357,0.0590087638239008,-0.4610358387542268
-0.006954205688089132,0.14411993324756622,148.83892822265625,0.5836227646211389,-0.5593524997487357,0.0590087638239008,-0.4610358387542268
0.04139689728617668,0.09340562671422958,148.83993530273438,0.5836227646211389,-0.5593524997487357,0.0590087638239008,-0.4610358387542268
0.016096487641334534,0.11680950224399567,148.83827209472656,0.5836227646211389,-0.5593524997487357,0.0590087638239008,-0.4610358387542268
-0.033744022250175476,0.14661754667758942,148.838623046875,0.5836227646211389,-0.5593524997487357,0.0590087638239008,-0.4610358387542268
-0.028634915128350258,0.144541397690773,148.84007263183594,0.5836227646211389,-0.5593524997487357,0.0590087638239008,-0.4610358387542268
0.0018787948647513986,0.1072695180773735,148.84024047851562,0.5836227646211389,-0.5593524997487357,0.0590087638239008,-0.4610358387542268
0.029758786782622337,0.11498647183179855,148.84153747558594,0.5836227646211389,-0.5593524997487357,0.0590087638239008,-0.4610358387542268
-0.013486298732459545,0.11788850277662277,148.84234619140625,0.5836227646211389,-0.5593524997487357,0.0590087638239008,-0.4610358387542268
0,0.1361350268125534,148.84231567382812,0.5846053074696809,-0.5670187898717514,0.0588963780011303,-0.45891897600765036
0,0.12815916538238525,148.84217834472656,0.5855869137696997,-0.574649085708532,0.0588963780011303,-0.4567165244060259
-0.18156740069389343,0.21520724892616272,148.83702087402344,0.5865559112224482,-0.5822371828920833,0.05738331632868119,-0.4538551376201213
-0.6536751389503479,0.5160318613052368,148.8275604248047,0.5874542968737843,-0.5897506546919858,0.050422961831645845,-0.44776147836819297
-2.351437568664551,1.9622001647949219,148.91062927246094,0.5880859911885051,-0.5970412465518654,0.025380355934855024,-0.4271095448173583
-3.354649543762207,1.511783242225647,149.0453338623047,0.5881127410712786,-0.6039184901177783,-0.022170370002034628,-0.3981596830921869
-0.9013000130653381,0.6539308428764343,149.11898803710938,0.5874476828520206,-0.610404088024516,-0.05763661630893084,-0.3801120657163362
-0.9772615432739258,0.6061391234397888,149.12640380859375,0.5863566169165705,-0.6166517842610163,-0.07329129594509137,-0.36961148266370103
-0.7205393314361572,1.1641863584518433,149.1621856689453,0.5850171924789641,-0.6226890363691688,-0.0874396365676754,-0.3548587703146041
-1.7838263511657715,1.2433557510375977,149.21656799316406,0.5833859509193222,-0.6284361587834755,-0.10830935058935813,-0.3347959194021921
-1.0964421033859253,0.24506494402885437,149.2119903564453,0.5813807764334891,-0.6339127282252435,-0.13231158771062226,-0.3223924136099717
-0.6325914263725281,1.369242787361145,149.25357055664062,0.5790555115320788,-0.6391738304151743,-0.14672020045860937,-0.3089398491817217
-2.242379665374756,-0.31499582529067993,149.38552856445312,0.5764105240875084,-0.6442496163069481,-0.17067829288983674,-0.3001544578311345
-0.6511321663856506,1.2215920686721802,149.52232360839844,0.5733649475510277,-0.6491892325316766,-0.19479089148784012,-0.29259948913628864
-0.2438647300004959,0.5799543261528015,149.57493591308594,0.570056280130648,-0.6539407832954186,-0.20224919895772467,-0.27758660251274714
-0.7194492220878601,1.1655993461608887,149.61163330078125,0.566618563345791,-0.6584460076656092,-0.21027681522512764,-0.26304032191013305
-0.5958918929100037,-0.9499850273132324,149.68020629882812,0.5630226066257196,-0.6628150398141914,-0.22123799118344317,-0.2612435359197359
-0.6118365526199341,0.5360856056213379,149.80136108398438,0.5592514367417226,-0.6671978417615823,-0.23130239489619264,-0.26469269776716836
-1.5246963500976562,1.2142022848129272,149.87631225585938,0.5552480264863195,-0.6714878389541994,-0.24910683575217257,-0.2501069653468828
-1.0285264253616333,0.22107604146003723,149.79193115234375,0.5509189387532654,-0.6755566162706562,-0.27038369221433334,-0.23814631262794145
-0.08241908252239227,1.867673397064209,149.7257080078125,0.5463353948894234,-0.67938066943678,-0.2796415714467002,-0.22074006730690607
-0.29748642444610596,-0.8080350756645203,149.68115234375,0.5416483197051056,-0.6829860845640201,-0.2828074506714377,-0.21190974796190867
-1.0786314010620117,0.4290558397769928,149.6498565673828,0.5368392984560325,-0.6865442316992107,-0.2942750992173387,-0.2150679082609714
-1.7752869129180908,0.876368522644043,149.6500244140625,0.5317365246972727,-0.6900380423672811,-0.31805775183383955,-0.20418937190746278
-0.4896983206272125,1.1009215116500854,149.7286834716797,0.5262782715254903,-0.6933038867578016,-0.3369326287800504,-0.1877119549550117
0.4180682301521301,-0.33293062448501587,149.853271484375,0.5206577534006509,-0.6963790866398876,-0.3375295462006761,-0.1813120308953028
0.1150144413113594,0.09924179315567017,149.740478515625,0.5150692805939358,-0.6994171822125405,-0.333087190605147,-0.18325943782304735
-1.141667366027832,-0.6766102313995361,149.71617126464844,0.5094465320751891,-0.7025116012066915,-0.34164263164445097,-0.18807084147507958
0.4429386854171753,0.7900484800338745,149.6422119140625,0.5037039653894059,-0.705638237575121,-0.34746537064953975,-0.18712552273646008
0.1012047678232193,1.407091736793518,149.55462646484375,0.4979506636183886,-0.7086044171056712,-0.3429308418725365,-0.16881602092956513
-0.7293355464935303,0.2982965409755707,149.5137939453125,0.4921915293942164,-0.7112995877129856,-0.3481652650281224,-0.15460445194815606
0.17720851302146912,0.6222184896469116,149.59893798828125,0.4863504328219788,-0.7138124039238839,-0.35276632364038957,-0.14693349335963538
0,-0.615795373916626,149.71389770507812,0.4804833002413766,-0.7162608494301743,-0.3512895860318773,-0.14687996739521633
-0.1949535757303238,-0.3510182499885559,149.7172088623047,0.4746149353647529,-0.7187759887217546,-0.35291419916296335,-0.1549367475944262
-0.5592073202133179,0.24864836037158966,149.68907165527344,0.46868065976092965,-0.7213653768684407,-0.359198873295827,-0.15578983000790092
0.1635034829378128,0.6233924627304077,149.6939239501953,0.4626665324395217,-0.7239013156447459,-0.3624964052731229,-0.14852282314871762
0,0.4595892131328583,149.66647338867188,0.45663628009350704,-0.726301488969734,-0.36113387624864113,-0.13949797584985707
-0.3093503415584564,0.27251896262168884,149.607421875,0.45059589949342144,-0.7285756143883598,-0.36371179576162826,-0.13339707438523585
-0.43543460965156555,0,149.61471557617188,0.4444823150535603,-0.7307799740334873,-0.3699183370217118,-0.1311260830300551
-0.5372316837310791,0.3608938753604889,149.68280029296875,0.438249463166158,-0.7329403466759771,-0.3780238894665672,-0.1281186340687177
0.05854003131389618,0.3517225682735443,149.75901794433594,0.43191582253251953,-0.7350261699907589,-0.3820129865700437,-0.12218016370510076
-0.11040280759334564,0.36229485273361206,149.85011291503906,0.42554533784133275,-0.737012921509385,-0.3824451763723724,-0.11623001853004113
0.18640901148319244,-0.87244713306427,149.9438934326172,0.4191765297770633,-0.7389855157265753,-0.381811791339957,-0.1204812875327966
-0.7724613547325134,-0.24183933436870575,150.14498901367188,0.4127723018420051,-0.7410709181901382,-0.3866955608670347,-0.12976700809473807
0.2908391058444977,0.18724879622459412,150.20896911621094,0.4062939298380484,-0.7432374926679771,-0.3907090796077682,-0.130221929245939
1.503297209739685,0.7471619844436646,150.05433654785156,0.39990670464427897,-0.7453429685178631,-0.37575794364456666,-0.12243517274037019
-1.6052628755569458,1.162508487701416,149.94593811035156,0.3936369913011878,-0.7472509387251925,-0.37660765752637715,-0.1065212521391612
-0.9227259159088135,-0.27189207077026367,149.955078125,0.38718464223189636,-0.748964444565225,-0.3976742307885918,-0.09909944866473493
-1.5416401624679565,0,150.0323944091797,0.3803856018521992,-0.7506349834367742,-0.4182106147750649,-0.10136521592115379
1.21627676486969,0.5251442193984985,150.11553955078125,0.3733928302588927,-0.7522879353535574,-0.4209219764217171,-0.09698901409283296
0.5161768198013306,-0.22065849602222443,150.1400604248047,0.3664977732619107,-0.7538832740798702,-0.40648486321612526,-0.09445163306469734
-0.8678906559944153,-0.9161635637283325,150.17611694335938,0.3596986009696841,-0.7555364139406534,-0.4094158118510676,-0.1039251502292853
1.59092116355896,0.7308751344680786,150.09518432617188,0.3529252145574138,-0.7572813670298402,-0.4033905576213631,-0.10546922047312075
-1.273380160331726,0.6686314344406128,150.06069946289062,0.3462240900556152,-0.7589419994148846,-0.4007443825944695,-0.093806665732215
0.6932677626609802,1.4046134948730469,150.10635375976562,0.33950473142920246,-0.7603614685014414,-0.40557865257505904,-0.07652962465460117
-0.06879158318042755,-0.13716302812099457,150.25912475585938,0.332788453620971,-0.7615489448521603,-0.4003746844127211,-0.0659675374316674
-0.4055030047893524,-0.6438820362091064,150.32342529296875,0.3260826050899277,-0.7627026430499332,-0.4043271393124693,-0.07247624630108492
-0.21367771923542023,-0.06084973365068436,150.33663940429688,0.3193008207733293,-0.7639595201945248,-0.40948697867934236,-0.07834901104991651
0.09406034648418427,-0.47128796577453613,150.33966064453125,0.31246773103334363,-0.7653022910522613,-0.410483790118936,-0.08278349187846001
0.3260858356952667,0.47917166352272034,150.35044860839844,0.30565551134956825,-0.7666814684378921,-0.40698257193410725,-0.08271779439722514
0.2733365297317505,0.661939263343811,150.35507202148438,0.29891409503715444,-0.7679808545301468,-0.40198738555554875,-0.07320853667333738
-0.2767791748046875,-0.6280081272125244,150.39927673339844,0.29221406620532075,-0.7691986404791377,-0.4020160742644899,-0.07292577720557665
0.2379545122385025,0.44325125217437744,150.54254150390625,0.28551110214378994,-0.770426900437775,-0.4023396131192081,-0.07446541783089454
-0.8497702479362488,0.3105921149253845,150.65548706054688,0.27876295472126855,-0.7716156405011302,-0.407438077583356,-0.06818338977172986
0.298294335603714,-0.22292955219745636,150.7056121826172,0.2719340231565229,-0.7727459426526918,-0.4120337101861271,-0.0674528684156638
0.3519175946712494,-1.0563924312591553,150.84243774414062,0.26511194825968987,-0.7739589989306929,-0.40661527743383574,-0.07811388494446889
-0.6628143787384033,0.2370009869337082,150.91958618164062,0.25831343691467684,-0.7753177991967344,-0.4092060839677287,-0.08494214698051428
0.7716425061225891,0.09976323693990707,150.85377502441406,0.2515008930240608,-0.776710115241974,-0.40829918290619377,-0.08213577844823415
0.20838229358196259,1.3782907724380493,150.64822387695312,0.24476396392004818,-0.7779764022432377,-0.40013230957532253,-0.06981866170341784
-0.9645025730133057,0.26712167263031006,150.61111450195312,0.24476396392004818,-0.7779764022432377,-0.40013230957532253,-0.06981866170341784
-1.6282472610473633,-0.1561472862958908,150.6954345703125,0.24476396392004818,-0.7779764022432377,-0.40013230957532253,-0.06981866170341784
1.3843048810958862,-1.1055477857589722,150.70628356933594,0.24476396392004818,-0.7779764022432377,-0.40013230957532253,-0.06981866170341784
2.8424856662750244,0.29128941893577576,150.40866088867188,0.24476396392004818,-0.7779764022432377,-0.40013230957532253,-0.06981866170341784
2.3628220558166504,-1.6702502965927124,149.77967834472656,0.24476396392004818,-0.7779764022432377,-0.40013230957532253,-0.06981866170341784
2.3060152530670166,-1.0705690383911133,148.98291015625,0.24476396392004818,-0.7779764022432377,-0.40013230957532253,-0.06981866170341784
