faccX,faccY,yaw,posX,posY,velX,velY
0,0,-96.65605163574219,0.0,0.0,0.0,0.0
0,0,-96.6571273803711,0.0,0.0,0.0,0.0
0,0,-96.65744018554688,0.0,0.0,0.0,0.0
-0.18274493515491486,-0.2449013888835907,-96.6636962890625,-1.2690620496869086e-05,-1.7007040894693798e-05,-0.0015228744596242905,-0.0020408449073632557
0,-2.180499792098999,-96.67420959472656,-5.0762481987476345e-05,-0.00021945176025231676,-0.003045748919248581,-0.0222525214155515
-0.7842370867729187,-1.6362859010696411,-96.50049591064453,-0.00015598587277862761,-0.0008553816792037751,-0.009581057975689571,-0.0540590688586235
0.620876669883728,-2.7669200897216797,-96.3397216796875,-0.00032701464576853645,-0.002062144353985786,-0.010942394783099493,-0.09075245211521785
-0.7736926078796387,-1.547507405281067,-96.31688690185547,-0.0005200001100699107,-0.003874298243059052,-0.012215860933065415,-0.12670601457357406
-0.47234657406806946,-1.2883338928222656,-96.28065490722656,-0.0008101282910340363,-0.006182998576098018,-0.02259952078262965,-0.15033802539110183
0.41362014412879944,-1.0453330278396606,-96.0647964477539,-0.0011908651950458685,-0.008850692535440127,-0.023088907698790233,-0.1697852497299512
0.23511004447937012,-1.8872164487838745,-95.94207763671875,-0.001530629615816805,-0.011884095966815948,-0.01768282279372215,-0.19422316203514733
-0.7582264542579651,-1.1464766263961792,-95.85121154785156,-0.0018616708575023544,-0.015331821797622573,-0.022042126208543775,-0.21950393766164777
-0.3973945677280426,-0.43024536967277527,-95.83133697509766,-0.0023092910875048903,-0.01909971534171038,-0.031672301391760506,-0.23264328762888906
-0.14047467708587646,-1.1505844593048096,-95.91744995117188,-0.002874514808257421,-0.023086883318093082,-0.03615454509854316,-0.2458168695370356
0.06395027041435242,-2.2640933990478516,-95.99455261230469,-0.0034824047548075517,-0.027420961550540388,-0.03679224848747253,-0.2742725183566411
-0.2985532581806183,0.4513671398162842,-96.01870727539062,-0.004111900770415862,-0.032118053957819935,-0.03874727338552474,-0.2893785705169042
0.18668463826179504,-1.58830726146698,-96.02847290039062,-0.004765457314335637,-0.037019984308216305,-0.03967951188484827,-0.29885307153066
0.3545360267162323,-0.6615626215934753,-96.00862884521484,-0.00538919774401519,-0.042157109797828725,-0.035169339676698046,-0.31760198722283045
-0.7192030549049377,-0.9411872625350952,-96.02200317382812,-0.006000677504473262,-0.04756177832682927,-0.03820823157827059,-0.3309582362572352
0,-0.6611860990524292,-96.00448608398438,-0.006687426020701726,-0.05318902485900455,-0.044201590369145075,-0.3443113476037979
0.9817050099372864,-0.4342402219772339,-95.95120239257812,-0.007355945234497388,-0.05900361859136157,-0.036020715286334354,-0.3534399002790451
-0.44999125599861145,-1.0300424098968506,-96.04225158691406,-0.007919365923023886,-0.06499596988989247,-0.0315897673368454,-0.36564225554466245
-1.236676812171936,-0.9486428499221802,-96.02571868896484,-0.008562991772260931,-0.07122741618090205,-0.04564533457159996,-0.3821312993764877
0.30979856848716736,-1.6755834817886353,-95.96786499023438,-0.009388113893154595,-0.07777850911021231,-0.053369319935639696,-0.4039998521407445
-0.23731683194637299,0.63863605260849,-95.97163391113281,-0.010272569104822146,-0.08458385021736223,-0.05276530546446641,-0.41264108071724576
0.3465530276298523,0.2911982536315918,-95.99226379394531,-0.011144405015640789,-0.09139662973582743,-0.05185500383377075,-0.4048924614985784
-0.7782209515571594,0.2480759173631668,-96.09526824951172,-0.012038632018698587,-0.09810738783226244,-0.05545223653316498,-0.40039851007362204
0.647995114326477,-0.12548111379146576,-96.09751892089844,-0.0129718794218368,-0.10477218280546366,-0.05653745184342067,-0.3993768867105245
0.6188485622406006,-1.8260879516601562,-96.0877685546875,-0.0129718794218368,-0.10477218280546366,-0.05653745184342067,-0.3993768867105245
-0.11488106846809387,-1.059257984161377,-96.05535888671875,-0.01387917254327072,-0.11162883549618223,-0.05233772272864978,-0.42342143617570394
-0.8029657006263733,0,-95.95226287841797,-0.014815207281046443,-0.11875941901467739,-0.05998644580443701,-0.4322485860437154
-1.2822024822235107,1.2068572044372559,-96.07218170166016,-0.0159597847238183,-0.12587975258732007,-0.07736284732818605,-0.42219144267340497
1.529215693473816,1.6981537342071533,-96.30516052246094,-0.017232011817395688,-0.13271453976113762,-0.07530440390110017,-0.39798301818470155
0,0,-96.30691528320312,-0.018380889681478343,-0.1392296627215627,-0.06256093978881837,-0.38383173706630863
-0.7417970299720764,0.6948320269584656,-96.2686538696289,-0.01947508569392893,-0.14557860611524018,-0.06874258170525234,-0.37804147017498807
0.4511274993419647,-2.101796865463257,-96.23387145996094,-0.020640980773088007,-0.15197700317638616,-0.07116482779383661,-0.389766177162528
-1.1270424127578735,-1.2467834949493408,-96.1832046508789,-0.021873999771972498,-0.15870564643190138,-0.07679745207230251,-0.41767101349929964
1.670678734779358,-0.6315338611602783,-96.110595703125,-0.02311620478414827,-0.16579726869550843,-0.07226714938879014,-0.43332365813354645
-0.655176043510437,1.151944875717163,-96.0739974975586,-0.024250136253734428,-0.1729831900106122,-0.06380462696154914,-0.42898689967890574
-0.5117518901824951,0,-96.0693359375,-0.025394583365155588,-0.1800529755000025,-0.07352902640899024,-0.4193873590479294
0.6519525051116943,0.3269166052341461,-96.06444549560547,-0.02661033098482423,-0.18702006227543783,-0.07236068795124692,-0.41666305400431153
-0.18048973381519318,-1.3620396852493286,-95.93742370605469,-0.02778360198044942,-0.1940363300560663,-0.06843183152377608,-0.42528907967110474
-0.2547718286514282,-0.4637753963470459,-95.7713851928711,-0.028954359003239203,-0.2012512740979178,-0.07205901121099792,-0.44050420535107454
0,-0.2407100647687912,-95.73033142089844,-0.030173035011523297,-0.2086419334552354,-0.07418210978309316,-0.44637491752703984
1.0154298543930054,0.40583330392837524,-95.82762908935547,-0.030173035011523297,-0.2086419334552354,-0.07418210978309316,-0.44637491752703984
-0.06472993642091751,-0.6250799298286438,-95.83354949951172,-0.03134338268027123,-0.21609674087415137,-0.0662596104666591,-0.44820197274287543
-0.40940573811531067,0.25644513964653015,-95.81165313720703,-0.03248063560989168,-0.2235923733914064,-0.07021074108779433,-0.45127392932772636
0.5174747705459595,0.9006683230400085,-95.83809661865234,-0.03364330983410279,-0.23103325044529305,-0.06931016581753893,-0.4416313171386719
0.33322465419769287,0.441240131855011,-95.83262634277344,-0.034739402915454576,-0.23830058431045875,-0.06222100394467516,-0.43044874668121336
0.569000780582428,-0.25287631154060364,-95.96630096435547,-0.03571376510378388,-0.24546164926762382,-0.05470245865484082,-0.4288790481785933
-1.427799940109253,-0.10838735848665237,-96.06605529785156,-0.03668511157855392,-0.2526347211587967,-0.06185911831756436,-0.4318895787621538
-0.9407027959823608,-0.5058896541595459,-95.96131134033203,-0.03788057624051969,-0.2598755389307108,-0.08159664111832782,-0.4370085538675388
0.2394532561302185,-0.5144240856170654,-96.02700805664062,-0.03928921814387044,-0.26722986994932096,-0.08744038728376234,-0.4455111683656772
-0.5429555773735046,0.8538795709609985,-96.14214324951172,-0.040767634482019484,-0.27463148279115557,-0.08996957329412306,-0.4426823726544778
0.7191098928451538,0.1528307944536209,-96.14700317382812,-0.04225489443168045,-0.2819396118933542,-0.08850162066519264,-0.43429311960935596
1.1237765550613403,-1.318897008895874,-96.14375305175781,-0.04360194321721793,-0.28925880737395754,-0.07314423359930519,-0.4440103380630414
-0.05268518999218941,-0.26709049940109253,-96.17854309082031,-0.04474663243240988,-0.29676911769641773,-0.06421847222372894,-0.4572269006321828
-0.8786648511886597,-0.4003312289714813,-96.1640625,-0.04588161738899848,-0.3044359147714244,-0.07197972256690267,-0.46278874836862094
0.2722320556640625,0.3279556930065155,-96.20752716064453,-0.04712339282035829,-0.31215408665645455,-0.07703332919627431,-0.46339187783499564
-0.29680976271629333,0.19065238535404205,-96.240478515625,-0.04712339282035829,-0.31215408665645455,-0.07703332919627431,-0.46339187783499564
-0.5860005021095276,0.45735448598861694,-96.22503662109375,-0.048468587908686876,-0.3198322841431946,-0.08439008140315615,-0.45799182057380683
0.21186496317386627,0.10210052132606506,-96.21660614013672,-0.04990107090005445,-0.3274266301105834,-0.08750787756095334,-0.4533296955128511
-0.4284244477748871,1.0381262302398682,-96.13632202148438,-0.051374574379167634,-0.3349029426224944,-0.08931253993262851,-0.44382780591646837
0.869152307510376,1.4198287725448608,-96.13550567626953,-0.05283251061000759,-0.3421293814014644,-0.0856398077681661,-0.42334484755992896
0,1.7173711061477661,-96.2221450805664,-0.054199482940344365,-0.3489672677581096,-0.0783968718722463,-0.3972015152374904
0.2354969084262848,-0.20620094239711761,-96.23756408691406,-0.05548974351957442,-0.3554823506395851,-0.07643439763536058,-0.38460843053956834
0.11735095083713531,-1.8189823627471924,-96.14781951904297,-0.05673914682327047,-0.36203312887810185,-0.07349399880816541,-0.40148495808243756
-0.27804839611053467,-1.0490106344223022,-95.99898529052734,-0.05797520634821721,-0.36892371102650146,-0.07483314418544375,-0.4253848997255167
-0.32525259256362915,-0.17859576642513275,-95.86035919189453,-0.05926432131996587,-0.37609870979976334,-0.0798606524243951,-0.43561495306591197
0.22216860949993134,-0.6185351014137268,-95.82573699951172,-0.06060249080364077,-0.38341431532779513,-0.08071968561659258,-0.44225771029790245
0.5734049081802368,1.4839369058609009,-95.84530639648438,-0.06189257073630063,-0.3907251798185625,-0.07408990630259119,-0.435046028594176
0,-1.1375774145126343,-95.83197021484375,-0.06308758272272019,-0.397951894219344,-0.06931153206775588,-0.43215969949960714
0.2638470232486725,0,-95.76265716552734,-0.06422445221390163,-0.4052335543092342,-0.06711280687401694,-0.4416395112872124
-0.7855769395828247,-0.09298466891050339,-95.7350845336914,-0.06537923023932513,-0.4126006700993621,-0.07146055617680154,-0.4424143835281333
0.11671320348978043,-0.6713923215866089,-95.7094497680664,-0.06537923023932513,-0.4126006700993621,-0.07146055617680154,-0.4424143835281333
0.7861500382423401,-1.1486618518829346,-95.91573333740234,-0.06650754067270709,-0.4201006358090997,-0.06393669582903387,-0.4575815016403795
-1.3401951789855957,1.5919771194458008,-96.04598999023438,-0.06761162762685372,-0.42769620838730305,-0.068553738668561,-0.45388720774402225
0,2.2870378494262695,-96.05643463134766,-0.06884725904764817,-0.43499161914353174,-0.0797220318267743,-0.4215620830034217
0.5253474116325378,0.6649363040924072,-96.19386291503906,-0.07013947711895326,-0.44181265565515,-0.07534413672983649,-0.396962298390766
-0.43659117817878723,1.2276183366775513,-96.24038696289062,-0.07138904910379403,-0.44829726655605373,-0.07460450145105524,-0.38119100971768305
0.5446590781211853,-0.7562169432640076,-96.16203308105469,-0.07262495274603784,-0.4546177138434725,-0.07370393561820192,-0.3772626647725702
0.8313766121864319,-1.7493958473205566,-96.13407897949219,-0.07375779363895872,-0.4610794258112504,-0.062236971532305105,-0.3981427713607749
-0.45271456241607666,-1.4794299602508545,-96.1375503540039,-0.07476878052215198,-0.46793936268167796,-0.05908145445088548,-0.42504965309053666
-1.2140350341796875,-0.29071545600891113,-96.16282653808594,-0.07586921792943033,-0.4751464503315383,-0.07297103442251685,-0.43980086489270137
0.5526491403579712,0.7789451479911804,-96.21051025390625,-0.07713133141243211,-0.48244255990669566,-0.07848258353769781,-0.4357322841261825
0.5018935799598694,0.42770785093307495,-96.21527099609375,-0.07836614233803833,-0.4896209692949845,-0.06969472753504914,-0.42567684246848037
-0.5335555672645569,0.7736871838569641,-96.15715789794922,-0.07952991987940754,-0.4966321531253765,-0.06995857742925488,-0.41566521717856336
-0.1250244826078415,-1.0145361423492432,-96.11640167236328,-0.0807416308955807,-0.5035766323671368,-0.07544674451152486,-0.4176722918326657
-0.1679179072380066,-0.7953739166259766,-96.04148864746094,-0.08201941985895653,-0.5106635254295545,-0.0778879310935736,-0.4327548756574592
-0.05089693143963814,-0.6599143147468567,-95.90513610839844,-0.08333274751875759,-0.5179771683732464,-0.07971138808255397,-0.44488227758556614
0.10198678076267242,1.1567044258117676,-95.869384765625,-0.08333274751875759,-0.5179771683732464,-0.07971138808255397,-0.44488227758556614
0.4774421155452728,0.46566709876060486,-95.90857696533203,-0.08333274751875759,-0.5179771683732464,-0.07971138808255397,-0.44488227758556614
0.5922178626060486,0.039244674146175385,-95.80854034423828,-0.08333274751875759,-0.5179771683732464,-0.07971138808255397,-0.44488227758556614
-0.5914035439491272,2.372788906097412,-95.70150756835938,-0.08333274751875759,-0.5179771683732464,-0.07971138808255397,-0.44488227758556614
-0.6328203678131104,3.00827956199646,-95.93331146240234,-0.08333274751875759,-0.5179771683732464,-0.07971138808255397,-0.44488227758556614
0.9693139791488647,2.693967342376709,-96.4979248046875,-0.08333274751875759,-0.5179771683732464,-0.07971138808255397,-0.44488227758556614
-1.0511069297790527,1.4944379329681396,-97.36626434326172,-0.08333274751875759,-0.5179771683732464,-0.07971138808255397,-0.44488227758556614
-0.13585540652275085,1.3953825235366821,-98.49895477294922,-0.08333274751875759,-0.5179771683732464,-0.07971138808255397,-0.44488227758556614
0.211777001619339,1.1692984104156494,-99.75804138183594,-0.08333274751875759,-0.5179771683732464,-0.07971138808255397,-0.44488227758556614
0.5573580265045166,2.0935237407684326,-101.0819091796875,-0.08333274751875759,-0.5179771683732464,-0.07971138808255397,-0.44488227758556614
-0.04364008828997612,1.4756207466125488,-102.45076751708984,-0.08333274751875759,-0.5179771683732464,-0.07971138808255397,-0.44488227758556614
0.4816059470176697,1.3058569431304932,-103.92234802246094,-0.08333274751875759,-0.5179771683732464,-0.07971138808255397,-0.44488227758556614
-0.005149694625288248,1.2746089696884155,-105.47921752929688,-0.08333274751875759,-0.5179771683732464,-0.07971138808255397,-0.44488227758556614
0.29377037286758423,1.2360236644744873,-107.07059478759766,-0.08333274751875759,-0.5179771683732464,-0.07971138808255397,-0.44488227758556614
-0.31087979674339294,-0.09121065586805344,-108.64979553222656,-0.08333274751875759,-0.5179771683732464,-0.07971138808255397,-0.44488227758556614
-0.16574737429618835,1.9860494136810303,-110.28897094726562,-0.08333274751875759,-0.5179771683732464,-0.07971138808255397,-0.44488227758556614
0.1963210254907608,0.9853283762931824,-111.9925308227539,-0.08333274751875759,-0.5179771683732464,-0.07971138808255397,-0.44488227758556614
-0.29708218574523926,0.9355722665786743,-113.74295043945312,-0.08333274751875759,-0.5179771683732464,-0.07971138808255397,-0.44488227758556614
0.781657338142395,0.8074865937232971,-115.57723999023438,-0.08333274751875759,-0.5179771683732464,-0.07971138808255397,-0.44488227758556614
-0.25819259881973267,0.33835461735725403,-117.43138885498047,-0.08333274751875759,-0.5179771683732464,-0.07971138808255397,-0.44488227758556614
-0.4520614445209503,0.9802464842796326,-119.26719665527344,-0.08333274751875759,-0.5179771683732464,-0.07971138808255397,-0.44488227758556614
-0.5673704743385315,1.3653831481933594,-121.09227752685547,-0.08333274751875759,-0.5179771683732464,-0.07971138808255397,-0.44488227758556614
1.123679280281067,0.91361403465271,-122.9360580444336,-0.08333274751875759,-0.5179771683732464,-0.07971138808255397,-0.44488227758556614
-0.7633070349693298,0.6480340361595154,-124.75621032714844,-0.08333274751875759,-0.5179771683732464,-0.07971138808255397,-0.44488227758556614
-0.5560923218727112,0.8845087885856628,-126.55462646484375,-0.08333274751875759,-0.5179771683732464,-0.07971138808255397,-0.44488227758556614
-0.46486029028892517,0.9437682628631592,-128.4092254638672,-0.08333274751875759,-0.5179771683732464,-0.07971138808255397,-0.44488227758556614
0.5201622843742371,0.23257888853549957,-130.2746124267578,-0.08333274751875759,-0.5179771683732464,-0.07971138808255397,-0.44488227758556614
0.6112229228019714,1.4064136743545532,-132.23342895507812,-0.08333274751875759,-0.5179771683732464,-0.07971138808255397,-0.44488227758556614
-0.5795684456825256,0.4165770411491394,-134.22482299804688,-0.08333274751875759,-0.5179771683732464,-0.07971138808255397,-0.44488227758556614
-0.3137204945087433,1.2304182052612305,-136.24417114257812,-0.08333274751875759,-0.5179771683732464,-0.07971138808255397,-0.44488227758556614
-0.5199995636940002,0.5806553363800049,-138.2783966064453,-0.08333274751875759,-0.5179771683732464,-0.07971138808255397,-0.44488227758556614
0.4225383996963501,0.0371091291308403,-140.35289001464844,-0.08333274751875759,-0.5179771683732464,-0.07971138808255397,-0.44488227758556614
0.4080909192562103,1.5028342008590698,-142.4530487060547,-0.08333274751875759,-0.5179771683732464,-0.07971138808255397,-0.44488227758556614
0.19671699404716492,0.06391683965921402,-144.56307983398438,-0.08333274751875759,-0.5179771683732464,-0.07971138808255397,-0.44488227758556614
0.42893052101135254,0.749229371547699,-146.66725158691406,-0.08333274751875759,-0.5179771683732464,-0.07971138808255397,-0.44488227758556614
1.8796672821044922,0.33787840604782104,-148.78504943847656,-0.08333274751875759,-0.5179771683732464,-0.07971138808255397,-0.44488227758556614
-0.45104050636291504,0.5191258788108826,-150.8956756591797,-0.08333274751875759,-0.5179771683732464,-0.07971138808255397,-0.44488227758556614
1.020588994026184,-0.37431663274765015,-153.06658935546875,-0.08333274751875759,-0.5179771683732464,-0.07971138808255397,-0.44488227758556614
-0.7685080170631409,0.7495232224464417,-155.08387756347656,-0.08333274751875759,-0.5179771683732464,-0.07971138808255397,-0.44488227758556614
0.9250501990318298,0.05378929525613785,-156.9901123046875,-0.08333274751875759,-0.5179771683732464,-0.07971138808255397,-0.44488227758556614
0.16272152960300446,-1.7209858894348145,-158.93246459960938,-0.08333274751875759,-0.5179771683732464,-0.07971138808255397,-0.44488227758556614
-0.056338924914598465,1.571324348449707,-160.85992431640625,-0.08333274751875759,-0.5179771683732464,-0.07971138808255397,-0.44488227758556614
0.6524178981781006,-0.15180985629558563,-162.7864990234375,-0.08333274751875759,-0.5179771683732464,-0.07971138808255397,-0.44488227758556614
0.0023308962117880583,-0.3715096116065979,-164.7312774658203,-0.08333274751875759,-0.5179771683732464,-0.07971138808255397,-0.44488227758556614
0.20789125561714172,0.7579882144927979,-166.74806213378906,-0.08333274751875759,-0.5179771683732464,-0.07971138808255397,-0.44488227758556614
0.381761372089386,0.8424152731895447,-168.86624145507812,-0.08333274751875759,-0.5179771683732464,-0.07971138808255397,-0.44488227758556614
0.1535910964012146,0.12004618346691132,-170.9069366455078,-0.08333274751875759,-0.5179771683732464,-0.07971138808255397,-0.44488227758556614
0.5816130042076111,-0.6249228119850159,-173.00115966796875,-0.08333274751875759,-0.5179771683732464,-0.07971138808255397,-0.44488227758556614
-0.04915653541684151,1.279738426208496,-175.1366729736328,-0.08333274751875759,-0.5179771683732464,-0.07971138808255397,-0.44488227758556614
0.5158823132514954,0.288377583026886,-177.29969787597656,-0.08333274751875759,-0.5179771683732464,-0.07971138808255397,-0.44488227758556614
0.17708823084831238,-1.069481372833252,-179.52610778808594,-0.08333274751875759,-0.5179771683732464,-0.07971138808255397,-0.44488227758556614
-0.7381131052970886,1.6275771856307983,178.28736877441406,-0.08333274751875759,-0.5179771683732464,-0.07971138808255397,-0.44488227758556614
1.5125339031219482,-0.2672255039215088,175.97021484375,-0.08333274751875759,-0.5179771683732464,-0.07971138808255397,-0.44488227758556614
-0.22720015048980713,-1.1301158666610718,173.63912963867188,-0.08333274751875759,-0.5179771683732464,-0.07971138808255397,-0.44488227758556614
-0.8263939023017883,0.9718860983848572,171.31378173828125,-0.08333274751875759,-0.5179771683732464,-0.07971138808255397,-0.44488227758556614
0.7973056435585022,0.26752281188964844,168.94915771484375,-0.08333274751875759,-0.5179771683732464,-0.07971138808255397,-0.44488227758556614
1.5595101118087769,-0.8481361865997314,166.8475341796875,-0.08333274751875759,-0.5179771683732464,-0.07971138808255397,-0.44488227758556614
-0.08174857497215271,-1.6513315439224243,165.05111694335938,-0.08333274751875759,-0.5179771683732464,-0.07971138808255397,-0.44488227758556614
-1.294394850730896,-0.22425082325935364,163.69976806640625,-0.08333274751875759,-0.5179771683732464,-0.07971138808255397,-0.44488227758556614
0.6407186985015869,-2.4282259941101074,162.733642578125,-0.08333274751875759,-0.5179771683732464,-0.07971138808255397,-0.44488227758556614
-1.3259774446487427,-0.31154099106788635,162.24952697753906,-0.08333274751875759,-0.5179771683732464,-0.07971138808255397,-0.44488227758556614
-1.0894880294799805,-0.24200546741485596,162.17735290527344,-0.08333274751875759,-0.5179771683732464,-0.07971138808255397,-0.44488227758556614
-0.8648703694343567,-0.24196121096611023,162.30252075195312,-0.08333274751875759,-0.5179771683732464,-0.07971138808255397,-0.44488227758556614
0.11008991301059723,0.664154052734375,162.35467529296875,-0.08333274751875759,-0.5179771683732464,-0.07971138808255397,-0.44488227758556614
0.06604623794555664,0.28228726983070374,162.35984802246094,-0.08333274751875759,-0.5179771683732464,-0.07971138808255397,-0.44488227758556614
-0.26554635167121887,0.13075098395347595,162.34400939941406,-0.08333274751875759,-0.5179771683732464,-0.07971138808255397,-0.44488227758556614
-0.1576574146747589,0.5319092273712158,162.34364318847656,-0.08333274751875759,-0.5179771683732464,-0.07971138808255397,-0.44488227758556614
-0.06095339357852936,0.015032623894512653,162.3634796142578,-0.08333274751875759,-0.5179771683732464,-0.07971138808255397,-0.44488227758556614
0.16610528528690338,0.22535058856010437,162.3555145263672,-0.08333274751875759,-0.5179771683732464,-0.07971138808255397,-0.44488227758556614
0.2027330994606018,0.15136942267417908,162.3568115234375,-0.08333274751875759,-0.5179771683732464,-0.07971138808255397,-0.44488227758556614
0.1289462149143219,0.18237417936325073,162.36074829101562,-0.08333274751875759,-0.5179771683732464,-0.07971138808255397,-0.44488227758556614
-0.025108348578214645,0.14294354617595673,162.3517608642578,-0.08333274751875759,-0.5179771683732464,-0.07971138808255397,-0.44488227758556614
-0.00932373572140932,0.2957885265350342,162.35104370117188,-0.08333274751875759,-0.5179771683732464,-0.07971138808255397,-0.44488227758556614
-0.03053438849747181,0.16636326909065247,162.35519409179688,-0.08333274751875759,-0.5179771683732464,-0.07971138808255397,-0.44488227758556614
0.0769975483417511,0.17814715206623077,162.35455322265625,-0.08333274751875759,-0.5179771683732464,-0.07971138808255397,-0.44488227758556614
0.09897200763225555,0.1701928824186325,162.35699462890625,-0.08333274751875759,-0.5179771683732464,-0.07971138808255397,-0.44488227758556614
0.03955424204468727,0.1806546002626419,162.35592651367188,-0.08333274751875759,-0.5179771683732464,-0.07971138808255397,-0.44488227758556614
-0.002133377129212022,0.19483961164951324,162.35357666015625,-0.08333274751875759,-0.5179771683732464,-0.07971138808255397,-0.44488227758556614
0.005375691689550877,0.19175301492214203,162.35353088378906,-0.08333274751875759,-0.5179771683732464,-0.07971138808255397,-0.44488227758556614
0.03340623527765274,0.17402659356594086,162.35353088378906,-0.08333274751875759,-0.5179771683732464,-0.07971138808255397,-0.44488227758556614
0.06084931269288063,0.19629555940628052,162.3526611328125,-0.08333274751875759,-0.5179771683732464,-0.07971138808255397,-0.44488227758556614
0.05124947428703308,0.18803450465202332,162.35440063476562,-0.08333274751875759,-0.5179771683732464,-0.07971138808255397,-0.44488227758556614
0.019863052293658257,0.17720983922481537,162.3538055419922,-0.08333274751875759,-0.5179771683732464,-0.07971138808255397,-0.44488227758556614
0,0.1978648155927658,162.35440063476562,-0.08465989127483532,-0.5253658261486435,-0.07954586264677349,-0.4417566554620863
-0.1830618679523468,0.26582685112953186,162.34234619140625,-0.08599836828200046,-0.5326962362628225,-0.08107137821304304,-0.4378925582394005
-1.1596412658691406,0.7093286514282227,162.33016967773438,-0.08744280119206656,-0.5399267264346904,-0.09226057099488877,-0.4297662623847525
-3.364332437515259,1.1482445001602173,162.40731811523438,-0.08929464221582752,-0.5469604993389093,-0.12996035185642543,-0.41428648612151553
-2.78176212310791,0.7856850028038025,162.49000549316406,-0.09188746020236677,-0.5537309734476732,-0.18117780652828516,-0.3981704069301487
-0.4406452178955078,1.1326574087142944,162.53961181640625,-0.0951308685987412,-0.5602339286734869,-0.208031201036647,-0.3821842201674979
-1.248545527458191,0.6250410676002502,162.6223602294922,-0.0987153601955571,-0.56648160328209,-0.22210779058126115,-0.3675367328648767
-1.7346409559249878,0.350206583738327,162.69293212890625,-0.1026243224332575,-0.5725394899651616,-0.24696767794278765,-0.3594096691037219
-0.8492646813392639,0.6177282333374023,162.75711059570312,-0.10691988829044731,-0.57846243342126,-0.26850022491998976,-0.35134354562809084
-1.676916241645813,0.1194615289568901,162.8512725830078,-0.11157032126987666,-0.5842669654482355,-0.28955173261153205,-0.34520029760897175
-1.2240030765533447,-0.13518261909484863,162.9009552001953,-0.11659763621049936,-0.590021395484089,-0.3137260602631917,-0.34533130669345474
-1.1822497844696045,1.5811742544174194,162.91224670410156,-0.12199350477467914,-0.595676501176527,-0.33377816743838296,-0.3332813763991
0.5030134916305542,0.43017876148223877,162.9176025390625,-0.12760364341898825,-0.6010915134904079,-0.33943846987870835,-0.31652010126660285
-1.939565896987915,0.49418607354164124,162.93148803710938,-0.13336071183400544,-0.6063026565090858,-0.351409739923353,-0.30881706097473716
-0.30214619636535645,0.19072012603282928,162.8771514892578,-0.13336071183400544,-0.6063026565090858,-0.351409739923353,-0.30881706097473716
-0.6458381414413452,0.6490557789802551,162.83872985839844,-0.13928337307840902,-0.6113912897541499,-0.3593096094050755,-0.30181892843296143
-1.1468939781188965,0.17984670400619507,162.87818908691406,-0.1453963618545742,-0.616364042555603,-0.37424904373474416,-0.29491140774140767
2.102078914642334,-0.2808908522129059,162.87351989746094,-0.15156751362956136,-0.621286249639363,-0.3662891692637155,-0.29575344230979694
1.7804183959960938,1.172207236289978,162.62391662597656,-0.1574027152484956,-0.6261535767067431,-0.3339350250083953,-0.28832580577582134
-0.8390174508094788,-0.31909677386283875,162.53170776367188,-0.16290292393299757,-0.6308997630208938,-0.32609001713184016,-0.28121655192226186
-1.390628457069397,-0.11398927122354507,162.6703643798828,-0.16849259407324205,-0.6356167809727291,-0.34467039969749746,-0.2848256022979817
-2.0149433612823486,0.5110774636268616,162.73593139648438,-0.1744735987778081,-0.6403362987754453,-0.3730501648504287,-0.28151653402795407
-0.12771660089492798,1.1155712604522705,162.66822814941406,-0.18083989735602202,-0.6449152792922945,-0.39090566453523934,-0.2679611279939613
-1.1367864608764648,0.41251352429389954,162.69235229492188,-0.18744280447756567,-0.6492751810932532,-0.40144319005000095,-0.2552270881210766
-0.21543480455875397,-0.3126734495162964,162.7285614013672,-0.19422742856627648,-0.6535220325567449,-0.41271170059529444,-0.2543950874979299
-0.15948215126991272,0.6222606301307678,162.72659301757812,-0.2011319928092417,-0.6577404515719455,-0.4158360085605333,-0.25181519432614263
-0.6122920513153076,0.43761947751045227,162.75502014160156,-0.20811618838265236,-0.6618637686921284,-0.4222674602487435,-0.24298286009579914
-1.31103515625,0.37326744198799133,162.73223876953125,-0.21528754377621234,-0.6658571714354266,-0.4382951869784544,-0.23622546909997877
-0.3113030195236206,1.1210294961929321,162.65036010742188,-0.21528754377621234,-0.6658571714354266,-0.4382951869784544,-0.23622546909997877
0.30321067571640015,0.11806144565343857,162.5913848876953,-0.22259302552750654,-0.6697082146050202,-0.4383626231768479,-0.22589971125125902
1.2959423065185547,0.10334673523902893,162.59283447265625,-0.22978801695668769,-0.6734578342244236,-0.4250363483248899,-0.2240546430771551
-0.08913630247116089,0.12441703677177429,162.6082000732422,-0.23678815012293256,-0.6771762613470976,-0.41497963162449497,-0.22215661164373177
0.8166652917861938,-0.5711603164672852,162.60145568847656,-0.24365395447019392,-0.6809098953800276,-0.4089168900468697,-0.225879472307861
-1.4129031896591187,-0.3946368992328644,162.6649932861328,-0.25051064138054957,-0.6847416225029155,-0.4138855391958107,-0.23392778243869558
-0.8018676042556763,0.9107542037963867,162.71762084960938,-0.25756253722783495,-0.6886045773974102,-0.43234196247843404,-0.22962680490066623
-1.2511333227157593,-0.447603315114975,162.8281707763672,-0.264910806111293,-0.6923995275562629,-0.4494503035365293,-0.22576721416165446
0.3649396300315857,0.37027156352996826,162.7790069580078,-0.2724631857322271,-0.6961676847194839,-0.4568352509755641,-0.22641164542486286
0,0.5788692831993103,162.69041442871094,-0.28005176355195655,-0.699875299584431,-0.4537940873919675,-0.21850213836878554
0.12399386614561081,0.6587355136871338,162.69384765625,-0.2876063876566737,-0.7034310571130158,-0.45276080517408746,-0.2081887650613985
-0.6490575075149536,0.9870423674583435,162.8110809326172,-0.2951888638291147,-0.706786579733404,-0.457136335518832,-0.1944739493851862
-0.389396995306015,0.7268397808074951,162.9471435546875,-0.3028799176504578,-0.7099087926295276,-0.4657901230423401,-0.18019159814963753
0.16811680793762207,-1.2124903202056885,163.08152770996094,-0.3106584530475085,-0.7129457116639242,-0.4676341246037434,-0.1842386859779558
-1.5075088739395142,-0.7326282262802124,163.0436248779297,-0.3106584530475085,-0.7129457116639242,-0.4676341246037434,-0.1842386859779558
0.6934652328491211,1.8196945190429688,162.9413299560547,-0.3185088859326466,-0.7159408657154482,-0.47441782161282997,-0.17517980020493285
-0.4228563904762268,-0.219665989279747,162.9049835205078,-0.3263970573454734,-0.7187494159598524,-0.4721627479263892,-0.16184622912357266
0.5898008346557617,0,162.9042205810547,-0.33425484311340076,-0.7214621076945008,-0.47077154422489303,-0.16367677903423722
2.1338276863098145,0.6385949850082397,162.68971252441406,-0.3419118946476375,-0.7241457071377791,-0.44807463988351326,-0.15835515415916857
1.3134615421295166,0.07264671474695206,162.47537231445312,-0.34914041022705444,-0.7267355679223934,-0.4193472296465188,-0.15242813999454197
-0.5441148281097412,0.22769039869308472,162.4508819580078,-0.35607610386602284,-0.7292551801783135,-0.41293600702968736,-0.149925330715875
-1.6861863136291504,-0.05828367918729782,162.5180206298828,-0.36311325267358285,-0.7317421713347235,-0.43152184987751147,-0.14851360805332678
0,0.21155382692813873,162.49288940429688,-0.3704223797766545,-0.7342067543753525,-0.44557340249108773,-0.1472363568221531
-0.7849531173706055,0.19383731484413147,162.49122619628906,-0.3779031137846567,-0.7366325414930986,-0.45211467846917613,-0.1438580973073842
-0.40289393067359924,0.6824106574058533,162.48443603515625,-0.385520847804146,-0.7389693258945933,-0.4620134038695445,-0.13655603087196766
0.381928414106369,0.17913590371608734,162.4456329345703,-0.3932225271406223,-0.7411854301201592,-0.4621881165076047,-0.1293764761959515
-0.6929665803909302,0.3033192753791809,162.37904357910156,-0.40094726228840766,-0.7433082008915435,-0.4647801012266427,-0.12535601637015759
0.41736435890197754,0.5903132557868958,162.34628295898438,-0.40871273635201066,-0.7453354100163818,-0.4670767864057173,-0.11790907861044028
-0.1512630134820938,0.5836784243583679,162.3599853515625,-0.40871273635201066,-0.7453354100163818,-0.4670767864057173,-0.11790907861044028
0.8720278143882751,0.29327961802482605,162.3524932861328,-0.4164472963475986,-0.7472396614625014,-0.4610704130648325,-0.11060109492391366
2.1875245571136475,0.3619813024997711,162.36114501953125,-0.4239193343173248,-0.7490375088139747,-0.4355741433023165,-0.10514058725287535
-0.5406879186630249,-2.30385160446167,162.355224609375,-0.43106453971691544,-0.7509247040391589,-0.4218505046485613,-0.1213228397692245
0.6002694964408875,0,162.3575439453125,-0.43809124385149023,-0.7531067410634003,-0.4213539915004124,-0.1405216031397384
0.18999844789505005,0.3504335582256317,162.30494689941406,-0.44505893065814045,-0.7554244321186302,-0.41476842529761293,-0.13760132348785814
-1.07670259475708,-0.21263648569583893,162.25721740722656,-0.4520333144232994,-0.7577082182689466,-0.42215762652146316,-0.13645301455010986
-0.3637324571609497,0.5900631546974182,162.34033203125,-0.45916930507726256,-0.7599562249927678,-0.4341612519541134,-0.13330779230843004
0.5609124302864075,1.561599612236023,162.3824005126953,-0.46639163288947516,-0.7620286005057602,-0.43251808551140125,-0.11537726925065137
-0.6336073875427246,1.0606606006622314,162.3877410888672,-0.4736053159089191,-0.7637694535895975,-0.43312387682187053,-0.09352510080983258
-0.9386435747146606,-1.4887186288833618,162.464599609375,-0.48093323128388477,-0.7653579315217212,-0.4462259681740154,-0.09709225104500867
0.3468141257762909,-0.2445945292711258,162.70993041992188,-0.48841143002073906,-0.7670965046751209,-0.4511578802485018,-0.11153652736296273
-0.7408974766731262,-0.2986660599708557,162.77114868164062,-0.4959580949242486,-0.7689931732276454,-0.4544419081726421,-0.11606369893997924
0.9269391894340515,0.7871264815330505,162.658203125,-0.5035192071637398,-0.7708936473473699,-0.45289156056630103,-0.11199319542696096
-1.2134308815002441,0.603226900100708,162.57859802246094,-0.5110872950962383,-0.7726636482863168,-0.4552789913335193,-0.10040691724667963
0.4526228904724121,0.7559528350830078,162.5823211669922,-0.5110872950962383,-0.7726636482863168,-0.4552789913335193,-0.10040691724667963
0.5073528289794922,0.4952774941921234,162.51954650878906,-0.5110872950962383,-0.7726636482863168,-0.4552789913335193,-0.10040691724667963
-0.7413579821586609,1.7623875141143799,162.4990997314453,-0.5110872950962383,-0.7726636482863168,-0.4552789913335193,-0.10040691724667963
0.6827348470687866,-1.8315380811691284,162.574951171875,-0.5110872950962383,-0.7726636482863168,-0.4552789913335193,-0.10040691724667963
2.6974308490753174,-1.0342298746109009,162.5221710205078,-0.5110872950962383,-0.7726636482863168,-0.4552789913335193,-0.10040691724667963
1.491625189781189,-0.6318411231040955,162.23312377929688,-0.5110872950962383,-0.7726636482863168,-0.4552789913335193,-0.10040691724667963
2.006974935531616,0.16216477751731873,161.75775146484375,-0.5110872950962383,-0.7726636482863168,-0.4552789913335193,-0.10040691724667963
1.6366162300109863,0.9246106147766113,161.0522003173828,-0.5110872950962383,-0.7726636482863168,-0.4552789913335193,-0.10040691724667963
2.0284786224365234,0.41027867794036865,160.18202209472656,-0.5110872950962383,-0.7726636482863168,-0.4552789913335193,-0.10040691724667963
0.4780026972293854,1.0191115140914917,159.22987365722656,-0.5110872950962383,-0.7726636482863168,-0.4552789913335193,-0.10040691724667963
2.118025064468384,-1.4642919301986694,158.23670959472656,-0.5110872950962383,-0.7726636482863168,-0.4552789913335193,-0.10040691724667963
1.4741599559783936,0.8328008055686951,157.20608520507812,-0.5110872950962383,-0.7726636482863168,-0.4552789913335193,-0.10040691724667963
2.2956316471099854,-0.7235549092292786,156.00762939453125,-0.5110872950962383,-0.7726636482863168,-0.4552789913335193,-0.10040691724667963
0.9771034121513367,0.5283085703849792,154.6890411376953,-0.5110872950962383,-0.7726636482863168,-0.4552789913335193,-0.10040691724667963
0.7580620050430298,-0.4670717716217041,153.203857421875,-0.5110872950962383,-0.7726636482863168,-0.4552789913335193,-0.10040691724667963
1.750369668006897,-0.5690635442733765,151.6429443359375,-0.5110872950962383,-0.7726636482863168,-0.4552789913335193,-0.10040691724667963
1.0207828283309937,1.437095046043396,150.0545654296875,-0.5110872950962383,-0.7726636482863168,-0.4552789913335193,-0.10040691724667963
1.5094887018203735,-0.9447623491287231,148.56312561035156,-0.5110872950962383,-0.7726636482863168,-0.4552789913335193,-0.10040691724667963
0.8167413473129272,-0.06774643063545227,147.1698455810547,-0.5110872950962383,-0.7726636482863168,-0.4552789913335193,-0.10040691724667963
0.909080982208252,-0.3388422727584839,145.7803955078125,-0.5110872950962383,-0.7726636482863168,-0.4552789913335193,-0.10040691724667963
0.732451856136322,-0.38528382778167725,144.42739868164062,-0.5110872950962383,-0.7726636482863168,-0.4552789913335193,-0.10040691724667963
0.6514999270439148,0.8462309241294861,143.10031127929688,-0.5110872950962383,-0.7726636482863168,-0.4552789913335193,-0.10040691724667963
0.7075660824775696,-1.8696982860565186,141.7500457763672,-0.5110872950962383,-0.7726636482863168,-0.4552789913335193,-0.10040691724667963
0.12028581649065018,-0.5977150201797485,140.41073608398438,-0.5110872950962383,-0.7726636482863168,-0.4552789913335193,-0.10040691724667963
-0.10337171703577042,1.0334492921829224,139.0577392578125,-0.5110872950962383,-0.7726636482863168,-0.4552789913335193,-0.10040691724667963
1.9263629913330078,0.3897186815738678,137.708251953125,-0.5110872950962383,-0.7726636482863168,-0.4552789913335193,-0.10040691724667963
0.5426605343818665,-1.6655185222625732,136.40859985351562,-0.5110872950962383,-0.7726636482863168,-0.4552789913335193,-0.10040691724667963
-0.5283899903297424,-0.06726976484060287,135.16738891601562,-0.5110872950962383,-0.7726636482863168,-0.4552789913335193,-0.10040691724667963
1.3893816471099854,0.3952888250350952,134.0423583984375,-0.5110872950962383,-0.7726636482863168,-0.4552789913335193,-0.10040691724667963
0.9719409346580505,-0.6516237854957581,132.96112060546875,-0.5110872950962383,-0.7726636482863168,-0.4552789913335193,-0.10040691724667963
-1.2051132917404175,-1.8676762580871582,131.90054321289062,-0.5110872950962383,-0.7726636482863168,-0.4552789913335193,-0.10040691724667963
1.7795443534851074,2.8317837715148926,131.0224151611328,-0.5110872950962383,-0.7726636482863168,-0.4552789913335193,-0.10040691724667963
1.4177322387695312,-0.8083593249320984,130.11546325683594,-0.5110872950962383,-0.7726636482863168,-0.4552789913335193,-0.10040691724667963
-1.8378974199295044,-2.3374195098876953,129.1827850341797,-0.5110872950962383,-0.7726636482863168,-0.4552789913335193,-0.10040691724667963
0.8914082050323486,0.7065068483352661,128.27874755859375,-0.5110872950962383,-0.7726636482863168,-0.4552789913335193,-0.10040691724667963
1.8912090063095093,0.9810142517089844,127.65824890136719,-0.5110872950962383,-0.7726636482863168,-0.4552789913335193,-0.10040691724667963
-0.8248496651649475,-1.7983933687210083,126.91239166259766,-0.5110872950962383,-0.7726636482863168,-0.4552789913335193,-0.10040691724667963
-0.04794501140713692,2.3284194469451904,126.28943634033203,-0.5110872950962383,-0.7726636482863168,-0.4552789913335193,-0.10040691724667963
2.7069647312164307,-0.7565628290176392,125.60604858398438,-0.5110872950962383,-0.7726636482863168,-0.4552789913335193,-0.10040691724667963
-0.5258020758628845,-0.3812103867530823,124.89241790771484,-0.5110872950962383,-0.7726636482863168,-0.4552789913335193,-0.10040691724667963
-0.9039835333824158,-1.2356152534484863,124.3232421875,-0.5110872950962383,-0.7726636482863168,-0.4552789913335193,-0.10040691724667963
0.5222898125648499,0.38185393810272217,123.80713653564453,-0.5110872950962383,-0.7726636482863168,-0.4552789913335193,-0.10040691724667963
1.7471827268600464,0.08350879698991776,123.09742736816406,-0.5110872950962383,-0.7726636482863168,-0.4552789913335193,-0.10040691724667963
-0.0013845755020156503,0.3289748430252075,122.26587677001953,-0.5110872950962383,-0.7726636482863168,-0.4552789913335193,-0.10040691724667963
-0.07567168027162552,-0.07259023189544678,121.39408874511719,-0.5110872950962383,-0.7726636482863168,-0.4552789913335193,-0.10040691724667963
-0.7664623856544495,1.3551021814346313,120.5729751586914,-0.5110872950962383,-0.7726636482863168,-0.4552789913335193,-0.10040691724667963
0.4787658154964447,-1.2159037590026855,119.74149322509766,-0.5110872950962383,-0.7726636482863168,-0.4552789913335193,-0.10040691724667963
-1.193359613418579,-0.1296389102935791,118.92089080810547,-0.5110872950962383,-0.7726636482863168,-0.4552789913335193,-0.10040691724667963
0.3823242485523224,-0.9255475401878357,118.0012435913086,-0.5110872950962383,-0.7726636482863168,-0.4552789913335193,-0.10040691724667963
1.0055030584335327,1.0981918573379517,117.05634307861328,-0.5110872950962383,-0.7726636482863168,-0.4552789913335193,-0.10040691724667963
0.7156069278717041,0.31876417994499207,116.18742370605469,-0.5110872950962383,-0.7726636482863168,-0.4552789913335193,-0.10040691724667963
0.6579766273498535,-0.8358340263366699,115.20779418945312,-0.5110872950962383,-0.7726636482863168,-0.4552789913335193,-0.10040691724667963
0.1999196857213974,0.8133823275566101,114.20659637451172,-0.5110872950962383,-0.7726636482863168,-0.4552789913335193,-0.10040691724667963
0.05742441862821579,0.14788706600666046,113.2215576171875,-0.5110872950962383,-0.7726636482863168,-0.4552789913335193,-0.10040691724667963
0.2343342900276184,-0.32004672288894653,112.17863464355469,-0.5110872950962383,-0.7726636482863168,-0.4552789913335193,-0.10040691724667963
0.8914142847061157,0.9201189875602722,111.0394515991211,-0.5110872950962383,-0.7726636482863168,-0.4552789913335193,-0.10040691724667963
-0.3392968475818634,-1.7178469896316528,109.86522674560547,-0.5110872950962383,-0.7726636482863168,-0.4552789913335193,-0.10040691724667963
0.6372445225715637,1.0668797492980957,108.62091827392578,-0.5110872950962383,-0.7726636482863168,-0.4552789913335193,-0.10040691724667963
1.3769068717956543,0.36979907751083374,107.36888885498047,-0.5110872950962383,-0.7726636482863168,-0.4552789913335193,-0.10040691724667963
-0.32496199011802673,-0.22657911479473114,106.06085205078125,-0.5110872950962383,-0.7726636482863168,-0.4552789913335193,-0.10040691724667963
0.1658429056406021,-1.044041633605957,104.67526245117188,-0.5110872950962383,-0.7726636482863168,-0.4552789913335193,-0.10040691724667963
-0.6627697348594666,0.8334142565727234,103.40665435791016,-0.5110872950962383,-0.7726636482863168,-0.4552789913335193,-0.10040691724667963
-0.0344785712659359,0.11559174954891205,102.03401947021484,-0.5110872950962383,-0.7726636482863168,-0.4552789913335193,-0.10040691724667963
1.5762414932250977,-0.472073495388031,100.41514587402344,-0.5110872950962383,-0.7726636482863168,-0.4552789913335193,-0.10040691724667963
-0.4450879693031311,0.9991459250450134,98.8171157836914,-0.5110872950962383,-0.7726636482863168,-0.4552789913335193,-0.10040691724667963
-0.0240308977663517,-1.2923429012298584,97.24734497070312,-0.5110872950962383,-0.7726636482863168,-0.4552789913335193,-0.10040691724667963
-0.0025664805434644222,0.655335545539856,95.47688293457031,-0.5110872950962383,-0.7726636482863168,-0.4552789913335193,-0.10040691724667963
0.8537729978561401,0.6066139340400696,93.65934753417969,-0.5110872950962383,-0.7726636482863168,-0.4552789913335193,-0.10040691724667963
0.01023486815392971,0.4086352288722992,91.7663345336914,-0.5110872950962383,-0.7726636482863168,-0.4552789913335193,-0.10040691724667963
-0.13570734858512878,0.1782986968755722,89.89446258544922,-0.5110872950962383,-0.7726636482863168,-0.4552789913335193,-0.10040691724667963
-0.49654996395111084,-0.5173101425170898,87.87535095214844,-0.5110872950962383,-0.7726636482863168,-0.4552789913335193,-0.10040691724667963
1.4708102941513062,0.1262139528989792,85.85555267333984,-0.5110872950962383,-0.7726636482863168,-0.4552789913335193,-0.10040691724667963
-0.09306406229734421,-0.2836706340312958,83.8543472290039,-0.5110872950962383,-0.7726636482863168,-0.4552789913335193,-0.10040691724667963
-2.0714144706726074,0.5428553223609924,82.0158462524414,-0.5110872950962383,-0.7726636482863168,-0.4552789913335193,-0.10040691724667963
-0.142055481672287,0.399310827255249,80.5975112915039,-0.5110872950962383,-0.7726636482863168,-0.4552789913335193,-0.10040691724667963
-1.24253511428833,0.9518634676933289,79.59965515136719,-0.5110872950962383,-0.7726636482863168,-0.4552789913335193,-0.10040691724667963
-1.2825955152511597,1.0627896785736084,78.97409057617188,-0.5110872950962383,-0.7726636482863168,-0.4552789913335193,-0.10040691724667963
-0.760703980922699,1.6047825813293457,78.7708969116211,-0.5110872950962383,-0.7726636482863168,-0.4552789913335193,-0.10040691724667963
-0.3711912930011749,0.5464955568313599,78.87227630615234,-0.5110872950962383,-0.7726636482863168,-0.4552789913335193,-0.10040691724667963
0.712151288986206,0.44615438580513,78.93638610839844,-0.5110872950962383,-0.7726636482863168,-0.4552789913335193,-0.10040691724667963
0.33857303857803345,1.2720075845718384,78.90524291992188,-0.5110872950962383,-0.7726636482863168,-0.4552789913335193,-0.10040691724667963
0.4750259518623352,0.6359940767288208,78.9241943359375,-0.5110872950962383,-0.7726636482863168,-0.4552789913335193,-0.10040691724667963
0.2112124264240265,0.5303892493247986,78.9351806640625,-0.5110872950962383,-0.7726636482863168,-0.4552789913335193,-0.10040691724667963
0.04800696298480034,-0.2531307339668274,78.92874145507812,-0.5110872950962383,-0.7726636482863168,-0.4552789913335193,-0.10040691724667963
0.18837958574295044,-0.36481738090515137,78.92218017578125,-0.5110872950962383,-0.7726636482863168,-0.4552789913335193,-0.10040691724667963
-0.03527926281094551,-0.3189796209335327,78.9204330444336,-0.5110872950962383,-0.7726636482863168,-0.4552789913335193,-0.10040691724667963
0.2531999945640564,-0.003984059207141399,78.91798400878906,-0.5110872950962383,-0.7726636482863168,-0.4552789913335193,-0.10040691724667963
0.1996261328458786,0.360533207654953,78.92498016357422,-0.5110872950962383,-0.7726636482863168,-0.4552789913335193,-0.10040691724667963
0.26521462202072144,0.4199180006980896,78.92430877685547,-0.5110872950962383,-0.7726636482863168,-0.4552789913335193,-0.10040691724667963
0.20888091623783112,0.15891101956367493,78.92572021484375,-0.5110872950962383,-0.7726636482863168,-0.4552789913335193,-0.10040691724667963
0.1663241684436798,-0.061476077884435654,78.92761993408203,-0.5110872950962383,-0.7726636482863168,-0.4552789913335193,-0.10040691724667963
0.12134356051683426,-0.08684586733579636,78.924560546875,-0.5110872950962383,-0.7726636482863168,-0.4552789913335193,-0.10040691724667963
0.2089877426624298,0.08363751322031021,78.92440795898438,-0.5110872950962383,-0.7726636482863168,-0.4552789913335193,-0.10040691724667963
0.18215203285217285,0.2453707903623581,78.92449188232422,-0.5110872950962383,-0.7726636482863168,-0.4552789913335193,-0.10040691724667963
0.2413347065448761,0.17379175126552582,78.9250259399414,-0.5110872950962383,-0.7726636482863168,-0.4552789913335193,-0.10040691724667963
0.1646641492843628,0.06786859780550003,78.92591094970703,-0.5110872950962383,-0.7726636482863168,-0.4552789913335193,-0.10040691724667963
0.19041113555431366,0.0069043501280248165,78.9239501953125,-0.5110872950962383,-0.7726636482863168,-0.4552789913335193,-0.10040691724667963
0.17606444656848907,0.09503045678138733,78.9228286743164,-0.5110872950962383,-0.7726636482863168,-0.4552789913335193,-0.10040691724667963
0.1947452425956726,0.14833712577819824,78.9238052368164,-0.5110872950962383,-0.7726636482863168,-0.4552789913335193,-0.10040691724667963
0.18249866366386414,0.13872793316841125,78.92314147949219,-0.5110872950962383,-0.7726636482863168,-0.4552789913335193,-0.10040691724667963
0.1814681887626648,0.06948243826627731,78.92324829101562,-0.5186500028092673,-0.774322637853523,-0.4522459342299649,-0.09867183081805724
0.1714552789926529,0.33010444045066833,78.91509246826172,-0.5261629264722837,-0.7759394192783574,-0.4493049053320039,-0.0953419401620827
0.5422529578208923,1.7169746160507202,78.97920989990234,-0.5336017784891495,-0.7773862933465795,-0.44335733669189104,-0.07828294802457113
0.9363164901733398,3.129324436187744,79.0439453125,-0.5408883890001258,-0.7783544606016947,-0.43103592462527246,-0.03789712258925059
0.964007556438446,1.4429349899291992,78.9154052734375,-0.5479403541295323,-0.778668561295813,-0.41519989090350756,0.00020503929505726742
0.06337424367666245,1.4656869173049927,78.81532287597656,-0.5547890063529162,-0.7784631563417819,-0.4066383759025483,0.024443555188675532
-0.07068957388401031,1.376633882522583,78.79174041748047,-0.5615668206270008,-0.7778583803664271,-0.4066993369876095,0.04812956185390533
0.5052700042724609,1.9813786745071411,78.76216125488281,-0.5683149637135729,-0.7768230256857349,-0.4030778334010391,0.07611299982915304
1.0947142839431763,1.7021986246109009,78.75350189208984,-0.5749218175835753,-0.775298671709477,-0.3897446309992421,0.10680947732180339
-0.46241042017936707,2.1098551750183105,78.74639129638672,-0.5813736514430236,-0.773253787795806,-0.3844754321345437,0.1385765923187135
1.7879223823547363,0.9804821610450745,78.76220703125,-0.5876895258701149,-0.7707295711643786,-0.37342949911641565,0.16432940345257505
-0.5607592463493347,0.9659771919250488,78.86588287353516,-0.5938281311931659,-0.7678555769851017,-0.36320313964970397,0.1805498980606594
0,-0.27240458130836487,78.92201232910156,-0.5999204584683241,-0.7647982472527979,-0.36787613336928177,0.18632966981579843
1.9372998476028442,2.563852310180664,79.08592987060547,-0.605917192646173,-0.7615336244413629,-0.3517319679725914,0.20542506755640091
-0.2887412905693054,0.8723981976509094,79.24422454833984,-0.6116649088792556,-0.7578712448079346,-0.3379939799973119,0.23406048845499736
0.7716392278671265,0.6711044311523438,79.24205780029297,-0.6116649088792556,-0.7578712448079346,-0.3379939799973119,0.23406048845499736
-0.32513192296028137,0,79.13700103759766,-0.6172671344274812,-0.7539236321926324,-0.33427308578975484,0.2396530253812669
0.38355711102485657,0.34532058238983154,79.03533172607422,-0.6228342952192504,-0.7499054345069452,-0.33378620922255003,0.24253069690118217
0,0.5135326385498047,79.0090103149414,-0.6283707627958051,-0.7458036136404714,-0.33058989996400956,0.24968780707567914
-0.4127296507358551,-1.8653215169906616,78.97512817382812,-0.633909256243173,-0.7417360244168796,-0.33402931372014166,0.23842289975533867
0.7023910880088806,0.6123937368392944,78.92652893066406,-0.6394562960942536,-0.7378493182945789,-0.3316154684095331,0.22798183492074395
1.0969151258468628,1.744016408920288,78.98139190673828,-0.6448582687473392,-0.7338859814524443,-0.31662124996073526,0.24761858613540713
-0.9151808023452759,1.3213226795196533,78.94956970214844,-0.6501226691408861,-0.7295461342468237,-0.3151067972648887,0.2731630785390733
0.9903491139411926,0.9044541120529175,78.8863525390625,-0.6553692290736624,-0.7248388484384244,-0.31448039466825606,0.29171121846884474
0.5785293579101562,-0.33071380853652954,78.84278106689453,-0.6605016190909214,-0.7199371517206439,-0.30140640740282815,0.2964923876648146
0.489065557718277,1.701228380203247,78.95057678222656,-0.6654509206784943,-0.7149004373031979,-0.2925097831059245,0.30791334242870394
0.7041273713111877,-0.26757076382637024,78.99662017822266,-0.6702432231101882,-0.7096689887060266,-0.2825665086973456,0.31986048923184457
0.23350022733211517,0.8368958234786987,79.00690460205078,-0.6748875518941271,-0.7042984440896867,-0.2747529453753181,0.3246048647289473
-1.0266786813735962,-0.14645716547966003,79.1172103881836,-0.6795218494874686,-0.6988404158818432,-0.2813627658256638,0.33035852021227263
-0.21908308565616608,0.530090868473053,79.1847915649414,-0.6842977401517178,-0.6933077993155975,-0.29174411388424515,0.33355546773721756
1.3611021041870117,0.85055011510849,79.15462493896484,-0.6890808351735017,-0.6876526636738951,-0.28222728872982145,0.34506080926706373
0.42644745111465454,1.2074496746063232,79.12287902832031,-0.6890808351735017,-0.6876526636738951,-0.28222728872982145,0.34506080926706373
-1.4571337699890137,-0.8126020431518555,79.02278137207031,-0.6938561987578095,-0.6818742302117041,-0.29081634138710777,0.34835120619585097
1.3031814098358154,1.1094093322753906,79.01697540283203,-0.6987138289170497,-0.6760477651578064,-0.29209927772171773,0.35082460027188045
0.520605742931366,0,79.15940856933594,-0.7034554983268029,-0.670123646171867,-0.2769010514486579,0.36006967804084206
-0.5554679036140442,-1.495275616645813,79.20071411132812,-0.7080729368343279,-0.6642263234556757,-0.27719156945434686,0.34760904790212693
0.6148850321769714,-0.5055984258651733,79.26361846923828,-0.7126886701357502,-0.658571788910259,-0.2766964267163225,0.3309350975478687
0.10625950992107391,0.9075037837028503,79.34129333496094,-0.7172501977655987,-0.6530282938568336,-0.27068688886550546,0.33428430886318267
-0.350570946931839,0.9481768012046814,79.31248474121094,-0.7217786119853717,-0.6473280220018286,-0.27272281750726185,0.3497483137374121
0.5181342959403992,0.6611606478691101,79.09403228759766,-0.7263123559334783,-0.6413871238944638,-0.2713264562655239,0.3631594591463604
0.9696540832519531,1.8700159788131714,78.93740844726562,-0.7307311449004598,-0.6351586900873938,-0.2589282197722543,0.38425259770204606
-1.371141791343689,0.8387435674667358,78.92513275146484,-0.735074496320837,-0.628566371823868,-0.26227395067301873,0.4068255939210453
0.1463974565267563,-1.5599650144577026,79.03081512451172,-0.7395307805219719,-0.6218360300812249,-0.27248015346315985,0.4008154151961206
1.2276328802108765,0.07067828625440598,79.06584930419922,-0.7439766976396399,-0.6152591958507481,-0.2610299006570129,0.3884046924610931
1.301095962524414,0.5687479376792908,79.17682647705078,-0.7481515898142891,-0.6087413797108455,-0.2399571603008855,0.39373324432720724
0.07130441814661026,0,79.28795623779297,-0.7520555702373128,-0.6021396625874976,-0.22852049046196032,0.39847281047453464
0.2264244109392166,0.391972154378891,79.20448303222656,-0.7520555702373128,-0.6021396625874976,-0.22852049046196032,0.39847281047453464
-0.546690046787262,0.2503186762332916,79.0345687866211,-0.7558864857475016,-0.5954538455496851,-0.23118937076069404,0.4038252340629695
-0.32302796840667725,-0.26322126388549805,78.96490478515625,-0.7598000390112349,-0.5887243209950003,-0.2384370208873102,0.40371771249920113
0.23802877962589264,-0.6813675761222839,78.89865112304688,-0.7637798920807999,-0.5820612889005696,-0.2391453474604834,0.3958461388324696
0.5386703014373779,-0.5653864741325378,78.84941101074219,-0.767711710435623,-0.5755504333957406,-0.2326728551182895,0.3854565217470128
0.2800368368625641,0.5241020321846008,78.8333511352539,-0.7715327366918793,-0.5691290250084257,-0.22585029563245665,0.38511248473077997
0.33534592390060425,0.8978636860847473,78.90472412109375,-0.7752541733718117,-0.5626117359769217,-0.22072210595943026,0.3969621990496912
0.712013304233551,-0.3620307743549347,79.02579498291016,-0.7788601418580706,-0.5559584887072234,-0.21199411239164564,0.40142747331410633
0.47825637459754944,0.6820889711380005,79.05195617675781,-0.7823107194480126,-0.5492458045549895,-0.20207519840138646,0.4040946249539652
-0.12889422476291656,-0.15813158452510834,79.15294647216797,-0.7856543781609638,-0.5424745082094642,-0.19916384715276453,0.4084609365090726
-0.33486267924308777,0.8828677535057068,79.26593017578125,-0.7890059809540659,-0.5356164970336893,-0.20302848801948123,0.4145004045839109
0.08299224078655243,0.8829101324081421,79.26986694335938,-0.7924072800903945,-0.5285855334929912,-0.20512740833995236,0.42921522029985965
-1.5027958154678345,-1.0439146757125854,79.16361999511719,-0.7959246676998577,-0.5214431273590564,-0.21695910479562971,0.42787351577232263
0.7630742788314819,1.0284957885742188,79.10928344726562,-0.7995920223309402,-0.5143129728522357,-0.223123450934266,0.42774502504616957
1.6785635948181152,0.09038539975881577,79.12887573242188,-0.8031411883275078,-0.507106189018943,-0.20277646865385268,0.43706903494894483
0.2195974588394165,0.2869962155818939,79.26483917236328,-0.8031411883275078,-0.507106189018943,-0.20277646865385268,0.43706903494894483
0.30092304944992065,-0.8841001391410828,79.43094635009766,-0.8064846488808852,-0.49986317065337443,-0.19843879775144155,0.43209316891928495
-0.38874998688697815,-0.9453794360160828,79.50399017333984,-0.8097980612696202,-0.4927886650307723,-0.19917068889675035,0.41684750579297525
-0.9319571852684021,-1.2560911178588867,79.14607238769531,-0.8132092885270769,-0.485994086500464,-0.21017658199804518,0.3985019178440172
-0.4012153744697571,-1.6215498447418213,78.83967590332031,-0.8168048129881372,-0.47955222404768877,-0.2212863533291965,0.3745215764890113
0.11350474506616592,1.2586052417755127,78.74066925048828,-0.8205128987817769,-0.473335402259189,-0.22368394190755975,0.37149703813095875
1.0680099725723267,1.0687251091003418,78.73683166503906,-0.8241589148470669,-0.4669821647937511,-0.213837985927239,0.39089145772159084
0.380280077457428,1.0092829465866089,78.86504364013672,-0.8276223055812688,-0.46032300105007967,-0.20176890217699103,0.4082081915189821
0.6312907338142395,-0.5486196875572205,78.89033508300781,-0.830914872644547,-0.4534875406873307,-0.1933391454163938,0.41204705201089364
0.7028073668479919,1.3593268394470215,78.9754867553711,-0.8340445460333854,-0.44656379071271235,-0.18222166124420855,0.41880294494330866
-0.06189515069127083,0.1647505760192871,79.071533203125,-0.8370370659280002,-0.4394779029209165,-0.1768807261095692,0.4315035900721946
0.1787637323141098,-0.6932907700538635,78.91558837890625,-0.8399769621561025,-0.4323228805998545,-0.1759068212627122,0.42709908845523975
0.3744068741798401,0.10728783160448074,78.82331085205078,-0.8428703278850301,-0.42524525710743727,-0.17129706620859594,0.4222157306348282
0.4586317241191864,0.5400317907333374,78.79940795898438,-0.8456674290858471,-0.41816337551197225,-0.1643550778894374,0.4276100608209767
-0.7542943954467773,0.3050585687160492,78.81803131103516,-0.8484272125139577,-0.4109778543344387,-0.166818933483834,0.43465248048305494
0.00508927833288908,0.36552971601486206,78.79051971435547,-0.8484272125139577,-0.4109778543344387,-0.166818933483834,0.43465248048305494
0.384235143661499,0.28561317920684814,78.780029296875,-0.8484272125139577,-0.4109778543344387,-0.166818933483834,0.43465248048305494
0.9462354779243469,0.43353164196014404,78.76344299316406,-0.8484272125139577,-0.4109778543344387,-0.166818933483834,0.43465248048305494
0.30129656195640564,-2.037520408630371,78.7515869140625,-0.8484272125139577,-0.4109778543344387,-0.166818933483834,0.43465248048305494
-0.26228103041648865,-0.569172739982605,78.77127838134766,-0.8484272125139577,-0.4109778543344387,-0.166818933483834,0.43465248048305494
-1.219482421875,-2.3728158473968506,78.56451416015625,-0.8484272125139577,-0.4109778543344387,-0.166818933483834,0.43465248048305494
-0.9770964980125427,-3.1657495498657227,77.9311752319336,-0.8484272125139577,-0.4109778543344387,-0.166818933483834,0.43465248048305494
1.0146970748901367,-0.3720623552799225,77.03077697753906,-0.8484272125139577,-0.4109778543344387,-0.166818933483834,0.43465248048305494
-0.3195475935935974,-2.0540859699249268,75.99630737304688,-0.8484272125139577,-0.4109778543344387,-0.166818933483834,0.43465248048305494
0.0305558480322361,-2.2200121879577637,74.77397918701172,-0.8484272125139577,-0.4109778543344387,-0.166818933483834,0.43465248048305494
-0.5868498682975769,-1.4764524698257446,73.38846588134766,-0.8484272125139577,-0.4109778543344387,-0.166818933483834,0.43465248048305494
2.178236246109009,-2.087341070175171,71.95712280273438,-0.8484272125139577,-0.4109778543344387,-0.166818933483834,0.43465248048305494
0.4329862594604492,0.025133825838565826,70.57461547851562,-0.8484272125139577,-0.4109778543344387,-0.166818933483834,0.43465248048305494
-2.187511920928955,-2.4204137325286865,69.17137145996094,-0.8484272125139577,-0.4109778543344387,-0.166818933483834,0.43465248048305494
1.7290118932724,0.32707151770591736,67.7463607788086,-0.8484272125139577,-0.4109778543344387,-0.166818933483834,0.43465248048305494
-0.7581869959831238,-2.2911956310272217,66.18978118896484,-0.8484272125139577,-0.4109778543344387,-0.166818933483834,0.43465248048305494
0.31703290343284607,-1.3229436874389648,64.5277099609375,-0.8484272125139577,-0.4109778543344387,-0.166818933483834,0.43465248048305494
-0.33018019795417786,0.1511046588420868,62.854496002197266,-0.8484272125139577,-0.4109778543344387,-0.166818933483834,0.43465248048305494
1.4023211002349854,-1.0039799213409424,61.17368698120117,-0.8484272125139577,-0.4109778543344387,-0.166818933483834,0.43465248048305494
-0.9110238552093506,-0.25746867060661316,59.440391540527344,-0.8484272125139577,-0.4109778543344387,-0.166818933483834,0.43465248048305494
-0.5556581020355225,-1.4978411197662354,57.72059631347656,-0.8484272125139577,-0.4109778543344387,-0.166818933483834,0.43465248048305494
0.6087595224380493,-0.8387178182601929,55.99380874633789,-0.8484272125139577,-0.4109778543344387,-0.166818933483834,0.43465248048305494
0.3404877185821533,-0.9614968299865723,54.18040084838867,-0.8484272125139577,-0.4109778543344387,-0.166818933483834,0.43465248048305494
0.30461037158966064,-0.8687109351158142,52.2746696472168,-0.8484272125139577,-0.4109778543344387,-0.166818933483834,0.43465248048305494
-0.3859773278236389,-0.6868159174919128,50.33423614501953,-0.8484272125139577,-0.4109778543344387,-0.166818933483834,0.43465248048305494
0.8981196284294128,-0.8885779976844788,48.423248291015625,-0.8484272125139577,-0.4109778543344387,-0.166818933483834,0.43465248048305494
0.4140433967113495,-0.44202032685279846,46.48430252075195,-0.8484272125139577,-0.4109778543344387,-0.166818933483834,0.43465248048305494
-1.0359305143356323,-1.2869939804077148,44.545101165771484,-0.8484272125139577,-0.4109778543344387,-0.166818933483834,0.43465248048305494
0.5264476537704468,-0.5857521891593933,42.57181167602539,-0.8484272125139577,-0.4109778543344387,-0.166818933483834,0.43465248048305494
0.1657961755990982,-0.6795710921287537,40.64207458496094,-0.8484272125139577,-0.4109778543344387,-0.166818933483834,0.43465248048305494
0.05200538784265518,-0.3092687427997589,38.700103759765625,-0.8484272125139577,-0.4109778543344387,-0.166818933483834,0.43465248048305494
-0.23325049877166748,-0.4984509348869324,36.78597640991211,-0.8484272125139577,-0.4109778543344387,-0.166818933483834,0.43465248048305494
1.2455790042877197,-0.37121546268463135,34.86705017089844,-0.8484272125139577,-0.4109778543344387,-0.166818933483834,0.43465248048305494
-0.9893923997879028,-1.1014658212661743,32.85795974731445,-0.8484272125139577,-0.4109778543344387,-0.166818933483834,0.43465248048305494
-0.9646137356758118,-0.010699847713112831,30.828514099121094,-0.8484272125139577,-0.4109778543344387,-0.166818933483834,0.43465248048305494
1.0284790992736816,-1.1036123037338257,28.837366104125977,-0.8484272125139577,-0.4109778543344387,-0.166818933483834,0.43465248048305494
-0.019134238362312317,0.11231590062379837,26.676851272583008,-0.8484272125139577,-0.4109778543344387,-0.166818933483834,0.43465248048305494
-0.8450539708137512,0.6458526253700256,24.469457626342773,-0.8484272125139577,-0.4109778543344387,-0.166818933483834,0.43465248048305494
0.2396458089351654,-0.7802552580833435,22.2088565826416,-0.8484272125139577,-0.4109778543344387,-0.166818933483834,0.43465248048305494
-0.2031499445438385,-0.7981186509132385,19.90229606628418,-0.8484272125139577,-0.4109778543344387,-0.166818933483834,0.43465248048305494
0.15144877135753632,-1.0523393154144287,17.51284408569336,-0.8484272125139577,-0.4109778543344387,-0.166818933483834,0.43465248048305494
-1.0175366401672363,-0.14377504587173462,15.105822563171387,-0.8484272125139577,-0.4109778543344387,-0.166818933483834,0.43465248048305494
-0.0844675675034523,0.29894256591796875,12.741591453552246,-0.8484272125139577,-0.4109778543344387,-0.166818933483834,0.43465248048305494
-0.683684766292572,1.135306477546692,10.465657234191895,-0.8484272125139577,-0.4109778543344387,-0.166818933483834,0.43465248048305494
-1.112807035446167,0.1456466168165207,8.254691123962402,-0.8484272125139577,-0.4109778543344387,-0.166818933483834,0.43465248048305494
0.06316957622766495,-0.3524344861507416,6.123350620269775,-0.8484272125139577,-0.4109778543344387,-0.166818933483834,0.43465248048305494
-0.9856209754943848,1.5900832414627075,3.889575481414795,-0.8484272125139577,-0.4109778543344387,-0.166818933483834,0.43465248048305494
2.22959303855896,-1.8914340734481812,1.7861335277557373,-0.8484272125139577,-0.4109778543344387,-0.166818933483834,0.43465248048305494
-0.9786627888679504,0.4556920528411865,-0.4965561330318451,-0.8484272125139577,-0.4109778543344387,-0.166818933483834,0.43465248048305494
-0.4417121112346649,0.923061728477478,-2.816438674926758,-0.8484272125139577,-0.4109778543344387,-0.166818933483834,0.43465248048305494
-0.23733416199684143,-1.0411872863769531,-4.9033708572387695,-0.8484272125139577,-0.4109778543344387,-0.166818933483834,0.43465248048305494
-0.30958372354507446,-0.2685244679450989,-6.558915138244629,-0.8484272125139577,-0.4109778543344387,-0.166818933483834,0.43465248048305494
0.6540424823760986,2.513772487640381,-7.821730613708496,-0.8484272125139577,-0.4109778543344387,-0.166818933483834,0.43465248048305494
-0.10849656164646149,2.6729142665863037,-8.780291557312012,-0.8484272125139577,-0.4109778543344387,-0.166818933483834,0.43465248048305494
0.5991860628128052,-0.399258553981781,-9.342806816101074,-0.8484272125139577,-0.4109778543344387,-0.166818933483834,0.43465248048305494
0.851961076259613,0.8354073762893677,-9.574275016784668,-0.8484272125139577,-0.4109778543344387,-0.166818933483834,0.43465248048305494
0.9011940956115723,0.43346959352493286,-9.580554962158203,-0.8484272125139577,-0.4109778543344387,-0.166818933483834,0.43465248048305494
1.3716810941696167,-0.477078914642334,-9.48548698425293,-0.8484272125139577,-0.4109778543344387,-0.166818933483834,0.43465248048305494
1.7344856262207031,-0.14202159643173218,-9.425884246826172,-0.8484272125139577,-0.4109778543344387,-0.166818933483834,0.43465248048305494
0.7428674697875977,-0.6607858538627625,-9.408488273620605,-0.8484272125139577,-0.4109778543344387,-0.166818933483834,0.43465248048305494
-0.16478581726551056,0.02900536358356476,-9.393473625183105,-0.8484272125139577,-0.4109778543344387,-0.166818933483834,0.43465248048305494
-0.2379848062992096,0.012393571436405182,-9.394460678100586,-0.8484272125139577,-0.4109778543344387,-0.166818933483834,0.43465248048305494
-0.33739492297172546,-0.1645304411649704,-9.393760681152344,-0.8484272125139577,-0.4109778543344387,-0.166818933483834,0.43465248048305494
-0.21393458545207977,0.037251152098178864,-9.386937141418457,-0.8484272125139577,-0.4109778543344387,-0.166818933483834,0.43465248048305494
-0.15112216770648956,-0.09078744053840637,-9.392426490783691,-0.8484272125139577,-0.4109778543344387,-0.166818933483834,0.43465248048305494
0.11062268167734146,-0.13089819252490997,-9.39323616027832,-0.8484272125139577,-0.4109778543344387,-0.166818933483834,0.43465248048305494
0.06058881804347038,-0.07750837504863739,-9.392322540283203,-0.8484272125139577,-0.4109778543344387,-0.166818933483834,0.43465248048305494
0.1279059499502182,-0.12995052337646484,-9.39627456665039,-0.8484272125139577,-0.4109778543344387,-0.166818933483834,0.43465248048305494
0.13431324064731598,-0.11456708610057831,-9.394055366516113,-0.8484272125139577,-0.4109778543344387,-0.166818933483834,0.43465248048305494
0.22595390677452087,-0.1257418841123581,-9.392555236816406,-0.8484272125139577,-0.4109778543344387,-0.166818933483834,0.43465248048305494
0.22557330131530762,-0.14026975631713867,-9.392106056213379,-0.8484272125139577,-0.4109778543344387,-0.166818933483834,0.43465248048305494
0.24772284924983978,-0.1257714182138443,-9.391446113586426,-0.8484272125139577,-0.4109778543344387,-0.166818933483834,0.43465248048305494
0.17102473974227905,-0.12400655448436737,-9.390955924987793,-0.8484272125139577,-0.4109778543344387,-0.166818933483834,0.43465248048305494
0.036371782422065735,-0.09786652028560638,-9.390771865844727,-0.8484272125139577,-0.4109778543344387,-0.166818933483834,0.43465248048305494
0.06329579651355743,-0.09816539287567139,-9.390708923339844,-0.8484272125139577,-0.4109778543344387,-0.166818933483834,0.43465248048305494
0.16707643866539001,-0.12487473338842392,-9.391597747802734,-0.8484272125139577,-0.4109778543344387,-0.166818933483834,0.43465248048305494
0.1853250116109848,-0.12380374222993851,-9.391022682189941,-0.8484272125139577,-0.4109778543344387,-0.166818933483834,0.43465248048305494
0.09404432028532028,-0.11200406402349472,-9.391361236572266,-0.8511881274239732,-0.4037500218684887,-0.16449085571803146,0.43268741543094297
0.35850051045417786,-0.12614719569683075,-9.405339241027832,-0.8538982149615835,-0.3965551032265647,-0.1607196487952023,0.4307028215999403
1.9919456243515015,-0.5394302010536194,-9.387114524841309,-0.8564136503488087,-0.38942294351911777,-0.14113259767182165,0.4251563432936865
3.1416890621185303,-0.2688954472541809,-9.366225242614746,-0.8584093579012231,-0.3823931381897999,-0.09835230861790473,0.41842029622445487
1.7257747650146484,-0.49183350801467896,-9.333333969116211,-0.8597105447235261,-0.3754722949857304,-0.057790110058461575,0.41208088826388106
1.187903881072998,-0.19584453105926514,-9.300265312194824,-0.8604713744296333,-0.3686520356007125,-0.03350945467439785,0.40635023793826486
1.6420844793319702,-0.8857065439224243,-9.224328994750977,-0.8608333383714006,-0.36195463934861516,-0.009926218337689783,0.39733731231341746
1.0969209671020508,-0.24553152918815613,-9.176817893981934,-0.8608085666321376,-0.3554109090095798,0.012898827049260393,0.3879103283708293
2.0057389736175537,0.17332057654857635,-9.107857704162598,-0.8603781236854332,-0.3489507515195548,0.038754326555257096,0.3873085704321661
1.1076676845550537,-0.9755447506904602,-9.054354667663574,-0.8595160094471391,-0.3425513186911119,0.06469938204002883,0.38062336898098376
0.304469496011734,-0.13517606258392334,-8.950345993041992,-0.8583396213311548,-0.33628472926457287,0.07646719187808539,0.3713673622036972
1.3632094860076904,-0.06464382261037827,-8.868829727172852,-0.8569493570927688,-0.33010914960876087,0.09036451672824726,0.3697021964937447
1.9846932888031006,0,-8.789941787719727,-0.8552107885657139,-0.32395193548821305,0.11826370651833719,0.36916349797199155
0.950921356678009,-0.43065428733825684,-8.876668930053711,-0.8530358646622498,-0.31782911706974504,0.14272716189734644,0.36557471224417276
-0.13582661747932434,-1.009795904159546,-8.927729606628418,-0.8506004748292941,-0.3118362364623073,0.1495196180573355,0.35357096064835775
1.664504051208496,0.38804376125335693,-8.99013900756836,-0.8480023230398851,-0.30598656435031424,0.16225859667174525,0.34838969279080617
0.6568557620048523,-0.09773088991641998,-9.028862953186035,-0.8480023230398851,-0.30598656435031424,0.16225859667174525,0.34838969279080617
0.3151189684867859,-0.978134274482727,-9.030487060546875,-0.845230514850183,-0.3002547823291063,0.1703583860925089,0.3394241497541466
-0.4400016963481903,-0.8530523180961609,-9.040268898010254,-0.8423998808269648,-0.29472487890213295,0.16931769669366387,0.32416426148265587
-1.8552656173706055,0.5118241310119629,-9.10783576965332,-0.8397373127788564,-0.2893458376126362,0.15019046907934058,0.3213206932569542
-1.8783460855484009,1.0782208442687988,-9.255566596984863,-0.8374934168846813,-0.2838800729350703,0.1190770382216822,0.3345710680509606
1.3829731941223145,-0.2199520468711853,-9.219971656799316,-0.8355432004762244,-0.27824428646773497,0.11494893079313148,0.34172330802927403
1.9255133867263794,0.20917554199695587,-9.317703247070312,-0.8333976289504467,-0.27254964636897444,0.14251965230020394,0.34163350382198876
2.121530771255493,-1.3471794128417969,-9.317329406738281,-0.8307412566789167,-0.2669347826851944,0.1762450202833862,0.3321501382316151
1.458345651626587,-0.18741212785243988,-9.142780303955078,-0.8275552371448268,-0.26150551590499344,0.20607732380740354,0.31936187539249644
-0.07819461822509766,0,-9.056366920471191,-0.824024771259606,-0.25619583271288604,0.21757858241908262,0.3178001076603928
-0.21500200033187866,-0.5630123019218445,-9.167158126831055,-0.8204188224289101,-0.25093826232840183,0.21513527726444115,0.31310833847771075
0.7379586696624756,-0.2854230999946594,-9.270926475524902,-0.8167969180391326,-0.24577870914557307,0.2194932495088628,0.3060380434617399
1.5926220417022705,0.6436833143234253,-9.347467422485352,-0.8129768513312512,-0.24065319590632678,0.23891475543690233,0.30902354524781295
0.5169439315795898,0.5079176425933838,-9.383584976196289,-0.8088484411036027,-0.23542283119685511,0.25649447188091784,0.31862021988878636
0.4498286545276642,-2.2278082370758057,-9.313323974609375,-0.8045063962537744,-0.23023193104554773,0.2645509100984783,0.3042877982680995
-0.29175469279289246,-0.10800565034151077,-9.201376914978027,-0.800086237060346,-0.22532267703881673,0.26586819311293475,0.28482268253962184
1.0835922956466675,0.25028538703918457,-9.219326972961426,-0.7956001117860433,-0.22056575179255236,0.2724668398033829,0.2860083470121025
0.0024151867255568504,-1.24346125125885,-9.259593963623047,-0.7956001117860433,-0.22056575179255236,0.2724668398033829,0.2860083470121025
0.1977691799402237,0.3797563314437866,-9.227165222167969,-0.7910450960971906,-0.21585892551733782,0.27413504285893103,0.2788108060136436
1.551048755645752,1.6670191287994385,-9.103933334350586,-0.7863547330262373,-0.21106994156570463,0.28870852565548083,0.29586726818233716
-1.0008883476257324,0,-8.934535026550293,-0.7815047186814224,-0.2060230552120546,0.2932931957223143,0.30975909425566583
-0.6814186573028564,-0.42707139253616333,-8.932940483093262,-0.7767333256280594,-0.20089006137671964,0.27927397068124277,0.30620016598453115
0.6672155857086182,-0.3648013472557068,-9.02493667602539,-0.7720797457744549,-0.195841716439463,0.2791556117512908,0.2996012264862656
1.0327317714691162,-0.3539290726184845,-9.116239547729492,-0.7673091003454627,-0.19089827449940538,0.29332183972777187,0.2936118063206473
0,0.21208150684833527,-9.08107852935791,-0.7623486855325368,-0.18601459491946196,0.3019279378233478,0.2924297432725627
0.4917771816253662,-0.7033171653747559,-9.011702537536621,-0.7572824020423126,-0.18117487945231692,0.3060260810035592,0.28833611278484256
0.3939112424850464,-0.9246901869773865,-9.002069473266602,-0.7521204612183567,-0.1764823336387051,0.313406817871146,0.2747693848485747
-0.23130668699741364,0.17008675634860992,-8.93938159942627,-0.7468857222708176,-0.17195524690724476,0.31476185583354294,0.26848102292666826
1.238556981086731,0.5795272588729858,-8.853609085083008,-0.7415697434031691,-0.16742850666296547,0.32315560828428724,0.27472780638684824
0.954655110836029,0.9930956363677979,-8.895673751831055,-0.7360315102031585,-0.16274049996657072,0.34143237571697693,0.2878329971805214
0.17802156507968903,-2.263767957687378,-9.067639350891113,-0.7302623125053814,-0.15803152448032035,0.35087134801627456,0.27724406116952494
0.37978118658065796,0.283610463142395,-9.156676292419434,-0.7243757204029115,-0.15354830106461612,0.3555197042801108,0.26074274871498343
-1.2439335584640503,-0.7138563990592957,-9.249423027038574,-0.7185104025796238,-0.14923246677602728,0.34831843451441585,0.25715736591567595
0.0820779800415039,-0.6272710561752319,-9.251583099365234,-0.7185104025796238,-0.14923246677602728,0.34831843451441585,0.25715736591567595
-0.45472070574760437,0.39121025800704956,-9.068406105041504,-0.7127309733047799,-0.14496290378841659,0.345213078466865,0.2551901925976078
1.7069391012191772,1.3762212991714478,-8.930244445800781,-0.7068904623862021,-0.14058699560920795,0.35564823176246146,0.2699187889074286
-1.0185850858688354,-0.39144277572631836,-9.015947341918945,-0.7009151894946507,-0.136019961729956,0.3613845152237143,0.27812527660280467
-0.711511492729187,-1.1384202241897583,-9.152584075927734,-0.6950122598366582,-0.13149078093934788,0.34696704373539744,0.2653764182701707
-0.5828863978385925,0.20311254262924194,-9.371898651123047,-0.6893193645168021,-0.12713279255717563,0.3361803946473326,0.2575821875904998
0.9153314232826233,0.49179673194885254,-9.491291046142578,-0.6836932714792463,-0.12279149850882161,0.33895076985936623,0.2633730982119839
0.6130818724632263,-0.35813048481941223,-9.586941719055176,-0.6779379521693856,-0.11839266449368233,0.351687547323915,0.2644869836047292
0.47939392924308777,-0.3674517273902893,-9.657493591308594,-0.6720006266722018,-0.11403493575389585,0.3607915123381343,0.25844046516964836
0.1850118488073349,-2.037749767303467,-9.623400688171387,-0.6659412955097572,-0.109894622549311,0.3663282271552211,0.23839711938053373
0.44494321942329407,0.8000108003616333,-9.541380882263184,-0.659792078177432,-0.10600729132122862,0.3715778527238097,0.22808262798935178
0.05650266259908676,-0.3021690547466278,-9.565614700317383,-0.6535642913346725,-0.10217134184462727,0.37575656840732957,0.23223130920281015
0.1444682478904724,0.05265228450298309,-9.50163459777832,-0.6472877255479886,-0.09831814757806957,0.37743132599474255,0.2301520027841131
0.9238629937171936,1.6501660346984863,-9.279417991638184,-0.6409230137785201,-0.09436402959283426,0.3863340863414731,0.24434215544412535
-0.9179942011833191,-1.1354411840438843,-9.10500431060791,-0.6344837047844585,-0.09025591555413671,0.38638299294592204,0.24863152919958037
1.4909656047821045,0.6577521562576294,-9.070596694946289,-0.6344837047844585,-0.09025591555413671,0.38638299294592204,0.24863152919958037
0,-0.2288704365491867,-9.254351615905762,-0.6279404489572499,-0.08608227328138618,0.3988077063191062,0.2522055435304841
-1.2252336740493774,-0.4681563973426819,-9.421283721923828,-0.6213787395237405,-0.0819272521971206,0.3885974257020281,0.24639698658138517
0.4480173885822296,-0.18830423057079315,-9.453385353088379,-0.6149560891151974,-0.07786622329770262,0.3821206233231352,0.24092648134877287
-2.245037317276001,-0.16188229620456696,-9.484308242797852,-0.6087122051104156,-0.07387510045069359,0.3671454572506871,0.23800826029231154
-0.21764476597309113,0.2840065658092499,-9.379889488220215,-0.602764133745352,-0.06989981526043251,0.34662310655694467,0.23902596253901723
0.9861767292022705,-0.5069288611412048,-9.29353141784668,-0.5969337116941786,-0.06593152993306917,0.3530275395838545,0.23716827674458427
1.710634708404541,0.3667677938938141,-9.41278076171875,-0.590862640795725,-0.06198845872810716,0.37550096823057794,0.236000267850856
0.06915014237165451,-1.0980005264282227,-9.524599075317383,-0.5844806951550227,-0.058105900981463336,0.3903325086537129,0.22990666174640262
1.1053974628448486,0,-9.533032417297363,-0.5778935875382096,-0.05435037332224747,0.4001204053638504,0.22075665735950076
-1.5739275217056274,-0.6809124946594238,-9.672011375427246,-0.5712574509251219,-0.05071838128949603,0.39621598820667725,0.21508238657067222
-0.09172201156616211,-0.4385019838809967,-9.79664421081543,-0.5647695212281545,-0.0472114119632168,0.3823355754294123,0.2057539325828354
0.08178556710481644,0.14608736336231232,-9.666162490844727,-0.5583979516685297,-0.04380248632437223,0.38225277172556776,0.20331714407851303
1.2317543029785156,1.6211332082748413,-9.492480278015137,-0.5519358540932366,-0.04029114360558888,0.39319893730959554,0.21804398217548931
0.1368032842874527,-1.3531057834625244,-9.360715866088867,-0.5452874997500722,-0.03663846422038543,0.4046035838701453,0.2202775440489253
0.27367961406707764,-0.3798498809337616,-9.353570938110352,-0.5452874997500722,-0.03663846422038543,0.4046035838701453,0.2202775440489253
-0.1330023556947708,-0.037010181695222855,-9.518853187561035,-0.5452874997500722,-0.03663846422038543,0.4046035838701453,0.2202775440489253
-0.7002463936805725,0.5632941722869873,-9.639692306518555,-0.5452874997500722,-0.03663846422038543,0.4046035838701453,0.2202775440489253
-2.5154361724853516,0.33442047238349915,-9.788446426391602,-0.5452874997500722,-0.03663846422038543,0.4046035838701453,0.2202775440489253
-3.20464825630188,0.6850636601448059,-10.167540550231934,-0.5452874997500722,-0.03663846422038543,0.4046035838701453,0.2202775440489253
-2.843280076980591,-0.866673469543457,-10.76361083984375,-0.5452874997500722,-0.03663846422038543,0.4046035838701453,0.2202775440489253
-1.5364515781402588,0.071275994181633,-11.583455085754395,-0.5452874997500722,-0.03663846422038543,0.4046035838701453,0.2202775440489253
-1.9140379428863525,0.2593453526496887,-12.723689079284668,-0.5452874997500722,-0.03663846422038543,0.4046035838701453,0.2202775440489253
-1.1272621154785156,-0.40867942571640015,-14.098793983459473,-0.5452874997500722,-0.03663846422038543,0.4046035838701453,0.2202775440489253
-1.2427573204040527,0.7540029883384705,-15.605399131774902,-0.5452874997500722,-0.03663846422038543,0.4046035838701453,0.2202775440489253
-1.6928192377090454,-0.9603524804115295,-17.17759132385254,-0.5452874997500722,-0.03663846422038543,0.4046035838701453,0.2202775440489253
-1.023057460784912,0.7027440667152405,-18.779722213745117,-0.5452874997500722,-0.03663846422038543,0.4046035838701453,0.2202775440489253
-1.147026538848877,-1.1089650392532349,-20.31110954284668,-0.5452874997500722,-0.03663846422038543,0.4046035838701453,0.2202775440489253
-1.2044947147369385,0.4268914759159088,-21.814260482788086,-0.5452874997500722,-0.03663846422038543,0.4046035838701453,0.2202775440489253
-0.5471726059913635,-0.9339418411254883,-23.378406524658203,-0.5452874997500722,-0.03663846422038543,0.4046035838701453,0.2202775440489253
-1.6022086143493652,1.0575203895568848,-24.971513748168945,-0.5452874997500722,-0.03663846422038543,0.4046035838701453,0.2202775440489253
-0.9242728352546692,-0.8831567764282227,-26.628280639648438,-0.5452874997500722,-0.03663846422038543,0.4046035838701453,0.2202775440489253
-0.7895231246948242,0.2882518768310547,-28.322635650634766,-0.5452874997500722,-0.03663846422038543,0.4046035838701453,0.2202775440489253
-0.847640335559845,-1.3839677572250366,-29.988691329956055,-0.5452874997500722,-0.03663846422038543,0.4046035838701453,0.2202775440489253
-0.5076206922531128,-0.06987016648054123,-31.738250732421875,-0.5452874997500722,-0.03663846422038543,0.4046035838701453,0.2202775440489253
-0.8922415971755981,0.47578760981559753,-33.522403717041016,-0.5452874997500722,-0.03663846422038543,0.4046035838701453,0.2202775440489253
-0.634283721446991,-0.7235398292541504,-35.27088165283203,-0.5452874997500722,-0.03663846422038543,0.4046035838701453,0.2202775440489253
-1.3963487148284912,0.19873198866844177,-37.1005973815918,-0.5452874997500722,-0.03663846422038543,0.4046035838701453,0.2202775440489253
-1.2340118885040283,-0.7416325807571411,-38.96225357055664,-0.5452874997500722,-0.03663846422038543,0.4046035838701453,0.2202775440489253
-0.5596309304237366,0.6844828724861145,-40.809818267822266,-0.5452874997500722,-0.03663846422038543,0.4046035838701453,0.2202775440489253
-0.8050135374069214,-0.08232057094573975,-42.658931732177734,-0.5452874997500722,-0.03663846422038543,0.4046035838701453,0.2202775440489253
-0.19005566835403442,-0.3595576882362366,-44.606258392333984,-0.5452874997500722,-0.03663846422038543,0.4046035838701453,0.2202775440489253
-0.8591488599777222,-0.4504236876964569,-46.69963455200195,-0.5452874997500722,-0.03663846422038543,0.4046035838701453,0.2202775440489253
-0.6257838010787964,1.267281174659729,-48.834991455078125,-0.5452874997500722,-0.03663846422038543,0.4046035838701453,0.2202775440489253
-0.5967995524406433,0.013497102074325085,-50.950767517089844,-0.5452874997500722,-0.03663846422038543,0.4046035838701453,0.2202775440489253
-0.7691068649291992,0.04089804366230965,-53.146671295166016,-0.5452874997500722,-0.03663846422038543,0.4046035838701453,0.2202775440489253
0.139328733086586,-0.19994738698005676,-55.38090133666992,-0.5452874997500722,-0.03663846422038543,0.4046035838701453,0.2202775440489253
-0.3200645446777344,1.0902434587478638,-57.699893951416016,-0.5452874997500722,-0.03663846422038543,0.4046035838701453,0.2202775440489253
-0.08371400833129883,0.03865807503461838,-59.95943069458008,-0.5452874997500722,-0.03663846422038543,0.4046035838701453,0.2202775440489253
-1.1608515977859497,-0.5095309019088745,-62.23684310913086,-0.5452874997500722,-0.03663846422038543,0.4046035838701453,0.2202775440489253
0.2414843738079071,1.0866385698318481,-64.60855102539062,-0.5452874997500722,-0.03663846422038543,0.4046035838701453,0.2202775440489253
-0.995047390460968,-0.11558448523283005,-66.91754913330078,-0.5452874997500722,-0.03663846422038543,0.4046035838701453,0.2202775440489253
0.03655632957816124,0.23791609704494476,-69.15818786621094,-0.5452874997500722,-0.03663846422038543,0.4046035838701453,0.2202775440489253
1.5698087215423584,1.171278715133667,-71.43971252441406,-0.5452874997500722,-0.03663846422038543,0.4046035838701453,0.2202775440489253
-0.8205054402351379,-1.1401699781417847,-73.78083801269531,-0.5452874997500722,-0.03663846422038543,0.4046035838701453,0.2202775440489253
-1.3362793922424316,-0.3081490099430084,-76.07142639160156,-0.5452874997500722,-0.03663846422038543,0.4046035838701453,0.2202775440489253
-0.3065701723098755,0.7612506747245789,-78.35992431640625,-0.5452874997500722,-0.03663846422038543,0.4046035838701453,0.2202775440489253
2.314521074295044,1.2238713502883911,-80.6150894165039,-0.5452874997500722,-0.03663846422038543,0.4046035838701453,0.2202775440489253
-0.4857473373413086,0.4198913872241974,-82.89849853515625,-0.5452874997500722,-0.03663846422038543,0.4046035838701453,0.2202775440489253
-0.4974611699581146,0.610438883304596,-85.06897735595703,-0.5452874997500722,-0.03663846422038543,0.4046035838701453,0.2202775440489253
0.19683495163917542,0.22083136439323425,-87.26837158203125,-0.5452874997500722,-0.03663846422038543,0.4046035838701453,0.2202775440489253
0.09435783326625824,0.5305498242378235,-89.53406524658203,-0.5452874997500722,-0.03663846422038543,0.4046035838701453,0.2202775440489253
1.0826263427734375,0.011220133863389492,-91.51524353027344,-0.5452874997500722,-0.03663846422038543,0.4046035838701453,0.2202775440489253
1.1227335929870605,-0.8281304240226746,-93.10193634033203,-0.5452874997500722,-0.03663846422038543,0.4046035838701453,0.2202775440489253
0.971888542175293,-0.7918029427528381,-94.42615509033203,-0.5452874997500722,-0.03663846422038543,0.4046035838701453,0.2202775440489253
0.9921633005142212,-0.0691317468881607,-95.3987045288086,-0.5452874997500722,-0.03663846422038543,0.4046035838701453,0.2202775440489253
1.8096930980682373,-1.0751808881759644,-95.88251495361328,-0.5452874997500722,-0.03663846422038543,0.4046035838701453,0.2202775440489253
1.3629014492034912,-0.8972285985946655,-95.95944213867188,-0.5452874997500722,-0.03663846422038543,0.4046035838701453,0.2202775440489253
-0.4752122461795807,-1.2267732620239258,-95.86862182617188,-0.5452874997500722,-0.03663846422038543,0.4046035838701453,0.2202775440489253
-0.8652918934822083,-0.2709060311317444,-95.85729217529297,-0.5452874997500722,-0.03663846422038543,0.4046035838701453,0.2202775440489253
0.4367256760597229,-0.5305618047714233,-95.8837890625,-0.5452874997500722,-0.03663846422038543,0.4046035838701453,0.2202775440489253
-0.29720473289489746,-0.29511430859565735,-95.97137451171875,-0.5452874997500722,-0.03663846422038543,0.4046035838701453,0.2202775440489253
-0.17360828816890717,0.06555216759443283,-95.98985290527344,-0.5452874997500722,-0.03663846422038543,0.4046035838701453,0.2202775440489253
-0.004679213743656874,0.18726110458374023,-96.00057220458984,-0.5452874997500722,-0.03663846422038543,0.4046035838701453,0.2202775440489253
0.06122461333870888,0.09001898020505905,-96.04454040527344,-0.5452874997500722,-0.03663846422038543,0.4046035838701453,0.2202775440489253
-0.29314297437667847,-0.08552480489015579,-96.07818603515625,-0.5452874997500722,-0.03663846422038543,0.4046035838701453,0.2202775440489253
-0.0791497752070427,-0.28336822986602783,-96.09125518798828,-0.5452874997500722,-0.03663846422038543,0.4046035838701453,0.2202775440489253
-0.004205858334898949,-0.14716243743896484,-96.12016296386719,-0.5452874997500722,-0.03663846422038543,0.4046035838701453,0.2202775440489253
-0.1609945297241211,-0.050005387514829636,-96.1572036743164,-0.5452874997500722,-0.03663846422038543,0.4046035838701453,0.2202775440489253
-0.10807409137487411,-0.023441655561327934,-96.1724624633789,-0.5452874997500722,-0.03663846422038543,0.4046035838701453,0.2202775440489253
-0.041729364544153214,-0.10247771441936493,-96.19426727294922,-0.5452874997500722,-0.03663846422038543,0.4046035838701453,0.2202775440489253
-0.12380603700876236,-0.16683630645275116,-96.22115325927734,-0.5452874997500722,-0.03663846422038543,0.4046035838701453,0.2202775440489253
-0.10680468380451202,-0.11522068828344345,-96.24004364013672,-0.5452874997500722,-0.03663846422038543,0.4046035838701453,0.2202775440489253
-0.07736340165138245,-0.07473909109830856,-96.26055145263672,-0.5452874997500722,-0.03663846422038543,0.4046035838701453,0.2202775440489253
-0.07289926707744598,-0.05723383650183678,-96.28230285644531,-0.5452874997500722,-0.03663846422038543,0.4046035838701453,0.2202775440489253
-0.11156147718429565,-0.11348208039999008,-96.30130767822266,-0.5452874997500722,-0.03663846422038543,0.4046035838701453,0.2202775440489253
-0.0852726474404335,-0.15279480814933777,-96.31790924072266,-0.5452874997500722,-0.03663846422038543,0.4046035838701453,0.2202775440489253
-0.10116559267044067,-0.10468994081020355,-96.33720397949219,-0.5452874997500722,-0.03663846422038543,0.4046035838701453,0.2202775440489253
-0.10238450020551682,-0.05517292395234108,-96.35299682617188,-0.5452874997500722,-0.03663846422038543,0.4046035838701453,0.2202775440489253
-0.09239678829908371,-0.0992337167263031,-96.3707275390625,-0.5385576331639381,-0.03297789450295047,0.4029804064659403,0.21899082204326994
-0.14741817116737366,-0.31214624643325806,-96.40302276611328,-0.5318579468728021,-0.02935661552189316,0.4009819484703865,0.21556265568360694
-0.1448797583580017,-1.676857590675354,-96.38208770751953,-0.5251952128656238,-0.02590202986029892,0.39854613239100833,0.19898762370770184
-0.9076898694038391,-1.6159955263137817,-96.2420883178711,-0.5186258724388126,-0.022814239820517022,0.3897747188263263,0.1715471810661257
-0.13531695306301117,-2.8191726207733154,-96.3181381225586,-0.5122020581543785,-0.020263117924073752,0.3810829953057692,0.13458744650706655
-0.8703137040138245,-2.318629026412964,-96.44776153564453,-0.5059205103615794,-0.018376785596677245,0.3727027398301289,0.09177243278051422
0.7218571901321411,-1.96622896194458,-96.41635131835938,-0.4997191075112079,-0.01714480463286017,0.37146560221444824,0.05606528287753469
0.7013474702835083,-1.3284711837768555,-96.3629150390625,-0.4934291804839938,-0.01643918187279858,0.38332564105124534,0.02860944832985606
-1.5063279867172241,-1.0567010641098022,-96.35614013671875,-0.4870963212245587,-0.01612799469562644,0.37661747008096436,0.00873301293080058
-0.39092257618904114,-1.8107928037643433,-96.31938934326172,-0.4809511169011889,-0.016181575998715468,0.3608070487234121,-0.015162769301483966
-0.22551819682121277,-1.0522270202636719,-96.36848449707031,-0.47498047447614666,-0.016633109641519924,0.35567004228166,-0.03902126783505076
-0.7715646028518677,-0.849650502204895,-96.37995910644531,-0.4691218822992074,-0.017415538933386644,0.347361018951051,-0.05487024718895549
0.5924659967422485,-1.6011404991149902,-96.44264221191406,-0.4633449693865586,-0.018500236872738673,0.34586853056680417,-0.07529350553328787
-0.6066138744354248,-0.06977082788944244,-96.57955169677734,-0.45758147636861835,-0.019871164140446557,0.3457506315860277,-0.08921776659165814
0.3170190453529358,-1.4245116710662842,-96.63752746582031,-0.4518390765942042,-0.02146189653495723,0.3433373413436736,-0.10167012074962253
-1.0804429054260254,-0.7089071869850159,-96.50049591064453,-0.44616980311764803,-0.023304552634815612,0.33697547584306453,-0.11944861123338336
0.045880842953920364,-0.9182857275009155,-96.35797119140625,-0.44616980311764803,-0.023304552634815612,0.33697547584306453,-0.11944861123338336
0.20204786956310272,-2.187978982925415,-96.32157135009766,-0.44053632791522773,-0.02551107564915161,0.33904154844737305,-0.14533415048693613
0.5059009194374084,1.87626051902771,-96.29589080810547,-0.4348364723307576,-0.027954958606148994,0.344941121689044,-0.14793180435275033
-0.6893644332885742,0.8539010882377625,-96.29145812988281,-0.4291001941577354,-0.03023089412263473,0.3434122590736176,-0.12518045762553806
-0.47873714566230774,1.0503417253494263,-96.4180908203125,-0.4234577746717134,-0.032184995998783474,0.3336780792490269,-0.10931176751231149
0.811651349067688,-0.8510792851448059,-96.39768981933594,-0.41787335430899314,-0.033993021121196676,0.3364523642774051,-0.10765124717727298
-1.0629874467849731,-1.7597086429595947,-96.36425018310547,-0.4122832688000445,-0.0359685132913807,0.33435789679642774,-0.12940781324480966
-0.5198661088943481,-0.8249437212944031,-96.40630340576172,-0.4068205575725818,-0.03830479992631183,0.32116745049910006,-0.1509465829469263
0.6411511301994324,-1.2502925395965576,-96.45370483398438,-0.40145934416000617,-0.04096468993798914,0.32217815900997576,-0.168240218454351
0,-0.33208465576171875,-96.50244903564453,-0.39604518379246495,-0.04387858088412821,0.327521085094971,-0.18142669508233664
-1.1750047206878662,0.5786927938461304,-96.69208526611328,-0.3906680965909299,-0.04688523357035573,0.3177293790892388,-0.17937162726496653
0.19106236100196838,-0.8627834320068359,-96.69581604003906,-0.38544093626997633,-0.04989448920797745,0.3095298594251897,-0.18173904924963907
-0.21087926626205444,-1.6458789110183716,-96.62593078613281,-0.3802834814535329,-0.053097686024848184,0.3093647185480223,-0.20264456877484913
0,-1.3547276258468628,-96.51362609863281,-0.3751420472045563,-0.056683470958377974,0.3076073913291718,-0.2276496232487261
0.4932110607624054,0,-96.4417953491211,-0.3699810065809616,-0.06057170965320722,0.31171748350219186,-0.23893902013078328
-1.1240143775939941,-0.6044638156890869,-96.4076156616211,-0.3648295209751495,-0.06459600330925423,0.30646078919526193,-0.243976218594859
0.3460707366466522,0,-96.46004486083984,-0.3597758650191831,-0.06870425027303585,0.29997792552070074,-0.2490134170589347
-0.8791487216949463,0.5364981293678284,-96.4879379272461,-0.3548132522316887,-0.07281721707614533,0.2955356089786316,-0.2445425993142028
0.17947247624397278,-1.068968415260315,-96.47953796386719,-0.3548132522316887,-0.07281721707614533,0.2955356089786316,-0.2445425993142028
0,0.27201637625694275,-96.5108871459961,-0.34987519538230566,-0.07694827095631283,0.2970312129473314,-0.25118386630589756
-0.4058648943901062,0.47872263193130493,-96.44657897949219,-0.3449528602286272,-0.08108253407473139,0.2936490054940805,-0.24492770790432883
0.9924951791763306,0.8882245421409607,-96.24406433105469,-0.34001797192283795,-0.08506973565271518,0.2985375912006324,-0.23353648145372663
-0.4758690297603607,0.7159993648529053,-96.26293182373047,-0.33500646858689576,-0.08885060590562494,0.30284280911243217,-0.22016794889544442
0,0.6977643370628357,-96.32830047607422,-0.3299921348954219,-0.09242189368569374,0.29887723386442916,-0.20838658471281324
-0.16360092163085938,-1.667534589767456,-96.4165267944336,-0.3250222088394613,-0.09596234858734512,0.2975138928508387,-0.21646800348535175
0.6514012217521667,-2.2113373279571533,-96.44805908203125,-0.32002976893777224,-0.09983951475083186,0.30157889535184956,-0.24879193613305683
0,0.05100918933749199,-96.41741180419922,-0.3149582178192864,-0.10413606980712029,0.3070072388664509,-0.266794670621554
-1.295017957687378,0,-96.44705200195312,-0.3099313623074627,-0.10857910534599775,0.2962154225523894,-0.26636959404374155
-1.032301902770996,-0.46147680282592773,-96.56824493408203,-0.30515605803301027,-0.11305064558025636,0.27682109038190295,-0.270215234067291
1.2778183221817017,1.36534583568573,-96.72366333007812,-0.3005253234419639,-0.11749146413187372,0.27886706054365884,-0.26268299212679264
-1.2904009819030762,-1.6539764404296875,-96.67376708984375,-0.2958784128953836,-0.1218895577926497,0.2787622050459807,-0.2650882471663256
0.47058871388435364,-0.05761442333459854,-96.58558654785156,-0.2912893075521185,-0.1264265557220721,0.2719304361458247,-0.27935150436436135
-0.13286367058753967,-0.8101391792297363,-96.61906433105469,-0.286733680488348,-0.13114267479498953,0.2747448115066315,-0.2865827843857308
-0.3359840214252472,0.39809146523475647,-96.69506072998047,-0.2821871591640717,-0.1359476689593347,0.27083774740652494,-0.290016515335689
0.3619358241558075,-1.0525416135787964,-96.75863647460938,-0.27767139449877337,-0.14082672547523117,0.2710540124292796,-0.29547026657188935
-0.6322961449623108,-0.313542902469635,-96.71985626220703,-0.27767139449877337,-0.14082672547523117,0.2710540124292796,-0.29547026657188935
-0.24603979289531708,0.3771633505821228,-96.66197204589844,-0.27321482317619217,-0.14574681183142152,0.26373454628046605,-0.29494009617095196
-0.052399348467588425,-0.2998451292514801,-96.76998901367188,-0.2688399723452235,-0.15065711078001165,0.26124755343577516,-0.29429577765986326
0,0.9639654755592346,-96.96324157714844,-0.2644894852982708,-0.15551592093918246,0.26081089219854525,-0.288761441440632
-0.23579086363315582,0.16559894382953644,-97.01250457763672,-0.2601590114604918,-0.160250169656291,0.2588459683349356,-0.27934840461239224
0.8444646596908569,-0.23683393001556396,-96.91023254394531,-0.25580264297462774,-0.16491092327387155,0.2639182499687498,-0.2799420294972758
-0.14356011152267456,0.7732130289077759,-96.79978942871094,-0.25135533154819245,-0.16953937521695864,0.26975912120348466,-0.27547220367317404
-0.24369101226329803,-1.1364109516143799,-96.76985168457031,-0.24688623863395284,-0.17415580068947728,0.26653202850526825,-0.2784988530290624
-1.0037672519683838,-0.9258984327316284,-96.75674438476562,-0.24253066720499225,-0.17894066416943014,0.2561365429700042,-0.29568476456527915
-0.08769816160202026,-0.09592653810977936,-96.81236267089844,-0.23833752103143457,-0.183939703646271,0.24704099785691752,-0.3041999726556242
0,-0.24134990572929382,-96.91093444824219,-0.23422626121726386,-0.189033125165798,0.24631017984356735,-0.3070106096876165
-0.36402010917663574,0.29171112179756165,-96.91759490966797,-0.23014637072745278,-0.1941464713539202,0.24327667893376204,-0.3065909328870476
-0.9534539580345154,-0.6472554206848145,-96.69062042236328,-0.22618325066655753,-0.19928101081168262,0.2322977283736691,-0.3095538020444414
0.7849695682525635,0,-96.45231628417969,-0.2223233221651757,-0.20448518913885974,0.23089369179215283,-0.3149475972168148
0.41504931449890137,-0.5007789731025696,-96.43063354492188,-0.2183917593240043,-0.20976909207671657,0.24089384914841502,-0.31912075532600287
0.09173844009637833,0,-96.5823745727539,-0.21434166824412826,-0.21512254764972652,0.24511708043670902,-0.3232939134351909
0.052095189690589905,-0.50565505027771,-96.65481567382812,-0.21024639512367013,-0.2205458944743601,0.24631569401826708,-0.3275077055208385
-0.27933162450790405,-0.12144414335489273,-96.6096420288086,-0.21024639512367013,-0.2205458944743601,0.24631569401826708,-0.3275077055208385
-0.5852553844451904,0,-96.65241241455078,-0.20620117432120966,-0.22601278985410705,0.2391108022769913,-0.32851974004879597
1.2166002988815308,0.4358351528644562,-96.81619262695312,-0.20217215088642396,-0.23145785252486029,0.24437200989729413,-0.32488778044159217
-1.1055021286010742,0.20317356288433075,-96.8366470336914,-0.19809156890408847,-0.23682827326029315,0.2452978279829646,-0.3195627078103523
0.8667210340499878,-0.6319043040275574,-96.73486328125,-0.194019853791494,-0.24218409135860064,0.2433079855283722,-0.32313546398654586
0.2233923375606537,2.377262830734253,-96.72154235839844,-0.1898890183818815,-0.24744847697179956,0.25239226362512757,-0.3085908095973234
-0.660436749458313,-1.0964666604995728,-96.71699523925781,-0.18571283096117783,-0.25250271295326643,0.24875022685931375,-0.29791750817870105
-0.5612688064575195,0,-96.75346374511719,-0.18165183451046119,-0.257544148274335,0.23856934722668183,-0.30705473034953085
-0.29848912358283997,-1.3329485654830933,-96.73343658447266,-0.1777353841351582,-0.26275429298609687,0.23140469780967884,-0.31816263506188996
-0.6806827187538147,0.5009293556213379,-96.67015075683594,-0.17394663721627024,-0.26811478268225764,0.22324493245687338,-0.3250961284774046
0.44839805364608765,-0.09457418322563171,-96.78499603271484,-0.1702420192215104,-0.27350483238102025,0.221309226914309,-0.321709835374107
0.27940937876701355,-0.2394227534532547,-97.01683807373047,-0.16650298992346543,-0.2788898572023025,0.22737428885108482,-0.3244931431797644
-1.0800782442092896,-0.3971192240715027,-97.04911041259766,-0.16276902044715863,-0.2843422805592934,0.22070204830573253,-0.3297976596591374
0.5912548899650574,-0.9870110750198364,-96.95430755615234,-0.15912459904166337,-0.2899350283799381,0.21662852035369726,-0.34133207881823185
0,0.30285048484802246,-96.83397674560547,-0.1554730643350764,-0.2956714075123372,0.2215556444367394,-0.3470334170696636
-0.4662083685398102,-0.29223912954330444,-96.76628875732422,-0.15181284584227936,-0.30145456089715766,0.21767057469890763,-0.34694498910879096
-0.24630574882030487,0.5930470824241638,-96.82168579101562,-0.1482344830776698,-0.3072160879411319,0.21173295705424,-0.34443825616811713
0.22442078590393066,0.4498979449272156,-96.85909271240234,-0.1482344830776698,-0.3072160879411319,0.21173295705424,-0.34443825616811713
0.2697737216949463,-0.44520440697669983,-96.87210083007812,-0.1482344830776698,-0.3072160879411319,0.21173295705424,-0.34443825616811713
-0.7548632025718689,-0.12623785436153412,-96.8692855834961,-0.1482344830776698,-0.3072160879411319,0.21173295705424,-0.34443825616811713
-0.7249154448509216,0.3449118137359619,-96.69365692138672,-0.1482344830776698,-0.3072160879411319,0.21173295705424,-0.34443825616811713
0.33896008133888245,1.1528253555297852,-96.5778579711914,-0.1482344830776698,-0.3072160879411319,0.21173295705424,-0.34443825616811713
0.7898194193840027,2.164591073989868,-96.85096740722656,-0.1482344830776698,-0.3072160879411319,0.21173295705424,-0.34443825616811713
0.08214358240365982,2.067143440246582,-97.4875259399414,-0.1482344830776698,-0.3072160879411319,0.21173295705424,-0.34443825616811713
-0.03476392850279808,2.3148624897003174,-98.35206604003906,-0.1482344830776698,-0.3072160879411319,0.21173295705424,-0.34443825616811713
-0.4322184920310974,2.049833059310913,-99.4135971069336,-0.1482344830776698,-0.3072160879411319,0.21173295705424,-0.34443825616811713
-1.1960034370422363,1.1085433959960938,-100.62227630615234,-0.1482344830776698,-0.3072160879411319,0.21173295705424,-0.34443825616811713
0.5935025811195374,0.6496070027351379,-101.8838119506836,-0.1482344830776698,-0.3072160879411319,0.21173295705424,-0.34443825616811713
0.4395204782485962,0.6739233732223511,-103.2714614868164,-0.1482344830776698,-0.3072160879411319,0.21173295705424,-0.34443825616811713
-0.7476403713226318,2.415837526321411,-104.72928619384766,-0.1482344830776698,-0.3072160879411319,0.21173295705424,-0.34443825616811713
-0.9933747053146362,0.8556643724441528,-106.28800964355469,-0.1482344830776698,-0.3072160879411319,0.21173295705424,-0.34443825616811713
1.2341551780700684,1.6562272310256958,-107.93234252929688,-0.1482344830776698,-0.3072160879411319,0.21173295705424,-0.34443825616811713
-0.7639520764350891,0.8569518327713013,-109.6333236694336,-0.1482344830776698,-0.3072160879411319,0.21173295705424,-0.34443825616811713
-0.2814291715621948,0.7688373327255249,-111.34989929199219,-0.1482344830776698,-0.3072160879411319,0.21173295705424,-0.34443825616811713
0.33351022005081177,0.4752771556377411,-113.14619445800781,-0.1482344830776698,-0.3072160879411319,0.21173295705424,-0.34443825616811713
0.3793916702270508,1.6461752653121948,-114.98452758789062,-0.1482344830776698,-0.3072160879411319,0.21173295705424,-0.34443825616811713
-0.2115001231431961,1.004016399383545,-116.83474731445312,-0.1482344830776698,-0.3072160879411319,0.21173295705424,-0.34443825616811713
-0.9064832925796509,0.9977287650108337,-118.6722183227539,-0.1482344830776698,-0.3072160879411319,0.21173295705424,-0.34443825616811713
-0.24174658954143524,0.9187904596328735,-120.51898956298828,-0.1482344830776698,-0.3072160879411319,0.21173295705424,-0.34443825616811713
0.2843397557735443,0.11701163649559021,-122.41630554199219,-0.1482344830776698,-0.3072160879411319,0.21173295705424,-0.34443825616811713
0.599189043045044,1.2050293684005737,-124.37551879882812,-0.1482344830776698,-0.3072160879411319,0.21173295705424,-0.34443825616811713
-1.7614401578903198,0.42778608202934265,-126.31539916992188,-0.1482344830776698,-0.3072160879411319,0.21173295705424,-0.34443825616811713
-0.28856581449508667,1.0121924877166748,-128.2936553955078,-0.1482344830776698,-0.3072160879411319,0.21173295705424,-0.34443825616811713
0.043143030256032944,1.2244762182235718,-130.20440673828125,-0.1482344830776698,-0.3072160879411319,0.21173295705424,-0.34443825616811713
0.7342098355293274,0.5248952507972717,-132.16273498535156,-0.1482344830776698,-0.3072160879411319,0.21173295705424,-0.34443825616811713
-0.580118715763092,0.3479434549808502,-134.0775146484375,-0.1482344830776698,-0.3072160879411319,0.21173295705424,-0.34443825616811713
0.5566509962081909,0.9006341695785522,-135.9552001953125,-0.1482344830776698,-0.3072160879411319,0.21173295705424,-0.34443825616811713
-0.20939801633358002,0.3714451789855957,-137.830810546875,-0.1482344830776698,-0.3072160879411319,0.21173295705424,-0.34443825616811713
0.455915242433548,0.5762725472450256,-139.70016479492188,-0.1482344830776698,-0.3072160879411319,0.21173295705424,-0.34443825616811713
0.6660183072090149,0.3211299777030945,-141.5308380126953,-0.1482344830776698,-0.3072160879411319,0.21173295705424,-0.34443825616811713
-0.7523032426834106,0.7173691987991333,-143.2642059326172,-0.1482344830776698,-0.3072160879411319,0.21173295705424,-0.34443825616811713
1.1372686624526978,-0.6160975694656372,-145.0369873046875,-0.1482344830776698,-0.3072160879411319,0.21173295705424,-0.34443825616811713
-0.8658593893051147,0.5411001443862915,-146.78994750976562,-0.1482344830776698,-0.3072160879411319,0.21173295705424,-0.34443825616811713
0.4579178988933563,0.8805845379829407,-148.60818481445312,-0.1482344830776698,-0.3072160879411319,0.21173295705424,-0.34443825616811713
-0.5116169452667236,0.8250248432159424,-150.3624725341797,-0.1482344830776698,-0.3072160879411319,0.21173295705424,-0.34443825616811713
0.5584610104560852,0.13273929059505463,-152.1521453857422,-0.1482344830776698,-0.3072160879411319,0.21173295705424,-0.34443825616811713
0.48192131519317627,-0.21221843361854553,-154.06997680664062,-0.1482344830776698,-0.3072160879411319,0.21173295705424,-0.34443825616811713
0.2889436185359955,0.017574336379766464,-156.051025390625,-0.1482344830776698,-0.3072160879411319,0.21173295705424,-0.34443825616811713
0.7059072852134705,0.06946764141321182,-158.07235717773438,-0.1482344830776698,-0.3072160879411319,0.21173295705424,-0.34443825616811713
-0.2961282432079315,0.8162543177604675,-160.1150665283203,-0.1482344830776698,-0.3072160879411319,0.21173295705424,-0.34443825616811713
0.5965287089347839,0.017090462148189545,-162.26780700683594,-0.1482344830776698,-0.3072160879411319,0.21173295705424,-0.34443825616811713
-1.4312864542007446,0.9561355710029602,-164.32620239257812,-0.1482344830776698,-0.3072160879411319,0.21173295705424,-0.34443825616811713
0.5141245126724243,-0.04536603391170502,-166.41165161132812,-0.1482344830776698,-0.3072160879411319,0.21173295705424,-0.34443825616811713
0.7819167971611023,-0.03039863519370556,-168.47035217285156,-0.1482344830776698,-0.3072160879411319,0.21173295705424,-0.34443825616811713
0.30636295676231384,-0.2293592244386673,-170.50454711914062,-0.1482344830776698,-0.3072160879411319,0.21173295705424,-0.34443825616811713
0.22246967256069183,-0.5066448450088501,-172.51974487304688,-0.1482344830776698,-0.3072160879411319,0.21173295705424,-0.34443825616811713
0.8102854490280151,-0.86805659532547,-174.46682739257812,-0.1482344830776698,-0.3072160879411319,0.21173295705424,-0.34443825616811713
-0.7161798477172852,1.5840767621994019,-176.00262451171875,-0.1482344830776698,-0.3072160879411319,0.21173295705424,-0.34443825616811713
1.7430691719055176,-1.3675951957702637,-177.02117919921875,-0.1482344830776698,-0.3072160879411319,0.21173295705424,-0.34443825616811713
-1.7690982818603516,-4.5440473556518555,-177.67974853515625,-0.1482344830776698,-0.3072160879411319,0.21173295705424,-0.34443825616811713
0.3570035696029663,0.7050718069076538,-178.07565307617188,-0.1482344830776698,-0.3072160879411319,0.21173295705424,-0.34443825616811713
-0.4650835692882538,0.7093564867973328,-178.14569091796875,-0.1482344830776698,-0.3072160879411319,0.21173295705424,-0.34443825616811713
-1.1962600946426392,-1.4488773345947266,-178.07958984375,-0.1482344830776698,-0.3072160879411319,0.21173295705424,-0.34443825616811713
-1.110854148864746,0.2067374289035797,-178.0744171142578,-0.1482344830776698,-0.3072160879411319,0.21173295705424,-0.34443825616811713
-0.6554135084152222,0.273521363735199,-178.08103942871094,-0.1482344830776698,-0.3072160879411319,0.21173295705424,-0.34443825616811713
0.23089081048965454,-0.09306669980287552,-178.03831481933594,-0.1482344830776698,-0.3072160879411319,0.21173295705424,-0.34443825616811713
0.40282559394836426,0.30533963441848755,-178.0238800048828,-0.1482344830776698,-0.3072160879411319,0.21173295705424,-0.34443825616811713
0.5349085330963135,0.06640984863042831,-178.02804565429688,-0.1482344830776698,-0.3072160879411319,0.21173295705424,-0.34443825616811713
0.09561663866043091,0.1203952431678772,-178.02084350585938,-0.1482344830776698,-0.3072160879411319,0.21173295705424,-0.34443825616811713
-0.1378922164440155,0.10143914073705673,-178.01705932617188,-0.1482344830776698,-0.3072160879411319,0.21173295705424,-0.34443825616811713
-0.3673873543739319,0.036993760615587234,-178.0299530029297,-0.1482344830776698,-0.3072160879411319,0.21173295705424,-0.34443825616811713
-0.3328154385089874,0.09302884340286255,-178.0294189453125,-0.1482344830776698,-0.3072160879411319,0.21173295705424,-0.34443825616811713
-0.0768032968044281,0.05346200615167618,-178.0269775390625,-0.1482344830776698,-0.3072160879411319,0.21173295705424,-0.34443825616811713
0.06956154108047485,0.08007935434579849,-178.02899169921875,-0.1482344830776698,-0.3072160879411319,0.21173295705424,-0.34443825616811713
0.045894134789705276,0.12909188866615295,-178.02488708496094,-0.1482344830776698,-0.3072160879411319,0.21173295705424,-0.34443825616811713
-0.08663590997457504,0.03570752218365669,-178.0251922607422,-0.1482344830776698,-0.3072160879411319,0.21173295705424,-0.34443825616811713
-0.1953076273202896,0.09646990895271301,-178.02545166015625,-0.1482344830776698,-0.3072160879411319,0.21173295705424,-0.34443825616811713
-0.1448468416929245,0.07172422856092453,-178.02488708496094,-0.1482344830776698,-0.3072160879411319,0.21173295705424,-0.34443825616811713
-0.03370654955506325,0.08915907889604568,-178.02740478515625,-0.1482344830776698,-0.3072160879411319,0.21173295705424,-0.34443825616811713
-0.0021363203413784504,0.0885547548532486,-178.0266571044922,-0.1482344830776698,-0.3072160879411319,0.21173295705424,-0.34443825616811713
-0.07987706363201141,0.06902773678302765,-178.02505493164062,-0.1482344830776698,-0.3072160879411319,0.21173295705424,-0.34443825616811713
-0.14642679691314697,0.08596789091825485,-178.02508544921875,-0.1482344830776698,-0.3072160879411319,0.21173295705424,-0.34443825616811713
-0.11167736351490021,0.08147546648979187,-178.02345275878906,-0.1482344830776698,-0.3072160879411319,0.21173295705424,-0.34443825616811713
-0.04728170111775398,0.09187671542167664,-178.02450561523438,-0.1482344830776698,-0.3072160879411319,0.21173295705424,-0.34443825616811713
-0.05756158009171486,0.10949115455150604,-178.02391052246094,-0.1482344830776698,-0.3072160879411319,0.21173295705424,-0.34443825616811713
-0.10245200246572495,0.08209483325481415,-178.02389526367188,-0.14471671251444337,-0.31294342096144734,0.210399510532928,-0.34284170626973115
-0.12048451602458954,0.07267652451992035,-178.0236358642578,-0.14122553570823418,-0.31864670138831963,0.20854170621217538,-0.3415519449549417
-0.4248487055301666,0.16646184027194977,-178.0435333251953,-0.13778771096730588,-0.324322626973347,0.20399726269921908,-0.33955912524834275
-1.1586521863937378,0,-178.04327392578125,-0.1344977219287025,-0.3299703858774672,0.19080142193318655,-0.3381719432460765
-2.8950319290161133,-0.8483583331108093,-177.84762573242188,-0.13159920407116396,-0.33566549870470114,0.1570207209714378,-0.34524159602199994
-1.5852129459381104,-0.07157578319311142,-177.65823364257812,-0.12929332017128958,-0.3414834096187,0.11968534701348593,-0.35290771365786594
-1.4128761291503906,0.8136340379714966,-177.6450653076172,-0.12750676501794597,-0.3473136730230826,0.09470127138774842,-0.34672389486804606
-0.855213463306427,0.23147612810134888,-177.61874389648438,-0.12608591671651523,-0.3530198275093505,0.07580052478394161,-0.3380146434841057
-2.2483301162719727,-0.4400224983692169,-177.55751037597656,-0.12503809849647582,-0.3586678872875764,0.04993766162078828,-0.3397525299030046
-2.2918992042541504,0.4327375292778015,-177.57708740234375,-0.12452109783894366,-0.36433093535325783,0.012102417283070592,-0.3398132379787664
-1.4963637590408325,0,-177.5707550048828,-0.1245824647011213,-0.36996443810225965,-0.0194664407443876,-0.33620709190145137
-0.7940160036087036,-0.11174119263887405,-177.44406127929688,-0.1250659595303784,-0.37557564943899485,-0.038552938766467065,-0.3371382685067753
-1.1173933744430542,-0.3479059338569641,-177.36944580078125,-0.12584124527218424,-0.38122654052011445,-0.054481350250231715,-0.34096866122757397
-1.452453851699829,1.1311780214309692,-177.2335968017578,-0.12692772938928135,-0.3868549576456036,-0.07589674380142242,-0.3344413938311239
-1.088279366493225,-0.6975310444831848,-177.1998748779297,-0.12836911492612402,-0.3923988665027232,-0.09706952061969787,-0.33082766902322575
-0.10504397749900818,1.7163225412368774,-177.22265625,-0.1300698099464518,-0.39784191157694687,-0.10701388181963314,-0.32233773988361164
-1.3083692789077759,-1.3628696203231812,-177.19935607910156,-0.13195152834180726,-0.4031896618999436,-0.11879232562302301,-0.3193922988759975
-1.3378185033798218,-0.9145793318748474,-177.24729919433594,-0.13411516347596095,-0.4086710230584462,-0.14084389047541965,-0.3383710401443144
-0.344477117061615,1.7099647521972656,-177.38185119628906,-0.13411516347596095,-0.4086710230584462,-0.14084389047541965,-0.3383710401443144
-1.6950876712799072,0.6349666714668274,-177.37095642089844,-0.1366041980941861,-0.41414769793420814,-0.157840263711599,-0.31882994494711364
0.202312171459198,-1.8345677852630615,-177.2847137451172,-0.13933853412131142,-0.4195448359828959,-0.17028005954343825,-0.3288266208954156
0.5429255962371826,0.5393071174621582,-177.24041748046875,-0.14212478249094537,-0.4251152283219723,-0.1640697448126351,-0.33962045979375644
1.2949548959732056,0.5214307904243469,-177.36402893066406,-0.1447316476480858,-0.43070190696382055,-0.1487540740442152,-0.33078097722803557
-1.1265933513641357,0.21536731719970703,-177.3679962158203,-0.1471991904415582,-0.4361637567157028,-0.14735106117247296,-0.3246409929978351
-1.376600742340088,0.23210065066814423,-177.32688903808594,-0.1498288743842733,-0.4415433657678981,-0.16821101195334148,-0.320912093265603
-2.3090054988861084,-0.4175572991371155,-177.41818237304688,-0.15288833612802527,-0.4469047795895796,-0.19892439729689312,-0.32245756533617775
0.10523929446935654,0.8279547691345215,-177.4447021484375,-0.15635678206939133,-0.4522505725208772,-0.2172891156670327,-0.3190375864195327
0.08230138570070267,-0.8623449802398682,-177.49746704101562,-0.1599652436721634,-0.4575702538369739,-0.21572627666561556,-0.31932417151207726
0.15246333181858063,0.897216260433197,-177.54794311523438,-0.16354437851120704,-0.4628899017454951,-0.21376990401962154,-0.3190335775104662
-1.267478346824646,0.6896988153457642,-177.5775909423828,-0.1671846418431317,-0.4680969256015182,-0.22306169581133875,-0.30580928521230816
-0.9775786995887756,-1.034825086593628,-177.58981323242188,-0.17105824351265494,-0.47321771412389335,-0.2417705045314506,-0.30868533747270704
-0.24051566421985626,0.9318816065788269,-177.4874267578125,-0.17517234180788804,-0.4783696186012173,-0.25192129089652254,-0.30954319980616374
-1.3043155670166016,-0.725292444229126,-177.4053497314453,-0.1794783099361104,-0.4835143254617124,-0.2647948844901597,-0.30782162345324954
0,-0.2858351171016693,-177.39398193359375,-0.18398213548087808,-0.488714903044359,-0.2756641808819647,-0.3162476864643395
0.15704001486301422,-0.43047624826431274,-177.40463256835938,-0.18856563293898979,-0.4940354416635817,-0.2743555140914396,-0.32221694784238936
-0.6518822908401489,-0.743297278881073,-177.40452575683594,-0.18856563293898979,-0.4940354416635817,-0.2743555140914396,-0.32221694784238936
0,1.4263571500778198,-177.45957946777344,-0.19318349444404434,-0.49935828941434396,-0.2797878665151075,-0.31652478224908315
0.7920955419540405,1.0736764669418335,-177.459228515625,-0.19779161891777156,-0.5044600890062023,-0.27318707033215717,-0.2956911687739194
3.5761499404907227,0.8904330730438232,-177.46127319335938,-0.2020413863759155,-0.5092518786566019,-0.23678502464511747,-0.2793235892740389
-0.17225997149944305,-0.6874387860298157,-177.42572021484375,-0.2057514222054875,-0.5138931749856822,-0.20841927490352347,-0.27763197021558883
0,-1.0047143697738647,-177.51583862304688,-0.20923703928523368,-0.518637885125095,-0.20985477466601882,-0.2917332465139528
-1.1347233057022095,0.8335301280021667,-177.80735778808594,-0.21281341909256332,-0.523511993694895,-0.21931080221353721,-0.29315978186205033
-3.4542744159698486,-0.6489823460578918,-177.84230041503906,-0.21678727952679394,-0.5283851742410719,-0.2575524498941377,-0.29162188367918135
-0.777089536190033,-0.4132378101348877,-177.7421875,-0.2213736650772629,-0.5333193042576827,-0.29281381616213675,-0.3004737183141212
0.44569674134254456,1.7376855611801147,-177.6526336669922,-0.2262769087351629,-0.5382352240246511,-0.29557542278586585,-0.2894366537220776
-0.0829390287399292,0.15533295273780823,-177.6259307861328,-0.23117797427377437,-0.5429277086343303,-0.2925524418475107,-0.27366149943942825
0.3855013847351074,-0.8709239363670349,-177.68588256835938,-0.23603283702984434,-0.547538427443295,-0.29003108888088425,-0.2796247576363385
-0.22453320026397705,-0.31604695320129395,-177.90274047851562,-0.24085551016504858,-0.5522812686045651,-0.2886896873436248,-0.28951618171607457
-0.45908892154693604,1.0493597984313965,-177.9689483642578,-0.24571447871256807,-0.557055613796692,-0.29438653835871575,-0.28340524133915707
-0.7303724884986877,-0.7644659876823425,-177.8343963623047,-0.2507035225053554,-0.5617592501932648,-0.30429871677576265,-0.2810311262495816
-0.7951963543891907,-0.27775469422340393,-177.72915649414062,-0.2558811100657075,-0.5665154787336679,-0.31701179046649497,-0.28971629859879616
-0.23742695152759552,0.7277684211730957,-177.69815063476562,-0.26123634985861555,-0.5713128327570541,-0.3256169846824682,-0.2859661842075487
