faccX,faccY,yaw,posX,posY,velX,velY
0,0,-87.6669921875,0.0,0.0,0.0,0.0
0,0,-87.6674575805664,0.0,0.0,0.0,0.0
0,0,-87.6671142578125,0.0,0.0,0.0,0.0
0.07050291448831558,-0.22211797535419464,-87.66596984863281,4.896035728355249e-06,-1.542485939959685e-05,0.0005875242874026299,-0.001850983127951622
0.20886264741420746,-1.777084231376648,-87.59124755859375,3.408849342829651e-05,-0.00018510806477732127,0.002915570636590322,-0.01851100151737531
-0.3853500187397003,-2.853062629699707,-87.56690979003906,7.042526991830932e-05,-0.0008151627331972121,0.0014448425422112147,-0.0570955586930116
0.39575037360191345,-1.6095117330551147,-87.5751953125,9.522822582059436e-05,-0.002076656375494268,0.001531512166062991,-0.09428367838263511
0.21221888065338135,-1.5605480670928955,-87.50508880615234,0.000162973515689373,-0.0038681940568817985,0.006597922618190448,-0.12070084338386854
-0.38749822974205017,-0.4273662567138672,-87.4746322631836,0.00026076671563916734,-0.006017924385766188,0.005137261375784874,-0.13726679608225822
0.12607936561107635,-1.5484287738800049,-87.4966049194336,0.00032823365078204207,-0.008442912308706177,0.0029587708413600926,-0.15373175467054048
-0.17056764662265778,-1.786104440689087,-87.43323516845703,0.00037445703417890604,-0.011236673026449151,0.002588035166263581,-0.18151953145861624
0.36561673879623413,-1.329761266708374,-87.38844299316406,0.0004311360294620196,-0.014478378113773135,0.0042134442677100505,-0.20748507902026175
-0.574626624584198,-1.1859946250915527,-87.37992858886719,0.0004868455251885785,-0.018111168034374715,0.0024716952194770185,-0.2284497114519278
0.08438830822706223,-0.0840722844004631,-87.40556335449219,0.0004939961179883944,-0.022006862316177125,-0.0016136240834991131,-0.23903360236436128
0.8721936941146851,-1.9255198240280151,-87.38002014160156,0.000533531688981586,-0.026130310696446234,0.006357892602682115,-0.25578020326793194
-0.2785305976867676,-0.896571159362793,-87.23271179199219,0.00068072316961156,-0.030589292624758353,0.01130508507291476,-0.279297628129522
0,-1.1529804468154907,-87.10135650634766,0.0008497988515430027,-0.03538658306623499,0.008983996758858364,-0.29637722484767437
0.09149045497179031,-1.3937907218933105,-87.03543853759766,0.0010058856346747943,-0.040503062589301,0.009746417216956616,-0.31760031792024773
0,-0.07121489942073822,-86.97181701660156,0.0011746794254415566,-0.045898137722785275,0.010508837675054868,-0.3298086980978648
0.18798254430294037,-0.524919331073761,-86.9353256225586,0.0013628810633801753,-0.051436347568200695,0.012075358877579372,-0.3347764833519856
0.5836322903633118,-2.1992108821868896,-86.9865951538086,0.0016177214081916544,-0.057205131333321335,0.01850548249979814,-0.357477568462491
-1.3774439096450806,-0.30723923444747925,-86.947998046875,0.0018710203096270561,-0.06333714984357357,0.011890385672450068,-0.3783646527677774
1.4011164903640747,-0.342330664396286,-86.8221435546875,0.0020708373333844874,-0.06968833641045623,0.012087657178441685,-0.3837777352581421
-0.425631046295166,-0.24769459664821625,-86.80957794189453,0.002340040331085523,-0.07612560597455335,0.020216702545682592,-0.388694612433513
-1.616384506225586,0.09646093100309372,-86.89106750488281,0.0025351787379218472,-0.08261435185300392,0.0031999062746763257,-0.3899548929805557
0.4643978476524353,-0.7925333380699158,-87.01371765136719,0.0025085114356544285,-0.08916193843094837,-0.006399982546766596,-0.3957554963727792
2.9463613033294678,-0.46700960397720337,-87.13982391357422,0.0026387033342487286,-0.09584533163035908,0.022023010378082596,-0.40625168755650515
-0.9178184866905212,-1.1259849071502686,-87.24312591552734,0.003146624536150032,-0.10272681770846245,0.03892753385007382,-0.41952664181590077
-1.4054582118988037,-0.9210320711135864,-87.13238525390625,0.003146624536150032,-0.10272681770846245,0.03892753385007382,-0.41952664181590077
0.02148904651403427,-0.3519487679004669,-86.9485855102539,0.003146624536150032,-0.10272681770846245,0.03892753385007382,-0.41952664181590077
-0.40207797288894653,1.1789230108261108,-86.95915985107422,0.003146624536150032,-0.10272681770846245,0.03892753385007382,-0.41952664181590077
0.4627910554409027,1.4585093259811401,-87.05193328857422,0.003146624536150032,-0.10272681770846245,0.03892753385007382,-0.41952664181590077
-0.1887374222278595,2.0524449348449707,-86.9583969116211,0.003146624536150032,-0.10272681770846245,0.03892753385007382,-0.41952664181590077
0.15726938843727112,2.49861478805542,-86.5513916015625,0.003146624536150032,-0.10272681770846245,0.03892753385007382,-0.41952664181590077
0.9521648287773132,0.5788624286651611,-85.7894058227539,0.003146624536150032,-0.10272681770846245,0.03892753385007382,-0.41952664181590077
1.2029412984848022,0.867992639541626,-84.69215393066406,0.003146624536150032,-0.10272681770846245,0.03892753385007382,-0.41952664181590077
0.0511886291205883,1.3487205505371094,-83.36619567871094,0.003146624536150032,-0.10272681770846245,0.03892753385007382,-0.41952664181590077
-0.027467815205454826,1.1627460718154907,-81.90957641601562,0.003146624536150032,-0.10272681770846245,0.03892753385007382,-0.41952664181590077
0.13885603845119476,1.455047607421875,-80.38561248779297,0.003146624536150032,-0.10272681770846245,0.03892753385007382,-0.41952664181590077
0.8869470357894897,0.30874499678611755,-78.81668090820312,0.003146624536150032,-0.10272681770846245,0.03892753385007382,-0.41952664181590077
0.05706962198019028,1.0802206993103027,-77.17681121826172,0.003146624536150032,-0.10272681770846245,0.03892753385007382,-0.41952664181590077
0.7434185147285461,0.8896167278289795,-75.5119857788086,0.003146624536150032,-0.10272681770846245,0.03892753385007382,-0.41952664181590077
1.4052284955978394,0.23836734890937805,-73.880859375,0.003146624536150032,-0.10272681770846245,0.03892753385007382,-0.41952664181590077
0.4794522225856781,0.8659312129020691,-72.19894409179688,0.003146624536150032,-0.10272681770846245,0.03892753385007382,-0.41952664181590077
-0.4925606846809387,1.2596566677093506,-70.48400115966797,0.003146624536150032,-0.10272681770846245,0.03892753385007382,-0.41952664181590077
1.0399601459503174,0.2743207812309265,-68.73619842529297,0.003146624536150032,-0.10272681770846245,0.03892753385007382,-0.41952664181590077
0.3406597375869751,0.5694193840026855,-67.02989959716797,0.003146624536150032,-0.10272681770846245,0.03892753385007382,-0.41952664181590077
1.5757899284362793,-0.1671406626701355,-65.29183959960938,0.003146624536150032,-0.10272681770846245,0.03892753385007382,-0.41952664181590077
-0.2955709397792816,1.2320560216903687,-63.559085845947266,0.003146624536150032,-0.10272681770846245,0.03892753385007382,-0.41952664181590077
0.5518015623092651,0.010181221179664135,-61.78189468383789,0.003146624536150032,-0.10272681770846245,0.03892753385007382,-0.41952664181590077
0.41196686029434204,0.9706810116767883,-60.018165588378906,0.003146624536150032,-0.10272681770846245,0.03892753385007382,-0.41952664181590077
0.9299319386482239,0.649253249168396,-58.22539520263672,0.003146624536150032,-0.10272681770846245,0.03892753385007382,-0.41952664181590077
0.26958736777305603,0.6789385676383972,-56.390716552734375,0.003146624536150032,-0.10272681770846245,0.03892753385007382,-0.41952664181590077
0.8933428525924683,0.4252704977989197,-54.56120681762695,0.003146624536150032,-0.10272681770846245,0.03892753385007382,-0.41952664181590077
-0.44004178047180176,0.6721686124801636,-52.71210861206055,0.003146624536150032,-0.10272681770846245,0.03892753385007382,-0.41952664181590077
0.41158172488212585,1.2116773128509521,-50.92320251464844,0.003146624536150032,-0.10272681770846245,0.03892753385007382,-0.41952664181590077
-0.08567048609256744,0.19147081673145294,-49.16142272949219,0.003146624536150032,-0.10272681770846245,0.03892753385007382,-0.41952664181590077
1.277355670928955,0.05026652663946152,-47.23841094970703,0.003146624536150032,-0.10272681770846245,0.03892753385007382,-0.41952664181590077
-1.029510736465454,0.962940514087677,-45.216941833496094,0.003146624536150032,-0.10272681770846245,0.03892753385007382,-0.41952664181590077
-0.3588859736919403,0.24613702297210693,-43.15245819091797,0.003146624536150032,-0.10272681770846245,0.03892753385007382,-0.41952664181590077
0.21857663989067078,1.1247286796569824,-41.101051330566406,0.003146624536150032,-0.10272681770846245,0.03892753385007382,-0.41952664181590077
-1.035950779914856,0.18884195387363434,-39.03737258911133,0.003146624536150032,-0.10272681770846245,0.03892753385007382,-0.41952664181590077
1.2908484935760498,0.8925109505653381,-36.963226318359375,0.003146624536150032,-0.10272681770846245,0.03892753385007382,-0.41952664181590077
-0.7088603377342224,0.08347621560096741,-34.85875701904297,0.003146624536150032,-0.10272681770846245,0.03892753385007382,-0.41952664181590077
-0.45512816309928894,0.8813155293464661,-32.83355712890625,0.003146624536150032,-0.10272681770846245,0.03892753385007382,-0.41952664181590077
-1.1255662441253662,-0.3542429804801941,-30.801496505737305,0.003146624536150032,-0.10272681770846245,0.03892753385007382,-0.41952664181590077
0.6498980522155762,0.8715759515762329,-28.6968936920166,0.003146624536150032,-0.10272681770846245,0.03892753385007382,-0.41952664181590077
-0.6635645627975464,0.29827895760536194,-26.595874786376953,0.003146624536150032,-0.10272681770846245,0.03892753385007382,-0.41952664181590077
0.4902557134628296,0.9723880887031555,-24.482419967651367,0.003146624536150032,-0.10272681770846245,0.03892753385007382,-0.41952664181590077
-0.7352641224861145,-0.5347504019737244,-22.211200714111328,0.003146624536150032,-0.10272681770846245,0.03892753385007382,-0.41952664181590077
0.8603183031082153,1.3624039888381958,-19.94052505493164,0.003146624536150032,-0.10272681770846245,0.03892753385007382,-0.41952664181590077
-1.6758478879928589,0.3205764591693878,-17.680496215820312,0.003146624536150032,-0.10272681770846245,0.03892753385007382,-0.41952664181590077
0.2724837064743042,0.24838639795780182,-15.3602294921875,0.003146624536150032,-0.10272681770846245,0.03892753385007382,-0.41952664181590077
-0.05420055240392685,0.09792865067720413,-13.044754981994629,0.003146624536150032,-0.10272681770846245,0.03892753385007382,-0.41952664181590077
-0.48822298645973206,0.40602022409439087,-10.668299674987793,0.003146624536150032,-0.10272681770846245,0.03892753385007382,-0.41952664181590077
0.8474630117416382,1.3615188598632812,-8.178054809570312,0.003146624536150032,-0.10272681770846245,0.03892753385007382,-0.41952664181590077
-0.8853267431259155,0.34970128536224365,-5.734875202178955,0.003146624536150032,-0.10272681770846245,0.03892753385007382,-0.41952664181590077
-0.07431088387966156,0.5037556290626526,-3.2512784004211426,0.003146624536150032,-0.10272681770846245,0.03892753385007382,-0.41952664181590077
0.7396697402000427,0.6013453602790833,-0.6949125528335571,0.003146624536150032,-0.10272681770846245,0.03892753385007382,-0.41952664181590077
-0.5523322224617004,0.34917372465133667,1.903600811958313,0.003146624536150032,-0.10272681770846245,0.03892753385007382,-0.41952664181590077
-0.6418496966362,0.31487342715263367,4.425045490264893,0.003146624536150032,-0.10272681770846245,0.03892753385007382,-0.41952664181590077
-0.5828638076782227,0.3562662899494171,7.02565860748291,0.003146624536150032,-0.10272681770846245,0.03892753385007382,-0.41952664181590077
-0.6805731654167175,-0.06932937353849411,9.666583061218262,0.003146624536150032,-0.10272681770846245,0.03892753385007382,-0.41952664181590077
-0.1170257031917572,-0.04309258610010147,12.064123153686523,0.003146624536150032,-0.10272681770846245,0.03892753385007382,-0.41952664181590077
-0.26340019702911377,-0.8965714573860168,14.05640983581543,0.003146624536150032,-0.10272681770846245,0.03892753385007382,-0.41952664181590077
0.4727439284324646,-1.7221565246582031,15.59604549407959,0.003146624536150032,-0.10272681770846245,0.03892753385007382,-0.41952664181590077
1.4208804368972778,-1.3072872161865234,16.803415298461914,0.003146624536150032,-0.10272681770846245,0.03892753385007382,-0.41952664181590077
-0.2368217557668686,-1.9402940273284912,17.44417953491211,0.003146624536150032,-0.10272681770846245,0.03892753385007382,-0.41952664181590077
-0.08547327667474747,-1.5025601387023926,17.66211700439453,0.003146624536150032,-0.10272681770846245,0.03892753385007382,-0.41952664181590077
-0.8406553864479065,-0.3084627389907837,17.712329864501953,0.003146624536150032,-0.10272681770846245,0.03892753385007382,-0.41952664181590077
-1.3076828718185425,-0.48610439896583557,17.73000717163086,0.003146624536150032,-0.10272681770846245,0.03892753385007382,-0.41952664181590077
-1.0998554229736328,-0.20656761527061462,17.740968704223633,0.003146624536150032,-0.10272681770846245,0.03892753385007382,-0.41952664181590077
0.24406196177005768,-0.051105622202157974,17.717206954956055,0.003146624536150032,-0.10272681770846245,0.03892753385007382,-0.41952664181590077
0.6137919425964355,0.33352532982826233,17.68004035949707,0.003146624536150032,-0.10272681770846245,0.03892753385007382,-0.41952664181590077
0.9668372273445129,0.1397072970867157,17.705678939819336,0.003146624536150032,-0.10272681770846245,0.03892753385007382,-0.41952664181590077
0.19410116970539093,0.18542128801345825,17.701074600219727,0.003146624536150032,-0.10272681770846245,0.03892753385007382,-0.41952664181590077
-0.2386626899242401,-0.082699254155159,17.709732055664062,0.003146624536150032,-0.10272681770846245,0.03892753385007382,-0.41952664181590077
-0.23724305629730225,-0.09565211087465286,17.707956314086914,0.003146624536150032,-0.10272681770846245,0.03892753385007382,-0.41952664181590077
0.2866622507572174,0.18708118796348572,17.698925018310547,0.003146624536150032,-0.10272681770846245,0.03892753385007382,-0.41952664181590077
0.4949072599411011,0.06119221821427345,17.700279235839844,0.003146624536150032,-0.10272681770846245,0.03892753385007382,-0.41952664181590077
0.23272527754306793,0.16770432889461517,17.7056941986084,0.003146624536150032,-0.10272681770846245,0.03892753385007382,-0.41952664181590077
-0.0347435399889946,-0.06159795820713043,17.70656967163086,0.003146624536150032,-0.10272681770846245,0.03892753385007382,-0.41952664181590077
0.02213525027036667,0.05678420513868332,17.704849243164062,0.003146624536150032,-0.10272681770846245,0.03892753385007382,-0.41952664181590077
0.2780214548110962,0.06405221670866013,17.702375411987305,0.003146624536150032,-0.10272681770846245,0.03892753385007382,-0.41952664181590077
0.32308489084243774,0.10706190764904022,17.70298957824707,0.003146624536150032,-0.10272681770846245,0.03892753385007382,-0.41952664181590077
0.13247241079807281,0.061113107949495316,17.70844841003418,0.003146624536150032,-0.10272681770846245,0.03892753385007382,-0.41952664181590077
0.05253509059548378,0.03151768073439598,17.70783233642578,0.003146624536150032,-0.10272681770846245,0.03892753385007382,-0.41952664181590077
0.1574581265449524,0.04722326993942261,17.70844078063965,0.003146624536150032,-0.10272681770846245,0.03892753385007382,-0.41952664181590077
0.27381062507629395,0.08454418182373047,17.707822799682617,0.003146624536150032,-0.10272681770846245,0.03892753385007382,-0.41952664181590077
0.2023463249206543,0.0716772973537445,17.710874557495117,0.003146624536150032,-0.10272681770846245,0.03892753385007382,-0.41952664181590077
0.09932165592908859,0,17.71216583251953,0.0038163659323213837,-0.10971395081530012,0.04144143369048834,-0.41892933100461954
0.6483237743377686,0.32809141278266907,17.70733642578125,0.004558976315375832,-0.1166733222061561,0.047671812276045486,-0.4161952358980973
1.277917504310608,0.32046160101890564,17.764991760253906,0.005487273275438283,-0.12356487106738817,0.06372382293144863,-0.41079062744975087
1.5677127838134766,0.16272388398647308,17.771421432495117,0.006746950205415488,-0.1303778269773142,0.087437408665816,-0.4067640817413727
2.5294904708862305,-0.11603249609470367,17.58350944519043,0.008488768353644345,-0.13715398588217792,0.12158076912164689,-0.40637498684227463
2.511298894882202,1.010048270225525,17.5029296875,0.010865169322739046,-0.1438648179007901,0.16358734716971718,-0.39892485539118444
0.6622657775878906,1.5051774978637695,17.585750579833984,0.0138120115444892,-0.15033889703452585,0.19003371944030129,-0.377964640657107
1.6058765649795532,0.42389822006225586,17.740079879760742,0.017136750086728072,-0.15650434412062167,0.2089349056283633,-0.36188900967439014
1.6190539598464966,1.0093579292297363,17.93458366394043,0.020842952022535936,-0.16243629593816067,0.2358093266685804,-0.3499452084302902
1.3327991962432861,0,18.044401168823242,0.02497809726951851,-0.16819862177802455,0.2604081029693286,-0.3415338923533757
1.6590299606323242,0.45840388536453247,18.065828323364258,0.029525998232679235,-0.17385901971409717,0.28534001260995867,-0.3377138599753379
1.3744003772735596,0.0587279237806797,18.112709045410156,0.03449231999408868,-0.17945167211582883,0.31061859875917436,-0.33340442823246114
0.6413361430168152,0.6208661794662476,18.16866683959961,0.03980927834287286,-0.18496121855142214,0.3274164030949275,-0.3277411440387367
1.693149209022522,0.34387847781181335,18.119897842407227,0.045428335432791046,-0.19035657479531234,0.34687044769525527,-0.3197016052280862
0.8701431155204773,-0.4817681610584259,18.08465003967285,0.051387515972471896,-0.19569451055489478,0.3682312170664469,-0.320850685921808
1.338375210762024,0.6374567151069641,18.085662841796875,0.051387515972471896,-0.19569451055489478,0.3682312170664469,-0.320850685921808
-0.06193874403834343,-0.2691862881183624,18.094257354736328,0.0576133443448796,-0.2010164476517174,0.3788681876224776,-0.317781765696903
2.000171184539795,1.6453580856323242,18.092554092407227,0.06406241361362239,-0.20621724292739396,0.39502012462665637,-0.3063136673842866
0.24542976915836334,0.3088490664958954,18.148462295532227,0.07080202686807348,-0.21118676188712318,0.41373346590747434,-0.2900286077832181
0.3790111541748047,-0.9472461342811584,18.23003387451172,0.0777409485862073,-0.2160649051465508,0.4189371402685841,-0.2953485833480953
1.0581421852111816,0.9907361268997192,18.289945602416992,0.0848230365725855,-0.22098436139730943,0.4309134180968006,-0.2949861667429406
1.1202356815338135,0.6799080967903137,18.25348472595215,0.09215620311494502,-0.2257847805497133,0.44906656698634223,-0.2810641315455237
-0.050413116812705994,1.2525911331176758,18.25246810913086,0.09971493913171191,-0.23033498140672842,0.4579817550256848,-0.26495997129629045
-0.14220795035362244,-1.0866880416870117,18.21331214904785,0.10733459191914232,-0.23473945988031725,0.4563765794659654,-0.26357744553436824
-0.8264915943145752,-1.3492896556854248,18.226144790649414,0.11487359744186201,-0.23930158242376315,0.44830408326039706,-0.2838772596791385
-1.0954948663711548,-0.6105636954307556,18.050748825073242,0.12221186088087657,-0.24416897101224297,0.4322875294213493,-0.30020937093844
0.4553527534008026,-0.10830886662006378,17.95612907409668,0.12937219872449834,-0.24922238223358162,0.426953011813263,-0.30619997562219686
1.5895544290542603,0.6940935254096985,18.074254989624023,0.13663008969794543,-0.2542850356704245,0.44399390500038854,-0.30131843679894993
1.4027135372161865,1.1942213773727417,18.143558502197266,0.13663008969794543,-0.2542850356704245,0.44399390500038854,-0.30131843679894993
1.4870799779891968,1.4360214471817017,18.095108032226562,0.13663008969794543,-0.2542850356704245,0.44399390500038854,-0.30131843679894993
0.03496311232447624,-1.2087525129318237,18.109912872314453,0.13663008969794543,-0.2542850356704245,0.44399390500038854,-0.30131843679894993
-0.34250783920288086,-0.5723279714584351,18.1822566986084,0.13663008969794543,-0.2542850356704245,0.44399390500038854,-0.30131843679894993
0.017033983021974564,1.3712047338485718,18.2018985748291,0.13663008969794543,-0.2542850356704245,0.44399390500038854,-0.30131843679894993
-1.495589256286621,-0.022246573120355606,18.28680419921875,0.13663008969794543,-0.2542850356704245,0.44399390500038854,-0.30131843679894993
-1.8155555725097656,-2.2669904232025146,18.276531219482422,0.13663008969794543,-0.2542850356704245,0.44399390500038854,-0.30131843679894993
-1.7810498476028442,-0.6169822812080383,17.93348503112793,0.13663008969794543,-0.2542850356704245,0.44399390500038854,-0.30131843679894993
-1.2248284816741943,-1.0081149339675903,17.287919998168945,0.13663008969794543,-0.2542850356704245,0.44399390500038854,-0.30131843679894993
-0.8244088888168335,-0.8444021344184875,16.297365188598633,0.13663008969794543,-0.2542850356704245,0.44399390500038854,-0.30131843679894993
-1.5218689441680908,-0.5452151894569397,15.035299301147461,0.13663008969794543,-0.2542850356704245,0.44399390500038854,-0.30131843679894993
-1.0433117151260376,-0.8883734941482544,13.693024635314941,0.13663008969794543,-0.2542850356704245,0.44399390500038854,-0.30131843679894993
-0.726466953754425,-1.1064090728759766,12.304224014282227,0.13663008969794543,-0.2542850356704245,0.44399390500038854,-0.30131843679894993
-0.07942340523004532,-0.39541515707969666,10.883753776550293,0.13663008969794543,-0.2542850356704245,0.44399390500038854,-0.30131843679894993
-1.1355364322662354,0.06133395433425903,9.330187797546387,0.13663008969794543,-0.2542850356704245,0.44399390500038854,-0.30131843679894993
-0.6507111191749573,-1.169631838798523,7.759639739990234,0.13663008969794543,-0.2542850356704245,0.44399390500038854,-0.30131843679894993
-1.8994200229644775,0.1028556227684021,6.116430282592773,0.13663008969794543,-0.2542850356704245,0.44399390500038854,-0.30131843679894993
-0.6729528903961182,-0.8866718411445618,4.357930660247803,0.13663008969794543,-0.2542850356704245,0.44399390500038854,-0.30131843679894993
-0.9257314801216125,-0.048907872289419174,2.5513827800750732,0.13663008969794543,-0.2542850356704245,0.44399390500038854,-0.30131843679894993
0.04273495078086853,-1.0319526195526123,0.5929915904998779,0.13663008969794543,-0.2542850356704245,0.44399390500038854,-0.30131843679894993
-0.1292174607515335,0.19432951509952545,-1.4355515241622925,0.13663008969794543,-0.2542850356704245,0.44399390500038854,-0.30131843679894993
-1.0628149509429932,0.5907402634620667,-3.564770221710205,0.13663008969794543,-0.2542850356704245,0.44399390500038854,-0.30131843679894993
-0.6192584037780762,-0.8920178413391113,-5.684647560119629,0.13663008969794543,-0.2542850356704245,0.44399390500038854,-0.30131843679894993
-1.0954211950302124,-0.4205298125743866,-7.873514175415039,0.13663008969794543,-0.2542850356704245,0.44399390500038854,-0.30131843679894993
0.2567927837371826,-1.1352683305740356,-9.937783241271973,0.13663008969794543,-0.2542850356704245,0.44399390500038854,-0.30131843679894993
-1.0489535331726074,1.6800144910812378,-12.059733390808105,0.13663008969794543,-0.2542850356704245,0.44399390500038854,-0.30131843679894993
0.6012305021286011,-0.8633216023445129,-14.129203796386719,0.13663008969794543,-0.2542850356704245,0.44399390500038854,-0.30131843679894993
-2.745337724685669,0.8553029894828796,-16.25630760192871,0.13663008969794543,-0.2542850356704245,0.44399390500038854,-0.30131843679894993
1.1541846990585327,-1.2363293170928955,-18.416006088256836,0.13663008969794543,-0.2542850356704245,0.44399390500038854,-0.30131843679894993
-0.6280853152275085,-0.2572515308856964,-20.570167541503906,0.13663008969794543,-0.2542850356704245,0.44399390500038854,-0.30131843679894993
-0.6885256767272949,-0.6267167925834656,-22.742225646972656,0.13663008969794543,-0.2542850356704245,0.44399390500038854,-0.30131843679894993
-0.29596608877182007,0.97853022813797,-25.06315803527832,0.13663008969794543,-0.2542850356704245,0.44399390500038854,-0.30131843679894993
-0.5778605937957764,0.562544047832489,-27.449270248413086,0.13663008969794543,-0.2542850356704245,0.44399390500038854,-0.30131843679894993
-0.7271989583969116,0.8413568139076233,-29.928102493286133,0.13663008969794543,-0.2542850356704245,0.44399390500038854,-0.30131843679894993
-1.149569034576416,-1.6349005699157715,-32.41142272949219,0.13663008969794543,-0.2542850356704245,0.44399390500038854,-0.30131843679894993
-0.3072303533554077,1.3420275449752808,-34.96752166748047,0.13663008969794543,-0.2542850356704245,0.44399390500038854,-0.30131843679894993
-1.0114319324493408,-1.2520568370819092,-37.52491760253906,0.13663008969794543,-0.2542850356704245,0.44399390500038854,-0.30131843679894993
0.2823610007762909,1.0146265029907227,-40.05369186401367,0.13663008969794543,-0.2542850356704245,0.44399390500038854,-0.30131843679894993
-0.7696123123168945,0.2677120268344879,-42.59870529174805,0.13663008969794543,-0.2542850356704245,0.44399390500038854,-0.30131843679894993
-0.31916120648384094,-0.19104290008544922,-45.2208137512207,0.13663008969794543,-0.2542850356704245,0.44399390500038854,-0.30131843679894993
-1.1740939617156982,-0.44713538885116577,-47.780799865722656,0.13663008969794543,-0.2542850356704245,0.44399390500038854,-0.30131843679894993
-0.05449773743748665,1.194230556488037,-50.410701751708984,0.13663008969794543,-0.2542850356704245,0.44399390500038854,-0.30131843679894993
-0.020127855241298676,0.6365906596183777,-53.129947662353516,0.13663008969794543,-0.2542850356704245,0.44399390500038854,-0.30131843679894993
-0.6510633230209351,0.13102251291275024,-55.787986755371094,0.13663008969794543,-0.2542850356704245,0.44399390500038854,-0.30131843679894993
0.061661120504140854,-0.04106844589114189,-58.413238525390625,0.13663008969794543,-0.2542850356704245,0.44399390500038854,-0.30131843679894993
-0.5313504934310913,0.1658080667257309,-61.06080627441406,0.13663008969794543,-0.2542850356704245,0.44399390500038854,-0.30131843679894993
0.38765767216682434,0.03190959244966507,-63.831138610839844,0.13663008969794543,-0.2542850356704245,0.44399390500038854,-0.30131843679894993
0.04171639308333397,1.0339900255203247,-66.64151763916016,0.13663008969794543,-0.2542850356704245,0.44399390500038854,-0.30131843679894993
-0.4543394148349762,1.335094928741455,-69.36328887939453,0.13663008969794543,-0.2542850356704245,0.44399390500038854,-0.30131843679894993
-0.4170314371585846,-0.29547587037086487,-72.14429473876953,0.13663008969794543,-0.2542850356704245,0.44399390500038854,-0.30131843679894993
-0.7627557516098022,0.1982949823141098,-75.04254150390625,0.13663008969794543,-0.2542850356704245,0.44399390500038854,-0.30131843679894993
0.4112570285797119,0.02318623475730419,-77.8982162475586,0.13663008969794543,-0.2542850356704245,0.44399390500038854,-0.30131843679894993
0.3910437524318695,0.2579098045825958,-80.7947998046875,0.13663008969794543,-0.2542850356704245,0.44399390500038854,-0.30131843679894993
0.13192424178123474,0.99870765209198,-83.72137451171875,0.13663008969794543,-0.2542850356704245,0.44399390500038854,-0.30131843679894993
0.16926078498363495,0.24487128853797913,-86.6410903930664,0.13663008969794543,-0.2542850356704245,0.44399390500038854,-0.30131843679894993
-0.682256281375885,0.2022130787372589,-89.55158233642578,0.13663008969794543,-0.2542850356704245,0.44399390500038854,-0.30131843679894993
-0.0328434482216835,0.4363197386264801,-92.45872497558594,0.13663008969794543,-0.2542850356704245,0.44399390500038854,-0.30131843679894993
0.28702718019485474,1.2889072895050049,-95.39825439453125,0.13663008969794543,-0.2542850356704245,0.44399390500038854,-0.30131843679894993
0.08146675676107407,0.2336028814315796,-98.24998474121094,0.13663008969794543,-0.2542850356704245,0.44399390500038854,-0.30131843679894993
0.16009283065795898,0.9820815324783325,-101.12601470947266,0.13663008969794543,-0.2542850356704245,0.44399390500038854,-0.30131843679894993
1.6186976432800293,-0.1671026051044464,-103.81986999511719,0.13663008969794543,-0.2542850356704245,0.44399390500038854,-0.30131843679894993
0.14287017285823822,-1.3632961511611938,-106.15625762939453,0.13663008969794543,-0.2542850356704245,0.44399390500038854,-0.30131843679894993
0.6278867721557617,-0.8266250491142273,-108.23011016845703,0.13663008969794543,-0.2542850356704245,0.44399390500038854,-0.30131843679894993
1.159024715423584,-0.13115493953227997,-109.99148559570312,0.13663008969794543,-0.2542850356704245,0.44399390500038854,-0.30131843679894993
1.6518102884292603,-0.7817031145095825,-111.3175277709961,0.13663008969794543,-0.2542850356704245,0.44399390500038854,-0.30131843679894993
1.3763434886932373,-0.7265667915344238,-112.25402069091797,0.13663008969794543,-0.2542850356704245,0.44399390500038854,-0.30131843679894993
1.5190752744674683,-0.6650230884552002,-112.79793548583984,0.13663008969794543,-0.2542850356704245,0.44399390500038854,-0.30131843679894993
0.7859026789665222,-0.7687790393829346,-112.96537017822266,0.13663008969794543,-0.2542850356704245,0.44399390500038854,-0.30131843679894993
0.10042816400527954,-0.24512526392936707,-112.88648223876953,0.13663008969794543,-0.2542850356704245,0.44399390500038854,-0.30131843679894993
0.035128675401210785,1.049968957901001,-112.87572479248047,0.13663008969794543,-0.2542850356704245,0.44399390500038854,-0.30131843679894993
0.18938475847244263,0.3461739718914032,-112.91516876220703,0.13663008969794543,-0.2542850356704245,0.44399390500038854,-0.30131843679894993
-0.21384555101394653,0.05125724896788597,-112.884033203125,0.13663008969794543,-0.2542850356704245,0.44399390500038854,-0.30131843679894993
-0.031582653522491455,-0.187139093875885,-112.87158203125,0.13663008969794543,-0.2542850356704245,0.44399390500038854,-0.30131843679894993
-0.16126134991645813,-0.258330762386322,-112.88485717773438,0.13663008969794543,-0.2542850356704245,0.44399390500038854,-0.30131843679894993
-0.1937306821346283,0.02086292766034603,-112.88141632080078,0.13663008969794543,-0.2542850356704245,0.44399390500038854,-0.30131843679894993
0.0981433317065239,0.1424882560968399,-112.88634490966797,0.13663008969794543,-0.2542850356704245,0.44399390500038854,-0.30131843679894993
-0.08096745610237122,0.21751216053962708,-112.89508819580078,0.13663008969794543,-0.2542850356704245,0.44399390500038854,-0.30131843679894993
-0.058809779584407806,0.03735370934009552,-112.88543701171875,0.13663008969794543,-0.2542850356704245,0.44399390500038854,-0.30131843679894993
-0.07211153954267502,-0.040519122034311295,-112.88455963134766,0.13663008969794543,-0.2542850356704245,0.44399390500038854,-0.30131843679894993
-0.12241611629724503,-0.025492722168564796,-112.88834381103516,0.13663008969794543,-0.2542850356704245,0.44399390500038854,-0.30131843679894993
-0.04303731396794319,0.0722619891166687,-112.88569641113281,0.13663008969794543,-0.2542850356704245,0.44399390500038854,-0.30131843679894993
-0.02788158878684044,0.10889190435409546,-112.88753509521484,0.13663008969794543,-0.2542850356704245,0.44399390500038854,-0.30131843679894993
-0.08411531150341034,0.05833592638373375,-112.88534545898438,0.13663008969794543,-0.2542850356704245,0.44399390500038854,-0.30131843679894993
-0.0674515888094902,-0.004255002364516258,-112.88308715820312,0.13663008969794543,-0.2542850356704245,0.44399390500038854,-0.30131843679894993
-0.09373430907726288,0.017761480063199997,-112.88507843017578,0.13663008969794543,-0.2542850356704245,0.44399390500038854,-0.30131843679894993
-0.06392307579517365,0.06726974993944168,-112.88565826416016,0.14401903968511354,-0.2593011046705457,0.44268009345978493,-0.3006098432155946
0,0.06853587180376053,-112.88533782958984,0.15139260214029085,-0.26430183777818456,0.4421474011614918,-0.2994781297010679
0,-0.4647234380245209,-112.8720703125,0.15876172549298237,-0.269320652965301,0.4421474011614918,-0.30277969275290756
-0.9921956658363342,-1.8641769886016846,-112.77247619628906,0.16606194636887972,-0.27452871037414295,0.433879103946189,-0.3221871963081259
-0.7898053526878357,-2.9007928371429443,-112.6199951171875,0.17316951469725203,-0.28022939766162175,0.4190290954584876,-0.36189527818933115
-1.9700071811676025,-1.790604591369629,-112.62177276611328,0.1799616793067091,-0.28658677711953506,0.3960306576763589,-0.4009902567602693
0.12917670607566833,-0.7337257266044617,-112.5870361328125,0.18643435481832257,-0.2934452487820655,0.3806904037172595,-0.4220263427433867
-0.14407207071781158,-1.6644002199172974,-112.41868591308594,0.19277816047995452,-0.30064555768518597,0.380566275678575,-0.442010725631068
-0.24791617691516876,-1.0702446699142456,-112.27037811279297,0.19909371033517848,-0.3082023090074976,0.3772997069483002,-0.46479943304633087
-1.1866047382354736,-0.8660004734992981,-112.12236022949219,0.20528241927632024,-0.31608342769322906,0.3653453659887115,-0.4809348092414437
-0.7552767395973206,-1.1903371810913086,-112.083251953125,0.21123665582906037,-0.32424180907326633,0.3491630203401049,-0.4980709563630321
-0.6987607479095459,-0.46743854880332947,-112.20752716064453,0.21123665582906037,-0.32424180907326633,0.3491630203401049,-0.4980709563630321
-0.3271765112876892,-1.1139256954193115,-112.29887390136719,0.21698479385839564,-0.3326528086407212,0.34061354318012793,-0.5112489917315541
0.38599860668182373,0,-112.35884857177734,0.2226657711124668,-0.3412509811206512,0.3411037273084124,-0.5205317058600484
-0.6743594408035278,0,-112.28463745117188,0.22833080817634854,-0.34992650955165205,0.3387007203573982,-0.5205317058600484
0.9477521777153015,2.0808465480804443,-112.30308532714844,0.23399480578903517,-0.3584575347501473,0.3409789931649963,-0.503191317959378
-1.2465754747390747,-0.94899982213974,-112.26026916503906,0.2396570373906029,-0.3667654562490577,0.3384887990231315,-0.4937592619098721
-1.0153344869613647,-1.5501790046691895,-112.14891052246094,0.24514144029364812,-0.37516833136608396,0.3196395493422945,-0.5145857521332798
-0.21095353364944458,-2.1698548793792725,-112.11125946044922,0.2503836072256995,-0.38400309625469753,0.3094204825038711,-0.5455860345003504
-0.05193241313099861,-0.9908050894737244,-112.04027557373047,0.25552235929890427,-0.39331568710531817,0.30722976628070076,-0.5719248675741253
0,-0.2507791817188263,-111.9266357421875,0.26063924898600405,-0.4029339893614975,0.30679699617127576,-0.5822714031673966
-0.927937924861908,-0.3398664593696594,-111.8934326171875,0.26568809212185435,-0.4126795298060297,0.29906418013075986,-0.5871934501764673
0.0014912679325789213,0.23187236487865448,-111.804443359375,0.26568809212185435,-0.4126795298060297,0.29906418013075986,-0.5871934501764673
-0.6742929816246033,-0.9873431324958801,-111.73641204833984,0.26568809212185435,-0.4126795298060297,0.29906418013075986,-0.5871934501764673
0.132624089717865,-0.613746166229248,-111.65677642822266,0.26568809212185435,-0.4126795298060297,0.29906418013075986,-0.5871934501764673
-0.01955290324985981,-1.6418192386627197,-111.62144470214844,0.26568809212185435,-0.4126795298060297,0.29906418013075986,-0.5871934501764673
0.13956594467163086,-0.5168980956077576,-111.63414001464844,0.26568809212185435,-0.4126795298060297,0.29906418013075986,-0.5871934501764673
-1.3978991508483887,-0.002359648933634162,-111.81836700439453,0.26568809212185435,-0.4126795298060297,0.29906418013075986,-0.5871934501764673
-0.8120856285095215,-0.11462229490280151,-111.90620422363281,0.26568809212185435,-0.4126795298060297,0.29906418013075986,-0.5871934501764673
1.0339869260787964,0.4546062648296356,-111.93367004394531,0.26568809212185435,-0.4126795298060297,0.29906418013075986,-0.5871934501764673
0.3093673586845398,1.4161218404769897,-112.01903533935547,0.26568809212185435,-0.4126795298060297,0.29906418013075986,-0.5871934501764673
0.6327189803123474,2.017089605331421,-112.29391479492188,0.26568809212185435,-0.4126795298060297,0.29906418013075986,-0.5871934501764673
0.3659979999065399,1.8134249448776245,-112.74827575683594,0.26568809212185435,-0.4126795298060297,0.29906418013075986,-0.5871934501764673
-0.3818218410015106,1.9474976062774658,-113.56864929199219,0.26568809212185435,-0.4126795298060297,0.29906418013075986,-0.5871934501764673
0.4183392822742462,2.2760446071624756,-114.64326477050781,0.26568809212185435,-0.4126795298060297,0.29906418013075986,-0.5871934501764673
-0.2332400679588318,0.9865962266921997,-115.85726165771484,0.26568809212185435,-0.4126795298060297,0.29906418013075986,-0.5871934501764673
0.1538994312286377,0.9589833617210388,-117.174560546875,0.26568809212185435,-0.4126795298060297,0.29906418013075986,-0.5871934501764673
0.3381972312927246,1.222179651260376,-118.6679916381836,0.26568809212185435,-0.4126795298060297,0.29906418013075986,-0.5871934501764673
0.050759680569171906,1.920486330986023,-120.2552490234375,0.26568809212185435,-0.4126795298060297,0.29906418013075986,-0.5871934501764673
-0.23701995611190796,1.191726565361023,-121.87699890136719,0.26568809212185435,-0.4126795298060297,0.29906418013075986,-0.5871934501764673
-0.6998108625411987,1.4538275003433228,-123.45398712158203,0.26568809212185435,-0.4126795298060297,0.29906418013075986,-0.5871934501764673
-0.649818480014801,1.5045850276947021,-124.98464965820312,0.26568809212185435,-0.4126795298060297,0.29906418013075986,-0.5871934501764673
0.14935442805290222,1.0586190223693848,-126.52717590332031,0.26568809212185435,-0.4126795298060297,0.29906418013075986,-0.5871934501764673
-0.3696739673614502,0.31320732831954956,-128.01693725585938,0.26568809212185435,-0.4126795298060297,0.29906418013075986,-0.5871934501764673
-0.7828436493873596,0.13216421008110046,-129.56210327148438,0.26568809212185435,-0.4126795298060297,0.29906418013075986,-0.5871934501764673
1.280791163444519,0.9933980703353882,-131.203369140625,0.26568809212185435,-0.4126795298060297,0.29906418013075986,-0.5871934501764673
-1.2008421421051025,0.8775427341461182,-132.77198791503906,0.26568809212185435,-0.4126795298060297,0.29906418013075986,-0.5871934501764673
0.8890604376792908,0.6394252777099609,-134.4053955078125,0.26568809212185435,-0.4126795298060297,0.29906418013075986,-0.5871934501764673
-0.4509561359882355,1.497918963432312,-136.13548278808594,0.26568809212185435,-0.4126795298060297,0.29906418013075986,-0.5871934501764673
0.6022970676422119,0.5081595182418823,-137.89599609375,0.26568809212185435,-0.4126795298060297,0.29906418013075986,-0.5871934501764673
-0.6969486474990845,1.2678325176239014,-139.746826171875,0.26568809212185435,-0.4126795298060297,0.29906418013075986,-0.5871934501764673
0.012385743670165539,0.740543782711029,-141.74273681640625,0.26568809212185435,-0.4126795298060297,0.29906418013075986,-0.5871934501764673
1.0432648658752441,1.309160828590393,-143.85459899902344,0.26568809212185435,-0.4126795298060297,0.29906418013075986,-0.5871934501764673
-0.3253578245639801,0.33148476481437683,-146.011962890625,0.26568809212185435,-0.4126795298060297,0.29906418013075986,-0.5871934501764673
1.1997106075286865,0.5084187984466553,-148.22171020507812,0.26568809212185435,-0.4126795298060297,0.29906418013075986,-0.5871934501764673
1.0495595932006836,0.020194891840219498,-150.5567169189453,0.26568809212185435,-0.4126795298060297,0.29906418013075986,-0.5871934501764673
-0.6090596914291382,0.6360438466072083,-152.87994384765625,0.26568809212185435,-0.4126795298060297,0.29906418013075986,-0.5871934501764673
0.9031475186347961,0.8042760491371155,-155.28036499023438,0.26568809212185435,-0.4126795298060297,0.29906418013075986,-0.5871934501764673
0.9338574409484863,0.27246204018592834,-157.68612670898438,0.26568809212185435,-0.4126795298060297,0.29906418013075986,-0.5871934501764673
0.0392753928899765,1.0986602306365967,-160.0982208251953,0.26568809212185435,-0.4126795298060297,0.29906418013075986,-0.5871934501764673
0.07287435233592987,-0.370830237865448,-162.58505249023438,0.26568809212185435,-0.4126795298060297,0.29906418013075986,-0.5871934501764673
1.1735714673995972,-0.06179911643266678,-165.17881774902344,0.26568809212185435,-0.4126795298060297,0.29906418013075986,-0.5871934501764673
-0.7263135313987732,0.5777603387832642,-167.79017639160156,0.26568809212185435,-0.4126795298060297,0.29906418013075986,-0.5871934501764673
1.356511116027832,0.932686448097229,-170.47715759277344,0.26568809212185435,-0.4126795298060297,0.29906418013075986,-0.5871934501764673
1.3372128009796143,-0.7368299961090088,-173.13821411132812,0.26568809212185435,-0.4126795298060297,0.29906418013075986,-0.5871934501764673
-1.2784792184829712,0.0403762012720108,-175.75514221191406,0.26568809212185435,-0.4126795298060297,0.29906418013075986,-0.5871934501764673
0.05098530650138855,0.9277922511100769,-178.46604919433594,0.26568809212185435,-0.4126795298060297,0.29906418013075986,-0.5871934501764673
1.34074866771698,0.5277630090713501,178.79579162597656,0.26568809212185435,-0.4126795298060297,0.29906418013075986,-0.5871934501764673
0.8704904317855835,-0.4606415927410126,176.05050659179688,0.26568809212185435,-0.4126795298060297,0.29906418013075986,-0.5871934501764673
-0.5532448291778564,1.9294617176055908,173.3186798095703,0.26568809212185435,-0.4126795298060297,0.29906418013075986,-0.5871934501764673
0.6768004298210144,-0.6021036505699158,170.59283447265625,0.26568809212185435,-0.4126795298060297,0.29906418013075986,-0.5871934501764673
0.9186379909515381,-0.5000083446502686,168.09439086914062,0.26568809212185435,-0.4126795298060297,0.29906418013075986,-0.5871934501764673
-0.8386877775192261,0.8256828188896179,166.07069396972656,0.26568809212185435,-0.4126795298060297,0.29906418013075986,-0.5871934501764673
-0.010391964577138424,-1.4059605598449707,164.47024536132812,0.26568809212185435,-0.4126795298060297,0.29906418013075986,-0.5871934501764673
-0.37719255685806274,-1.5389060974121094,163.21917724609375,0.26568809212185435,-0.4126795298060297,0.29906418013075986,-0.5871934501764673
-0.5414815545082092,-0.7738631963729858,162.30325317382812,0.26568809212185435,-0.4126795298060297,0.29906418013075986,-0.5871934501764673
-1.429382562637329,-1.3185927867889404,161.83151245117188,0.26568809212185435,-0.4126795298060297,0.29906418013075986,-0.5871934501764673
-0.5145477652549744,-1.081107497215271,161.7272186279297,0.26568809212185435,-0.4126795298060297,0.29906418013075986,-0.5871934501764673
1.1498265266418457,0.2499278336763382,161.76089477539062,0.26568809212185435,-0.4126795298060297,0.29906418013075986,-0.5871934501764673
0.8413349986076355,-0.18907657265663147,161.7404022216797,0.26568809212185435,-0.4126795298060297,0.29906418013075986,-0.5871934501764673
0.18846917152404785,0.07381695508956909,161.7559356689453,0.26568809212185435,-0.4126795298060297,0.29906418013075986,-0.5871934501764673
-0.6234944462776184,0.4431973099708557,161.7765655517578,0.26568809212185435,-0.4126795298060297,0.29906418013075986,-0.5871934501764673
-0.6039834022521973,0.37038707733154297,161.78045654296875,0.26568809212185435,-0.4126795298060297,0.29906418013075986,-0.5871934501764673
-0.021660123020410538,0.2675725519657135,161.76718139648438,0.26568809212185435,-0.4126795298060297,0.29906418013075986,-0.5871934501764673
0.3698819875717163,0.009805128909647465,161.77064514160156,0.26568809212185435,-0.4126795298060297,0.29906418013075986,-0.5871934501764673
0.3007402718067169,0.11684233695268631,161.7659912109375,0.26568809212185435,-0.4126795298060297,0.29906418013075986,-0.5871934501764673
-0.15229424834251404,0.2173735797405243,161.77169799804688,0.26568809212185435,-0.4126795298060297,0.29906418013075986,-0.5871934501764673
-0.3038308620452881,0.31830742955207825,161.7740936279297,0.26568809212185435,-0.4126795298060297,0.29906418013075986,-0.5871934501764673
-0.10669555515050888,0.20257794857025146,161.77268981933594,0.26568809212185435,-0.4126795298060297,0.29906418013075986,-0.5871934501764673
0.18719662725925446,0.15850014984607697,161.7722930908203,0.26568809212185435,-0.4126795298060297,0.29906418013075986,-0.5871934501764673
0.12930963933467865,0.11682099848985672,161.77099609375,0.26568809212185435,-0.4126795298060297,0.29906418013075986,-0.5871934501764673
-0.08368057757616043,0.23860961198806763,161.7722930908203,0.26568809212185435,-0.4126795298060297,0.29906418013075986,-0.5871934501764673
-0.1722165197134018,0.22576385736465454,161.77381896972656,0.26568809212185435,-0.4126795298060297,0.29906418013075986,-0.5871934501764673
-0.014013850130140781,0.196946918964386,161.77369689941406,0.26568809212185435,-0.4126795298060297,0.29906418013075986,-0.5871934501764673
0.075355164706707,0.14882220327854156,161.77395629882812,0.26568809212185435,-0.4126795298060297,0.29906418013075986,-0.5871934501764673
0.011393425054848194,0.1649342179298401,161.77232360839844,0.26568809212185435,-0.4126795298060297,0.29906418013075986,-0.5871934501764673
-0.09828538447618484,0.21073244512081146,161.77259826660156,0.270666460960185,-0.4224399993462589,0.2983400804689154,-0.5840628946510452
-0.910352349281311,0.24325495958328247,161.79251098632812,0.2755687513476004,-0.4321428540206719,0.28993476602093626,-0.5802796662785111
-1.7301125526428223,1.0950356721878052,161.85171508789062,0.28021763182976017,-0.4417212449425518,0.26793089183823515,-0.5691272443470854
-2.2616074085235596,1.0422667264938354,161.82814025878906,0.28440594391864976,-0.451058275237317,0.2346665588285153,-0.5513163910247384
-1.6068180799484253,0.5529078841209412,161.789794921875,0.2880484125735367,-0.46013610573976993,0.20242967975791543,-0.5380232692696153
-1.0429342985153198,0.6476035118103027,161.8453826904297,0.2912382299876642,-0.4690197913806572,0.1803484099373842,-0.5280190076368549
-1.5008901357650757,0,161.86488342285156,0.2940673823453511,-0.4777751357085068,0.15914987298504757,-0.5226223117051024
-1.0069998502731323,1.077813982963562,161.8810272216797,0.29654572120162703,-0.4864106593769972,0.1382507897680625,-0.5136405285137394
-1.574194312095642,0.9867532849311829,161.8940887451172,0.2986706514364858,-0.494827962125289,0.11674083841498936,-0.49643580128128323
-1.4459861516952515,0.8564575910568237,162.00006103515625,0.3004065973223057,-0.5029738913913668,0.09157266788339859,-0.4810757106480498
-0.842242419719696,0,162.01181030273438,0.30177390369179186,-0.5109323436805665,0.07250409645494069,-0.4739385640559096
-0.6806877851486206,1.3415976762771606,162.03526306152344,0.30177390369179186,-0.5109323436805665,0.07250409645494069,-0.4739385640559096
-0.17548725008964539,0,162.05348205566406,0.30292284869970487,-0.518738153242868,0.0653693044946218,-0.4627585834202666
-0.9233580827713013,0.3649958074092865,162.0924835205078,0.3039360284042777,-0.5264254493688023,0.056212260054113915,-0.4597169516918559
-0.7674697041511536,0.2715296745300293,162.16419982910156,0.30475548080886555,-0.5340431954051986,0.042122028496426794,-0.4544125726756949
1.716103196144104,0.20319867134094238,162.24473571777344,0.3055233919429722,-0.5415837710368858,0.050027307596368045,-0.45045650312677016
-1.2046968936920166,0.0663478896021843,162.25625610351562,0.30639269472947084,-0.5490726609111554,0.05428902678346877,-0.4482102817855774
-0.6239268779754639,1.216163992881775,162.20826721191406,0.3071705240806073,-0.5564537689490758,0.03905049535290644,-0.43752268276487777
-1.7465800046920776,-0.7130307555198669,162.1882781982422,0.3076567471363038,-0.5637108738536737,0.019296271330676927,-0.43332990578686187
-1.9444149732589722,0.9688063859939575,162.29563903808594,0.30772203256279074,-0.5709152767535607,-0.011462020152248488,-0.43119844219957776
-0.07136430591344833,0.6345387101173401,162.50364685058594,0.30739101422142184,-0.5779905740474348,-0.02826018081201866,-0.41783723306531695
-0.6732155084609985,0.11386220902204514,162.5590362548828,0.30686830427633444,-0.5849025556458054,-0.034465012598472386,-0.4116005587391554
-0.6831740140914917,0.24746829271316528,162.4402313232422,0.3061996936828493,-0.5917374725621708,-0.04576825861974314,-0.4085894712246953
-1.1613316535949707,0.5884648561477661,162.36219787597656,0.3053087987011532,-0.5984892461694671,-0.061139139183796994,-0.4016233616508542
-0.6081666946411133,0.4549402892589569,162.3585205078125,0.3041669312183513,-0.6051105101729948,-0.07588495875243102,-0.39292831877246487
0.8084556460380554,0.462199330329895,162.24327087402344,0.3029160908607689,-0.6115956252345088,-0.0742158841574565,-0.38528548860922446
-0.4474749267101288,0.909803032875061,162.21331787109375,0.3029160908607689,-0.6115956252345088,-0.0742158841574565,-0.38528548860922446
-0.29337167739868164,0.19450759887695312,162.2686309814453,0.3029160908607689,-0.6115956252345088,-0.0742158841574565,-0.38528548860922446
-1.2081069946289062,-0.30672702193260193,162.2293701171875,0.3029160908607689,-0.6115956252345088,-0.0742158841574565,-0.38528548860922446
-0.20269091427326202,0.5114380717277527,162.20069885253906,0.3029160908607689,-0.6115956252345088,-0.0742158841574565,-0.38528548860922446
3.4654452800750732,-0.5547094941139221,162.0837860107422,0.3029160908607689,-0.6115956252345088,-0.0742158841574565,-0.38528548860922446
0.4571647644042969,0.020757514983415604,161.66900634765625,0.3029160908607689,-0.6115956252345088,-0.0742158841574565,-0.38528548860922446
2.117412567138672,-0.24122706055641174,160.93270874023438,0.3029160908607689,-0.6115956252345088,-0.0742158841574565,-0.38528548860922446
1.693062424659729,0.5100818872451782,160.02291870117188,0.3029160908607689,-0.6115956252345088,-0.0742158841574565,-0.38528548860922446
1.7444941997528076,-0.2814750373363495,158.9278564453125,0.3029160908607689,-0.6115956252345088,-0.0742158841574565,-0.38528548860922446
1.3560746908187866,-0.020882340148091316,157.63302612304688,0.3029160908607689,-0.6115956252345088,-0.0742158841574565,-0.38528548860922446
0.8261788487434387,0.5249356627464294,156.20916748046875,0.3029160908607689,-0.6115956252345088,-0.0742158841574565,-0.38528548860922446
1.5136772394180298,-0.12086518853902817,154.63861083984375,0.3029160908607689,-0.6115956252345088,-0.0742158841574565,-0.38528548860922446
0.3887256979942322,0.32387951016426086,152.9385223388672,0.3029160908607689,-0.6115956252345088,-0.0742158841574565,-0.38528548860922446
2.119209051132202,-0.2690233886241913,151.15106201171875,0.3029160908607689,-0.6115956252345088,-0.0742158841574565,-0.38528548860922446
1.283992052078247,-0.020963309332728386,149.29006958007812,0.3029160908607689,-0.6115956252345088,-0.0742158841574565,-0.38528548860922446
0.8248702883720398,-0.07570797204971313,147.3938751220703,0.3029160908607689,-0.6115956252345088,-0.0742158841574565,-0.38528548860922446
0.8796297907829285,0.6815128326416016,145.4188690185547,0.3029160908607689,-0.6115956252345088,-0.0742158841574565,-0.38528548860922446
0.7254653573036194,-0.4805844724178314,143.37648010253906,0.3029160908607689,-0.6115956252345088,-0.0742158841574565,-0.38528548860922446
1.217289686203003,0.10917800664901733,141.31033325195312,0.3029160908607689,-0.6115956252345088,-0.0742158841574565,-0.38528548860922446
0.2687627673149109,-0.7130676507949829,139.17849731445312,0.3029160908607689,-0.6115956252345088,-0.0742158841574565,-0.38528548860922446
1.4869835376739502,0.6913179159164429,137.00894165039062,0.3029160908607689,-0.6115956252345088,-0.0742158841574565,-0.38528548860922446
1.1422380208969116,-0.7826008796691895,134.7501678466797,0.3029160908607689,-0.6115956252345088,-0.0742158841574565,-0.38528548860922446
0.791426420211792,0.9953425526618958,132.46136474609375,0.3029160908607689,-0.6115956252345088,-0.0742158841574565,-0.38528548860922446
0.1792185753583908,-0.32501232624053955,130.1264190673828,0.3029160908607689,-0.6115956252345088,-0.0742158841574565,-0.38528548860922446
0.4203583598136902,-0.6509629487991333,127.8233871459961,0.3029160908607689,-0.6115956252345088,-0.0742158841574565,-0.38528548860922446
0.8200232982635498,0.40308845043182373,125.48602294921875,0.3029160908607689,-0.6115956252345088,-0.0742158841574565,-0.38528548860922446
1.022356390953064,1.1537314653396606,123.2676773071289,0.3029160908607689,-0.6115956252345088,-0.0742158841574565,-0.38528548860922446
0.02150140516459942,-0.6417332291603088,121.04436492919922,0.3029160908607689,-0.6115956252345088,-0.0742158841574565,-0.38528548860922446
0.7104556560516357,-0.5531986951828003,118.79448699951172,0.3029160908607689,-0.6115956252345088,-0.0742158841574565,-0.38528548860922446
0.7080852389335632,-0.8088415265083313,116.56499481201172,0.3029160908607689,-0.6115956252345088,-0.0742158841574565,-0.38528548860922446
0.024506062269210815,-0.12128445506095886,114.24783325195312,0.3029160908607689,-0.6115956252345088,-0.0742158841574565,-0.38528548860922446
0.9540274143218994,-0.2064359188079834,111.89815521240234,0.3029160908607689,-0.6115956252345088,-0.0742158841574565,-0.38528548860922446
0.708473265171051,-0.4624280631542206,109.46543884277344,0.3029160908607689,-0.6115956252345088,-0.0742158841574565,-0.38528548860922446
0.39726755023002625,0.8027420043945312,106.93224334716797,0.3029160908607689,-0.6115956252345088,-0.0742158841574565,-0.38528548860922446
0.198006272315979,-0.5760249495506287,104.35921478271484,0.3029160908607689,-0.6115956252345088,-0.0742158841574565,-0.38528548860922446
0.19279512763023376,0.3073751628398895,101.83550262451172,0.3029160908607689,-0.6115956252345088,-0.0742158841574565,-0.38528548860922446
0.9277420043945312,-0.46534264087677,99.29119110107422,0.3029160908607689,-0.6115956252345088,-0.0742158841574565,-0.38528548860922446
0.06487768143415451,-0.980831503868103,96.72338104248047,0.3029160908607689,-0.6115956252345088,-0.0742158841574565,-0.38528548860922446
0.9827036261558533,0.3116709291934967,94.25594329833984,0.3029160908607689,-0.6115956252345088,-0.0742158841574565,-0.38528548860922446
-0.5956072211265564,-1.2856332063674927,91.74536895751953,0.3029160908607689,-0.6115956252345088,-0.0742158841574565,-0.38528548860922446
0.5771329998970032,0.09703163802623749,89.25096130371094,0.3029160908607689,-0.6115956252345088,-0.0742158841574565,-0.38528548860922446
0.022433243691921234,0.16307714581489563,86.74650573730469,0.3029160908607689,-0.6115956252345088,-0.0742158841574565,-0.38528548860922446
0.13051165640354156,-1.0208581686019897,84.26026153564453,0.3029160908607689,-0.6115956252345088,-0.0742158841574565,-0.38528548860922446
-0.10554659366607666,0.3407805562019348,82.06523132324219,0.3029160908607689,-0.6115956252345088,-0.0742158841574565,-0.38528548860922446
-0.46925657987594604,0.4776700437068939,80.27458953857422,0.3029160908607689,-0.6115956252345088,-0.0742158841574565,-0.38528548860922446
-1.0767104625701904,0.42251676321029663,78.81330871582031,0.3029160908607689,-0.6115956252345088,-0.0742158841574565,-0.38528548860922446
-1.525293231010437,0.19931937754154205,77.66781616210938,0.3029160908607689,-0.6115956252345088,-0.0742158841574565,-0.38528548860922446
-0.7209186553955078,0.8104394674301147,76.84496307373047,0.3029160908607689,-0.6115956252345088,-0.0742158841574565,-0.38528548860922446
-0.8454402685165405,0.9882058501243591,76.42150115966797,0.3029160908607689,-0.6115956252345088,-0.0742158841574565,-0.38528548860922446
-1.1348456144332886,1.3115178346633911,76.3076400756836,0.3029160908607689,-0.6115956252345088,-0.0742158841574565,-0.38528548860922446
0.7945334911346436,0.15582193434238434,76.38079833984375,0.3029160908607689,-0.6115956252345088,-0.0742158841574565,-0.38528548860922446
-0.34186697006225586,-0.09086757153272629,76.37579345703125,0.3029160908607689,-0.6115956252345088,-0.0742158841574565,-0.38528548860922446
0.15349633991718292,0.10296630859375,76.32998657226562,0.3029160908607689,-0.6115956252345088,-0.0742158841574565,-0.38528548860922446
0.280076801776886,-0.30069249868392944,76.35956573486328,0.3029160908607689,-0.6115956252345088,-0.0742158841574565,-0.38528548860922446
-0.11842110008001328,0.20318971574306488,76.3599624633789,0.3029160908607689,-0.6115956252345088,-0.0742158841574565,-0.38528548860922446
0.33716079592704773,0.21109436452388763,76.34303283691406,0.3029160908607689,-0.6115956252345088,-0.0742158841574565,-0.38528548860922446
0.17700843513011932,0.3460904359817505,76.36180877685547,0.3029160908607689,-0.6115956252345088,-0.0742158841574565,-0.38528548860922446
0.05655301362276077,0.12144749611616135,76.35800170898438,0.3029160908607689,-0.6115956252345088,-0.0742158841574565,-0.38528548860922446
0.18953348696231842,0.01710296981036663,76.35016632080078,0.3029160908607689,-0.6115956252345088,-0.0742158841574565,-0.38528548860922446
0.09546023607254028,0.034652575850486755,76.36100769042969,0.3029160908607689,-0.6115956252345088,-0.0742158841574565,-0.38528548860922446
0.09328880906105042,0.1774791181087494,76.35376739501953,0.3029160908607689,-0.6115956252345088,-0.0742158841574565,-0.38528548860922446
0.21982799470424652,0.2040809690952301,76.35490417480469,0.3029160908607689,-0.6115956252345088,-0.0742158841574565,-0.38528548860922446
0.09280582517385483,0.1828964650630951,76.36063385009766,0.3029160908607689,-0.6115956252345088,-0.0742158841574565,-0.38528548860922446
0.13685205578804016,0.08352257311344147,76.35607147216797,0.3029160908607689,-0.6115956252345088,-0.0742158841574565,-0.38528548860922446
0.14252077043056488,0.06303145736455917,76.35810089111328,0.3029160908607689,-0.6115956252345088,-0.0742158841574565,-0.38528548860922446
0.10776899755001068,0.13884055614471436,76.35818481445312,0.3029160908607689,-0.6115956252345088,-0.0742158841574565,-0.38528548860922446
0.1683625727891922,0.1766577512025833,76.35601806640625,0.3029160908607689,-0.6115956252345088,-0.0742158841574565,-0.38528548860922446
0.12762710452079773,0.14866623282432556,76.35786437988281,0.3029160908607689,-0.6115956252345088,-0.0742158841574565,-0.38528548860922446
0.1191723421216011,0.10655971616506577,76.35730743408203,0.30169629830860595,-0.6179993260204272,-0.07215922210210318,-0.38315860570097954
0.14166784286499023,0.09834098070859909,76.3563232421875,0.3005117585086394,-0.6243710735670495,-0.06998555389388159,-0.381451099893699
0.07415986061096191,0.33684056997299194,76.35784912109375,0.29936032064537166,-0.6306983709575915,-0.06818698969824866,-0.3778245869713524
0.6482032537460327,1.3335161209106445,76.37767028808594,0.2982740349222312,-0.6368794504146916,-0.062167297078607034,-0.3639049478806554
0.08988147974014282,2.412160873413086,76.4772720336914,0.29728916918852427,-0.64268441642143,-0.05601659096622224,-0.3326909729279577
0.8196467161178589,3.064732789993286,76.55289459228516,0.2964187210193551,-0.6478489261324928,-0.04843718933407223,-0.28705019239957125
1.4399046897888184,1.6497039794921875,76.50300598144531,0.29576834782253075,-0.6523057045634936,-0.029607594284849915,-0.24776321932052564
0.32532209157943726,1.399924397468567,76.50959014892578,0.29539747311093384,-0.6562233118037689,-0.014897371106781118,-0.22234964951251934
-0.1012272983789444,1.3978550434112549,76.59998321533203,0.2951647457309042,-0.6597348490566942,-0.013029914496777012,-0.19903482083852084
0.6201225519180298,1.9690678119659424,76.7099838256836,0.2949836148818981,-0.6628182819834906,-0.0087057873839513,-0.1709771303770442
0.7324519753456116,1.1659713983535767,76.8317642211914,0.2949324472121145,-0.6654501897668358,0.002565667009912377,-0.14485180362438155
0.397471159696579,0.5916485786437988,76.7826919555664,0.29505367521332426,-0.6677423295510617,0.011981693135263965,-0.13020497048273674
0.14312724769115448,1.2868496179580688,76.73368072509766,0.2952909116549806,-0.6697819611287877,0.016486679863495078,-0.11455081884438785
-0.26103779673576355,1.5555387735366821,76.69205474853516,0.295557501420133,-0.6714937533601182,0.015504091954790002,-0.09086424891526493
1.2882241010665894,0.20584549009799957,76.58201599121094,0.29588723533495803,-0.6728858391570647,0.024063977824213552,-0.07618604671830925
0.7389928698539734,1.2959240674972534,76.49186706542969,0.29642908058834216,-0.6740513170497591,0.04095745258188491,-0.06367130040501548
0.35190072655677795,0.5172061324119568,76.41365814208984,0.297187461297791,-0.6749865935704045,0.0500482325519745,-0.04856188207243873
0.09841937571763992,0.3316638469696045,76.28810119628906,0.2980528707363152,-0.6757370089674881,0.053800900070927984,-0.041487965577592385
-0.2924231290817261,1.095188021659851,76.33773040771484,0.2989360799212915,-0.6763293881251266,0.052184202126227264,-0.02959753333901359
0.3227909803390503,0.2573320269584656,76.42085266113281,0.29980792550195484,-0.6767287553440672,0.05243726755337163,-0.018326532933860953
1.4879941940307617,1.03004789352417,76.55014038085938,0.30080762893162005,-0.6769447961762647,0.06752714400645339,-0.007598366929838991
-0.6817180514335632,1.196124792098999,76.76571655273438,0.30198907273051906,-0.6769168402997049,0.07424611186143004,0.01095307211702075
-0.7939208745956421,1.371370553970337,76.83895874023438,0.30312403300279084,-0.6765559908098331,0.06194912081118666,0.03234886666759855
0.5950743556022644,0.38579681515693665,76.93573760986328,0.30414270956360273,-0.6758948175202948,0.06029206648624185,0.0469919280769925
1.809342622756958,-0.0641123428940773,77.01335144042969,0.30531455073964836,-0.6750892795195489,0.08032887463923537,0.04967263201251632
0.5193984508514404,-0.09189710021018982,77.0071029663086,0.30681508344708064,-0.6742722363084448,0.09973505025263868,0.04837255331998076
0.11964394152164459,0.7798546552658081,76.91438293457031,0.3085217122285394,-0.673418252256233,0.10506040352241439,0.05410553294544425
-0.5367320775985718,1.719415307044983,76.8346176147461,0.31024375450001873,-0.6723429329597596,0.10158466905510666,0.0749327826313675
-0.6605252027511597,1.2860825061798096,76.89900970458984,0.3118536894509129,-0.6708853381233184,0.09160752505219223,0.09997859774157411
0.520924985408783,-0.13778647780418396,77.13250732421875,0.31337078707557847,-0.6691392853812105,0.09044418990767243,0.109547731311371
0.7084947228431702,0.5427897572517395,77.32270812988281,0.31496356660933494,-0.6672853646316149,0.10068935414310537,0.11292275864010062
0,-0.40400755405426025,77.32954406738281,0.3166909235341397,-0.66539368100128,0.10659347683346512,0.11407927700007962
1.2071019411087036,0.5010355114936829,77.29535675048828,0.3185513080050522,-0.6634856216653454,0.11665265967603765,0.11488784331207481
0,0.11577433347702026,77.19107055664062,0.32057934552334094,-0.661527990259799,0.12671184251861017,0.12002792535349734
-0.8499771952629089,0.9248921871185303,77.07856750488281,0.3226321833712023,-0.659455256328866,0.1196286992247526,0.12870014635846025
1.4341635704040527,0,77.0107650756836,0.3246665635232219,-0.657246025265453,0.12449691901759546,0.13640758125111466
-0.11859840154647827,0.5988645553588867,77.13178253173828,0.32683287086579693,-0.65493097776159,0.1354599620914086,0.14139811921243872
-0.7528431415557861,0.9629470109939575,77.22679138183594,0.3290300201268272,-0.6524658833048305,0.12819794923222305,0.15441321559871243
0.19251036643981934,-0.14391568303108215,77.22161102294922,0.33112774061575895,-0.6498354525359656,0.12352850943959,0.16123847666506974
-0.11875583976507187,0.31114715337753296,77.21267700195312,0.33319167094854896,-0.6471365312949959,0.12414313049521289,0.16263207225129017
0.22344550490379333,0.09643741697072983,77.18659210205078,0.3352679932391038,-0.6443976922734225,0.12501554437136891,0.1660286103375257
0.7024719715118408,-0.4866577088832855,77.26490020751953,0.33741588547004436,-0.6416576473991799,0.1327315233414992,0.16277677457158773
-0.5336305499076843,0.6121721863746643,77.23954772949219,0.33963980262445853,-0.638935984873161,0.13413853518820051,0.16382272855068256
0.4951130449771881,-0.3953530490398407,77.07279968261719,0.3418727700508639,-0.6361905491794457,0.13381755598044637,0.16562955469513943
0.795102059841156,1.1080278158187866,76.92024993896484,0.344192660921706,-0.6333805652979448,0.14456934852059924,0.171568511084964
0.8448169231414795,-0.20270612835884094,76.91067504882812,0.3467160333264231,-0.6304582205515663,0.15823534004545453,0.17911285848046354
0,-0.05347178503870964,77.04005432128906,0.3494119568357322,-0.6274907963764335,0.16527548107163353,0.17697804253548396
0.2142859846353531,0.675257682800293,77.26918029785156,0.3521814291580813,-0.624497982757942,0.16706119761026147,0.18215959168349716
-1.3253105878829956,0.8153927326202393,77.50967407226562,0.35488862796524906,-0.6213584721732572,0.15780265924986445,0.19458167847866825
0.37379541993141174,-0.2810468077659607,77.56636047363281,0.35745259484386127,-0.6180783368427201,0.14987336618360125,0.19903456118578725
1.1513105630874634,-0.16796717047691345,77.48274230957031,0.3600563944179643,-0.6147922756825571,0.16258258270875856,0.1952927780337633
0.25183823704719543,-0.1249614953994751,77.33082580566406,0.3628635450186752,-0.6115577383171247,0.17427548937654738,0.19285170581812672
-0.23056991398334503,0.7088180184364319,77.23445129394531,0.36576961347516374,-0.6083029976282783,0.17445272540207946,0.19771717684343468
-0.9202256798744202,1.0132768154144287,77.20879364013672,0.36859724253784715,-0.604888121428537,0.16486276211993142,0.21206796712552517
0.8663185834884644,0.37213218212127686,77.35052490234375,0.3713412116914859,-0.601257446351616,0.16441353631671513,0.2236130421049894
-0.6762034893035889,0.8866665363311768,77.56563568115234,0.37409463973386065,-0.5974431457388626,0.16599782876825575,0.2341030314254265
0.8454709053039551,-1.358891487121582,77.6953353881836,0.37687302489499824,-0.5935742219477993,0.1674083905682588,0.2301678235021731
0.5019991993904114,-0.754688560962677,77.65276336669922,0.37975673905062857,-0.5898848679483245,0.17863730810737852,0.21255465643480428
-0.4389698803424835,-0.1772584170103073,77.53754425048828,0.38273840455512986,-0.5864070088812148,0.17916255243277793,0.20478843161836274
0,0.38648831844329834,77.42526245117188,0.38569396307620796,-0.5829793384999759,0.17550447009659056,0.20653201413030434
0.9983160495758057,1.610564947128296,77.45736694335938,0.3886883650812606,-0.5793984540099172,0.1838237705097223,0.22317412467673428
-0.2769608795642853,0.3164810538291931,77.62283325195312,0.3918021886987845,-0.5755450626263495,0.18983506359315164,0.23923284135138
0.25561776757240295,0.0893210768699646,77.63542175292969,0.39496462426478207,-0.5715296679003058,0.18965720432655261,0.242614525773873
0.3996654152870178,-0.0491756945848465,77.57273864746094,0.39496462426478207,-0.5715296679003058,0.18965720432655261,0.242614525773873
-0.4748000204563141,-0.6646048426628113,77.54681396484375,0.39812035998931006,-0.5675356605636057,0.18903108261680848,0.23666635463014252
-0.11562671512365341,0.5453138947486877,77.68226623535156,0.401229876176286,-0.5635995054133751,0.18411085982030875,0.2356722633975248
0.4582009017467499,0,77.70368194580078,0.40432218038069556,-0.5596337653362811,0.18696564470883456,0.24021654585376387
0,-3.4387781620025635,77.50428771972656,0.4074700939662419,-0.5558689602777462,0.19078398555672416,0.21156006117040918
-1.8689743280410767,-1.0269564390182495,77.28064727783203,0.4105200371749622,-0.5526530797166437,0.1752091994897152,0.17434560616190242
1.180914044380188,0.14405333995819092,77.22701263427734,0.4133924085356477,-0.5498086323291578,0.16947536379254113,0.16698808033640195
1.184420108795166,-0.33456286787986755,77.32339477539062,0.41638125724838276,-0.5470387274852123,0.1891864817356691,0.16540050093705463
-0.06422925740480423,1.7961137294769287,77.40151977539062,0.4196121563086571,-0.5441805558819839,0.19852140549725544,0.17758009145036346
-0.7613486051559448,1.4995331764221191,77.54008483886719,0.42286351460426685,-0.5409920233226793,0.19164158997591588,0.20504381566618887
0.43998199701309204,0.491906076669693,77.61975860595703,0.42603522397829996,-0.5374363320023336,0.18896353490805878,0.22163914277528732
0.6838604211807251,-0.47291693091392517,77.654052734375,0.42926266083914216,-0.5337410275987348,0.19832888839300725,0.22179738565658538
0.49827927350997925,-0.3744576573371887,77.60382080078125,0.4326502353467125,-0.5301032499619758,0.2081800525154298,0.21473593075449277
-0.06487111747264862,0.4645955562591553,77.53321075439453,0.43615000067725,-0.5265180582064202,0.2117917871490742,0.21548707991217583
-1.4117090702056885,0.6571416854858398,77.5562973022461,0.43957732350559026,-0.522848708454985,0.19948695225175472,0.2248348902600508
0,1.1483410596847534,77.75664520263672,0.4428040706910219,-0.5189760795377918,0.18772271000004065,0.23988057980313907
0.5062581896781921,0.30414071679115295,78.07093048095703,0.44596793934308354,-0.5148772030843731,0.1919415282473589,0.25198459460710493
0.7871866226196289,-1.4050565958023071,78.20854949951172,0.4492567873702824,-0.5107539123325193,0.20272023501650743,0.2428102956153453
1.2509523630142212,-0.4120078980922699,78.1217041015625,0.4527769953834488,-0.5068332591065619,0.2197047265634562,0.22766809149955716
0.3100890815258026,-0.24751685559749603,78.03092956542969,0.4565471464820439,-0.5030845912450199,0.2327134052679564,0.22217205188547579
-0.7783159613609314,1.306069016456604,77.94055938720703,0.46039318748096575,-0.499308213146869,0.22881151460266366,0.23099331989263502
-0.4039135277271271,0,77.8427963256836,0.4641246134542679,-0.4953676252447378,0.2189596021935965,0.2418772283631067
0.12036348879337311,1.0067542791366577,77.91438293457031,0.4641246134542679,-0.4953676252447378,0.2189596021935965,0.2418772283631067
-0.31026342511177063,0.39690855145454407,78.0032958984375,0.46776075266191686,-0.491238861519895,0.21737710272427652,0.25357441861803337
0.3077310621738434,-0.7381298542022705,77.97069549560547,0.4713835285154508,-0.48703631713339635,0.2173559996997938,0.2507309077618023
-0.16807687282562256,-0.8059856295585632,77.84138488769531,0.475015826718041,-0.4829646989126275,0.21851978461102897,0.237863278730462
0.7802213430404663,-1.886201024055481,77.84288024902344,0.4787003331608786,-0.47918726834028746,0.223620988529486,0.21542838995034497
-1.1158331632614136,-0.3374461233615875,77.77439880371094,0.48240404325996583,-0.4757512151152412,0.22082422336097812,0.19689799705520272
-0.35068559646606445,0.6994674205780029,77.50338745117188,0.4859826054021122,-0.4724444414631256,0.20860323369658249,0.19991484119867284
0.591867208480835,1.1007122993469238,77.404541015625,0.48947607468677845,-0.4689875149625974,0.21061308046337224,0.2149163388647139
1.7400134801864624,0.47066599130630493,77.42090606689453,0.49314822885343657,-0.46529645248911233,0.2300454195355997,0.2280111579534908
0.2787424623966217,0,77.46281433105469,0.4971225105639315,-0.46146358138493565,0.24686838572379208,0.23193337454771001
0.5736695528030396,0.24556845426559448,77.55882263183594,0.5012961789381614,-0.45758097177759427,0.25397181918378925,0.23397977833325664
-0.5013364553451538,0.482308954000473,77.69012451171875,0.5055340657229924,-0.4536307617631326,0.2545745949959383,0.24004542340214055
-0.09907077997922897,0.9048407673835754,77.83068084716797,0.5097352806926939,-0.4495336748646675,0.24957120136823513,0.2516050044136743
0.06273487210273743,-0.6894245743751526,77.90306854248047,0.5138922773885619,-0.44532529866659176,0.24926840213593104,0.2534001393554111
0.6403936147689819,-1.0078850984573364,77.83965301513672,0.518095579124638,-0.44121983173794826,0.25512780619319536,0.23925589208180703
-0.16257140040397644,0.06341370940208435,77.69580841064453,0.5223808913260777,-0.43729782182749144,0.2591096579795704,0.23138529717301326
-0.2898882031440735,0.5123946666717529,77.75394439697266,0.5266679648199353,-0.4334014135151583,0.25533916128333667,0.2361837003069619
-0.6080953478813171,1.3049954175949097,77.8653564453125,0.5308612575391697,-0.42933881086530157,0.24785596502479174,0.25132861767585074
0.48680630326271057,-0.8963006734848022,78.05677795410156,0.5349837674392621,-0.42512161899125195,0.24684522298630335,0.25473440721010165
0.2236400693655014,0.6332589983940125,78.24161529541016,0.5391471910426886,-0.42089431232074265,0.2527656094248718,0.25254239325101174
0.09233278036117554,-0.37343689799308777,78.27545928955078,0.5391471910426886,-0.42089431232074265,0.2527656094248718,0.25254239325101174
0.06287460029125214,-0.28943026065826416,78.2623291015625,0.5391471910426886,-0.42089431232074265,0.2527656094248718,0.25254239325101174
-0.3582226037979126,0.15326078236103058,78.21110534667969,0.5391471910426886,-0.42089431232074265,0.2527656094248718,0.25254239325101174
-0.7857319712638855,-1.3643956184387207,78.07499694824219,0.5391471910426886,-0.42089431232074265,0.2527656094248718,0.25254239325101174
0.24493102729320526,-1.778606653213501,78.2251968383789,0.5391471910426886,-0.42089431232074265,0.2527656094248718,0.25254239325101174
-0.48563113808631897,-2.039156198501587,78.74073791503906,0.5391471910426886,-0.42089431232074265,0.2527656094248718,0.25254239325101174
-0.9962531328201294,0.43034762144088745,79.59857940673828,0.5391471910426886,-0.42089431232074265,0.2527656094248718,0.25254239325101174
-0.5982601046562195,-2.1397342681884766,80.68900299072266,0.5391471910426886,-0.42089431232074265,0.2527656094248718,0.25254239325101174
-0.2502523362636566,-1.6573339700698853,81.93144226074219,0.5391471910426886,-0.42089431232074265,0.2527656094248718,0.25254239325101174
-0.7495802640914917,-1.6404242515563965,83.31912994384766,0.5391471910426886,-0.42089431232074265,0.2527656094248718,0.25254239325101174
-1.244475245475769,-0.3197006583213806,84.7802505493164,0.5391471910426886,-0.42089431232074265,0.2527656094248718,0.25254239325101174
-1.1670969724655151,-0.7308246493339539,86.32453155517578,0.5391471910426886,-0.42089431232074265,0.2527656094248718,0.25254239325101174
0.18941155076026917,-1.4046138525009155,87.89893341064453,0.5391471910426886,-0.42089431232074265,0.2527656094248718,0.25254239325101174
0.09409420192241669,-1.3409416675567627,89.54727172851562,0.5391471910426886,-0.42089431232074265,0.2527656094248718,0.25254239325101174
-0.6258944272994995,-0.1230982095003128,91.23409271240234,0.5391471910426886,-0.42089431232074265,0.2527656094248718,0.25254239325101174
-0.02666785754263401,-0.6931662559509277,92.97410583496094,0.5391471910426886,-0.42089431232074265,0.2527656094248718,0.25254239325101174
0.14496996998786926,-1.2116302251815796,94.73018646240234,0.5391471910426886,-0.42089431232074265,0.2527656094248718,0.25254239325101174
0.20155125856399536,0.3007308542728424,96.50875091552734,0.5391471910426886,-0.42089431232074265,0.2527656094248718,0.25254239325101174
-0.16244377195835114,-0.8067712187767029,98.28883361816406,0.5391471910426886,-0.42089431232074265,0.2527656094248718,0.25254239325101174
-0.07206904143095016,-0.5339061617851257,100.0866928100586,0.5391471910426886,-0.42089431232074265,0.2527656094248718,0.25254239325101174
-0.8255873322486877,-0.3204726576805115,101.91248321533203,0.5391471910426886,-0.42089431232074265,0.2527656094248718,0.25254239325101174
-0.710016667842865,-0.43598270416259766,103.77013397216797,0.5391471910426886,-0.42089431232074265,0.2527656094248718,0.25254239325101174
-0.7001742720603943,-1.0924293994903564,105.66316986083984,0.5391471910426886,-0.42089431232074265,0.2527656094248718,0.25254239325101174
0.3303031027317047,-0.741998016834259,107.55774688720703,0.5391471910426886,-0.42089431232074265,0.2527656094248718,0.25254239325101174
-1.6377243995666504,-0.34611645340919495,109.49668884277344,0.5391471910426886,-0.42089431232074265,0.2527656094248718,0.25254239325101174
-0.8260164260864258,-0.6111263036727905,111.4356689453125,0.5391471910426886,-0.42089431232074265,0.2527656094248718,0.25254239325101174
-0.130071759223938,-0.024553390219807625,113.40543365478516,0.5391471910426886,-0.42089431232074265,0.2527656094248718,0.25254239325101174
0.3915448784828186,-0.990994393825531,115.44235229492188,0.5391471910426886,-0.42089431232074265,0.2527656094248718,0.25254239325101174
-1.4683644771575928,-0.7841305136680603,117.42726135253906,0.5391471910426886,-0.42089431232074265,0.2527656094248718,0.25254239325101174
-0.47119805216789246,0.05135950818657875,119.47398376464844,0.5391471910426886,-0.42089431232074265,0.2527656094248718,0.25254239325101174
0.04927206039428711,-1.1555392742156982,121.61631774902344,0.5391471910426886,-0.42089431232074265,0.2527656094248718,0.25254239325101174
1.0880991220474243,-0.3054329454898834,123.7655029296875,0.5391471910426886,-0.42089431232074265,0.2527656094248718,0.25254239325101174
-0.5626440048217773,-0.1848125457763672,125.99642181396484,0.5391471910426886,-0.42089431232074265,0.2527656094248718,0.25254239325101174
-0.24282754957675934,-0.47992706298828125,128.23558044433594,0.5391471910426886,-0.42089431232074265,0.2527656094248718,0.25254239325101174
0.11370623111724854,-0.35122570395469666,130.5108184814453,0.5391471910426886,-0.42089431232074265,0.2527656094248718,0.25254239325101174
-0.7752878069877625,0.22700175642967224,132.77882385253906,0.5391471910426886,-0.42089431232074265,0.2527656094248718,0.25254239325101174
-1.139814853668213,-0.7547361850738525,135.00997924804688,0.5391471910426886,-0.42089431232074265,0.2527656094248718,0.25254239325101174
-0.6987909078598022,-0.5269190073013306,137.29139709472656,0.5391471910426886,-0.42089431232074265,0.2527656094248718,0.25254239325101174
0.811560332775116,-0.32348471879959106,139.46646118164062,0.5391471910426886,-0.42089431232074265,0.2527656094248718,0.25254239325101174
1.1070877313613892,-1.0114539861679077,141.51055908203125,0.5391471910426886,-0.42089431232074265,0.2527656094248718,0.25254239325101174
-1.110782504081726,0.17779769003391266,143.42881774902344,0.5391471910426886,-0.42089431232074265,0.2527656094248718,0.25254239325101174
0.5859261155128479,0.07390373945236206,145.29287719726562,0.5391471910426886,-0.42089431232074265,0.2527656094248718,0.25254239325101174
-0.09708234667778015,-0.21465376019477844,147.15403747558594,0.5391471910426886,-0.42089431232074265,0.2527656094248718,0.25254239325101174
1.1658434867858887,0.6437234282493591,148.98988342285156,0.5391471910426886,-0.42089431232074265,0.2527656094248718,0.25254239325101174
-0.8222291469573975,-0.7601449489593506,150.75045776367188,0.5391471910426886,-0.42089431232074265,0.2527656094248718,0.25254239325101174
1.3253742456436157,0.10069623589515686,152.44984436035156,0.5391471910426886,-0.42089431232074265,0.2527656094248718,0.25254239325101174
-1.4557298421859741,-0.52801913022995,154.14895629882812,0.5391471910426886,-0.42089431232074265,0.2527656094248718,0.25254239325101174
1.2835009098052979,0.03602198138833046,155.95370483398438,0.5391471910426886,-0.42089431232074265,0.2527656094248718,0.25254239325101174
-0.36169305443763733,-0.8120748996734619,157.70199584960938,0.5391471910426886,-0.42089431232074265,0.2527656094248718,0.25254239325101174
0.2744808495044708,-0.321238249540329,159.44847106933594,0.5391471910426886,-0.42089431232074265,0.2527656094248718,0.25254239325101174
-0.4588068425655365,-0.5318849086761475,161.29151916503906,0.5391471910426886,-0.42089431232074265,0.2527656094248718,0.25254239325101174
0.28451353311538696,-0.446348637342453,163.16555786132812,0.5391471910426886,-0.42089431232074265,0.2527656094248718,0.25254239325101174
0.6774387359619141,0.01195449661463499,165.07089233398438,0.5391471910426886,-0.42089431232074265,0.2527656094248718,0.25254239325101174
-0.9853195548057556,0.0010629820171743631,166.951171875,0.5391471910426886,-0.42089431232074265,0.2527656094248718,0.25254239325101174
1.5271764993667603,0.34711480140686035,168.93515014648438,0.5391471910426886,-0.42089431232074265,0.2527656094248718,0.25254239325101174
-0.07548722624778748,-0.8914362788200378,170.83328247070312,0.5391471910426886,-0.42089431232074265,0.2527656094248718,0.25254239325101174
0.6503933668136597,0.9527169466018677,172.6963348388672,0.5391471910426886,-0.42089431232074265,0.2527656094248718,0.25254239325101174
-0.4725797474384308,-0.26715973019599915,174.6837615966797,0.5391471910426886,-0.42089431232074265,0.2527656094248718,0.25254239325101174
-0.9477704763412476,-1.6752792596817017,176.6626739501953,0.5391471910426886,-0.42089431232074265,0.2527656094248718,0.25254239325101174
1.824120044708252,1.3632593154907227,178.66871643066406,0.5391471910426886,-0.42089431232074265,0.2527656094248718,0.25254239325101174
-1.5011954307556152,-1.6008012294769287,-179.22293090820312,0.5391471910426886,-0.42089431232074265,0.2527656094248718,0.25254239325101174
0.7780307531356812,0.8960942625999451,-177.0335693359375,0.5391471910426886,-0.42089431232074265,0.2527656094248718,0.25254239325101174
0.7378227114677429,-0.6573992967605591,-174.81387329101562,0.5391471910426886,-0.42089431232074265,0.2527656094248718,0.25254239325101174
0.22731690108776093,0.474628746509552,-172.56568908691406,0.5391471910426886,-0.42089431232074265,0.2527656094248718,0.25254239325101174
-0.44110366702079773,-0.6670531630516052,-170.2422332763672,0.5391471910426886,-0.42089431232074265,0.2527656094248718,0.25254239325101174
0.8105965256690979,0.691766619682312,-167.9742431640625,0.5391471910426886,-0.42089431232074265,0.2527656094248718,0.25254239325101174
-0.0016779209254309535,-0.6818698644638062,-166.1748504638672,0.5391471910426886,-0.42089431232074265,0.2527656094248718,0.25254239325101174
-0.10031962394714355,0.47951367497444153,-164.92269897460938,0.5391471910426886,-0.42089431232074265,0.2527656094248718,0.25254239325101174
-0.35839056968688965,2.8632171154022217,-163.98193359375,0.5391471910426886,-0.42089431232074265,0.2527656094248718,0.25254239325101174
0.5513592958450317,1.1789270639419556,-163.44869995117188,0.5391471910426886,-0.42089431232074265,0.2527656094248718,0.25254239325101174
0.6965502500534058,1.3537839651107788,-163.43882751464844,0.5391471910426886,-0.42089431232074265,0.2527656094248718,0.25254239325101174
1.4725550413131714,0.2655319273471832,-163.50962829589844,0.5391471910426886,-0.42089431232074265,0.2527656094248718,0.25254239325101174
1.122145414352417,0.6385780572891235,-163.41336059570312,0.5391471910426886,-0.42089431232074265,0.2527656094248718,0.25254239325101174
0.7766848802566528,0.21384118497371674,-163.4832000732422,0.5391471910426886,-0.42089431232074265,0.2527656094248718,0.25254239325101174
-0.7982231974601746,-0.3398137390613556,-163.47918701171875,0.5391471910426886,-0.42089431232074265,0.2527656094248718,0.25254239325101174
-0.9179695248603821,-0.021740522235631943,-163.42994689941406,0.5391471910426886,-0.42089431232074265,0.2527656094248718,0.25254239325101174
-0.45311686396598816,-0.43049776554107666,-163.46328735351562,0.5391471910426886,-0.42089431232074265,0.2527656094248718,0.25254239325101174
0.09530134499073029,0.31505388021469116,-163.4722900390625,0.5391471910426886,-0.42089431232074265,0.2527656094248718,0.25254239325101174
0.5056458115577698,0.13298553228378296,-163.45562744140625,0.5391471910426886,-0.42089431232074265,0.2527656094248718,0.25254239325101174
0.13626067340373993,0.03158144652843475,-163.4706573486328,0.5391471910426886,-0.42089431232074265,0.2527656094248718,0.25254239325101174
-0.4511568248271942,-0.032541222870349884,-163.4675750732422,0.5391471910426886,-0.42089431232074265,0.2527656094248718,0.25254239325101174
-0.4310736656188965,-0.18088887631893158,-163.45631408691406,0.5391471910426886,-0.42089431232074265,0.2527656094248718,0.25254239325101174
-0.05201125890016556,-0.007967655546963215,-163.47064208984375,0.5391471910426886,-0.42089431232074265,0.2527656094248718,0.25254239325101174
0.1659199744462967,0.1685856729745865,-163.46495056152344,0.5391471910426886,-0.42089431232074265,0.2527656094248718,0.25254239325101174
0.038411665707826614,0.00784341711550951,-163.46514892578125,0.5391471910426886,-0.42089431232074265,0.2527656094248718,0.25254239325101174
-0.27472174167633057,-0.04105416685342789,-163.46783447265625,0.5391471910426886,-0.42089431232074265,0.2527656094248718,0.25254239325101174
-0.25504493713378906,-0.041761815547943115,-163.46484375,0.5391471910426886,-0.42089431232074265,0.2527656094248718,0.25254239325101174
-0.03838615491986275,-0.006244506686925888,-163.46893310546875,0.5391471910426886,-0.42089431232074265,0.2527656094248718,0.25254239325101174
0.021265793591737747,0.08232991397380829,-163.46990966796875,0.5391471910426886,-0.42089431232074265,0.2527656094248718,0.25254239325101174
-0.07569266855716705,-0.008294942788779736,-163.4678955078125,0.5391471910426886,-0.42089431232074265,0.2527656094248718,0.25254239325101174
-0.2155807614326477,-0.023760680109262466,-163.46823120117188,0.5391471910426886,-0.42089431232074265,0.2527656094248718,0.25254239325101174
-0.15442153811454773,-0.030833004042506218,-163.46832275390625,0.5391471910426886,-0.42089431232074265,0.2527656094248718,0.25254239325101174
-0.030350130051374435,0.021871743723750114,-163.46995544433594,0.5391471910426886,-0.42089431232074265,0.2527656094248718,0.25254239325101174
-0.0558943934738636,0,-163.4708251953125,0.5433539619967472,-0.41668375356213383,0.2520469050621615,0.252724657782043
-0.12551935017108917,0,-163.46937561035156,0.5475421455711412,-0.4124716759324331,0.2505351238651202,0.252724657782043
-0.2355225831270218,0,-163.4727020263672,0.5516926586124142,-0.4082595983027324,0.24752644108763597,0.252724657782043
-1.1983466148376465,-0.4358549416065216,-163.42880249023438,0.5557185250473495,-0.4040777883773099,0.23557753110459706,0.24909253326865533
-1.7173737287521362,-0.9489529728889465,-163.36241149902344,0.5594423366530102,-0.40002241337245004,0.2112798615746822,0.23755246731452642
-2.3893306255340576,-0.1895061433315277,-163.4080352783203,0.5626784798768739,-0.39614226524472324,0.17705732528896392,0.22806530801268915
-2.625537157058716,-0.1839892566204071,-163.55545043945312,0.5652811805912321,-0.3923671139583973,0.13526676043402414,0.224952846346423
-1.3466739654541016,-0.7424339056015015,-163.5160675048828,0.5672597786038469,-0.3886822347944445,0.10216500107975066,0.21723265332790712
-1.113623857498169,-0.7479968070983887,-163.4579315185547,0.5687916746063599,-0.3851651927051391,0.08166251922181507,0.20481239738874135
-1.6773321628570557,0.05893095210194588,-163.48143005371094,0.5699589002030877,-0.38179950454414596,0.05840455238552153,0.19907018193043766
-1.5712274312973022,0,-163.4951629638672,0.5707067149932523,-0.3784775757514094,0.03133322243423521,0.19956127319795386
-1.3095078468322754,-1.229761004447937,-163.51039123535156,0.571028884306175,-0.3752369546011968,0.007327095116488731,0.1893132648275544
-1.4312993288040161,0.31109073758125305,-163.51174926757812,0.5709606687264751,-0.37214553006704776,-0.015512964680480364,0.18165767927033202
-0.6378083825111389,-0.109625443816185,-163.50286865234375,0.5705584312796258,-0.36910391143380855,-0.03275552894143999,0.18333655671837426
-0.8441094160079956,-0.9906029105186462,-163.4945068359375,0.569909594839038,-0.3661247069019978,-0.04510484392909944,0.17416798709891734
-0.9885855317115784,-0.5537810325622559,-163.5096435546875,0.5690305769577392,-0.363329156001952,-0.060377301826762556,0.1612981209065765
-1.6341660022735596,1.179449439048767,-163.37777709960938,0.5678421530707664,-0.36059740479194746,-0.08223356460997204,0.16651202429396408
-0.2941220700740814,-0.6872518062591553,-163.20468139648438,0.5663376847666871,-0.3577880239958821,-0.09830263187953572,0.17061367123387752
-1.3467178344726562,-0.07050865888595581,-163.17127990722656,0.5645853603531014,-0.3549970850631748,-0.11197629775075854,0.1642990006910016
0.40526676177978516,0.8978573083877563,-163.24002075195312,0.5626537101772072,-0.35220131361766494,-0.11982172335653246,0.17119357277018327
-1.8049890995025635,-0.812247097492218,-163.32272338867188,0.5605594785144787,-0.3493421422512941,-0.13148607617088895,0.17190699119431274
-0.8113579154014587,-0.5315896272659302,-163.34564208984375,0.5581863531467067,-0.3465703477261638,-0.1532889679617558,0.16070835182132817
-1.0869829654693604,-1.620216727256775,-163.35189819335938,0.5554997077861725,-0.34404130619265016,-0.16910847530234596,0.14277663220030562
0.40530848503112793,0.26630669832229614,-163.33633422851562,0.5526338946922141,-0.34175571718576553,-0.17478909597266457,0.13149404862585162
-1.6811116933822632,-0.26456376910209656,-163.21780395507812,0.5496321456476453,-0.3395640286719166,-0.1854207893755907,0.13150857303601995
0,0.05920271575450897,-163.1250762939453,0.5464250552904562,-0.3373864803055765,-0.19943005348710957,0.12979723092479006
-0.4587438404560089,0.41638126969337463,-163.04685974121094,0.5430693638545282,-0.33519016645784055,-0.20325291882424298,0.13376043080352243
-0.5967488884925842,0.5717856287956238,-163.02012634277344,0.5396085171012805,-0.33289220324316454,-0.21204869156548126,0.1419951549575974
-0.19973020255565643,-0.43426060676574707,-163.03480529785156,0.5360190611938664,-0.3305160669784525,-0.2186860173242166,0.14314119680784637
-0.305294930934906,-1.4922889471054077,-163.0657196044922,0.5323392230486371,-0.32826416852845164,-0.22289456010330463,0.12708661719225342
-0.7827686667442322,0.29371941089630127,-163.0665283203125,0.528548753741521,-0.32622929223748415,-0.2319617567506308,0.1170985377238442
-0.8183602094650269,0.755186140537262,-162.97459411621094,0.5245715349570516,-0.32420480927879275,-0.24530449738570795,0.1258394173191239
-0.4696970582008362,-1.0103598833084106,-162.97166442871094,0.5203936782459241,-0.3221252060556109,-0.25603830794959015,0.12371296946269766
0.3925265371799469,0.4617539644241333,-162.9349365234375,0.5203936782459241,-0.3221252060556109,-0.25603830794959015,0.12371296946269766
-0.1729782670736313,-0.7661596536636353,-162.813720703125,0.5161416195210772,-0.32008446251520756,-0.2542087390320375,0.12117625538570181
-0.07816734164953232,-0.34232956171035767,-162.7203826904297,0.5118873665366042,-0.3181418366765135,-0.25630161910473054,0.11193884525758521
1.3363521099090576,1.133658528327942,-162.82737731933594,0.5077030468270989,-0.3162212358550942,-0.24581674603590117,0.11853325331273175
0.10484705120325089,1.0763983726501465,-163.0197296142578,0.5037061843349111,-0.3140922054595363,-0.23380675302663192,0.1369503941542158
-0.6347695589065552,-0.052223190665245056,-162.8953094482422,0.4997726049436545,-0.31173857561377266,-0.23822277392415947,0.14548518733742333
0.2835482656955719,-0.5198575258255005,-162.73219299316406,0.49577783501066774,-0.30935355031901635,-0.241149618034251,0.1407178480333338
-1.741182565689087,0.06805521994829178,-162.6185302734375,0.4916574501059307,-0.30703962801192447,-0.25329657053419696,0.1369528288176904
0,-0.14624787867069244,-162.67611694335938,0.48731492514107677,-0.30476251091070755,-0.2678064252482727,0.13630122332833705
-0.08273017406463623,0,-162.67210388183594,0.4828457395692955,-0.30250097995792075,-0.268495843365478,0.13508249100608127
-0.6267008781433105,-1.3641098737716675,-162.6301727294922,0.47832154280124534,-0.30034433496016466,-0.27440776880054424,0.12371490872465071
0.17575418949127197,0.3637000322341919,-162.56057739257812,0.4737167642456354,-0.2983518927204161,-0.2781656578726446,0.11537816004517175
-0.4336223006248474,1.2582534551620483,-162.4422607421875,0.4690627624400404,-0.296316287727483,-0.2803145587987577,0.1288944391068071
-0.29572793841362,0,-162.4906463623047,0.46434020380457236,-0.2940806683635388,-0.2863924774574116,0.13937988456649084
-0.3686693012714386,-0.2997444272041321,-162.5978546142578,0.4595208571497485,-0.29177848587265315,-0.29192912112145375,0.13688201433978975
-0.560463011264801,-0.9296987652778625,-162.64952087402344,0.4545908487204648,-0.28958249696646793,-0.29967189039258907,0.1266366544024398
-0.7616629004478455,-0.4014829397201538,-162.59027099609375,0.4495045029144972,-0.2875643292337188,-0.31068960632352777,0.11554347352745632
-0.858211100101471,-0.3801237642765045,-162.4121551513672,0.4442138515590669,-0.28569288291826095,-0.3241885563281054,0.10903008432748416
1.3112281560897827,-0.9019978046417236,-162.26564025878906,0.4388421684713754,-0.2839647510662,-0.32041341419486946,0.09834573791983227
-0.4393378496170044,1.6095095872879028,-162.23171997070312,0.4335624928394104,-0.28227652267151904,-0.31314766164092966,0.10424166944188376
0.45315390825271606,1.2702147960662842,-162.2014923095703,0.42834432459391125,-0.28033918065419916,-0.3130325278189654,0.12823937263650198
-0.11608337610960007,-1.8737624883651733,-162.171142578125,0.42834432459391125,-0.28033918065419916,-0.3130325278189654,0.12823937263650198
-1.374612808227539,-0.16053256392478943,-162.16574096679688,0.42834432459391125,-0.28033918065419916,-0.3130325278189654,0.12823937263650198
-0.156145378947258,1.8842281103134155,-162.16339111328125,0.42834432459391125,-0.28033918065419916,-0.3130325278189654,0.12823937263650198
1.609812617301941,-0.4223816394805908,-162.1441650390625,0.42834432459391125,-0.28033918065419916,-0.3130325278189654,0.12823937263650198
0.5885748863220215,-0.04749569669365883,-162.31163024902344,0.42834432459391125,-0.28033918065419916,-0.3130325278189654,0.12823937263650198
3.1423556804656982,0.5347263216972351,-162.72657775878906,0.42834432459391125,-0.28033918065419916,-0.3130325278189654,0.12823937263650198
1.8614956140518188,1.7899500131607056,-163.35107421875,0.42834432459391125,-0.28033918065419916,-0.3130325278189654,0.12823937263650198
0.8131704330444336,0.7616535425186157,-164.16209411621094,0.42834432459391125,-0.28033918065419916,-0.3130325278189654,0.12823937263650198
-0.1480574756860733,1.361541748046875,-165.0957489013672,0.42834432459391125,-0.28033918065419916,-0.3130325278189654,0.12823937263650198
0.8363347053527832,0.5460732579231262,-166.24581909179688,0.42834432459391125,-0.28033918065419916,-0.3130325278189654,0.12823937263650198
2.0883371829986572,0.37734660506248474,-167.56430053710938,0.42834432459391125,-0.28033918065419916,-0.3130325278189654,0.12823937263650198
1.1760555505752563,0.36445334553718567,-168.93753051757812,0.42834432459391125,-0.28033918065419916,-0.3130325278189654,0.12823937263650198
1.582522988319397,0.3371313810348511,-170.4097137451172,0.42834432459391125,-0.28033918065419916,-0.3130325278189654,0.12823937263650198
0.9973126649856567,-0.001286864746361971,-171.99728393554688,0.42834432459391125,-0.28033918065419916,-0.3130325278189654,0.12823937263650198
1.3838989734649658,-0.2708566188812256,-173.72821044921875,0.42834432459391125,-0.28033918065419916,-0.3130325278189654,0.12823937263650198
1.7214782238006592,0.4581683278083801,-175.5654296875,0.42834432459391125,-0.28033918065419916,-0.3130325278189654,0.12823937263650198
1.0587451457977295,0.30835142731666565,-177.51531982421875,0.42834432459391125,-0.28033918065419916,-0.3130325278189654,0.12823937263650198
1.7582978010177612,0.6922730803489685,-179.5342254638672,0.42834432459391125,-0.28033918065419916,-0.3130325278189654,0.12823937263650198
-0.27396950125694275,1.643368124961853,178.42181396484375,0.42834432459391125,-0.28033918065419916,-0.3130325278189654,0.12823937263650198
1.3402847051620483,-0.7473228573799133,176.34043884277344,0.42834432459391125,-0.28033918065419916,-0.3130325278189654,0.12823937263650198
0.6787329912185669,0.36264047026634216,174.15328979492188,0.42834432459391125,-0.28033918065419916,-0.3130325278189654,0.12823937263650198
0.5397699475288391,0.5235554575920105,171.9282989501953,0.42834432459391125,-0.28033918065419916,-0.3130325278189654,0.12823937263650198
2.1085283756256104,-0.2200269252061844,169.6306610107422,0.42834432459391125,-0.28033918065419916,-0.3130325278189654,0.12823937263650198
0.5701343417167664,0.6919915676116943,167.32968139648438,0.42834432459391125,-0.28033918065419916,-0.3130325278189654,0.12823937263650198
0.6910459399223328,0.2888709306716919,165.01815795898438,0.42834432459391125,-0.28033918065419916,-0.3130325278189654,0.12823937263650198
0.8051104545593262,-0.5939395427703857,162.68690490722656,0.42834432459391125,-0.28033918065419916,-0.3130325278189654,0.12823937263650198
0.300821453332901,0.4603371024131775,160.3675079345703,0.42834432459391125,-0.28033918065419916,-0.3130325278189654,0.12823937263650198
0.8671530485153198,0.7379916310310364,158.04129028320312,0.42834432459391125,-0.28033918065419916,-0.3130325278189654,0.12823937263650198
0.6988106966018677,0.2556603252887726,155.70697021484375,0.42834432459391125,-0.28033918065419916,-0.3130325278189654,0.12823937263650198
0.8561508059501648,0.748763382434845,153.36117553710938,0.42834432459391125,-0.28033918065419916,-0.3130325278189654,0.12823937263650198
1.0795910358428955,-1.161201000213623,150.9939422607422,0.42834432459391125,-0.28033918065419916,-0.3130325278189654,0.12823937263650198
0.3017743229866028,0.48514145612716675,148.67709350585938,0.42834432459391125,-0.28033918065419916,-0.3130325278189654,0.12823937263650198
0.17973659932613373,0.49245893955230713,146.4518280029297,0.42834432459391125,-0.28033918065419916,-0.3130325278189654,0.12823937263650198
0.10033358633518219,0.15154226124286652,144.2671356201172,0.42834432459391125,-0.28033918065419916,-0.3130325278189654,0.12823937263650198
0.49585282802581787,-0.19574026763439178,142.02687072753906,0.42834432459391125,-0.28033918065419916,-0.3130325278189654,0.12823937263650198
0.9949653744697571,0.9382649064064026,139.8516082763672,0.42834432459391125,-0.28033918065419916,-0.3130325278189654,0.12823937263650198
0.602074921131134,0.5616759061813354,137.67227172851562,0.42834432459391125,-0.28033918065419916,-0.3130325278189654,0.12823937263650198
0.7496234774589539,-1.266308069229126,135.39498901367188,0.42834432459391125,-0.28033918065419916,-0.3130325278189654,0.12823937263650198
0.2605153024196625,1.236244559288025,133.184326171875,0.42834432459391125,-0.28033918065419916,-0.3130325278189654,0.12823937263650198
0.8072495460510254,-1.1996971368789673,130.84657287597656,0.42834432459391125,-0.28033918065419916,-0.3130325278189654,0.12823937263650198
0.3211841881275177,0.3034358024597168,128.48622131347656,0.42834432459391125,-0.28033918065419916,-0.3130325278189654,0.12823937263650198
0.5840854644775391,-0.8132376074790955,125.98065185546875,0.42834432459391125,-0.28033918065419916,-0.3130325278189654,0.12823937263650198
0.6708906292915344,0.37356430292129517,123.51393127441406,0.42834432459391125,-0.28033918065419916,-0.3130325278189654,0.12823937263650198
0.5309126377105713,-0.37094077467918396,120.9637680053711,0.42834432459391125,-0.28033918065419916,-0.3130325278189654,0.12823937263650198
0.6131976842880249,1.095017671585083,118.47819519042969,0.42834432459391125,-0.28033918065419916,-0.3130325278189654,0.12823937263650198
0.14137479662895203,-1.1973859071731567,115.94063568115234,0.42834432459391125,-0.28033918065419916,-0.3130325278189654,0.12823937263650198
0.48790010809898376,-0.49393731355667114,113.34974670410156,0.42834432459391125,-0.28033918065419916,-0.3130325278189654,0.12823937263650198
-0.16705109179019928,-0.46357011795043945,110.7197036743164,0.42834432459391125,-0.28033918065419916,-0.3130325278189654,0.12823937263650198
0.29695063829421997,0.4987620711326599,108.00776672363281,0.42834432459391125,-0.28033918065419916,-0.3130325278189654,0.12823937263650198
0.05132780969142914,-0.2870963215827942,105.25701141357422,0.42834432459391125,-0.28033918065419916,-0.3130325278189654,0.12823937263650198
1.908148169517517,-0.43628478050231934,102.46162414550781,0.42834432459391125,-0.28033918065419916,-0.3130325278189654,0.12823937263650198
-0.8893705010414124,1.4093284606933594,99.71661376953125,0.42834432459391125,-0.28033918065419916,-0.3130325278189654,0.12823937263650198
-0.5279955267906189,-1.9152032136917114,96.89727783203125,0.42834432459391125,-0.28033918065419916,-0.3130325278189654,0.12823937263650198
0.09669129550457001,-0.43929654359817505,94.07003021240234,0.42834432459391125,-0.28033918065419916,-0.3130325278189654,0.12823937263650198
-0.10478618741035461,-0.5816466808319092,91.29869842529297,0.42834432459391125,-0.28033918065419916,-0.3130325278189654,0.12823937263650198
-0.11146221309900284,-0.9978364706039429,88.46434020996094,0.42834432459391125,-0.28033918065419916,-0.3130325278189654,0.12823937263650198
0.7308266758918762,-0.116997130215168,85.65214538574219,0.42834432459391125,-0.28033918065419916,-0.3130325278189654,0.12823937263650198
-0.7770677208900452,-0.9880644083023071,82.97996520996094,0.42834432459391125,-0.28033918065419916,-0.3130325278189654,0.12823937263650198
-0.21475405991077423,0.1457870900630951,80.62147521972656,0.42834432459391125,-0.28033918065419916,-0.3130325278189654,0.12823937263650198
-1.271919846534729,0.015850791707634926,78.52615356445312,0.42834432459391125,-0.28033918065419916,-0.3130325278189654,0.12823937263650198
-1.6748725175857544,1.0808607339859009,76.72762298583984,0.42834432459391125,-0.28033918065419916,-0.3130325278189654,0.12823937263650198
-1.530864953994751,1.057071328163147,75.4510726928711,0.42834432459391125,-0.28033918065419916,-0.3130325278189654,0.12823937263650198
-1.5095983743667603,1.0835371017456055,74.60877227783203,0.42834432459391125,-0.28033918065419916,-0.3130325278189654,0.12823937263650198
-1.3122211694717407,0.08731920272111893,74.08643341064453,0.42834432459391125,-0.28033918065419916,-0.3130325278189654,0.12823937263650198
-0.3020336627960205,0.42777347564697266,73.89669036865234,0.42834432459391125,-0.28033918065419916,-0.3130325278189654,0.12823937263650198
-0.5987250804901123,0.17109385132789612,73.9485855102539,0.42834432459391125,-0.28033918065419916,-0.3130325278189654,0.12823937263650198
0.5107468366622925,0.2158382683992386,73.96101379394531,0.42834432459391125,-0.28033918065419916,-0.3130325278189654,0.12823937263650198
0.14986750483512878,0.4352649450302124,73.95146942138672,0.42834432459391125,-0.28033918065419916,-0.3130325278189654,0.12823937263650198
0.20794594287872314,0.24627579748630524,73.95600128173828,0.42834432459391125,-0.28033918065419916,-0.3130325278189654,0.12823937263650198
0.17281171679496765,0.3105364739894867,73.95894622802734,0.42834432459391125,-0.28033918065419916,-0.3130325278189654,0.12823937263650198
0.1023787260055542,-0.0846681147813797,73.95612335205078,0.42834432459391125,-0.28033918065419916,-0.3130325278189654,0.12823937263650198
0.12598371505737305,-0.12835590541362762,73.95850372314453,0.42834432459391125,-0.28033918065419916,-0.3130325278189654,0.12823937263650198
0.057163603603839874,-0.060739099979400635,73.9571304321289,0.42834432459391125,-0.28033918065419916,-0.3130325278189654,0.12823937263650198
0.19430410861968994,0.11631893366575241,73.95509338378906,0.42834432459391125,-0.28033918065419916,-0.3130325278189654,0.12823937263650198
0.12356846779584885,0.11554030328989029,73.95736694335938,0.42834432459391125,-0.28033918065419916,-0.3130325278189654,0.12823937263650198
0.11781810969114304,-0.010327961295843124,73.95606994628906,0.42834432459391125,-0.28033918065419916,-0.3130325278189654,0.12823937263650198
0.098688505589962,-0.07520095258951187,73.95813751220703,0.42834432459391125,-0.28033918065419916,-0.3130325278189654,0.12823937263650198
0.11252794414758682,0.03149959817528725,73.957275390625,0.42834432459391125,-0.28033918065419916,-0.3130325278189654,0.12823937263650198
0.141837015748024,0.07795707881450653,73.95674896240234,0.42834432459391125,-0.28033918065419916,-0.3130325278189654,0.12823937263650198
0.12988422811031342,0.034921977669000626,73.95779418945312,0.42834432459391125,-0.28033918065419916,-0.3130325278189654,0.12823937263650198
0.1052614152431488,-0.03554103150963783,73.9580078125,0.42834432459391125,-0.28033918065419916,-0.3130325278189654,0.12823937263650198
0.11396988481283188,-0.020841358229517937,73.95793151855469,0.42834432459391125,-0.28033918065419916,-0.3130325278189654,0.12823937263650198
0.147236630320549,0.055697597563266754,73.95978546142578,0.42834432459391125,-0.28033918065419916,-0.3130325278189654,0.12823937263650198
0.13295671343803406,0.04289316385984421,73.96021270751953,0.42834432459391125,-0.28033918065419916,-0.3130325278189654,0.12823937263650198
0.11952517181634903,-0.004863282199949026,73.95911407470703,0.42834432459391125,-0.28033918065419916,-0.3130325278189654,0.12823937263650198
0.1206948310136795,-0.013323900289833546,73.95877075195312,0.42834432459391125,-0.28033918065419916,-0.3130325278189654,0.12823937263650198
0.11225446313619614,0.022126896306872368,73.95897674560547,0.42834432459391125,-0.28033918065419916,-0.3130325278189654,0.12823937263650198
0.1433282196521759,0.037064142525196075,73.96024322509766,0.42834432459391125,-0.28033918065419916,-0.3130325278189654,0.12823937263650198
0.11540299654006958,0.016689032316207886,73.95877838134766,0.42834432459391125,-0.28033918065419916,-0.3130325278189654,0.12823937263650198
0.11446338891983032,-0.0074119060300290585,73.95759582519531,0.42834432459391125,-0.28033918065419916,-0.3130325278189654,0.12823937263650198
0.12713006138801575,-0.0038900927174836397,73.957763671875,0.42834432459391125,-0.28033918065419916,-0.3130325278189654,0.12823937263650198
0.12455029040575027,0.0363643616437912,73.95760345458984,0.42834432459391125,-0.28033918065419916,-0.3130325278189654,0.12823937263650198
0.13085445761680603,0.01436669658869505,73.95704650878906,0.42834432459391125,-0.28033918065419916,-0.3130325278189654,0.12823937263650198
0.12129096686840057,0.005061283241957426,73.95832061767578,0.42834432459391125,-0.28033918065419916,-0.3130325278189654,0.12823937263650198
0.10488098114728928,0.020852351561188698,73.95903015136719,0.42834432459391125,-0.28033918065419916,-0.3130325278189654,0.12823937263650198
0.12267491966485977,0.02206888608634472,73.9588623046875,0.42834432459391125,-0.28033918065419916,-0.3130325278189654,0.12823937263650198
0.13020046055316925,0.024262288585305214,73.95771789550781,0.42834432459391125,-0.28033918065419916,-0.3130325278189654,0.12823937263650198
0.11243575066328049,0.007592752575874329,73.95731353759766,0.42834432459391125,-0.28033918065419916,-0.3130325278189654,0.12823937263650198
0.12424163520336151,0.00813003908842802,73.95763397216797,0.42834432459391125,-0.28033918065419916,-0.3130325278189654,0.12823937263650198
0.12427516281604767,0.027276672422885895,73.9578628540039,0.42834432459391125,-0.28033918065419916,-0.3130325278189654,0.12823937263650198
0.1316540688276291,0.02567702904343605,73.95771026611328,0.42834432459391125,-0.28033918065419916,-0.3130325278189654,0.12823937263650198
0.1261885166168213,0.038739562034606934,73.95673370361328,0.42834432459391125,-0.28033918065419916,-0.3130325278189654,0.12823937263650198
0.11559116840362549,0.006892423611134291,73.95709991455078,0.42834432459391125,-0.28033918065419916,-0.3130325278189654,0.12823937263650198
0.12447772920131683,0.021611174568533897,73.95601654052734,0.42834432459391125,-0.28033918065419916,-0.3130325278189654,0.12823937263650198
0.12230008840560913,0.03698960319161415,73.95503234863281,0.42834432459391125,-0.28033918065419916,-0.3130325278189654,0.12823937263650198
0.1255941540002823,-0.003493870608508587,73.95579528808594,0.42834432459391125,-0.28033918065419916,-0.3130325278189654,0.12823937263650198
0.1299692541360855,0.00426941504701972,73.95502471923828,0.42834432459391125,-0.28033918065419916,-0.3130325278189654,0.12823937263650198
0.12165628373622894,-0.013088894076645374,73.95651245117188,0.42834432459391125,-0.28033918065419916,-0.3130325278189654,0.12823937263650198
0.10539042204618454,0.024958057329058647,73.95518493652344,0.42834432459391125,-0.28033918065419916,-0.3130325278189654,0.12823937263650198
0.12487275153398514,0.0011048001470044255,73.9554443359375,0.42834432459391125,-0.28033918065419916,-0.3130325278189654,0.12823937263650198
0.1217673122882843,0.009298823773860931,73.9570083618164,0.42834432459391125,-0.28033918065419916,-0.3130325278189654,0.12823937263650198
0.11609090119600296,0.010460116900503635,73.95706176757812,0.42834432459391125,-0.28033918065419916,-0.3130325278189654,0.12823937263650198
0.12106693536043167,0.013069546781480312,73.95673370361328,0.42834432459391125,-0.28033918065419916,-0.3130325278189654,0.12823937263650198
0.11467865109443665,0.012069609016180038,73.9558334350586,0.42834432459391125,-0.28033918065419916,-0.3130325278189654,0.12823937263650198
0.11030597984790802,-0.0005944990552961826,73.9561538696289,0.42834432459391125,-0.28033918065419916,-0.3130325278189654,0.12823937263650198
0.12734130024909973,0.006426461972296238,73.9564437866211,0.42834432459391125,-0.28033918065419916,-0.3130325278189654,0.12823937263650198
0.11906515806913376,0.005563247948884964,73.9560775756836,0.42834432459391125,-0.28033918065419916,-0.3130325278189654,0.12823937263650198
0.11431189626455307,0.017264291644096375,73.95586395263672,0.42834432459391125,-0.28033918065419916,-0.3130325278189654,0.12823937263650198
0.11966849863529205,0.015331756323575974,73.95738220214844,0.42834432459391125,-0.28033918065419916,-0.3130325278189654,0.12823937263650198
0.1182253360748291,0.01936633512377739,73.95610809326172,0.42834432459391125,-0.28033918065419916,-0.3130325278189654,0.12823937263650198
0.12467770278453827,0.010254253633320332,73.9561538696289,0.42834432459391125,-0.28033918065419916,-0.3130325278189654,0.12823937263650198
0.11684411019086838,0.002243553288280964,73.95665740966797,0.42834432459391125,-0.28033918065419916,-0.3130325278189654,0.12823937263650198
0.1095445528626442,0.0271762665361166,73.9570541381836,0.42834432459391125,-0.28033918065419916,-0.3130325278189654,0.12823937263650198
0.11789541691541672,0.009551811963319778,73.9563217163086,0.42834432459391125,-0.28033918065419916,-0.3130325278189654,0.12823937263650198
0.11414933204650879,0.008766439743340015,73.95760345458984,0.42834432459391125,-0.28033918065419916,-0.3130325278189654,0.12823937263650198
0.1216777041554451,0.001354764448478818,73.95845031738281,0.42834432459391125,-0.28033918065419916,-0.3130325278189654,0.12823937263650198
0.11696865409612656,0.011466968804597855,73.95903778076172,0.42834432459391125,-0.28033918065419916,-0.3130325278189654,0.12823937263650198
0.10509639233350754,0.01851622574031353,73.95940399169922,0.42834432459391125,-0.28033918065419916,-0.3130325278189654,0.12823937263650198
0.12447179108858109,0.0072198593989014626,73.95929718017578,0.42834432459391125,-0.28033918065419916,-0.3130325278189654,0.12823937263650198
0.11863753199577332,0.01858566142618656,73.95916748046875,0.42834432459391125,-0.28033918065419916,-0.3130325278189654,0.12823937263650198
0.10342565923929214,0.016149450093507767,73.9585952758789,0.42834432459391125,-0.28033918065419916,-0.3130325278189654,0.12823937263650198
0.1261647492647171,0.01596081629395485,73.95691680908203,0.42834432459391125,-0.28033918065419916,-0.3130325278189654,0.12823937263650198
0.11124950647354126,0.024218494072556496,73.95580291748047,0.42834432459391125,-0.28033918065419916,-0.3130325278189654,0.12823937263650198
0.1142059713602066,-0.00242122495546937,73.95584106445312,0.42834432459391125,-0.28033918065419916,-0.3130325278189654,0.12823937263650198
0.123260997235775,0.014424538239836693,73.95600128173828,0.42834432459391125,-0.28033918065419916,-0.3130325278189654,0.12823937263650198
0.10182107239961624,0.014137547463178635,73.95600891113281,0.42834432459391125,-0.28033918065419916,-0.3130325278189654,0.12823937263650198
0.12246233969926834,0.014095848426222801,73.95633697509766,0.42834432459391125,-0.28033918065419916,-0.3130325278189654,0.12823937263650198
0.12756022810935974,0.01719573512673378,73.95672607421875,0.42834432459391125,-0.28033918065419916,-0.3130325278189654,0.12823937263650198
0.11432912945747375,0.004280615132302046,73.95784759521484,0.42834432459391125,-0.28033918065419916,-0.3130325278189654,0.12823937263650198
0.11466977000236511,0.009422192350029945,73.95742797851562,0.42834432459391125,-0.28033918065419916,-0.3130325278189654,0.12823937263650198
0.10464981198310852,0.010400909930467606,73.95781707763672,0.42834432459391125,-0.28033918065419916,-0.3130325278189654,0.12823937263650198
0.11455589532852173,0.009981627576053143,73.95767211914062,0.42834432459391125,-0.28033918065419916,-0.3130325278189654,0.12823937263650198
0.12421020120382309,0.02022670768201351,73.95732879638672,0.42834432459391125,-0.28033918065419916,-0.3130325278189654,0.12823937263650198
0.10739660263061523,0.02349204197525978,73.95713806152344,0.42834432459391125,-0.28033918065419916,-0.3130325278189654,0.12823937263650198
0.11422722786664963,0.002467300044372678,73.95658111572266,0.42834432459391125,-0.28033918065419916,-0.3130325278189654,0.12823937263650198
0.12387343496084213,0.008427346125245094,73.95589447021484,0.42834432459391125,-0.28033918065419916,-0.3130325278189654,0.12823937263650198
0.11164402961730957,0.0017322917701676488,73.95671081542969,0.42834432459391125,-0.28033918065419916,-0.3130325278189654,0.12823937263650198
0.10573342442512512,0.013344439677894115,73.95568084716797,0.42834432459391125,-0.28033918065419916,-0.3130325278189654,0.12823937263650198
0.10882964730262756,0.015885258093476295,73.95650482177734,0.42834432459391125,-0.28033918065419916,-0.3130325278189654,0.12823937263650198
0.10831257700920105,0.008429854176938534,73.95645904541016,0.42834432459391125,-0.28033918065419916,-0.3130325278189654,0.12823937263650198
0.10557685047388077,0.009519364684820175,73.955810546875,0.42834432459391125,-0.28033918065419916,-0.3130325278189654,0.12823937263650198
0.10453959554433823,0.004935277625918388,73.95621490478516,0.42834432459391125,-0.28033918065419916,-0.3130325278189654,0.12823937263650198
0.11103765666484833,-0.003457253100350499,73.955810546875,0.42834432459391125,-0.28033918065419916,-0.3130325278189654,0.12823937263650198
0.12511543929576874,0.005855599418282509,73.95478057861328,0.42834432459391125,-0.28033918065419916,-0.3130325278189654,0.12823937263650198
0.10508263111114502,0.0037671327590942383,73.95463562011719,0.42834432459391125,-0.28033918065419916,-0.3130325278189654,0.12823937263650198
0.10641101747751236,0.0033633392304182053,73.9542465209961,0.42834432459391125,-0.28033918065419916,-0.3130325278189654,0.12823937263650198
0.11756853759288788,0.016248678788542747,73.95402526855469,0.42834432459391125,-0.28033918065419916,-0.3130325278189654,0.12823937263650198
0.11852003633975983,0.013051791116595268,73.95343780517578,0.42834432459391125,-0.28033918065419916,-0.3130325278189654,0.12823937263650198
0.12694181501865387,-0.0048179300501942635,73.9542236328125,0.42834432459391125,-0.28033918065419916,-0.3130325278189654,0.12823937263650198
0.12391829490661621,0.024932319298386574,73.95488739013672,0.42834432459391125,-0.28033918065419916,-0.3130325278189654,0.12823937263650198
0.0990515723824501,0.004249100107699633,73.95410919189453,0.42834432459391125,-0.28033918065419916,-0.3130325278189654,0.12823937263650198
0.10405083745718002,0.0003308829909656197,73.95325469970703,0.42834432459391125,-0.28033918065419916,-0.3130325278189654,0.12823937263650198
0.1056918352842331,0.008784949779510498,73.95472717285156,0.42834432459391125,-0.28033918065419916,-0.3130325278189654,0.12823937263650198
0.11039930582046509,0.008451336063444614,73.95475769042969,0.42834432459391125,-0.28033918065419916,-0.3130325278189654,0.12823937263650198
0.12406983226537704,0.005822914186865091,73.95430755615234,0.42834432459391125,-0.28033918065419916,-0.3130325278189654,0.12823937263650198
0.12425462156534195,-0.00026396181783638895,73.95436096191406,0.42834432459391125,-0.28033918065419916,-0.3130325278189654,0.12823937263650198
0.11330743879079819,0.005295863375067711,73.95581817626953,0.42834432459391125,-0.28033918065419916,-0.3130325278189654,0.12823937263650198
0.1169012263417244,0.009570118971168995,73.9561996459961,0.42834432459391125,-0.28033918065419916,-0.3130325278189654,0.12823937263650198
0.1111522912979126,0.008541719056665897,73.95603942871094,0.42834432459391125,-0.28033918065419916,-0.3130325278189654,0.12823937263650198
0.1154346838593483,0.006267411634325981,73.95525360107422,0.42834432459391125,-0.28033918065419916,-0.3130325278189654,0.12823937263650198
0.11805889755487442,0.0005023174453526735,73.95464324951172,0.42834432459391125,-0.28033918065419916,-0.3130325278189654,0.12823937263650198
0.11192157119512558,0.01555662788450718,73.95538330078125,0.42834432459391125,-0.28033918065419916,-0.3130325278189654,0.12823937263650198
0.107305146753788,0.002671339549124241,73.95492553710938,0.42834432459391125,-0.28033918065419916,-0.3130325278189654,0.12823937263650198
0.11596067994832993,0.003132069483399391,73.95446014404297,0.42834432459391125,-0.28033918065419916,-0.3130325278189654,0.12823937263650198
0.11370919644832611,-0.002148965373635292,73.9544677734375,0.42834432459391125,-0.28033918065419916,-0.3130325278189654,0.12823937263650198
0.11013195663690567,0.0020208749920129776,73.95491027832031,0.42834432459391125,-0.28033918065419916,-0.3130325278189654,0.12823937263650198
0.10694575309753418,0.019776832312345505,73.95591735839844,0.42834432459391125,-0.28033918065419916,-0.3130325278189654,0.12823937263650198
0.10763149708509445,0.002803914248943329,73.95633697509766,0.42834432459391125,-0.28033918065419916,-0.3130325278189654,0.12823937263650198
0.10385817289352417,-0.0033667616080492735,73.9566650390625,0.42834432459391125,-0.28033918065419916,-0.3130325278189654,0.12823937263650198
0.12195051461458206,0.011754633858799934,73.95577239990234,0.42834432459391125,-0.28033918065419916,-0.3130325278189654,0.12823937263650198
0.10503813624382019,0.00676446920260787,73.95464324951172,0.42834432459391125,-0.28033918065419916,-0.3130325278189654,0.12823937263650198
0.11439451575279236,0.010283167473971844,73.9537353515625,0.42834432459391125,-0.28033918065419916,-0.3130325278189654,0.12823937263650198
0.11090289801359177,0.014389457181096077,73.95291137695312,0.42834432459391125,-0.28033918065419916,-0.3130325278189654,0.12823937263650198
0.11739348620176315,0.003480900079011917,73.9530258178711,0.42834432459391125,-0.28033918065419916,-0.3130325278189654,0.12823937263650198
0.11106056720018387,0.011102363467216492,73.95356750488281,0.42834432459391125,-0.28033918065419916,-0.3130325278189654,0.12823937263650198
0.10444267094135284,-0.0014064937131479383,73.95448303222656,0.42834432459391125,-0.28033918065419916,-0.3130325278189654,0.12823937263650198
0.10921155661344528,0.01269331481307745,73.95555114746094,0.42834432459391125,-0.28033918065419916,-0.3130325278189654,0.12823937263650198
0.10545353591442108,0.015184886753559113,73.9552230834961,0.42834432459391125,-0.28033918065419916,-0.3130325278189654,0.12823937263650198
0.11192750930786133,0.018755750730633736,73.95381927490234,0.42834432459391125,-0.28033918065419916,-0.3130325278189654,0.12823937263650198
0.1084120124578476,0.002921286504715681,73.95457458496094,0.42834432459391125,-0.28033918065419916,-0.3130325278189654,0.12823937263650198
0.09195081144571304,-0.0007468475960195065,73.95457458496094,0.42834432459391125,-0.28033918065419916,-0.3130325278189654,0.12823937263650198
0.09721063077449799,0.007153947837650776,73.95380401611328,0.42834432459391125,-0.28033918065419916,-0.3130325278189654,0.12823937263650198
0.10783330351114273,0.004061572719365358,73.95387268066406,0.42834432459391125,-0.28033918065419916,-0.3130325278189654,0.12823937263650198
0.10532767325639725,0.006170707289129496,73.95323181152344,0.42834432459391125,-0.28033918065419916,-0.3130325278189654,0.12823937263650198
0.11310333013534546,-0.017492013052105904,73.95304107666016,0.42834432459391125,-0.28033918065419916,-0.3130325278189654,0.12823937263650198
0.11340882629156113,0.01622375100851059,73.95359802246094,0.42834432459391125,-0.28033918065419916,-0.3130325278189654,0.12823937263650198
0.10592947900295258,0.01106833666563034,73.95281982421875,0.42834432459391125,-0.28033918065419916,-0.3130325278189654,0.12823937263650198
0.1098577231168747,0.008328857831656933,73.95226287841797,0.42834432459391125,-0.28033918065419916,-0.3130325278189654,0.12823937263650198
0.09948467463254929,-0.0007263996521942317,73.95294189453125,0.42834432459391125,-0.28033918065419916,-0.3130325278189654,0.12823937263650198
