faccX,faccY,yaw,posX,posY,velX,velY
0,0,-99.77536010742188,0.0,0.0,0.0,0.0
0,0,-99.7778091430664,0.0,0.0,0.0,0.0
0,0,-99.77665710449219,0.0,0.0,0.0,0.0
0,-0.18451650440692902,-99.78050994873047,0.0,-1.281364613937007e-05,0.0,-0.0015376375367244085
-0.36737439036369324,-1.0423249006271362,-99.7475814819336,-2.551211044192314e-05,-0.00012363825821214253,-0.003061453253030777,-0.011761315912008286
-0.16302525997161865,-1.1749297380447388,-99.77250671386719,-0.00011336964037683274,-0.00047363620665338303,-0.007481450339158376,-0.03023843790094058
0,-2.3492915630340576,-99.73707580566406,-0.00024938167797194585,-0.0012223477620217536,-0.008839994172255198,-0.05960694874326388
-0.17088814079761505,-2.1892483234405518,-99.5815658569336,-0.0004085821461760335,-0.0025309732887479996,-0.010264062012235323,-0.09742811446388563
-0.3045181930065155,-0.5322780013084412,-99.48971557617188,-0.0006126641751163535,-0.004343770080142551,-0.014225781460603076,-0.12010750050346057
-0.6943343281745911,-0.5237222909927368,-99.54039001464844,-0.000919125291208426,-0.006418895108832253,-0.02254955247044563,-0.12890750293930373
-0.37639763951301575,-0.6211351156234741,-99.67566680908203,-0.0013693075523608259,-0.008646857477724552,-0.03147231886784235,-0.13844798132777214
-0.17105412483215332,-1.481728196144104,-99.87832641601562,-0.0019318636837932796,-0.011100356007615724,-0.0360344169040521,-0.15597184225916863
-0.22640840709209442,-0.7275637984275818,-100.00135803222656,-0.0025600388635777763,-0.01385330976711379,-0.03934660467008749,-0.17438260888059934
0.8300639390945435,-1.5260915756225586,-100.11016845703125,-0.003173895085023509,-0.016916190427210594,-0.03431614190340042,-0.19316307033101718
-0.7259689569473267,-0.8569303750991821,-100.19832611083984,-0.003738601965208848,-0.020301062568194334,-0.03344868371884028,-0.21302158658703169
0.5994784235954285,-1.4315415620803833,-100.21532440185547,-0.004304864092005624,-0.024010344006949,-0.03450277149677276,-0.23209218606352805
0.4752524793148041,-0.5512397289276123,-100.27873992919922,-0.004805276193138626,-0.02801624025321669,-0.02554668063918749,-0.24861536348859467
-0.7900420427322388,-0.9942143559455872,-100.21825408935547,-0.005252914590140183,-0.032267152845031684,-0.028169927000999444,-0.2614941475292047
0.7960222363471985,-0.5484358072280884,-100.03721618652344,-0.005721998082266913,-0.03673251712073882,-0.028120092054208113,-0.274349565555652
-0.6561817526817322,-0.8802000284194946,-99.94942474365234,-0.006180955138471391,-0.04140422070191966,-0.02695475469032923,-0.2862548641860485
-0.4389563500881195,0.22323164343833923,-99.95748138427734,-0.006706252307113673,-0.04622075790953305,-0.03608090554674466,-0.29172960072755816
0,-1.2078535556793213,-99.9891357421875,-0.007338083812759981,-0.05115129444334242,-0.03973887513081232,-0.29993478332956636
-0.42337411642074585,0.6424232125282288,-100.07159423828125,-0.008029799378580517,-0.05618947349488735,-0.04326699276765187,-0.30464670285582546
0,-0.8038771748542786,-100.03697204589844,-0.008780316905015044,-0.061278130623201525,-0.04679511040449142,-0.3059921525418759
0.2310182899236679,-1.2962167263031006,-100.14530944824219,-0.009544192474956312,-0.06652383968647983,-0.04486995798846086,-0.3234929350515207
-0.49241364002227783,-1.1134055852890015,-100.17615509033203,-0.010310177562965286,-0.07208272348675462,-0.04704825257261594,-0.34357312098145487
0.9864740967750549,-1.0504183769226074,-100.21220397949219,-0.011060005351901053,-0.07795920772271023,-0.04293108209967613,-0.3616049873332183
-0.2616676092147827,0.6517585515975952,-100.18801879882812,-0.011725189603037303,-0.08401364222168921,-0.036891028036673865,-0.36492715254426006
-1.0144375562667847,-0.33082324266433716,-100.2211685180664,-0.012428658484584753,-0.09007347425652873,-0.04752523774902026,-0.3622526916364829
0.6959099173545837,-0.4844314754009247,-100.28132629394531,-0.013242865755326216,-0.09616763402811353,-0.050179634739955264,-0.3690464809536934
-0.8718374371528625,-0.6283998489379883,-100.32807922363281,-0.014091410189867017,-0.10239568866375418,-0.05164569740494092,-0.37832007532318435
0.352145791053772,1.18375563621521,-100.35335540771484,-0.014091410189867017,-0.10239568866375418,-0.05164569740494092,-0.37832007532318435
-0.570885956287384,-0.2854144871234894,-100.3312759399414,-0.014967362102535032,-0.10863863845045366,-0.05346853211522102,-0.3708338990807533
1.4528318643569946,1.1519399881362915,-100.3580322265625,-0.01579725806083944,-0.1147590280531181,-0.0461189828813076,-0.36361285323897996
0.44965431094169617,0.8685877919197083,-100.48751831054688,-0.016433790680021047,-0.12067892784459722,-0.030264931420485176,-0.3467751217385133
-1.2367738485336304,0.7827028632164001,-100.5526351928711,-0.01699286728269524,-0.12634384024474354,-0.03682426090041796,-0.33301436627904574
-0.4063878357410431,0.06366879492998123,-100.51451873779297,-0.017720713414665724,-0.13183530387313414,-0.05051727493604024,-0.3259612691278259
0.42943570017814636,-1.8684358596801758,-100.60359954833984,-0.018561067450791596,-0.13739332273809443,-0.05032520939906438,-0.34100099466741085
-0.6806029677391052,-1.546737790107727,-100.69934844970703,-0.019417263112134403,-0.14331383748600876,-0.05241826996207237,-0.36946077508231
0.5236891508102417,-0.4631196856498718,-100.65106964111328,-0.02030179773767789,-0.14961109050653043,-0.053725885103146236,-0.38620958738029
0.33989647030830383,0.24184629321098328,-100.64064025878906,-0.021137257932374875,-0.15606328317067686,-0.04652933826049169,-0.38805353231728074
-1.1481527090072632,0.0997331291437149,-100.67669677734375,-0.021968875808848275,-0.16250712124941247,-0.05326480691631635,-0.3852070371309916
0.2879696786403656,0.761635959148407,-100.79193115234375,-0.02291635752345125,-0.16886742123713094,-0.060432998836040495,-0.3780289613952239
0.670657753944397,-0.5335142016410828,-100.82836151123047,-0.023857002821233538,-0.17515206213833556,-0.05244443689783414,-0.37612794674932953
-1.0392413139343262,0.5497588515281677,-100.9078598022461,-0.02475667285008563,-0.1814197331501378,-0.05551596656441688,-0.37599257466693714
-0.34639614820480347,-1.4883538484573364,-100.9903793334961,-0.02577816378325224,-0.18775145626937348,-0.0670629454155763,-0.3838141996413469
-0.1726617068052292,-1.0639153718948364,-100.9870376586914,-0.026931925224554207,-0.19432560051480927,-0.0713884275406599,-0.4050831098109483
0.11929837614297867,-0.709118127822876,-100.95559692382812,-0.028125438137083417,-0.20120011300469437,-0.07183312196284532,-0.41985838897526256
0.701131284236908,0.2636111080646515,-100.98582458496094,-0.029265682554493345,-0.20822869080843195,-0.06499620812634627,-0.42357094747324775
-0.07985397428274155,0.5166181325912476,-100.95526885986328,-0.029265682554493345,-0.20822869080843195,-0.06499620812634627,-0.42357094747324775
0.35115280747413635,0,-100.984619140625,-0.030330112493183046,-0.21525233034044503,-0.06273538451641798,-0.4192657963683207
0.17094647884368896,1.6868537664413452,-101.1043701171875,-0.03133944534024016,-0.22212295099058083,-0.0583845571304361,-0.40520868164797613
0,0.49103081226348877,-101.3150634765625,-0.03230065000916106,-0.22872518703341482,-0.056960003140072026,-0.38705964349210253
-0.11808544397354126,0.5628770589828491,-101.41629791259766,-0.033258183772882643,-0.2351029930450022,-0.0579440485065182,-0.37827707789838305
0.20417766273021698,-0.7656619548797607,-101.44676208496094,-0.0342179392883554,-0.24142169329441254,-0.05722661335021257,-0.37996695203085734
-0.3433452546596527,-0.527778685092926,-101.47927856445312,-0.035181380593631816,-0.24784429809492495,-0.058386343282957866,-0.39074562403062973
-1.0385565757751465,-0.9755831956863403,-101.52787780761719,-0.03625045171990575,-0.25446112529271175,-0.06990219186991453,-0.40327363970379027
0.8702415823936462,-0.1254275143146515,-101.54854583740234,-0.03742717679227804,-0.26125881169819165,-0.07130481681476036,-0.4124487289537985
-0.25088000297546387,-0.37506136298179626,-101.66616821289062,-0.03857257918506445,-0.26816771335278944,-0.06614347031960885,-0.4166194695979356
0,-0.7161125540733337,-101.73489379882812,-0.039692392579486785,-0.2751871471458839,-0.06823413701107105,-0.42571258557339503
0,0.5165637135505676,-101.75804901123047,-0.040829628196337966,-0.2822962144638101,-0.06823413701107105,-0.4273754925777514
-0.8425641059875488,0.2212083488702774,-101.82666015625,-0.04202537520943828,-0.2893679051691045,-0.07525550456096729,-0.4212273920575777
1.1282907724380493,0.8462764024734497,-101.89081573486328,-0.04325979148917312,-0.2963142308178875,-0.07287444900721311,-0.41233168579637997
-0.10103021562099457,-0.6800169348716736,-101.90132141113281,-0.044403028100625484,-0.30317487978479923,-0.064313944367071,-0.4109461902330318
-0.18601547181606293,0.1539774239063263,-101.91669464111328,-0.045494860901704244,-0.3100605134769446,-0.0667059917623798,-0.4153298528244097
-0.4096900522708893,0.1040971428155899,-102.01519012451172,-0.045494860901704244,-0.3100605134769446,-0.0667059917623798,-0.4153298528244097
-0.4342310428619385,-0.4864848256111145,-102.09739685058594,-0.046665233062683685,-0.31700923239087886,-0.07373866755515338,-0.41851641684770574
0.5833826065063477,-0.19016723334789276,-102.042236328125,-0.04788385310779427,-0.3240314957313239,-0.07249573785811664,-0.42415518400569746
0,1.064206600189209,-102.01336669921875,-0.04905160272442216,-0.33104005161983263,-0.0676342161372304,-0.41687152261535315
0.6134627461433411,1.7189897298812866,-102.06349182128906,-0.05013623808044938,-0.33779463280716693,-0.0625220265860359,-0.3936782198647657
-0.7100681662559509,0,-102.10672760009766,-0.05118498056661336,-0.3442365621847824,-0.06332707175364098,-0.3793533054490883
0,0.0929742306470871,-102.21538543701172,-0.05228974205183071,-0.3505526607318056,-0.06924430647244058,-0.3785785201936959
-0.09087978303432465,-0.8951916694641113,-102.42926788330078,-0.05345012492241543,-0.3569180122793961,-0.07000163799772662,-0.3852636655171711
0.8542560338973999,-0.3778424561023712,-102.4468994140625,-0.054563806649400935,-0.36342747851895774,-0.06364016924053433,-0.39587228323022516
-1.1725348234176636,0,-102.45365142822266,-0.055646578830459856,-0.3700515889655797,-0.06629249248653653,-0.3990209703644116
-0.4630400240421295,-1.755247950553894,-102.357421875,-0.05686503529186462,-0.37682383069044173,-0.0799222828820348,-0.4136480366190274
0.08677105605602264,-0.15624408423900604,-102.17634582519531,-0.05822320312934201,-0.3838507071365084,-0.08305785761525236,-0.4295771369089682
0.07502869516611099,0.5552529692649841,-102.11392211914062,-0.05959626466242801,-0.39098261713464216,-0.08170952635506791,-0.42625206286708506
0.8246395587921143,0.10066749900579453,-102.14826202392578,-0.06089561313959871,-0.3980412681499081,-0.07421229090541603,-0.42078605896482857
0.589979350566864,-0.05694461986422539,-102.22611236572266,-0.062034247230427934,-0.4050513328216037,-0.062423799994091214,-0.42042170163864884
-0.3954057991504669,0.5137832164764404,-102.30191040039062,-0.06306113184481443,-0.41202663627970537,-0.06080235373228791,-0.41661471333354705
-0.21465091407299042,-0.75916987657547,-102.40328216552734,-0.06306113184481443,-0.41202663627970537,-0.06080235373228791,-0.41661471333354705
0.0959058627486229,-0.7834696769714355,-102.45767211914062,-0.06408275059113898,-0.4190773425820386,-0.06179189582665764,-0.4294700429464379
-0.513913631439209,0.926338791847229,-102.5152359008789,-0.06514164383885346,-0.42622525516483506,-0.06527529389907918,-0.42827946698913966
0.35430842638015747,1.6185739040374756,-102.67742156982422,-0.06624064909863388,-0.4331865162329954,-0.06660533727457128,-0.40707186119010047
-0.38892924785614014,0.7323095202445984,-102.77259826660156,-0.06735314227692367,-0.4398077914594775,-0.06689384412020447,-0.38748116598774984
1.517114281654358,0.1612103432416916,-102.7843246459961,-0.06838969349602442,-0.4462037609020868,-0.05749230217188599,-0.3800351671253641
-0.4927928149700165,-0.23305270075798035,-102.83035278320312,-0.0692767650970361,-0.4525426694067815,-0.04895628994951647,-0.3806338534379999
-1.1621114015579224,-1.078613519668579,-102.96116638183594,-0.07020762716678693,-0.4589776548960556,-0.06274715842058262,-0.3915644052748879
-0.0633673295378685,-0.8014357089996338,-102.99612426757812,-0.07133851583012274,-0.4656342872915168,-0.07295948117971421,-0.40723148218045635
0.10514272749423981,0.43358638882637024,-103.08787536621094,-0.07255160611381545,-0.4724470237528698,-0.07261135286341111,-0.4102968931819002
0.5992317795753479,0.7691811323165894,-103.16749572753906,-0.07371288043188136,-0.47920177978359985,-0.06674156530449787,-0.40027383050570886
-0.3243613839149475,-0.29202038049697876,-103.15589141845703,-0.07480615163170212,-0.4858398741287075,-0.06445097867399453,-0.3962974909072121
0.2891969084739685,0.07829195261001587,-103.0951156616211,-0.07588277658706322,-0.49245967456243095,-0.06474401596933603,-0.3980785611396035
-0.347488135099411,-0.1470518708229065,-103.16217041015625,-0.07696589152173447,-0.49909909224241134,-0.06522977619121471,-0.39865156045804423
-0.7376501560211182,-0.9418237209320068,-103.24815368652344,-0.07812841128402698,-0.5058189012772506,-0.07427259528388579,-0.4077255237226685
0.9295700788497925,-0.40452712774276733,-103.26616668701172,-0.07935296009967308,-0.5127078232593419,-0.07267326259364683,-0.4189451141282916
-0.7749982476234436,0.059318557381629944,-103.24224090576172,-0.07935296009967308,-0.5127078232593419,-0.07267326259364683,-0.4189451141282916
-0.005196038633584976,0.05779806524515152,-103.29524993896484,-0.07935296009967308,-0.5127078232593419,-0.07267326259364683,-0.4189451141282916
-0.6660352349281311,0.9776220917701721,-103.40145111083984,-0.07935296009967308,-0.5127078232593419,-0.07267326259364683,-0.4189451141282916
0.21328994631767273,1.3770426511764526,-103.5626220703125,-0.07935296009967308,-0.5127078232593419,-0.07267326259364683,-0.4189451141282916
1.6358559131622314,2.245044469833374,-103.79534912109375,-0.07935296009967308,-0.5127078232593419,-0.07267326259364683,-0.4189451141282916
0.8303152322769165,2.719411611557007,-104.26888275146484,-0.07935296009967308,-0.5127078232593419,-0.07267326259364683,-0.4189451141282916
-1.0658342838287354,1.3659498691558838,-105.09608459472656,-0.07935296009967308,-0.5127078232593419,-0.07267326259364683,-0.4189451141282916
-0.2774849832057953,1.2354238033294678,-106.20470428466797,-0.07935296009967308,-0.5127078232593419,-0.07267326259364683,-0.4189451141282916
-0.5921083092689514,1.95682954788208,-107.55831909179688,-0.07935296009967308,-0.5127078232593419,-0.07267326259364683,-0.4189451141282916
-0.3280768394470215,1.4752240180969238,-109.04112243652344,-0.07935296009967308,-0.5127078232593419,-0.07267326259364683,-0.4189451141282916
-0.9283058047294617,1.7362569570541382,-110.5412826538086,-0.07935296009967308,-0.5127078232593419,-0.07267326259364683,-0.4189451141282916
-0.507706880569458,1.2850123643875122,-112.09233856201172,-0.07935296009967308,-0.5127078232593419,-0.07267326259364683,-0.4189451141282916
-0.08637009561061859,1.2409534454345703,-113.7160415649414,-0.07935296009967308,-0.5127078232593419,-0.07267326259364683,-0.4189451141282916
-0.782837986946106,1.0699247121810913,-115.37451934814453,-0.07935296009967308,-0.5127078232593419,-0.07267326259364683,-0.4189451141282916
0.6359187960624695,1.1708134412765503,-117.12359619140625,-0.07935296009967308,-0.5127078232593419,-0.07267326259364683,-0.4189451141282916
-0.6206063032150269,0.6261287927627563,-118.85026550292969,-0.07935296009967308,-0.5127078232593419,-0.07267326259364683,-0.4189451141282916
0.11492377519607544,0.8649482727050781,-120.6890869140625,-0.07935296009967308,-0.5127078232593419,-0.07267326259364683,-0.4189451141282916
-0.43725693225860596,0.766066312789917,-122.51142120361328,-0.07935296009967308,-0.5127078232593419,-0.07267326259364683,-0.4189451141282916
-0.5895512104034424,0.8762189745903015,-124.36153411865234,-0.07935296009967308,-0.5127078232593419,-0.07267326259364683,-0.4189451141282916
-0.45463109016418457,0.9645516276359558,-126.1335678100586,-0.07935296009967308,-0.5127078232593419,-0.07267326259364683,-0.4189451141282916
0.302545964717865,0.41382864117622375,-127.90386962890625,-0.07935296009967308,-0.5127078232593419,-0.07267326259364683,-0.4189451141282916
-0.376304030418396,0.8568919897079468,-129.65582275390625,-0.07935296009967308,-0.5127078232593419,-0.07267326259364683,-0.4189451141282916
0.27858760952949524,0.43805956840515137,-131.49668884277344,-0.07935296009967308,-0.5127078232593419,-0.07267326259364683,-0.4189451141282916
-0.5682435631752014,0.553297221660614,-133.34555053710938,-0.07935296009967308,-0.5127078232593419,-0.07267326259364683,-0.4189451141282916
0.1490471363067627,0.617326021194458,-135.1942596435547,-0.07935296009967308,-0.5127078232593419,-0.07267326259364683,-0.4189451141282916
-0.12941011786460876,0.14671939611434937,-137.06494140625,-0.07935296009967308,-0.5127078232593419,-0.07267326259364683,-0.4189451141282916
0.23275819420814514,0.06563078612089157,-138.9325408935547,-0.07935296009967308,-0.5127078232593419,-0.07267326259364683,-0.4189451141282916
-0.054710753262043,0.43274497985839844,-140.77845764160156,-0.07935296009967308,-0.5127078232593419,-0.07267326259364683,-0.4189451141282916
-0.2359418123960495,0.6015005707740784,-142.61068725585938,-0.07935296009967308,-0.5127078232593419,-0.07267326259364683,-0.4189451141282916
0.7964781522750854,0.508491575717926,-144.3853302001953,-0.07935296009967308,-0.5127078232593419,-0.07267326259364683,-0.4189451141282916
-0.7484139800071716,0.6867547035217285,-146.24667358398438,-0.07935296009967308,-0.5127078232593419,-0.07267326259364683,-0.4189451141282916
0.02346157282590866,-0.16489437222480774,-148.12013244628906,-0.07935296009967308,-0.5127078232593419,-0.07267326259364683,-0.4189451141282916
-0.10539542138576508,-0.2192947268486023,-150.01744079589844,-0.07935296009967308,-0.5127078232593419,-0.07267326259364683,-0.4189451141282916
-0.9859105944633484,0.9644084572792053,-151.94369506835938,-0.07935296009967308,-0.5127078232593419,-0.07267326259364683,-0.4189451141282916
0.4084174931049347,0.44071832299232483,-153.76828002929688,-0.07935296009967308,-0.5127078232593419,-0.07267326259364683,-0.4189451141282916
0.10350719094276428,0.5595307946205139,-155.6003875732422,-0.07935296009967308,-0.5127078232593419,-0.07267326259364683,-0.4189451141282916
0.01767209731042385,0.569210946559906,-157.44046020507812,-0.07935296009967308,-0.5127078232593419,-0.07267326259364683,-0.4189451141282916
0.87522292137146,0.5585213899612427,-159.24037170410156,-0.07935296009967308,-0.5127078232593419,-0.07267326259364683,-0.4189451141282916
0.5215133428573608,0.30168846249580383,-161.09365844726562,-0.07935296009967308,-0.5127078232593419,-0.07267326259364683,-0.4189451141282916
-0.07382949441671371,0.8220033049583435,-162.92474365234375,-0.07935296009967308,-0.5127078232593419,-0.07267326259364683,-0.4189451141282916
0.38375404477119446,0.28853389620780945,-164.72802734375,-0.07935296009967308,-0.5127078232593419,-0.07267326259364683,-0.4189451141282916
-0.2405126839876175,0.06246252730488777,-166.57582092285156,-0.07935296009967308,-0.5127078232593419,-0.07267326259364683,-0.4189451141282916
0.21693618595600128,0.6178795099258423,-168.4202880859375,-0.07935296009967308,-0.5127078232593419,-0.07267326259364683,-0.4189451141282916
0.5341124534606934,-0.7712265253067017,-170.0903778076172,-0.07935296009967308,-0.5127078232593419,-0.07267326259364683,-0.4189451141282916
0.9281533360481262,-0.7016182541847229,-171.69873046875,-0.07935296009967308,-0.5127078232593419,-0.07267326259364683,-0.4189451141282916
-0.6761360764503479,0.9342646598815918,-173.2477264404297,-0.07935296009967308,-0.5127078232593419,-0.07267326259364683,-0.4189451141282916
0.38771191239356995,0.185910165309906,-174.84144592285156,-0.07935296009967308,-0.5127078232593419,-0.07267326259364683,-0.4189451141282916
0.26214489340782166,1.3147131204605103,-176.43988037109375,-0.07935296009967308,-0.5127078232593419,-0.07267326259364683,-0.4189451141282916
0.6072239279747009,-0.20787283778190613,-177.94940185546875,-0.07935296009967308,-0.5127078232593419,-0.07267326259364683,-0.4189451141282916
0.038812004029750824,0.7382490038871765,-179.4252471923828,-0.07935296009967308,-0.5127078232593419,-0.07267326259364683,-0.4189451141282916
0.200282022356987,0.3460503816604614,179.09815979003906,-0.07935296009967308,-0.5127078232593419,-0.07267326259364683,-0.4189451141282916
0.07544883340597153,0.3097115159034729,177.6907958984375,-0.07935296009967308,-0.5127078232593419,-0.07267326259364683,-0.4189451141282916
0.18861931562423706,0.5702666640281677,176.33050537109375,-0.07935296009967308,-0.5127078232593419,-0.07267326259364683,-0.4189451141282916
0.03924648091197014,0.014228983782231808,174.94464111328125,-0.07935296009967308,-0.5127078232593419,-0.07267326259364683,-0.4189451141282916
0.22664542496204376,0.38706326484680176,173.47889709472656,-0.07935296009967308,-0.5127078232593419,-0.07267326259364683,-0.4189451141282916
0.500078558921814,0.2508905529975891,172.10548400878906,-0.07935296009967308,-0.5127078232593419,-0.07267326259364683,-0.4189451141282916
0.8089644908905029,-0.49862003326416016,170.79183959960938,-0.07935296009967308,-0.5127078232593419,-0.07267326259364683,-0.4189451141282916
0.3991597592830658,0.3108743727207184,169.65525817871094,-0.07935296009967308,-0.5127078232593419,-0.07267326259364683,-0.4189451141282916
0.3974892497062683,-0.7733647227287292,168.67584228515625,-0.07935296009967308,-0.5127078232593419,-0.07267326259364683,-0.4189451141282916
0.6343618035316467,-0.6249352097511292,167.78016662597656,-0.07935296009967308,-0.5127078232593419,-0.07267326259364683,-0.4189451141282916
0.7324579954147339,-0.11587858945131302,167.02035522460938,-0.07935296009967308,-0.5127078232593419,-0.07267326259364683,-0.4189451141282916
0.8625038266181946,-0.8079311847686768,166.51898193359375,-0.07935296009967308,-0.5127078232593419,-0.07267326259364683,-0.4189451141282916
0.9620392322540283,-0.6585704684257507,166.213623046875,-0.07935296009967308,-0.5127078232593419,-0.07267326259364683,-0.4189451141282916
1.0311822891235352,-0.4223403036594391,166.10543823242188,-0.07935296009967308,-0.5127078232593419,-0.07267326259364683,-0.4189451141282916
0.9120359420776367,-0.3485952615737915,166.14134216308594,-0.07935296009967308,-0.5127078232593419,-0.07267326259364683,-0.4189451141282916
0.27767643332481384,0.3773818016052246,166.14495849609375,-0.07935296009967308,-0.5127078232593419,-0.07267326259364683,-0.4189451141282916
-0.32228925824165344,0.14734987914562225,166.1385498046875,-0.07935296009967308,-0.5127078232593419,-0.07267326259364683,-0.4189451141282916
-0.4673246741294861,0.27145689725875854,166.1331024169922,-0.07935296009967308,-0.5127078232593419,-0.07267326259364683,-0.4189451141282916
-0.11551851779222488,0.2778607904911041,166.160400390625,-0.07935296009967308,-0.5127078232593419,-0.07267326259364683,-0.4189451141282916
-0.045590490102767944,0.07747988402843475,166.1533966064453,-0.07935296009967308,-0.5127078232593419,-0.07267326259364683,-0.4189451141282916
0.030723197385668755,0.2905140519142151,166.1495361328125,-0.07935296009967308,-0.5127078232593419,-0.07267326259364683,-0.4189451141282916
0.0971941277384758,0.14703193306922913,166.15802001953125,-0.07935296009967308,-0.5127078232593419,-0.07267326259364683,-0.4189451141282916
0.10942663252353668,0.16999003291130066,166.15516662597656,-0.07935296009967308,-0.5127078232593419,-0.07267326259364683,-0.4189451141282916
0.040920715779066086,0.2032630890607834,166.15606689453125,-0.07935296009967308,-0.5127078232593419,-0.07267326259364683,-0.4189451141282916
-0.012476998381316662,0.1948598027229309,166.1591033935547,-0.07935296009967308,-0.5127078232593419,-0.07267326259364683,-0.4189451141282916
-0.01922515220940113,0.17901189625263214,166.15814208984375,-0.07935296009967308,-0.5127078232593419,-0.07267326259364683,-0.4189451141282916
0.047594085335731506,0.21113377809524536,166.15878295898438,-0.07935296009967308,-0.5127078232593419,-0.07267326259364683,-0.4189451141282916
0.0644444078207016,0.17885562777519226,166.1588134765625,-0.07935296009967308,-0.5127078232593419,-0.07267326259364683,-0.4189451141282916
0.06885401904582977,0.1795060634613037,166.1578826904297,-0.07935296009967308,-0.5127078232593419,-0.07267326259364683,-0.4189451141282916
0.0385625921189785,0.18490441143512726,166.15792846679688,-0.07935296009967308,-0.5127078232593419,-0.07267326259364683,-0.4189451141282916
0.020970843732357025,0.17979219555854797,166.1582489013672,-0.07935296009967308,-0.5127078232593419,-0.07267326259364683,-0.4189451141282916
0.034079935401678085,0.19675393402576447,166.15841674804688,-0.07935296009967308,-0.5127078232593419,-0.07267326259364683,-0.4189451141282916
0.04685218632221222,0.1915665864944458,166.15916442871094,-0.07935296009967308,-0.5127078232593419,-0.07267326259364683,-0.4189451141282916
0.05499095469713211,0.17595551908016205,166.1596221923828,-0.07935296009967308,-0.5127078232593419,-0.07267326259364683,-0.4189451141282916
0,0.1969282329082489,166.15899658203125,-0.08056036232660212,-0.5196643471231476,-0.0722150046378374,-0.4158377495283882
0,0.18047833442687988,166.1588134765625,-0.08176394573723274,-0.5265687674925558,-0.0722150046378374,-0.41269269480059545
-0.21739231050014496,0.23902153968811035,166.15232849121094,-0.08298262583609253,-0.5334178471368632,-0.0740266072253386,-0.4091968625163039
-0.8152339458465576,0.6861913800239563,166.1526336669922,-0.08428811277987225,-0.5401735439482661,-0.08263182602822779,-0.40148675485203666
-2.036067247390747,0.3988197445869446,166.01011657714844,-0.08586331690765085,-0.5467896418677021,-0.10639266930520533,-0.39244499548027917
-3.1293835639953613,0.8985263705253601,165.941162109375,-0.08799523992463942,-0.5532402983121573,-0.1494380927334229,-0.38163377785434327
-2.1236066818237305,0.09705347567796707,166.000732421875,-0.0908506657928228,-0.5595317237870766,-0.193213011448582,-0.3733372791359822
-0.8741918206214905,0.6169599890708923,166.09901428222656,-0.09427906310185787,-0.565704427504291,-0.2181946656356255,-0.3673871669297417
-0.8167799711227417,0.36655500531196594,166.1607666015625,-0.09803306945910054,-0.5717592473007322,-0.2322860972334941,-0.3591912086432179
-1.0613211393356323,0.2508246600627899,166.12718200683594,-0.10203492810121838,-0.5777028938569126,-0.24793693982064724,-0.35404637809842826
-0.6942177414894104,1.0995330810546875,166.13031005859375,-0.10628912285384201,-0.5835098919820866,-0.26256643049418926,-0.34279339692244926
-1.6972137689590454,0.5148736238479614,166.1947479248047,-0.1108313016614152,-0.5891110036873981,-0.28249502641459306,-0.32934000771492716
-0.5408698916435242,0.266520619392395,166.24008178710938,-0.11569497457808914,-0.5945457403268664,-0.30114572358628117,-0.32282838902125754
-1.589896321296692,-0.48932623863220215,166.3314208984375,-0.12086203984709246,-0.5999416860896678,-0.3189021086941163,-0.3246851025149226
0.5836650729179382,0.7887918949127197,166.40240478515625,-0.1262469521620207,-0.6053323082387859,-0.3272873690972726,-0.32218955537925165
-0.9473419785499573,0.04446914419531822,166.42030334472656,-0.1262469521620207,-0.6053323082387859,-0.3272873690972726,-0.32218955537925165
-0.39457231760025024,0.6270080208778381,166.33926391601562,-0.13179493013976346,-0.6106555038030879,-0.33846998823185764,-0.31659391233697537
-0.5241962671279907,-0.5914629101753235,166.28306579589844,-0.13749989998423387,-0.6159296005982386,-0.346126393104593,-0.3162977030811211
0.8298869729042053,0.6718500256538391,166.17312622070312,-0.1432474446814093,-0.6211956465443491,-0.34357897055645786,-0.31562781045213345
1.7934471368789673,0.36340081691741943,165.98550415039062,-0.1487915848775042,-0.6263842176322617,-0.32171785297493144,-0.30700072009737295
-1.0851783752441406,-0.08616835623979568,165.8984375,-0.15410436376308398,-0.6314816440463376,-0.3158156132946412,-0.3046904495917261
-0.2755643427371979,0.4796418845653534,165.82281494140625,-0.1594624533400767,-0.6365324936556215,-0.3271551359444857,-0.3014115035223464
-1.8916800022125244,0.9915258288383484,165.68519592285156,-0.16506554201866186,-0.6414538542897853,-0.3452155054857334,-0.28915177257731556
-1.0340734720230103,-0.12166249006986618,165.64337158203125,-0.1710223111013571,-0.6462126433231039,-0.36959678443769617,-0.28190291142091156
-0.5835312008857727,-0.3754289150238037,165.77513122558594,-0.17729459116649293,-0.6509455454165839,-0.3830768233786027,-0.28604533979669217
-0.243432879447937,0.75668865442276,165.90774536132812,-0.18373663295060394,-0.6556864913757372,-0.38996819071471694,-0.2828681753017009
0.5764549374580383,0.5171586871147156,165.88548278808594,-0.19021297626404296,-0.6603124993431588,-0.3871930068979661,-0.2722527807888886
-0.7856881618499756,0.34854522347450256,165.68821716308594,-0.19668072313070295,-0.6647899273625161,-0.38893661710123223,-0.26503858153397847
-0.6091800332069397,1.6854416131973267,165.47657775878906,-0.20325986592926912,-0.6690659879688691,-0.4005605187267065,-0.2480886912283799
-0.9938843250274658,-0.33519473671913147,165.4596710205078,-0.2100471984884805,-0.6731070323451422,-0.4139193883786599,-0.23683663392439494
-0.4515572786331177,-0.4540036916732788,165.38833618164062,-0.2100471984884805,-0.6731070323451422,-0.4139193883786599,-0.23683663392439494
0.3631366193294525,0.7984417676925659,165.3165283203125,-0.2169519952850209,-0.6770303902663808,-0.41465622720619044,-0.23396631662423423
1.0270191431045532,0,165.26812744140625,-0.2237663938105106,-0.680874381531806,-0.40307159585257374,-0.22731263522679618
1.2989826202392578,-1.0356887578964233,165.25257873535156,-0.23032272584115462,-0.6847348482826621,-0.3836882478247087,-0.23594337487593303
0.6043920516967773,0.10081011801958084,165.19351196289062,-0.2365853511749042,-0.6887321599916968,-0.3678267922252417,-0.24373403020824005
0.12388256937265396,0.6810873746871948,165.13119506835938,-0.2426652230855284,-0.6927400953915073,-0.36175783704966313,-0.23721821776901691
-0.6466624140739441,1.2825589179992676,165.0365753173828,-0.2487308245255715,-0.6965573680284433,-0.3661143357555072,-0.2208544986632964
-1.1207687854766846,1.079210877418518,164.9542999267578,-0.2549554683992432,-0.7000742645481497,-0.3808429290850958,-0.20117308370148151
-1.2694766521453857,0.3679112195968628,164.8776092529297,-0.261468839817163,-0.7033266546864372,-0.40076164106527973,-0.18911373289302
-1.0847662687301636,-0.930772066116333,164.81346130371094,-0.2683116895933118,-0.7065176377934402,-0.42038033207257597,-0.1938042399473489
-0.1403161734342575,-0.1996796578168869,164.70729064941406,-0.27540310363078285,-0.7098262120511691,-0.43058935242394614,-0.20322467098012575
0.3125949501991272,0.9677510857582092,164.6981964111328,-0.28256762903390664,-0.7131599516072309,-0.4291536959509056,-0.1968240757472814
-0.9113233685493469,-0.2261628955602646,164.7225341796875,-0.28976176899547385,-0.7163888536898108,-0.4341430994371574,-0.1906441741622985
0,0.1593567430973053,164.75999450683594,-0.2970607736644646,-0.719570895908659,-0.44173746084173526,-0.19120089209948984
1.3734232187271118,0.546389102935791,164.75595092773438,-0.3043276880660819,-0.7227085673154537,-0.43029226735234266,-0.1853196767158807
-1.01558256149292,0.050356581807136536,164.646240234375,-0.3043276880660819,-0.7227085673154537,-0.43029226735234266,-0.1853196767158807
0.23212872445583344,1.1274899244308472,164.52679443359375,-0.31155363237174855,-0.7257154336977852,-0.4368210493276517,-0.17550428916389751
-0.34998080134391785,0.486228346824646,164.5980224609375,-0.31884216736588217,-0.728528441415013,-0.43780314996838576,-0.16205663690343508
0.20793376863002777,-0.7723767161369324,164.76141357421875,-0.32614875090929374,-0.7312492567779392,-0.4389868752410015,-0.16444120664770415
-0.1306268572807312,-0.7114124894142151,164.76295471191406,-0.33345983029446674,-0.7340929844724531,-0.43834265097975733,-0.1768061166939637
-0.3783327341079712,0.29328492283821106,164.63165283203125,-0.340800885560198,-0.7370687897205869,-0.4425839809079965,-0.18029051308209706
0,0.7483130693435669,164.47850036621094,-0.3482035583485332,-0.740001298411387,-0.4457367536922296,-0.17161052981391559
0.5790842175483704,-0.5605637431144714,164.3683319091797,-0.3555922900616295,-0.7428484357606308,-0.4409110518793265,-0.1700459520953398
-0.5570729970932007,0.9731231331825256,164.3456573486328,-0.36293927903597556,-0.7456538850045762,-0.4407276250422001,-0.166607957178106
0.2968389689922333,0.7175679206848145,164.37313842773438,-0.37030281126085257,-0.748313275189915,-0.4428962419430415,-0.15251886506254483
-0.21871116757392883,0.3563864529132843,164.3166961669922,-0.37767898975147146,-0.7507806761094575,-0.4422451769312223,-0.14356924528256068
-0.7461541295051575,0.3786061108112335,164.2490234375,-0.38511674723484457,-0.7531224557139082,-0.45028572107354803,-0.13744430725152304
0.14250758290290833,-0.3762511610984802,164.15676879882812,-0.39266342915180663,-0.7554130306299258,-0.4553161089619001,-0.13742468267058344
-0.14440715312957764,0.5915287137031555,164.014892578125,-0.40025216288243737,-0.7576884921777269,-0.455331938713789,-0.13563070306554448
-0.5822265148162842,0.6123195290565491,163.94544982910156,-0.40025216288243737,-0.7576884921777269,-0.455331938713789,-0.13563070306554448
-0.22636382281780243,0.8308344483375549,163.9857940673828,-0.40789718063444735,-0.7598487848692781,-0.4620701915274064,-0.12360441992059361
0.39224866032600403,-0.666396975517273,164.08114624023438,-0.41558683071285496,-0.7618974392656754,-0.46068781788150476,-0.12223410764709126
0.6750099062919617,-0.526360273361206,164.11399841308594,-0.42319084583264266,-0.7640175047576324,-0.4517939964930217,-0.13217375138774526
1.1279475688934326,0.2385484278202057,164.01947021484375,-0.4305955403939718,-0.766240387547813,-0.4367693508664768,-0.13457218343392027
0.9372456073760986,0.7169581651687622,163.83763122558594,-0.4377316133822832,-0.7684169026471985,-0.41955940773089734,-0.12660962849234553
0.09538735449314117,0.40124592185020447,163.7664031982422,-0.44465255955544614,-0.7704494100604724,-0.4109541330486537,-0.11729126110052081
-1.710396409034729,0.998565137386322,163.6427764892578,-0.45161394851282244,-0.7723070553108119,-0.42441254183650023,-0.10562616894021642
-1.6509029865264893,-1.1274230480194092,163.51731872558594,-0.45892091444590033,-0.7740764399258316,-0.4524233701328437,-0.10669998486215881
0.22574572265148163,0.09430601447820663,163.44607543945312,-0.46656027320255017,-0.775926517245308,-0.46429968066513544,-0.11530929347500217
0.07359237223863602,-0.3039231300354004,163.48741149902344,-0.47427781384593504,-0.7778628955473607,-0.4618051965410511,-0.11705610277131212
0.6271606087684631,0.48882120847702026,163.5509490966797,-0.4819259037201604,-0.7798009904492129,-0.45596558836599194,-0.11551528545096529
0.9209338426589966,-0.1920761615037918,163.5550537109375,-0.48941782363380004,-0.7817056379118003,-0.4430648012707631,-0.11304241005952172
0.08012951165437698,0.5357404947280884,163.4237518310547,-0.4967327186998188,-0.7835658125007628,-0.434722606651485,-0.1101785406159859
-0.3719184994697571,1.8458563089370728,163.2967071533203,-0.5039983586014973,-0.7852367328441081,-0.4371541815499465,-0.0903319005854429
-0.41061854362487793,0.16534213721752167,163.4854736328125,-0.5039983586014973,-0.7852367328441081,-0.4371541815499465,-0.0903319005854429
-0.7817334532737732,-0.8569362759590149,163.62957763671875,-0.5039983586014973,-0.7852367328441081,-0.4371541815499465,-0.0903319005854429
0.3446572422981262,-0.0082670534029603,163.61302185058594,-0.5039983586014973,-0.7852367328441081,-0.4371541815499465,-0.0903319005854429
0.7578199505805969,0.13621416687965393,163.43064880371094,-0.5039983586014973,-0.7852367328441081,-0.4371541815499465,-0.0903319005854429
1.7355855703353882,-0.6276458501815796,162.94639587402344,-0.5039983586014973,-0.7852367328441081,-0.4371541815499465,-0.0903319005854429
3.000288248062134,0.9162796139717102,162.24215698242188,-0.5039983586014973,-0.7852367328441081,-0.4371541815499465,-0.0903319005854429
1.6616199016571045,-0.5396450757980347,161.36111450195312,-0.5039983586014973,-0.7852367328441081,-0.4371541815499465,-0.0903319005854429
1.460527777671814,0.08463892340660095,160.34002685546875,-0.5039983586014973,-0.7852367328441081,-0.4371541815499465,-0.0903319005854429
1.0007754564285278,0.038072336465120316,159.1572265625,-0.5039983586014973,-0.7852367328441081,-0.4371541815499465,-0.0903319005854429
1.1461070775985718,-0.07117084413766861,157.86166381835938,-0.5039983586014973,-0.7852367328441081,-0.4371541815499465,-0.0903319005854429
1.589877724647522,0.48770806193351746,156.45452880859375,-0.5039983586014973,-0.7852367328441081,-0.4371541815499465,-0.0903319005854429
1.1441787481307983,0.1326315701007843,154.9416961669922,-0.5039983586014973,-0.7852367328441081,-0.4371541815499465,-0.0903319005854429
1.3100682497024536,0.7348911762237549,153.3788604736328,-0.5039983586014973,-0.7852367328441081,-0.4371541815499465,-0.0903319005854429
1.134452223777771,-0.11837489157915115,151.7592010498047,-0.5039983586014973,-0.7852367328441081,-0.4371541815499465,-0.0903319005854429
1.6518723964691162,-0.1291157305240631,150.04974365234375,-0.5039983586014973,-0.7852367328441081,-0.4371541815499465,-0.0903319005854429
1.3110624551773071,-0.060859519988298416,148.2694854736328,-0.5039983586014973,-0.7852367328441081,-0.4371541815499465,-0.0903319005854429
1.284306287765503,0.11132513731718063,146.35598754882812,-0.5039983586014973,-0.7852367328441081,-0.4371541815499465,-0.0903319005854429
1.151479959487915,0.7091131806373596,144.3463592529297,-0.5039983586014973,-0.7852367328441081,-0.4371541815499465,-0.0903319005854429
0.5608388185501099,0.24126186966896057,142.2802276611328,-0.5039983586014973,-0.7852367328441081,-0.4371541815499465,-0.0903319005854429
0.4624958038330078,0.3394014537334442,140.19557189941406,-0.5039983586014973,-0.7852367328441081,-0.4371541815499465,-0.0903319005854429
0.8618764281272888,0.0323181077837944,138.13450622558594,-0.5039983586014973,-0.7852367328441081,-0.4371541815499465,-0.0903319005854429
0.88046795129776,0.3772672414779663,136.10049438476562,-0.5039983586014973,-0.7852367328441081,-0.4371541815499465,-0.0903319005854429
0.5649071335792542,0.39770811796188354,134.0992889404297,-0.5039983586014973,-0.7852367328441081,-0.4371541815499465,-0.0903319005854429
0.9913114905357361,-0.07194605469703674,132.0985565185547,-0.5039983586014973,-0.7852367328441081,-0.4371541815499465,-0.0903319005854429
1.6337491273880005,0.4136973023414612,130.07398986816406,-0.5039983586014973,-0.7852367328441081,-0.4371541815499465,-0.0903319005854429
-0.03329572454094887,-0.8615731000900269,128.0073699951172,-0.5039983586014973,-0.7852367328441081,-0.4371541815499465,-0.0903319005854429
1.6482164859771729,0.4666062891483307,125.91446685791016,-0.5039983586014973,-0.7852367328441081,-0.4371541815499465,-0.0903319005854429
0.6762416958808899,-0.40733039379119873,123.74993896484375,-0.5039983586014973,-0.7852367328441081,-0.4371541815499465,-0.0903319005854429
0.3508894145488739,-0.46132105588912964,121.58084869384766,-0.5039983586014973,-0.7852367328441081,-0.4371541815499465,-0.0903319005854429
1.3594279289245605,0.36128339171409607,119.41539764404297,-0.5039983586014973,-0.7852367328441081,-0.4371541815499465,-0.0903319005854429
0.777779757976532,0.9538021087646484,117.25858306884766,-0.5039983586014973,-0.7852367328441081,-0.4371541815499465,-0.0903319005854429
0.09943444281816483,0.302490770816803,115.11282348632812,-0.5039983586014973,-0.7852367328441081,-0.4371541815499465,-0.0903319005854429
1.1965734958648682,-0.3970359265804291,112.97900390625,-0.5039983586014973,-0.7852367328441081,-0.4371541815499465,-0.0903319005854429
0.3182951509952545,0.014151523821055889,110.81616973876953,-0.5039983586014973,-0.7852367328441081,-0.4371541815499465,-0.0903319005854429
1.116039752960205,-0.5854651927947998,108.65827941894531,-0.5039983586014973,-0.7852367328441081,-0.4371541815499465,-0.0903319005854429
-0.04753594845533371,0.29326948523521423,106.46072387695312,-0.5039983586014973,-0.7852367328441081,-0.4371541815499465,-0.0903319005854429
0.6230404376983643,-0.6310274600982666,104.2611312866211,-0.5039983586014973,-0.7852367328441081,-0.4371541815499465,-0.0903319005854429
0.2795432209968567,0.516030490398407,102.00657653808594,-0.5039983586014973,-0.7852367328441081,-0.4371541815499465,-0.0903319005854429
0.4384148418903351,-0.8111304640769958,99.73171997070312,-0.5039983586014973,-0.7852367328441081,-0.4371541815499465,-0.0903319005854429
0.08789520710706711,0.537402331829071,97.43242645263672,-0.5039983586014973,-0.7852367328441081,-0.4371541815499465,-0.0903319005854429
-1.1714982986450195,-0.6080631613731384,95.3504409790039,-0.5039983586014973,-0.7852367328441081,-0.4371541815499465,-0.0903319005854429
0.2083379328250885,0.390086829662323,93.33721160888672,-0.5039983586014973,-0.7852367328441081,-0.4371541815499465,-0.0903319005854429
0.10711890459060669,0.19575582444667816,91.46736145019531,-0.5039983586014973,-0.7852367328441081,-0.4371541815499465,-0.0903319005854429
1.0935072898864746,-0.8603546619415283,89.54698181152344,-0.5039983586014973,-0.7852367328441081,-0.4371541815499465,-0.0903319005854429
-0.19070178270339966,-0.5386505126953125,87.73104858398438,-0.5039983586014973,-0.7852367328441081,-0.4371541815499465,-0.0903319005854429
1.2062057256698608,0.7326531410217285,85.91417694091797,-0.5039983586014973,-0.7852367328441081,-0.4371541815499465,-0.0903319005854429
-0.12947700917720795,0.18848295509815216,84.26778411865234,-0.5039983586014973,-0.7852367328441081,-0.4371541815499465,-0.0903319005854429
0.19568723440170288,0.7045554518699646,83.06134033203125,-0.5039983586014973,-0.7852367328441081,-0.4371541815499465,-0.0903319005854429
-1.3982619047164917,0.7565538287162781,82.2546157836914,-0.5039983586014973,-0.7852367328441081,-0.4371541815499465,-0.0903319005854429
-1.3371573686599731,0.22999881207942963,81.83256530761719,-0.5039983586014973,-0.7852367328441081,-0.4371541815499465,-0.0903319005854429
-0.38981300592422485,-0.24886932969093323,81.68572235107422,-0.5039983586014973,-0.7852367328441081,-0.4371541815499465,-0.0903319005854429
-0.4107946753501892,-1.4377409219741821,81.58782196044922,-0.5039983586014973,-0.7852367328441081,-0.4371541815499465,-0.0903319005854429
0.12412677705287933,-1.2764986753463745,81.40959930419922,-0.5039983586014973,-0.7852367328441081,-0.4371541815499465,-0.0903319005854429
0.2693162262439728,-1.0075970888137817,81.30679321289062,-0.5039983586014973,-0.7852367328441081,-0.4371541815499465,-0.0903319005854429
0.6782816648483276,-0.0743015855550766,81.35086822509766,-0.5039983586014973,-0.7852367328441081,-0.4371541815499465,-0.0903319005854429
-0.1262669712305069,0.5711461901664734,81.39666748046875,-0.5039983586014973,-0.7852367328441081,-0.4371541815499465,-0.0903319005854429
0.29647165536880493,0.7157947421073914,81.39186096191406,-0.5039983586014973,-0.7852367328441081,-0.4371541815499465,-0.0903319005854429
0.40896856784820557,0.4519543945789337,81.39703369140625,-0.5039983586014973,-0.7852367328441081,-0.4371541815499465,-0.0903319005854429
0.1286030113697052,0.14940083026885986,81.39554595947266,-0.5039983586014973,-0.7852367328441081,-0.4371541815499465,-0.0903319005854429
0.13788866996765137,-0.08240596950054169,81.3783187866211,-0.5039983586014973,-0.7852367328441081,-0.4371541815499465,-0.0903319005854429
0.23814944922924042,-0.12755396962165833,81.38054656982422,-0.5039983586014973,-0.7852367328441081,-0.4371541815499465,-0.0903319005854429
0.16554105281829834,0.011663594283163548,81.3851318359375,-0.5039983586014973,-0.7852367328441081,-0.4371541815499465,-0.0903319005854429
0.18924841284751892,0.23393157124519348,81.38827514648438,-0.5039983586014973,-0.7852367328441081,-0.4371541815499465,-0.0903319005854429
0.2626384496688843,0.2622673213481903,81.39332580566406,-0.5039983586014973,-0.7852367328441081,-0.4371541815499465,-0.0903319005854429
0.1676913946866989,0.1462562084197998,81.3915023803711,-0.5039983586014973,-0.7852367328441081,-0.4371541815499465,-0.0903319005854429
0.22244682908058167,0.03841319680213928,81.387939453125,-0.5039983586014973,-0.7852367328441081,-0.4371541815499465,-0.0903319005854429
0.1825481653213501,0.032455816864967346,81.38839721679688,-0.5039983586014973,-0.7852367328441081,-0.4371541815499465,-0.0903319005854429
0.2007860243320465,0.11431395262479782,81.3895034790039,-0.5039983586014973,-0.7852367328441081,-0.4371541815499465,-0.0903319005854429
0.20981834828853607,0.18146739900112152,81.38902282714844,-0.5039983586014973,-0.7852367328441081,-0.4371541815499465,-0.0903319005854429
0.1956658959388733,0.1395033448934555,81.39080810546875,-0.5039983586014973,-0.7852367328441081,-0.4371541815499465,-0.0903319005854429
0.2049826681613922,0.08606443554162979,81.3895492553711,-0.5039983586014973,-0.7852367328441081,-0.4371541815499465,-0.0903319005854429
0.20422804355621338,0.07186325639486313,81.39105224609375,-0.5039983586014973,-0.7852367328441081,-0.4371541815499465,-0.0903319005854429
0.18783363699913025,0.10702741891145706,81.39137268066406,-0.5039983586014973,-0.7852367328441081,-0.4371541815499465,-0.0903319005854429
0.20234918594360352,0.15074101090431213,81.39148712158203,-0.5039983586014973,-0.7852367328441081,-0.4371541815499465,-0.0903319005854429
0.20869991183280945,0.14430338144302368,81.39041137695312,-0.5112557165510953,-0.7867217753266191,-0.43372877240180974,-0.08787319731588177
0.1627146601676941,0.13717804849147797,81.39031982421875,-0.5184587367458476,-0.7881667812936939,-0.4306336509684722,-0.08552751873309425
0.25261372327804565,0.4585195481777191,81.41719818115234,-0.5256071220131384,-0.7895508720505878,-0.4271725811064244,-0.08056337209418428
0.4582887589931488,0.6555162072181702,81.42620849609375,-0.5326772968036433,-0.7908162313246995,-0.42124839375416445,-0.07127974079921853
0.5231590867042542,2.749882459640503,81.33055114746094,-0.539629947265817,-0.7917677409861545,-0.4130696617066861,-0.042901418575396255
0.1132160946726799,2.8815648555755615,81.3189697265625,-0.5464702489066662,-0.7920916918988545,-0.4077665351952116,0.004027309051404283
0.22400645911693573,2.1648242473602295,81.46139526367188,-0.5532429395936843,-0.7916741263936272,-0.40495634724696483,0.04608055157586921
0.1776159107685089,0.5461618304252625,81.61328125,-0.5599643216054473,-0.7907178542786276,-0.40160949416458613,0.06867210222408164
1.1252739429473877,0.5289723873138428,81.62309265136719,-0.5665673347127934,-0.7894986571431055,-0.39075207871695367,0.07763155403857419
0.7339465618133545,0.8864666819572449,81.46752166748047,-0.5729507568230231,-0.7881065035293188,-0.3752585745106142,0.08942687961583326
0.051295097917318344,1.5323376655578613,81.27423858642578,-0.5791505357273854,-0.7864480830115885,-0.36871489401285856,0.10958358251179248
0.25550124049186707,0.8699839115142822,81.15006256103516,-0.5852744786596547,-0.7844548620824287,-0.36615825785944867,0.12960292898739367
0.3819504678249359,0.9568076729774475,81.08866882324219,-0.5913328488109012,-0.7821679527392713,-0.360846160290142,0.14482619219149143
-0.06808231770992279,1.509598731994629,81.0458755493164,-0.59732515508309,-0.7795829046468457,-0.35823059237251687,0.16537957889959207
-0.17467071115970612,0.8000892400741577,80.90658569335938,-0.6033125228051923,-0.7766661833337921,-0.36025353427976375,0.18462697866683195
0.6593357920646667,0.7259838581085205,80.8960189819336,-0.6092830910792366,-0.7734830897241933,-0.35621465860555573,0.19734425448502094
0.013284310698509216,0.6229210495948792,80.94892120361328,-0.6092830910792366,-0.7734830897241933,-0.35621465860555573,0.19734425448502094
0.7609339952468872,1.0365498065948486,80.98023986816406,-0.6151662368958608,-0.7700787777844298,-0.3497628393893441,0.211173178286602
0,0.8178568482398987,80.92813110351562,-0.620942774913791,-0.7664304465730674,-0.3434217227622867,0.22662656707689158
0.3936043381690979,-0.0791691467165947,80.93733215332031,-0.6266391366585674,-0.7626020393647356,-0.34014168661087757,0.2327822979229191
0,-0.09094320237636566,81.05233764648438,-0.6322808311341537,-0.7587341477569295,-0.3368616504594684,0.2313646950138111
0.5532097816467285,0.6408485174179077,81.14446258544922,-0.6378567746291971,-0.7548398816375992,-0.3322515689457457,0.23594723930582395
1.0662195682525635,0.4855513274669647,81.20895385742188,-0.643281840406772,-0.7508292054377185,-0.3187563243632516,0.24533390467986455
-0.7867369055747986,0.9482845664024353,81.35396575927734,-0.6485750372945848,-0.7466407350893132,-0.3164273021742702,0.2572825371287762
0.5913909077644348,0.8205797672271729,81.4171142578125,-0.6538623913584484,-0.7422298550028871,-0.3180551854893565,0.27202307324235625
-0.12620937824249268,0.357991486787796,81.43301391601562,-0.6591310068437208,-0.7376142918895412,-0.3141786727433403,0.28184450035914765
-0.4206028878688812,0.94487464427948,81.40936279296875,-0.6644052911301453,-0.7328264067355647,-0.31873544162760176,0.29270171811804163
0.8105409145355225,0.9291388392448425,81.34099578857422,-0.6696904694609758,-0.7278179049416859,-0.31548595807204644,0.308318497147411
0.10512589663267136,0.3155728578567505,81.20909881591797,-0.6748849807891788,-0.7225928250102636,-0.3078554013123115,0.3186910946232576
-0.10251667350530624,0.5961426496505737,81.11993408203125,-0.6800157229483335,-0.7172179931896324,-0.3078336577862501,0.3262887238524853
-0.3024733364582062,-0.16025926172733307,81.0806655883789,-0.685174408217685,-0.7117495781123742,-0.311208574535946,0.32992108541851234
1.119128704071045,0.9110461473464966,81.05084228515625,-0.6903045056149777,-0.706198755377231,-0.30440311313917234,0.336177642798672
1.57499098777771,0.2321806102991104,81.05255126953125,-0.6903045056149777,-0.706198755377231,-0.30440311313917234,0.336177642798672
0,-0.18520069122314453,81.06501770019531,-0.6952685164598127,-0.7005925321695395,-0.29127818824102475,0.33656914212430505
-1.1663929224014282,0.6713951826095581,81.05890655517578,-0.7002041524389966,-0.6949492829611215,-0.30099812926103664,0.3406207628858585
0,0.3604649603366852,80.9227066040039,-0.7053017874351807,-0.6892006132919859,-0.31071807028104853,0.34921959741041053
0.5828989148139954,-1.958797574043274,80.74784851074219,-0.7104399428485583,-0.6834912819888753,-0.30586057932426525,0.33590015896285563
-0.4840424358844757,0.3403189182281494,80.70923614501953,-0.7155307541373703,-0.6780053403572593,-0.3050367753331859,0.3224128368310629
0.37099340558052063,0.06494198739528656,80.73074340820312,-0.7206225510200279,-0.6726036499582956,-0.3059788505857189,0.32579001104459154
1.4140743017196655,0.07307447493076324,80.73224639892578,-0.7255982354945607,-0.6671642319643353,-0.29110328635821736,0.32694014823064194
-0.5149694085121155,1.9181448221206665,80.56302642822266,-0.7303875190940583,-0.6615769503759737,-0.2836107455814878,0.3435336423727372
1.0443681478500366,0,80.4405288696289,-0.7350776010524068,-0.6557181851682253,-0.27919908942033844,0.35951818255707607
0.4115002453327179,0.2651701867580414,80.46813201904297,-0.7396298172376636,-0.6497078008626381,-0.26706685281048215,0.3617279341133931
0.1457458734512329,0.16736775636672974,80.45533752441406,-0.7440422338040339,-0.6436489646035868,-0.2624231351539492,0.3653324169727662
-0.3599544167518616,0.6351257562637329,80.41986083984375,-0.7484308283165512,-0.6375043622712191,-0.26420820634812114,0.37201986291135336
1.1301326751708984,-0.16862764954566956,80.42213439941406,-0.7527808138210741,-0.6312716355208411,-0.2577900541946292,0.37590734713400387
0.11174306273460388,0.5487051606178284,80.31855773925781,-0.75699107335363,-0.6249801187970054,-0.24744108971208334,0.37907465972627186
-0.43710851669311523,0.3969365358352661,80.23798370361328,-0.75699107335363,-0.6249801187970054,-0.24744108971208334,0.37907465972627186
-0.2160833328962326,-0.3551029562950134,80.18440246582031,-0.7611604520606085,-0.6186593026918773,-0.2528843551253279,0.3794232728891073
-0.16040584444999695,0.22199063003063202,80.12010192871094,-0.7654013363944574,-0.612344825388605,-0.2560217649365465,0.3783140035035708
1.5224348306655884,-1.7092026472091675,80.04583740234375,-0.7695737804638015,-0.6061428706091829,-0.2446715233847499,0.365920570027083
0.45689284801483154,-1.1734660863876343,79.96928405761719,-0.7735141858758612,-0.6002443797707869,-0.22817712606241308,0.341898330580443
-0.13860510289669037,-0.3756851255893707,80.00611114501953,-0.7772950346612681,-0.594653654206389,-0.22552472818642857,0.3289887371473013
-0.11521391570568085,1.3264578580856323,80.15252685546875,-0.7810714064517782,-0.5891044827030663,-0.22763988667478166,0.3369118432514368
0.5529643297195435,1.526523232460022,80.18814086914062,-0.7848350052287181,-0.5832911616286989,-0.22399196655799947,0.3606866856726506
-0.2135966569185257,0.3655361831188202,80.17543029785156,-0.7885446374718513,-0.5771483238525172,-0.221163902617991,0.37645384746914096
-0.11302696913480759,0.1533202975988388,80.20247650146484,-0.7922533847117382,-0.5708380613613151,-0.22388576616843542,0.38077765147512144
-0.5874758362770081,0.7302509546279907,80.24610900878906,-0.7960334601760324,-0.5644304080553251,-0.22972328954686722,0.38814074524367836
0.6091159582138062,0.0953701063990593,80.2526626586914,-0.7998606788822346,-0.5579040608386925,-0.2295429551973939,0.3950209207522371
0.6722516417503357,0.9496102333068848,80.16932678222656,-0.8035974109410825,-0.5512478107470089,-0.2188648918643594,0.40372909024978665
-0.5512464046478271,-0.19940651953220367,80.07798767089844,-0.8072367559973563,-0.5444668950960558,-0.21785651488850516,0.40998078786457565
0.10037709772586823,-0.16095326840877533,79.99652862548828,-0.810899008280701,-0.5376589069502532,-0.22161375911285483,0.40697778963173414
2.4775896072387695,-0.008145922794938087,79.96318817138672,-0.810899008280701,-0.5376589069502532,-0.22161375911285483,0.40697778963173414
-0.5470775961875916,-0.0869331881403923,79.92433166503906,-0.8144585075984812,-0.5308825465057615,-0.20552615902076168,0.40618546370727304
-1.0154389142990112,0.5007418394088745,79.89444732666016,-0.8179924516731665,-0.5240840520654133,-0.21854712994148337,0.4096338691345104
-0.1427634060382843,-1.2697893381118774,79.73091888427734,-0.8217153345555479,-0.5173102269894703,-0.22819881594429417,0.403225139978652
0.058064550161361694,-0.20551477372646332,79.69689178466797,-0.8255245300196109,-0.5106922596642592,-0.22890463974326852,0.3909309390466658
0.6516602635383606,-0.09980413317680359,79.66101837158203,-0.8292903209032696,-0.5041979467153498,-0.22299026629577084,0.38838661482247194
0.8887745141983032,0.8696986436843872,79.6102066040039,-0.8328998507041896,-0.49767137157174557,-0.21015330981463198,0.3948024024100351
0.24214784801006317,0.9375760555267334,79.5679931640625,-0.8363238695926134,-0.4909658263441331,-0.20072895679622893,0.4098630249034611
0.10176189988851547,-0.1334161013364792,79.48961639404297,-0.839645469584502,-0.4840789314878122,-0.19786304223040743,0.41656435785504653
0.07897114008665085,-0.147722065448761,79.46248626708984,-0.842930636049455,-0.47715571567403264,-0.1963569335639477,0.41422153979850285
0.6100260019302368,0.31833451986312866,79.44143676757812,-0.8461554045851029,-0.4702401752569455,-0.19061529071380698,0.4156433102519559
0.18236438930034637,0.8797771334648132,79.43452453613281,-0.8492772989864975,-0.46322958455459845,-0.18401203745355213,0.42562757402968876
0.25176575779914856,0.17292346060276031,79.47981262207031,-0.8523140183505081,-0.4560626874461823,-0.180394286227723,0.43440007898025185
0.37400850653648376,-0.257529616355896,79.39321899414062,-0.8552771332415025,-0.4488285615573276,-0.17517950069159272,0.43369502768230905
0,0.19900274276733398,79.27642059326172,-0.8581708187734084,-0.4416043754621772,-0.17206276313712202,0.4332073037357377
-0.3673117160797119,0.2589315176010132,79.17581176757812,-0.8581708187734084,-0.4416043754621772,-0.17206276313712202,0.4332073037357377
0.4570164680480957,-0.042786646634340286,79.13677978515625,-0.8581708187734084,-0.4416043754621772,-0.17206276313712202,0.4332073037357377
1.608919620513916,-0.5562374591827393,79.06436920166016,-0.8581708187734084,-0.4416043754621772,-0.17206276313712202,0.4332073037357377
-0.09623270481824875,0.09540726989507675,78.96857452392578,-0.8581708187734084,-0.4416043754621772,-0.17206276313712202,0.4332073037357377
-0.6529159545898438,-0.9622193574905396,78.63539123535156,-0.8581708187734084,-0.4416043754621772,-0.17206276313712202,0.4332073037357377
-0.16170130670070648,-4.068581581115723,77.98442840576172,-0.8581708187734084,-0.4416043754621772,-0.17206276313712202,0.4332073037357377
-0.1316143125295639,-2.074634075164795,76.96219635009766,-0.8581708187734084,-0.4416043754621772,-0.17206276313712202,0.4332073037357377
-0.6221189498901367,-1.4786003828048706,75.71170043945312,-0.8581708187734084,-0.4416043754621772,-0.17206276313712202,0.4332073037357377
-1.1150201559066772,-1.3395915031433105,74.28619384765625,-0.8581708187734084,-0.4416043754621772,-0.17206276313712202,0.4332073037357377
-0.5877067446708679,-2.0227670669555664,72.68790435791016,-0.8581708187734084,-0.4416043754621772,-0.17206276313712202,0.4332073037357377
0.044370386749506,-1.4463979005813599,70.95091247558594,-0.8581708187734084,-0.4416043754621772,-0.17206276313712202,0.4332073037357377
-0.4109203517436981,-0.9703771471977234,69.10718536376953,-0.8581708187734084,-0.4416043754621772,-0.17206276313712202,0.4332073037357377
0.6418571472167969,-1.0651021003723145,67.25849914550781,-0.8581708187734084,-0.4416043754621772,-0.17206276313712202,0.4332073037357377
1.2899060249328613,-0.3669404089450836,65.45822143554688,-0.8581708187734084,-0.4416043754621772,-0.17206276313712202,0.4332073037357377
0.7985338568687439,-0.4149441123008728,63.80227279663086,-0.8581708187734084,-0.4416043754621772,-0.17206276313712202,0.4332073037357377
0.6466063857078552,-0.3849758505821228,62.25147247314453,-0.8581708187734084,-0.4416043754621772,-0.17206276313712202,0.4332073037357377
1.778546929359436,-0.6592033505439758,60.77109146118164,-0.8581708187734084,-0.4416043754621772,-0.17206276313712202,0.4332073037357377
0.5473432540893555,-0.03778316453099251,59.34465789794922,-0.8581708187734084,-0.4416043754621772,-0.17206276313712202,0.4332073037357377
1.1239444017410278,-0.8297579884529114,57.95551681518555,-0.8581708187734084,-0.4416043754621772,-0.17206276313712202,0.4332073037357377
-0.23724941909313202,-1.1257365942001343,56.53400421142578,-0.8581708187734084,-0.4416043754621772,-0.17206276313712202,0.4332073037357377
0.4559210240840912,-0.7450871467590332,55.100440979003906,-0.8581708187734084,-0.4416043754621772,-0.17206276313712202,0.4332073037357377
1.112692952156067,-0.4953112006187439,53.709930419921875,-0.8581708187734084,-0.4416043754621772,-0.17206276313712202,0.4332073037357377
-0.4838963747024536,-0.3953962028026581,52.330684661865234,-0.8581708187734084,-0.4416043754621772,-0.17206276313712202,0.4332073037357377
1.2212581634521484,-1.101398229598999,50.92417907714844,-0.8581708187734084,-0.4416043754621772,-0.17206276313712202,0.4332073037357377
0.5286337733268738,-0.41243284940719604,49.513484954833984,-0.8581708187734084,-0.4416043754621772,-0.17206276313712202,0.4332073037357377
1.091025471687317,-0.5496845841407776,48.0918083190918,-0.8581708187734084,-0.4416043754621772,-0.17206276313712202,0.4332073037357377
-0.5152473449707031,-0.3410089612007141,46.60036849975586,-0.8581708187734084,-0.4416043754621772,-0.17206276313712202,0.4332073037357377
0.48536619544029236,-0.8307855129241943,45.08393096923828,-0.8581708187734084,-0.4416043754621772,-0.17206276313712202,0.4332073037357377
1.3987586498260498,0.18465645611286163,43.63515853881836,-0.8581708187734084,-0.4416043754621772,-0.17206276313712202,0.4332073037357377
-1.1029287576675415,-0.03409712761640549,42.21103286743164,-0.8581708187734084,-0.4416043754621772,-0.17206276313712202,0.4332073037357377
0.3615196943283081,-1.0322381258010864,40.773956298828125,-0.8581708187734084,-0.4416043754621772,-0.17206276313712202,0.4332073037357377
0.5860273241996765,0.5694820880889893,39.47069549560547,-0.8581708187734084,-0.4416043754621772,-0.17206276313712202,0.4332073037357377
-2.040276050567627,0.3374519646167755,38.17570877075195,-0.8581708187734084,-0.4416043754621772,-0.17206276313712202,0.4332073037357377
1.9728925228118896,-0.6379693746566772,36.86008071899414,-0.8581708187734084,-0.4416043754621772,-0.17206276313712202,0.4332073037357377
0.08741088956594467,0.5591637492179871,35.700809478759766,-0.8581708187734084,-0.4416043754621772,-0.17206276313712202,0.4332073037357377
-0.4993274509906769,-1.5299824476242065,34.53585433959961,-0.8581708187734084,-0.4416043754621772,-0.17206276313712202,0.4332073037357377
0.04838279262185097,-0.32594895362854004,33.34922409057617,-0.8581708187734084,-0.4416043754621772,-0.17206276313712202,0.4332073037357377
0.016624370589852333,0.1333349496126175,31.979249954223633,-0.8581708187734084,-0.4416043754621772,-0.17206276313712202,0.4332073037357377
0.8894262909889221,-0.6032944321632385,30.600900650024414,-0.8581708187734084,-0.4416043754621772,-0.17206276313712202,0.4332073037357377
-0.7420026659965515,0.16723473370075226,29.315073013305664,-0.8581708187734084,-0.4416043754621772,-0.17206276313712202,0.4332073037357377
0.8200441598892212,0.3815959095954895,28.032428741455078,-0.8581708187734084,-0.4416043754621772,-0.17206276313712202,0.4332073037357377
-0.02973964624106884,-0.26999855041503906,26.739290237426758,-0.8581708187734084,-0.4416043754621772,-0.17206276313712202,0.4332073037357377
0.754654049873352,0.040666040033102036,25.459131240844727,-0.8581708187734084,-0.4416043754621772,-0.17206276313712202,0.4332073037357377
-0.06734378635883331,-0.5369412302970886,24.16535758972168,-0.8581708187734084,-0.4416043754621772,-0.17206276313712202,0.4332073037357377
0.6424376368522644,-0.7831148505210876,22.867952346801758,-0.8581708187734084,-0.4416043754621772,-0.17206276313712202,0.4332073037357377
-0.3474327027797699,-0.14560911059379578,21.53784942626953,-0.8581708187734084,-0.4416043754621772,-0.17206276313712202,0.4332073037357377
0.15798144042491913,-0.4165772795677185,20.165555953979492,-0.8581708187734084,-0.4416043754621772,-0.17206276313712202,0.4332073037357377
0.1570730358362198,0.016398558393120766,18.831130981445312,-0.8581708187734084,-0.4416043754621772,-0.17206276313712202,0.4332073037357377
0.4682878255844116,-0.11879192292690277,17.47264289855957,-0.8581708187734084,-0.4416043754621772,-0.17206276313712202,0.4332073037357377
-0.5214081406593323,-0.3725365996360779,16.06666374206543,-0.8581708187734084,-0.4416043754621772,-0.17206276313712202,0.4332073037357377
0.13511040806770325,-0.3465106189250946,14.6628999710083,-0.8581708187734084,-0.4416043754621772,-0.17206276313712202,0.4332073037357377
0.20570619404315948,-0.2178671658039093,13.320821762084961,-0.8581708187734084,-0.4416043754621772,-0.17206276313712202,0.4332073037357377
0.4354380965232849,-0.37203603982925415,11.86833667755127,-0.8581708187734084,-0.4416043754621772,-0.17206276313712202,0.4332073037357377
0.2824789583683014,-0.3606530427932739,10.387768745422363,-0.8581708187734084,-0.4416043754621772,-0.17206276313712202,0.4332073037357377
0.45463475584983826,0.43942421674728394,8.941239356994629,-0.8581708187734084,-0.4416043754621772,-0.17206276313712202,0.4332073037357377
-0.11462932825088501,-0.2753976583480835,7.469168663024902,-0.8581708187734084,-0.4416043754621772,-0.17206276313712202,0.4332073037357377
0.128116175532341,-0.615567147731781,5.982574939727783,-0.8581708187734084,-0.4416043754621772,-0.17206276313712202,0.4332073037357377
-0.16776147484779358,0.06138266995549202,4.369083881378174,-0.8581708187734084,-0.4416043754621772,-0.17206276313712202,0.4332073037357377
-1.0035631656646729,-0.6352592706680298,2.7182233333587646,-0.8581708187734084,-0.4416043754621772,-0.17206276313712202,0.4332073037357377
-0.8454621434211731,-0.03386310860514641,0.9125680327415466,-0.8581708187734084,-0.4416043754621772,-0.17206276313712202,0.4332073037357377
-0.25854647159576416,-0.51242995262146,-0.9203945994377136,-0.8581708187734084,-0.4416043754621772,-0.17206276313712202,0.4332073037357377
-0.3476821780204773,-0.3120709955692291,-2.4864892959594727,-0.8581708187734084,-0.4416043754621772,-0.17206276313712202,0.4332073037357377
0.9113861918449402,0.5961241126060486,-3.83121657371521,-0.8581708187734084,-0.4416043754621772,-0.17206276313712202,0.4332073037357377
-0.4627162218093872,1.2679723501205444,-4.939175128936768,-0.8581708187734084,-0.4416043754621772,-0.17206276313712202,0.4332073037357377
-0.05379613861441612,0.5373953580856323,-5.701528549194336,-0.8581708187734084,-0.4416043754621772,-0.17206276313712202,0.4332073037357377
-0.2892270088195801,0.8710284233093262,-6.0949625968933105,-0.8581708187734084,-0.4416043754621772,-0.17206276313712202,0.4332073037357377
-0.854495108127594,0.9266707301139832,-6.33103609085083,-0.8581708187734084,-0.4416043754621772,-0.17206276313712202,0.4332073037357377
-1.2608345746994019,-0.21849791705608368,-6.479037284851074,-0.8581708187734084,-0.4416043754621772,-0.17206276313712202,0.4332073037357377
-0.8221094608306885,0.430290549993515,-6.460165023803711,-0.8581708187734084,-0.4416043754621772,-0.17206276313712202,0.4332073037357377
-0.32463228702545166,-0.0026200830470770597,-6.450097560882568,-0.8581708187734084,-0.4416043754621772,-0.17206276313712202,0.4332073037357377
-0.02240661531686783,-0.1274872124195099,-6.432382583618164,-0.8581708187734084,-0.4416043754621772,-0.17206276313712202,0.4332073037357377
0.7039782404899597,-0.1643303781747818,-6.434913158416748,-0.8581708187734084,-0.4416043754621772,-0.17206276313712202,0.4332073037357377
0.6859943270683289,-0.1354333460330963,-6.42530632019043,-0.8581708187734084,-0.4416043754621772,-0.17206276313712202,0.4332073037357377
0.09351596236228943,-0.04911944642663002,-6.428729057312012,-0.8581708187734084,-0.4416043754621772,-0.17206276313712202,0.4332073037357377
-0.2540932297706604,-0.20160016417503357,-6.43526029586792,-0.8581708187734084,-0.4416043754621772,-0.17206276313712202,0.4332073037357377
-0.13593639433383942,-0.0036881170235574245,-6.42907190322876,-0.8581708187734084,-0.4416043754621772,-0.17206276313712202,0.4332073037357377
0.2531585395336151,-0.17588858306407928,-6.433462619781494,-0.8581708187734084,-0.4416043754621772,-0.17206276313712202,0.4332073037357377
0.39615070819854736,-0.08866290748119354,-6.427978515625,-0.8581708187734084,-0.4416043754621772,-0.17206276313712202,0.4332073037357377
0.12179010361433029,-0.11679217219352722,-6.42846155166626,-0.8581708187734084,-0.4416043754621772,-0.17206276313712202,0.4332073037357377
-0.07254716753959656,-0.10394875705242157,-6.429664134979248,-0.8581708187734084,-0.4416043754621772,-0.17206276313712202,0.4332073037357377
0.03963576257228851,-0.1253557950258255,-6.428678512573242,-0.8581708187734084,-0.4416043754621772,-0.17206276313712202,0.4332073037357377
0.2464427798986435,-0.0826435312628746,-6.428334712982178,-0.8581708187734084,-0.4416043754621772,-0.17206276313712202,0.4332073037357377
0.23172292113304138,-0.11327407509088516,-6.4274396896362305,-0.8581708187734084,-0.4416043754621772,-0.17206276313712202,0.4332073037357377
0.0698246955871582,-0.09578847140073776,-6.4270524978637695,-0.8581708187734084,-0.4416043754621772,-0.17206276313712202,0.4332073037357377
0.004849672317504883,-0.11671017110347748,-6.42692232131958,-0.8581708187734084,-0.4416043754621772,-0.17206276313712202,0.4332073037357377
0.14654536545276642,-0.1083102598786354,-6.427709102630615,-0.8581708187734084,-0.4416043754621772,-0.17206276313712202,0.4332073037357377
0.1996208131313324,-0.10225928574800491,-6.426519393920898,-0.8581708187734084,-0.4416043754621772,-0.17206276313712202,0.4332073037357377
0.13326258957386017,-0.1167602613568306,-6.426599025726318,-0.8581708187734084,-0.4416043754621772,-0.17206276313712202,0.4332073037357377
0.07063193619251251,-0.09192532300949097,-6.425861358642578,-0.8610243721502934,-0.4343987457877181,-0.1703636420890689,0.43146825719935167
0.08597667515277863,-0.10429133474826813,-6.425634384155273,-0.8638528905871011,-0.42722123432451764,-0.16905857032785815,0.42983311838470367
0.3914324939250946,-0.07224354892969131,-6.428703784942627,-0.8666373800113795,-0.420069608385028,-0.16508016058554253,0.42836199435405403
0.44242745637893677,-0.6283368468284607,-6.427380084991455,-0.8693308090801452,-0.4129788932288325,-0.15813132766634228,0.4225238243894028
0.8172707557678223,0,-6.465326309204102,-0.8718788521654073,-0.4059804639922611,-0.14763384256511927,0.4172876839991656
2.182812213897705,0.6931613683700562,-6.3685383796691895,-0.8741310771130436,-0.39897753305280487,-0.12263315115123988,0.42306402873558274
2.0627968311309814,0.19051387906074524,-6.032705783843994,-0.875880129004104,-0.3918650995705847,-0.08725307577600083,0.4304279891308394
0.48275065422058105,0.08008600771427155,-5.656658172607422,-0.8771575728027767,-0.3846725080929335,-0.06604018006473782,0.4326829881872979
0,-0.8662410378456116,-5.3937764167785645,-0.8782247181195348,-0.37751571905579323,-0.06201725794623297,0.42613169626953673
0.8955271244049072,-0.6418902277946472,-5.187326908111572,-0.8791961497016662,-0.3705182554558593,-0.05455453190952542,0.4135639357225346
1.8337117433547974,0.17467321455478668,-4.973133087158203,-0.8799158614232305,-0.3636579688197365,-0.031810874678194545,0.4096704606122024
2.33343505859375,-0.884120762348175,-4.863739967346191,-0.8801566574732873,-0.3568793950003521,0.0029153486713766816,0.4037583977139242
1.1863770484924316,0.34150829911231995,-4.825926780700684,-0.879863636932439,-0.3501877697928447,0.0322471162304282,0.39923662718695874
0.15330496430397034,-0.45835065841674805,-4.728715419769287,-0.8792331515221543,-0.34354194005912486,0.04341113300373155,0.3982629408594218
0.8915414214134216,-1.191155195236206,-4.6092023849487305,-0.8792331515221543,-0.34354194005912486,0.04341113300373155,0.3982629408594218
-0.5467082858085632,1.0722596645355225,-4.643581867218018,-0.8784856858932306,-0.33691248101221094,0.046284742467105365,0.39727214477024947
0.45935800671577454,-0.13740189373493195,-4.771796703338623,-0.8777203395103825,-0.33022635792084565,0.045556823474665456,0.40506262619358774
-0.6818181872367859,-0.2690201997756958,-4.863919734954834,-0.8769765077427853,-0.3235035379074463,0.04370298863699036,0.4016757754143325
0.11598493903875351,0,-4.953503131866455,-0.8762874185744048,-0.3168276236088585,0.03898771156867342,0.3994339404162017
2.084620714187622,-1.3788325786590576,-5.120418548583984,-0.875484803544564,-0.31026614353099535,0.05732609201222655,0.38794366892737625
2.4026756286621094,0.8289048075675964,-5.209759712219238,-0.8742177508761068,-0.3038386051440871,0.09472022820264098,0.3833609375016141
1.4875116348266602,0.6362677812576294,-5.21038293838501,-0.8723689285127649,-0.2973475080892807,0.12713845539838073,0.3955707090751576
-0.11549699306488037,-0.41234347224235535,-5.23382568359375,-0.8701546754615584,-0.2907391126387909,0.13857191074639555,0.39743674498361825
0.15645073354244232,-0.9939525127410889,-5.384011745452881,-0.8678422996060298,-0.28421282633246553,0.1389131919170419,0.3857176117754229
1.4127250909805298,1.047790288925171,-5.4522013664245605,-0.865418109197376,-0.2777804607350846,0.1519896571214,0.38616625991029024
0.5887742638587952,-0.42246899008750916,-5.551578044891357,-0.8627459552346,-0.2713009313130494,0.1686688184117277,0.3913772707339374
1.4274332523345947,-1.0660868883132935,-5.564135551452637,-0.8597947938502244,-0.2648813487368172,0.1854705477133393,0.3789726384139307
1.4216883182525635,-0.08147969841957092,-5.550895690917969,-0.856505762390378,-0.25864483022066365,0.2092132274682323,0.36940958352449016
-1.0445984601974487,-0.37895330786705017,-5.586106777191162,-0.8529926884702091,-0.2525199783429143,0.21235564295202491,0.365572641805435
0.7189470529556274,-1.0497784614562988,-5.709003448486328,-0.8494760424354005,-0.24652631846347114,0.20964188122500974,0.3536665437277404
0.14147622883319855,0.26605042815208435,-5.854225158691406,-0.8494760424354005,-0.24652631846347114,0.20964188122500974,0.3536665437277404
1.0776026248931885,0.9864152073860168,-5.964754581451416,-0.8458973528279193,-0.2405448992877631,0.21980087167272963,0.3641037573572246
-1.3013508319854736,1.1556782722473145,-6.014520645141602,-0.8422495430366441,-0.23432774684016816,0.21793630328029392,0.38195453635416904
-0.8049672245979309,-0.4351765513420105,-6.0660176277160645,-0.8387635434025686,-0.22791180305920247,0.20038365280876555,0.3879587173617132
0.38307997584342957,-0.3109309673309326,-6.045764446258545,-0.8354531135813639,-0.22149763745863732,0.19686792573581138,0.38174115470610537
-0.23669776320457458,-0.9272047281265259,-6.068692207336426,-0.8321618160543338,-0.2152212665257201,0.19808777750780185,0.37142335724395986
1.2031745910644531,-0.5460290312767029,-6.1877241134643555,-0.8287932366494913,-0.20913318513827933,0.20614175107330085,0.35914640924893293
1.3741391897201538,-0.4386754631996155,-6.148744583129883,-0.825178560674604,-0.20321579390735797,0.22761936591317258,0.35094053846163026
0,-0.24180634319782257,-5.988860607147217,-0.8212894782434317,-0.19741404061399728,0.2390705258275072,0.3452698567416516
0.39014020562171936,-0.14813938736915588,-5.945542812347412,-0.8172778764098051,-0.19168662256625912,0.2423216942076882,0.3420203089869268
0.46540018916130066,0.5044382810592651,-5.999217987060547,-0.8131797689789282,-0.1859615411044152,0.2494511974975467,0.3449894664343444
-0.08150606602430344,-0.4173778295516968,-6.0098042488098145,-0.808995589706529,-0.18020567079915478,0.252650315190355,0.3457149701969075
1.0423861742019653,0.129597470164299,-5.949472427368164,-0.804718023334733,-0.174463739376386,0.2606576494251689,0.34331680053534586
0.6095713376998901,0.41544660925865173,-5.877933025360107,-0.800259009905987,-0.16870394241750367,0.27442396202435104,0.3478588345305371
-0.11019470542669296,-1.1220650672912598,-5.876426696777344,-0.7956505982727844,-0.1629553659015803,0.278585433959961,0.3419703473802654
0.14192090928554535,-0.0869404748082161,-5.960913181304932,-0.7910053044981837,-0.15733981883011056,0.2788498189921181,0.3318953011961031
0.3028824031352997,0.9935178756713867,-6.01037073135376,-0.7910053044981837,-0.15733981883011056,0.2788498189921181,0.3318953011961031
0.5553710460662842,0.5929753184318542,-6.031924247741699,-0.7862982065810095,-0.15169805733836278,0.28600193106879795,0.34511607781363013
-0.5033398866653442,-0.6208194494247437,-6.082796573638916,-0.7815278944549044,-0.14594805632834346,0.2864355240638058,0.3448840433886894
-1.5011810064315796,-0.9491804838180542,-6.271964073181152,-0.7768931718936394,-0.14030901671167384,0.2697311832879981,0.33180071061166605
-2.044367551803589,-0.4446262717247009,-6.416249752044678,-0.7726438708220502,-0.13487579700394764,0.24018494530270504,0.3201856543154764
0.8440978527069092,0.07901767641305923,-6.468204021453857,-0.7687241404627757,-0.12956475891780855,0.2301826978102327,0.31713891602121275
1.3844130039215088,-0.6985668540000916,-6.628035068511963,-0.7647330044675615,-0.12432213456589855,0.24875362161546952,0.3119760062079875
1.3102920055389404,-0.1186450645327568,-6.8473429679870605,-0.7603999784816468,-0.11917928529010799,0.2712094966943066,0.30516590688688044
0.532490074634552,-0.09946677088737488,-6.751510143280029,-0.7557518492256184,-0.11410833349723082,0.2865660140290857,0.30334830825837933
0.328869491815567,0.8760425448417664,-6.602593898773193,-0.7509159323552413,-0.10899859948639988,0.29374401041617004,0.30981977304133257
0.6106784343719482,-0.6678290963172913,-6.678748607635498,-0.7459549524645421,-0.10382047733511902,0.3015735764677327,0.31155488511236984
0.43744510412216187,-0.2952514588832855,-6.867634296417236,-0.74085593983324,-0.09869477651069068,0.31030793928851697,0.3035292138190317
0.5340698957443237,0.43652892112731934,-6.908934116363525,-0.7356166745256629,-0.09362614534549543,0.3184038976207377,0.3047065260043986
0,-0.9435933828353882,-6.899688720703125,-0.7302728547114462,-0.08858291605526296,0.32285448008527373,0.30048098882349805
-0.3934904634952545,-1.1256951093673706,-6.956108570098877,-0.7249192724366565,-0.08371860016460762,0.31957539288947995,0.28323691805514173
0.23312795162200928,0.3038005828857422,-7.138680934906006,-0.7196041521740453,-0.07905506087247204,0.3182390386238696,0.27638779700112814
0.6977241635322571,-0.3408358693122864,-7.24202823638916,-0.7196041521740453,-0.07905506087247204,0.3182390386238696,0.27638779700112814
1.062166690826416,0.6306567788124084,-7.374769687652588,-0.714177953554317,-0.07442847113707128,0.3329047957435252,0.2788029712469625
-0.8634338974952698,0.8687777519226074,-7.366427421569824,-0.7086157394034992,-0.0696776275516542,0.3345609023546181,0.29129825900308765
-1.704256296157837,0.18598636984825134,-7.406647205352783,-0.7032180361832593,-0.06474940905981309,0.31316348407417555,0.3000879600178448
-1.1222840547561646,-0.4771203100681305,-7.503057479858398,-0.6981949323063921,-0.05976816069425317,0.2896089811498922,0.29766184384934585
-0.7984936237335205,-0.9905072450637817,-7.574722766876221,-0.6935015032926779,-0.05490904854364823,0.2736025004958115,0.2854316142232466
0.5384968519210815,-0.22602255642414093,-7.613007545471191,-0.6889595169491236,-0.05023633620947523,0.2714358607307078,0.2752938658775139
1.833281397819519,-1.1226472854614258,-7.616628170013428,-0.6842708791140465,-0.04574176273942538,0.2912006794785461,0.26405495052846756
0.5818020105361938,0,-7.543882369995117,-0.6792498203304904,-0.041418808514330184,0.311326374548177,0.25469955648295567
0.4914392828941345,0.9073723554611206,-7.486911296844482,-0.673986516775977,-0.03711080393715168,0.3202700519934298,0.262260992778465
-0.7923303842544556,0.25502756237983704,-7.451335430145264,-0.6686695777914587,-0.0326590651743272,0.31776262614876044,0.27194765876047294
0.5388660430908203,-0.3017028868198395,-7.476841449737549,-0.6633911357126713,-0.028129845536960983,0.3156504233057301,0.2715586977234729
0.8286195397377014,-0.14344897866249084,-7.494633674621582,-0.6580353310476571,-0.023634780565561595,0.3270461364959678,0.2678490988444535
0.1474200189113617,-0.2818990647792816,-7.449430465698242,-0.6525167815811515,-0.01920016697672638,0.33517979948471,0.26430453181577207
0.46206972002983093,0,-7.5193400382995605,-0.6468881259134243,-0.01481466777040652,0.3402588806425533,0.2619553729426114
-0.270679771900177,0.4763125777244568,-7.610990047454834,-0.6412038536007616,-0.010415667625687687,0.34185379687696704,0.26592464442364855
-0.7935254573822021,0.15460410714149475,-7.696961402893066,-0.6412038536007616,-0.010415667625687687,0.34185379687696704,0.26592464442364855
0.5667520761489868,-1.7075048685073853,-7.807960033416748,-0.6412038536007616,-0.010415667625687687,0.34185379687696704,0.26592464442364855
0.27140089869499207,-0.033087071031332016,-7.813966274261475,-0.6412038536007616,-0.010415667625687687,0.34185379687696704,0.26592464442364855
-1.4227906465530396,-0.09798657149076462,-7.772197723388672,-0.6412038536007616,-0.010415667625687687,0.34185379687696704,0.26592464442364855
-0.8015915155410767,0.05811179056763649,-7.886987686157227,-0.6412038536007616,-0.010415667625687687,0.34185379687696704,0.26592464442364855
-2.2753829956054688,0.976516604423523,-8.268224716186523,-0.6412038536007616,-0.010415667625687687,0.34185379687696704,0.26592464442364855
-1.859494924545288,-1.1843754053115845,-8.884346008300781,-0.6412038536007616,-0.010415667625687687,0.34185379687696704,0.26592464442364855
-1.185046672821045,0.09584853053092957,-9.793571472167969,-0.6412038536007616,-0.010415667625687687,0.34185379687696704,0.26592464442364855
-1.0418699979782104,-0.595371425151825,-10.917377471923828,-0.6412038536007616,-0.010415667625687687,0.34185379687696704,0.26592464442364855
-1.3891589641571045,0.7919468283653259,-12.173287391662598,-0.6412038536007616,-0.010415667625687687,0.34185379687696704,0.26592464442364855
-1.4200345277786255,0.09027072042226791,-13.568744659423828,-0.6412038536007616,-0.010415667625687687,0.34185379687696704,0.26592464442364855
-1.2784377336502075,-0.4693821668624878,-15.025873184204102,-0.6412038536007616,-0.010415667625687687,0.34185379687696704,0.26592464442364855
-0.7352410554885864,-0.378134548664093,-16.55929183959961,-0.6412038536007616,-0.010415667625687687,0.34185379687696704,0.26592464442364855
-0.9409250617027283,-0.7423424124717712,-18.130420684814453,-0.6412038536007616,-0.010415667625687687,0.34185379687696704,0.26592464442364855
-0.16596196591854095,-0.5748358964920044,-19.741668701171875,-0.6412038536007616,-0.010415667625687687,0.34185379687696704,0.26592464442364855
-0.6935673952102661,0.1463019698858261,-21.366682052612305,-0.6412038536007616,-0.010415667625687687,0.34185379687696704,0.26592464442364855
-0.6972305774688721,-1.1741260290145874,-23.029279708862305,-0.6412038536007616,-0.010415667625687687,0.34185379687696704,0.26592464442364855
-0.9828916192054749,-0.16776558756828308,-24.657779693603516,-0.6412038536007616,-0.010415667625687687,0.34185379687696704,0.26592464442364855
-1.2789769172668457,-0.8984183669090271,-26.198881149291992,-0.6412038536007616,-0.010415667625687687,0.34185379687696704,0.26592464442364855
-0.7309520244598389,-0.2293834537267685,-27.756792068481445,-0.6412038536007616,-0.010415667625687687,0.34185379687696704,0.26592464442364855
-0.9311238527297974,-1.2121468782424927,-29.251880645751953,-0.6412038536007616,-0.010415667625687687,0.34185379687696704,0.26592464442364855
-0.6547067761421204,1.0380891561508179,-30.662757873535156,-0.6412038536007616,-0.010415667625687687,0.34185379687696704,0.26592464442364855
-0.695442259311676,0.4807867705821991,-32.15142059326172,-0.6412038536007616,-0.010415667625687687,0.34185379687696704,0.26592464442364855
-0.10253477841615677,0.14181065559387207,-33.71504592895508,-0.6412038536007616,-0.010415667625687687,0.34185379687696704,0.26592464442364855
-0.6859897971153259,-0.7251993417739868,-35.31140899658203,-0.6412038536007616,-0.010415667625687687,0.34185379687696704,0.26592464442364855
-0.7085517048835754,-0.371307909488678,-36.889015197753906,-0.6412038536007616,-0.010415667625687687,0.34185379687696704,0.26592464442364855
-0.18556930124759674,-0.8302971720695496,-38.511024475097656,-0.6412038536007616,-0.010415667625687687,0.34185379687696704,0.26592464442364855
-0.7640844583511353,0.14945028722286224,-40.242431640625,-0.6412038536007616,-0.010415667625687687,0.34185379687696704,0.26592464442364855
-0.6589126586914062,0.07020289450883865,-41.917816162109375,-0.6412038536007616,-0.010415667625687687,0.34185379687696704,0.26592464442364855
-0.7810801267623901,0.2155541330575943,-43.622039794921875,-0.6412038536007616,-0.010415667625687687,0.34185379687696704,0.26592464442364855
-0.2417878806591034,-0.2961004376411438,-45.32819366455078,-0.6412038536007616,-0.010415667625687687,0.34185379687696704,0.26592464442364855
-0.6372149586677551,-0.017917759716510773,-47.021636962890625,-0.6412038536007616,-0.010415667625687687,0.34185379687696704,0.26592464442364855
-0.05605795234441757,-0.06243545934557915,-48.72541427612305,-0.6412038536007616,-0.010415667625687687,0.34185379687696704,0.26592464442364855
-1.1426036357879639,0.14536115527153015,-50.459495544433594,-0.6412038536007616,-0.010415667625687687,0.34185379687696704,0.26592464442364855
0.018872713670134544,-0.552102267742157,-52.24847412109375,-0.6412038536007616,-0.010415667625687687,0.34185379687696704,0.26592464442364855
0.07936166971921921,-0.05821623280644417,-54.08568572998047,-0.6412038536007616,-0.010415667625687687,0.34185379687696704,0.26592464442364855
-0.5452666282653809,-0.6066296100616455,-55.93695831298828,-0.6412038536007616,-0.010415667625687687,0.34185379687696704,0.26592464442364855
-0.07154162228107452,0.8933781385421753,-57.820003509521484,-0.6412038536007616,-0.010415667625687687,0.34185379687696704,0.26592464442364855
-1.0068663358688354,-0.8313454985618591,-59.67491149902344,-0.6412038536007616,-0.010415667625687687,0.34185379687696704,0.26592464442364855
0.7958090305328369,0.8261838555335999,-61.564430236816406,-0.6412038536007616,-0.010415667625687687,0.34185379687696704,0.26592464442364855
-0.7825091481208801,-0.3452513515949249,-63.58226776123047,-0.6412038536007616,-0.010415667625687687,0.34185379687696704,0.26592464442364855
0.42829903960227966,0.31941717863082886,-65.54869079589844,-0.6412038536007616,-0.010415667625687687,0.34185379687696704,0.26592464442364855
-0.7522197961807251,0.4603734314441681,-67.51602172851562,-0.6412038536007616,-0.010415667625687687,0.34185379687696704,0.26592464442364855
0.32043880224227905,-0.5621529221534729,-69.62101745605469,-0.6412038536007616,-0.010415667625687687,0.34185379687696704,0.26592464442364855
0.1860491931438446,0.20153778791427612,-71.81031036376953,-0.6412038536007616,-0.010415667625687687,0.34185379687696704,0.26592464442364855
-0.5715076923370361,-0.10696971416473389,-74.0274887084961,-0.6412038536007616,-0.010415667625687687,0.34185379687696704,0.26592464442364855
-0.7914337515830994,0.5093815326690674,-76.21168518066406,-0.6412038536007616,-0.010415667625687687,0.34185379687696704,0.26592464442364855
-0.4796100854873657,-0.2996518611907959,-78.42259979248047,-0.6412038536007616,-0.010415667625687687,0.34185379687696704,0.26592464442364855
0.22841009497642517,0.9013044834136963,-80.60589599609375,-0.6412038536007616,-0.010415667625687687,0.34185379687696704,0.26592464442364855
-0.728649914264679,-0.0068859802559018135,-82.76490020751953,-0.6412038536007616,-0.010415667625687687,0.34185379687696704,0.26592464442364855
-0.20506274700164795,0.5914048552513123,-84.89214324951172,-0.6412038536007616,-0.010415667625687687,0.34185379687696704,0.26592464442364855
-0.20347225666046143,0.48572856187820435,-87.03742218017578,-0.6412038536007616,-0.010415667625687687,0.34185379687696704,0.26592464442364855
-0.9087068438529968,0.7904893159866333,-89.17266082763672,-0.6412038536007616,-0.010415667625687687,0.34185379687696704,0.26592464442364855
0.5828335285186768,-0.277679979801178,-91.13318634033203,-0.6412038536007616,-0.010415667625687687,0.34185379687696704,0.26592464442364855
1.2991019487380981,-0.3988996744155884,-92.72952270507812,-0.6412038536007616,-0.010415667625687687,0.34185379687696704,0.26592464442364855
2.2501652240753174,-0.417904257774353,-93.99339294433594,-0.6412038536007616,-0.010415667625687687,0.34185379687696704,0.26592464442364855
1.2487616539001465,-1.657078504562378,-94.79901885986328,-0.6412038536007616,-0.010415667625687687,0.34185379687696704,0.26592464442364855
1.4175171852111816,-1.0818427801132202,-95.11571502685547,-0.6412038536007616,-0.010415667625687687,0.34185379687696704,0.26592464442364855
0.5547189116477966,-0.24434418976306915,-95.08625030517578,-0.6412038536007616,-0.010415667625687687,0.34185379687696704,0.26592464442364855
-0.29412469267845154,0.962078332901001,-95.04350280761719,-0.6412038536007616,-0.010415667625687687,0.34185379687696704,0.26592464442364855
-0.5628772974014282,0.8322525024414062,-95.09037780761719,-0.6412038536007616,-0.010415667625687687,0.34185379687696704,0.26592464442364855
0.25357362627983093,0.4406633675098419,-95.18036651611328,-0.6412038536007616,-0.010415667625687687,0.34185379687696704,0.26592464442364855
0.1457630842924118,0.8153804540634155,-95.13228607177734,-0.6412038536007616,-0.010415667625687687,0.34185379687696704,0.26592464442364855
-0.34500598907470703,0.36033228039741516,-95.13005828857422,-0.6412038536007616,-0.010415667625687687,0.34185379687696704,0.26592464442364855
-0.039844781160354614,-0.18411189317703247,-95.10496520996094,-0.6412038536007616,-0.010415667625687687,0.34185379687696704,0.26592464442364855
-0.08048239350318909,-0.5940019488334656,-95.10775756835938,-0.6412038536007616,-0.010415667625687687,0.34185379687696704,0.26592464442364855
-0.1773034632205963,-0.30705857276916504,-95.12846374511719,-0.6412038536007616,-0.010415667625687687,0.34185379687696704,0.26592464442364855
-0.1151372641324997,-0.332716703414917,-95.15756225585938,-0.6412038536007616,-0.010415667625687687,0.34185379687696704,0.26592464442364855
-0.04470980912446976,0.011976320296525955,-95.1689682006836,-0.6412038536007616,-0.010415667625687687,0.34185379687696704,0.26592464442364855
-0.1315978318452835,0.06101083755493164,-95.1666488647461,-0.6412038536007616,-0.010415667625687687,0.34185379687696704,0.26592464442364855
-0.12336381524801254,-0.06258141249418259,-95.21919250488281,-0.6412038536007616,-0.010415667625687687,0.34185379687696704,0.26592464442364855
-0.051491305232048035,-0.19510959088802338,-95.22310638427734,-0.6412038536007616,-0.010415667625687687,0.34185379687696704,0.26592464442364855
-0.1658482402563095,-0.17244938015937805,-95.27266693115234,-0.6412038536007616,-0.010415667625687687,0.34185379687696704,0.26592464442364855
-0.058641158044338226,-0.01642615534365177,-95.2699203491211,-0.6412038536007616,-0.010415667625687687,0.34185379687696704,0.26592464442364855
-0.1284226030111313,-0.025010596960783005,-95.27155303955078,-0.6412038536007616,-0.010415667625687687,0.34185379687696704,0.26592464442364855
-0.09130581468343735,-0.12522287666797638,-95.3203353881836,-0.6412038536007616,-0.010415667625687687,0.34185379687696704,0.26592464442364855
-0.10177212208509445,-0.16015011072158813,-95.32113647460938,-0.6412038536007616,-0.010415667625687687,0.34185379687696704,0.26592464442364855
-0.09942756593227386,-0.09276718646287918,-95.32247924804688,-0.6412038536007616,-0.010415667625687687,0.34185379687696704,0.26592464442364855
-0.10785990208387375,-0.05065518245100975,-95.37125396728516,-0.6412038536007616,-0.010415667625687687,0.34185379687696704,0.26592464442364855
-0.100958451628685,-0.0761282816529274,-95.37232208251953,-0.6412038536007616,-0.010415667625687687,0.34185379687696704,0.26592464442364855
-0.12629787623882294,-0.15054643154144287,-95.37362670898438,-0.6355220720089141,-0.005999331518154265,0.3399599941447378,0.26403568848036213
-0.15688368678092957,-0.4136880338191986,-95.38528442382812,-0.6298757374928226,-0.0016379196591316085,0.33760014778623987,0.25933373460235676
-0.19197534024715424,-0.7406865358352661,-95.37407684326172,-0.6242732946843733,0.002604144350237222,0.3346929892276725,0.24971394652190287
-0.602378249168396,-3.1016650199890137,-95.4244613647461,-0.6187502416409548,0.0064992134897811395,0.3280733759825429,0.2176943502233672
0.5372561812400818,-1.8694185018539429,-95.44374084472656,-0.6132868744070741,0.009782238526709276,0.3275306920831403,0.17626865420800922
-0.42523154616355896,-0.5225538611412048,-95.45291137695312,-0.6078202500504748,0.012553940238301432,0.32846423070877795,0.15633555118304965
0.08176811039447784,-1.624281406402588,-95.51408386230469,-0.6023696978328125,0.015010446975550608,0.32560203541070226,0.13844525728685136
-1.143285870552063,-0.7990615963935852,-95.55225372314453,-0.5970167137537562,0.01714958022180395,0.3167560540760557,0.11825073226354993
0.1985444873571396,-1.3951138257980347,-95.62845611572266,-0.5918030532263215,0.018968052466322032,0.308883209216098,0.09996593707861977
-0.33884185552597046,-1.4031884670257568,-95.70442962646484,-0.586664742612176,0.020439824869519597,0.30771406448135774,0.07664675130508818
0.1568431705236435,-1.0066882371902466,-95.69659423828125,-0.5815488136683897,0.02154991817570051,0.306197408773005,0.05656444543662148
0,-1.0840647220611572,-95.75615692138672,-0.576434631635331,0.022347467755251742,0.30750443519403536,0.03914150410952645
-0.4166528582572937,-0.5689201951026917,-95.90206909179688,-0.5713384919416983,0.022885035537829695,0.30403232804189123,0.025366629799827713
0.47890254855155945,-0.9319374561309814,-96.15335083007812,-0.566266963579174,0.023203586475380043,0.3045510754610101,0.01285948270621377
-1.6831629276275635,-1.1952682733535767,-96.23345184326172,-0.561274741514482,0.023270188567047177,0.29451557230204345,-0.004867231706157549
0.6781129240989685,-0.837996780872345,-96.24549102783203,-0.5564359437819152,0.023047869076512194,0.28614015560597184,-0.02181110715804023
-0.5239962339401245,-0.7298144698143005,-96.30306243896484,-0.5516562386405546,0.022575474842580507,0.28742446135729555,-0.03487620091376228
-0.43212074041366577,-0.7501332759857178,-96.32161712646484,-0.5469322279633743,0.021891430678337244,0.2794568199043473,-0.047209098795429096
0.623086154460907,-0.6044682860374451,-96.28247833251953,-0.5422613528112152,0.021010542812161817,0.281048198354741,-0.05849744514562212
-0.651141881942749,-1.0232235193252563,-96.34854125976562,-0.5422613528112152,0.021010542812161817,0.281048198354741,-0.05849744514562212
0.5560300946235657,-0.8372411131858826,-96.24890899658203,-0.5375838211572,0.019906386460254843,0.2802556001270811,-0.07400131708321495
0,0.9101056456565857,-96.23577880859375,-0.5328742812873999,0.018678091212511724,0.28488918424894416,-0.07339411264595909
-0.5461271405220032,0.33421674370765686,-96.23677825927734,-0.5281640537124538,0.017541267278784925,0.28033812474459413,-0.06302475940125707
0,1.9459679126739502,-96.23440551757812,-0.5235296771292468,0.016649200778790476,0.2757870652402441,-0.044023220598077006
-0.22930414974689484,0.45937401056289673,-96.34918212890625,-0.5189491499411973,0.016082518069047307,0.27387619732568663,-0.023978704571103283
-0.8452103137969971,-0.6488296389579773,-96.44197082519531,-0.5144591657124042,0.015669716352001484,0.2649219101294875,-0.02555750147439562
0.3570908308029175,-2.522582769393921,-96.72859191894531,-0.5100776977298985,0.015023521021292676,0.26085424777120353,-0.05198593821066144
0.2307436317205429,-1.4987163543701172,-96.8183822631836,-0.5056893050960366,0.013877831834186926,0.2657528682922324,-0.08549676424202843
-0.6893494725227356,0.19099268317222595,-96.73697662353516,-0.5012919382523329,0.012362071619653265,0.2619311529522141,-0.09639446150201085
0.19354282319545746,-0.970989465713501,-96.67159271240234,-0.49696085005377705,0.010701330818054385,0.25779943087448676,-0.1028944346898548
0.09266257286071777,-0.8650783896446228,-96.57254791259766,-0.49264431749780946,0.008858918861045824,0.2601844758416216,-0.1181950001511725
-0.2568154036998749,0.22750213742256165,-96.41248321533203,-0.48831930906925736,0.0068447260632330835,0.2588165355846286,-0.12350813558635634
-0.16471238434314728,-0.3526146113872528,-96.23590850830078,-0.4840349729059054,0.004777568770546263,0.2553038040176034,-0.1245507395360621
-0.6392887234687805,0,-96.04010772705078,-0.4798357429158767,0.0026772359858211136,0.24860379478583733,-0.12748919463095587
-0.22923696041107178,0,-96.00262451171875,-0.47575266061971555,0.0005524160753051822,0.2413660807535052,-0.12748919463095587
0.5529108047485352,-0.5395606756210327,-96.0732650756836,-0.47170741525685594,-0.0016098733265733204,0.24406336278965074,-0.13198553359446447
-0.2607022821903229,-0.9266847968101501,-96.15005493164062,-0.4676194002851841,-0.003911454822066561,0.24649843381096917,-0.14420424586472433
0.4657396674156189,-0.6977078318595886,-96.25202178955078,-0.463496854347694,-0.006427663963469587,0.24820707868784664,-0.1577408511036388
-0.46080079674720764,-0.39521485567092896,-96.37725067138672,-0.4593597267257668,-0.00913257555738652,0.24824823594341675,-0.1668485401663931
0.3186602294445038,0.23718473315238953,-96.53739166259766,-0.4552321269994392,-0.011924358874223526,0.2470637312158942,-0.1681654578540476
-1.7049427032470703,-1.0387119054794312,-96.6090316772461,-0.45121066776207724,-0.014782778114313697,0.23551137726753948,-0.17484485095677293
0.2573595345020294,-0.5013737082481384,-96.6036605834961,-0.4473860047498922,-0.017803809353435437,0.22344818419466414,-0.18767889773783603
0.5479296445846558,-1.140173316001892,-96.65657806396484,-0.4473860047498922,-0.017803809353435437,0.22344818419466414,-0.18767889773783603
-1.6513817310333252,0.26993048191070557,-96.72218322753906,-0.4437384969637623,-0.020992224512544594,0.21425275014092524,-0.19493092135526258
0,0.7759385108947754,-96.9096450805664,-0.44028229708162414,-0.024168443410631922,0.20049123571564753,-0.1862153464152169
1.3018325567245483,-0.05325396731495857,-97.12964630126953,-0.43685037144770195,-0.027221846090914718,0.21133984035501877,-0.1801929752187184
-0.12550495564937592,1.077225685119629,-97.30587005615234,-0.43324635135837697,-0.030153953197490254,0.22114257036397852,-0.17165987757034615
-0.4932454228401184,-0.4443660080432892,-97.41340637207031,-0.42960361062859465,-0.03297100256831017,0.21598631720989941,-0.16638604692804332
-0.4575786292552948,-0.5456076860427856,-97.47527313232422,-0.4260698681231585,-0.03581285152364465,0.20806278344243764,-0.17463582771209393
0,-0.7419185042381287,-97.5550765991211,-0.42263393135948285,-0.038812860193171275,0.2042496281986435,-0.18536521263110156
-0.7294901609420776,-0.5693771243095398,-97.65105438232422,-0.41928042992845976,-0.04199334260011656,0.1981705435241262,-0.19629267620233212
0.10138097405433655,-0.11531460285186768,-97.62053680419922,-0.4160212062299249,-0.04531243524009719,0.19293630030006167,-0.20199844059534386
0.05496804788708687,-0.6257296800613403,-97.54051208496094,-0.4127947436539557,-0.048730537325221895,0.1942392088162402,-0.2081738096196206
-0.08134696632623672,0.3148413598537445,-97.47916412353516,-0.4095592553763544,-0.052221690285563324,0.19401938449591397,-0.21076454562135055
-0.9058090448379517,0.06004985049366951,-97.46582794189453,-0.4063941514688645,-0.05570839860075615,0.18579308440287906,-0.20764045220178876
0.07785118371248245,0.22537274658679962,-97.46577453613281,-0.4033550971358391,-0.059149251790433156,0.17889343556016682,-0.20526193055945152
-0.19128167629241943,0,-97.60592651367188,-0.4003814169940433,-0.06255463308124437,0.177948181455334,-0.20338382433789487
1.081181526184082,-0.7952632904052734,-97.83134460449219,-0.3973538153691008,-0.0659995901042652,0.18536401353776452,-0.21001101842460548
0.2639363706111908,-0.37575066089630127,-97.87474060058594,-0.39417100417841616,-0.06958109415796013,0.19657332934439178,-0.21976946801878527
-1.1352455615997314,0.05364381521940231,-97.8196792602539,-0.39095528960538384,-0.07326628715588966,0.1893124194194873,-0.22245369173275945
0.08978745341300964,-0.5163141489028931,-97.65476989746094,-0.387872683872572,-0.07700597856905256,0.18060026851793126,-0.22630927784678853
-0.297602117061615,-0.24418841302394867,-97.44733428955078,-0.38487711097113764,-0.08083061254441062,0.1788684796541929,-0.23264679919617887
-0.5799867510795593,0.1576879322528839,-97.19544982910156,-0.38195691331496645,-0.0847140661755116,0.17155523908634976,-0.23336763653593773
-0.31721916794776917,0.6703584790229797,-97.10565948486328,-0.3791599652967931,-0.08854602356143862,0.16407852309445536,-0.22646724977530552
0.4070976674556732,-0.25114694237709045,-97.19798278808594,-0.376419081682753,-0.0922913658120933,0.16482751059035455,-0.22297382030325644
0.5478116273880005,0.1762937754392624,-97.34728240966797,-0.376419081682753,-0.0922913658120933,0.16482751059035455,-0.22297382030325644
0.4151535630226135,-0.7274813652038574,-97.49072265625,-0.3736050839235797,-0.09604587306643678,0.172852220510443,-0.2275670502179614
0.31257882714271545,-0.27093178033828735,-97.64802551269531,-0.37067367661019973,-0.09990799148295433,0.17891665709515406,-0.23588715976414593
-1.1853255033493042,-0.14674924314022064,-97.794189453125,-0.3677523397333504,-0.10386844977232054,0.17164376812676582,-0.23936783495980016
-0.06063370034098625,0.1383034735918045,-97.822021484375,-0.3649781352092717,-0.10785850020009141,0.16126077476268008,-0.23943821637270363
-0.38359126448631287,0,-97.97806549072266,-0.3623213045857845,-0.11183953273174815,0.15755890005578593,-0.23828568742610526
-1.1953998804092407,0.0789017528295517,-98.09590148925781,-0.35980497508102804,-0.11580548156712564,0.14440064051498966,-0.23762817281919232
-0.45652085542678833,0.7242677807807922,-98.26019287109375,-0.35751301445687794,-0.11971017545205591,0.13063463438302275,-0.23093509337243945
1.5094150304794312,-1.6885305643081665,-98.39788818359375,-0.3552626528994489,-0.12362605636823042,0.13940875250846144,-0.2389706165685009
0,0.3639046847820282,-98.60673522949219,-0.3528343532027468,-0.12770088788600586,0.15198721109579003,-0.25000916556455205
0.40395522117614746,-1.2398115396499634,-98.78883361816406,-0.350273180571902,-0.13192853417700312,0.15535350460559125,-0.2573083893551182
-2.010410785675049,0.567079484462738,-98.94862365722656,-0.34779551490934346,-0.1362637248367542,0.14196637490143374,-0.26291448981501175
0.27785879373550415,-0.16670210659503937,-99.02210235595703,-0.3455497247715376,-0.14061782901576358,0.12752844163527086,-0.25957801166611427
-0.8052945137023926,0.12306024134159088,-98.97811889648438,-0.34346087822483634,-0.14494715989528587,0.12313314396888012,-0.2599416938765597
0.09691902250051498,0.0644163191318512,-98.93272399902344,-0.3414578519011329,-0.14926650225430677,0.11723001487553114,-0.25837938920594766
0,0.16746027767658234,-98.9574203491211,-0.3394972878322004,-0.1535567228662942,0.11803767339636877,-0.25644708423254403
-0.32686740159988403,0.4187178909778595,-99.11640167236328,-0.33755269240070535,-0.15779013411956894,0.1153137783830364,-0.2515622661604237
0,-0.5986084938049316,-99.14810943603516,-0.3356534952194325,-0.1619953309585501,0.11258988336970403,-0.253061354517316
0.24452610313892365,-0.2768745720386505,-99.27794647216797,-0.3337600161838861,-0.1662738176356334,0.11462760089586173,-0.2603570467326792
1.0936322212219238,-1.4042942523956299,-99.35711669921875,-0.3317566285075411,-0.17072984958287488,0.12577892026553544,-0.2743667869362982
0,1.8339259624481201,-99.22509765625,-0.3295843664877529,-0.17527279382972621,0.13489252210905148,-0.2707865226858608
-2.5526115894317627,-1.6134912967681885,-99.06354522705078,-0.32751342247964593,-0.17977059457826278,0.11362075886378678,-0.268949567138528
0.007360298186540604,0.7561593055725098,-98.94140625,-0.32751342247964593,-0.17977059457826278,0.11362075886378678,-0.268949567138528
0.5246018767356873,-0.6829268932342529,-98.91474914550781,-0.3255828013475466,-0.18424800177971476,0.11805377698813868,-0.2683392970357092
-0.4463330805301666,0.5411084890365601,-98.83097076416016,-0.32360980306467446,-0.1887301718972681,0.11870601695651802,-0.26952111707069
-0.14510883390903473,0.684985876083374,-98.8038330078125,-0.32167244180390187,-0.1931370450730907,0.11377733433619133,-0.25930366402802385
0.7656460404396057,0.45150813460350037,-98.84040069580078,-0.3197330600367341,-0.19737984961170452,0.1189484777239461,-0.24983288060563325
0.4599529802799225,0,-98.94246673583984,-0.3176654743648961,-0.20151237622356205,0.12916180289660883,-0.24607031281727074
-0.5214805006980896,-0.4310554563999176,-99.1263198852539,-0.3155170503944261,-0.20564348251054435,0.12864907355979077,-0.2496624416206034
0.22213347256183624,-0.7386482357978821,-99.36205291748047,-0.3133936871564946,-0.20988575262729037,0.12615451499198865,-0.2594099723889184
-1.1945430040359497,-0.9877448678016663,-99.49691009521484,-0.31135864034631383,-0.21432914057707786,0.11805110222970437,-0.2737965815855813
-0.14847150444984436,0.2565852403640747,-99.44754028320312,-0.3094843868722414,-0.21894319191096515,0.10685931465898942,-0.2798895784808946
0.11057804524898529,0.2256787121295929,-99.51116180419922,-0.3077060297848139,-0.22357452766672356,0.10654353583231559,-0.275870712210114
-0.6844640970230103,-0.10523346066474915,-99.67819213867188,-0.3059701573856485,-0.2281640086166515,0.10176115206753204,-0.2748670017812403
-0.17321670055389404,0.1984856128692627,-99.83601379394531,-0.30433369935102134,-0.23273864946910242,0.09461381208772451,-0.27408990051286936
1.4634308815002441,-0.8791499733924866,-100.06861114501953,-0.30266720427588245,-0.23735408283601991,0.1053655969289441,-0.2797621035172296
-0.8848217725753784,0.8077203035354614,-100.31743621826172,-0.3008709298056136,-0.24202174495504714,0.11018733950331798,-0.2803573507660381
0,-1.0943682193756104,-100.46162414550781,-0.2990959201036538,-0.24671427357308112,0.10281382473185649,-0.28274608339803936
0,0.5666883587837219,-100.5171890258789,-0.2973823563581229,-0.2514633527311451,0.10281382473185649,-0.2871434155696384
-0.7997594475746155,-0.22129134833812714,-100.56178283691406,-0.29572433146311794,-0.25622509042046926,0.09614916266873469,-0.28426510714925846
-0.9217742085456848,0,-100.54706573486328,-0.2942413963669807,-0.2609782096610359,0.08180304886773218,-0.2861092017187428
-0.2978442907333374,-0.18130381405353546,-100.51628112792969,-0.29296270794830176,-0.2657592868989909,0.07163956137374033,-0.2876200668358556
0.726661741733551,0.4590228796005249,-100.56896209716797,-0.29173893626908665,-0.27053366863337,0.07521304013207544,-0.2853057412896307
-0.18081654608249664,-0.1548631191253662,-100.6353530883789,-0.2904474796838541,-0.27526764211594196,0.07976175009583422,-0.2827710766190044
0.26925966143608093,-0.5624132752418518,-100.67625427246094,-0.2904474796838541,-0.27526764211594196,0.07976175009583422,-0.2827710766190044
0.014107202179729939,0.17752055823802948,-100.70223236083984,-0.2904474796838541,-0.27526764211594196,0.07976175009583422,-0.2827710766190044
0.6321293115615845,0.5500977039337158,-100.73582458496094,-0.2904474796838541,-0.27526764211594196,0.07976175009583422,-0.2827710766190044
-0.5039322376251221,1.047839879989624,-100.70276641845703,-0.2904474796838541,-0.27526764211594196,0.07976175009583422,-0.2827710766190044
-0.5506940484046936,1.3522521257400513,-100.75436401367188,-0.2904474796838541,-0.27526764211594196,0.07976175009583422,-0.2827710766190044
-0.35090258717536926,3.995976209640503,-101.04178619384766,-0.2904474796838541,-0.27526764211594196,0.07976175009583422,-0.2827710766190044
0.24287883937358856,1.2364637851715088,-101.54735565185547,-0.2904474796838541,-0.27526764211594196,0.07976175009583422,-0.2827710766190044
-1.0729469060897827,1.3629323244094849,-102.30729675292969,-0.2904474796838541,-0.27526764211594196,0.07976175009583422,-0.2827710766190044
-0.23745644092559814,0.7963002324104309,-103.45309448242188,-0.2904474796838541,-0.27526764211594196,0.07976175009583422,-0.2827710766190044
-0.2486143559217453,1.5495797395706177,-104.72998046875,-0.2904474796838541,-0.27526764211594196,0.07976175009583422,-0.2827710766190044
-0.060271456837654114,1.1911596059799194,-106.16941833496094,-0.2904474796838541,-0.27526764211594196,0.07976175009583422,-0.2827710766190044
0.07989107817411423,0.8697348237037659,-107.60607147216797,-0.2904474796838541,-0.27526764211594196,0.07976175009583422,-0.2827710766190044
0.11952035129070282,0.9919686317443848,-109.1862564086914,-0.2904474796838541,-0.27526764211594196,0.07976175009583422,-0.2827710766190044
-0.2629624009132385,1.0901490449905396,-110.77094268798828,-0.2904474796838541,-0.27526764211594196,0.07976175009583422,-0.2827710766190044
-0.5584443807601929,0.25122562050819397,-112.39464569091797,-0.2904474796838541,-0.27526764211594196,0.07976175009583422,-0.2827710766190044
0.24011541903018951,0.9694264531135559,-114.0907211303711,-0.2904474796838541,-0.27526764211594196,0.07976175009583422,-0.2827710766190044
0.2549874484539032,0.5098050832748413,-115.8170166015625,-0.2904474796838541,-0.27526764211594196,0.07976175009583422,-0.2827710766190044
-0.7113665342330933,0.9841323494911194,-117.52840423583984,-0.2904474796838541,-0.27526764211594196,0.07976175009583422,-0.2827710766190044
0.06626322120428085,0.13382770121097565,-119.22696685791016,-0.2904474796838541,-0.27526764211594196,0.07976175009583422,-0.2827710766190044
-0.16331703960895538,0.6145038604736328,-120.92183685302734,-0.2904474796838541,-0.27526764211594196,0.07976175009583422,-0.2827710766190044
-0.33778202533721924,0.27105802297592163,-122.5995864868164,-0.2904474796838541,-0.27526764211594196,0.07976175009583422,-0.2827710766190044
0.10358943790197372,-0.07075726985931396,-124.24771118164062,-0.2904474796838541,-0.27526764211594196,0.07976175009583422,-0.2827710766190044
-0.3052859902381897,0.48922014236450195,-125.81842803955078,-0.2904474796838541,-0.27526764211594196,0.07976175009583422,-0.2827710766190044
-0.29771482944488525,0.2187022566795349,-127.37380981445312,-0.2904474796838541,-0.27526764211594196,0.07976175009583422,-0.2827710766190044
0.22991704940795898,0.4313059449195862,-128.90292358398438,-0.2904474796838541,-0.27526764211594196,0.07976175009583422,-0.2827710766190044
-0.23099419474601746,0.6317260265350342,-130.46029663085938,-0.2904474796838541,-0.27526764211594196,0.07976175009583422,-0.2827710766190044
-0.5014973878860474,0.389984667301178,-132.17355346679688,-0.2904474796838541,-0.27526764211594196,0.07976175009583422,-0.2827710766190044
-0.06275956332683563,0.6236830353736877,-134.00775146484375,-0.2904474796838541,-0.27526764211594196,0.07976175009583422,-0.2827710766190044
-0.9137260913848877,0.12105318158864975,-135.86544799804688,-0.2904474796838541,-0.27526764211594196,0.07976175009583422,-0.2827710766190044
0.48716533184051514,0.9976342916488647,-137.77444458007812,-0.2904474796838541,-0.27526764211594196,0.07976175009583422,-0.2827710766190044
-0.4046121835708618,1.3450757265090942,-139.7335968017578,-0.2904474796838541,-0.27526764211594196,0.07976175009583422,-0.2827710766190044
-0.06840087473392487,0.20158575475215912,-141.70501708984375,-0.2904474796838541,-0.27526764211594196,0.07976175009583422,-0.2827710766190044
0.09529431909322739,0.8736338019371033,-143.67315673828125,-0.2904474796838541,-0.27526764211594196,0.07976175009583422,-0.2827710766190044
0.2996353209018707,0.6916499733924866,-145.66799926757812,-0.2904474796838541,-0.27526764211594196,0.07976175009583422,-0.2827710766190044
0.06421016156673431,0.5161571502685547,-147.73121643066406,-0.2904474796838541,-0.27526764211594196,0.07976175009583422,-0.2827710766190044
0.30506935715675354,0.40201079845428467,-149.8422393798828,-0.2904474796838541,-0.27526764211594196,0.07976175009583422,-0.2827710766190044
-0.0786663144826889,0.9653882384300232,-152.0045166015625,-0.2904474796838541,-0.27526764211594196,0.07976175009583422,-0.2827710766190044
-0.7795658111572266,0.28806835412979126,-154.219482421875,-0.2904474796838541,-0.27526764211594196,0.07976175009583422,-0.2827710766190044
0.5477877855300903,0.37743881344795227,-156.4955596923828,-0.2904474796838541,-0.27526764211594196,0.07976175009583422,-0.2827710766190044
-0.9412437677383423,0.8845184445381165,-158.8303680419922,-0.2904474796838541,-0.27526764211594196,0.07976175009583422,-0.2827710766190044
1.4630309343338013,-0.09162970632314682,-161.18136596679688,-0.2904474796838541,-0.27526764211594196,0.07976175009583422,-0.2827710766190044
-0.9145472049713135,0.9034508466720581,-163.48016357421875,-0.2904474796838541,-0.27526764211594196,0.07976175009583422,-0.2827710766190044
0.6641989946365356,-0.2435363084077835,-165.8206024169922,-0.2904474796838541,-0.27526764211594196,0.07976175009583422,-0.2827710766190044
-0.025672927498817444,0.4280107021331787,-168.14175415039062,-0.2904474796838541,-0.27526764211594196,0.07976175009583422,-0.2827710766190044
0.814693033695221,0.2761337161064148,-170.4276123046875,-0.2904474796838541,-0.27526764211594196,0.07976175009583422,-0.2827710766190044
-0.20191441476345062,-0.04855545237660408,-172.76495361328125,-0.2904474796838541,-0.27526764211594196,0.07976175009583422,-0.2827710766190044
0.5446071624755859,0.6608894467353821,-175.0867156982422,-0.2904474796838541,-0.27526764211594196,0.07976175009583422,-0.2827710766190044
-0.4446095824241638,0.2784850299358368,-177.3564910888672,-0.2904474796838541,-0.27526764211594196,0.07976175009583422,-0.2827710766190044
0.018460465595126152,-0.45664772391319275,-179.370361328125,-0.2904474796838541,-0.27526764211594196,0.07976175009583422,-0.2827710766190044
-0.4151473045349121,0.6690507531166077,178.94619750976562,-0.2904474796838541,-0.27526764211594196,0.07976175009583422,-0.2827710766190044
-0.6268879771232605,-0.0015165758086368442,177.6925506591797,-0.2904474796838541,-0.27526764211594196,0.07976175009583422,-0.2827710766190044
0.037121664732694626,-0.7888578176498413,176.75994873046875,-0.2904474796838541,-0.27526764211594196,0.07976175009583422,-0.2827710766190044
-0.6665058732032776,-1.0318595170974731,176.0856170654297,-0.2904474796838541,-0.27526764211594196,0.07976175009583422,-0.2827710766190044
0.7163824439048767,-0.32900580763816833,175.64549255371094,-0.2904474796838541,-0.27526764211594196,0.07976175009583422,-0.2827710766190044
0.9853986501693726,-0.7872813940048218,175.3920135498047,-0.2904474796838541,-0.27526764211594196,0.07976175009583422,-0.2827710766190044
0.9023699760437012,-0.11840549856424332,175.25338745117188,-0.2904474796838541,-0.27526764211594196,0.07976175009583422,-0.2827710766190044
1.0078710317611694,-0.17081570625305176,175.21617126464844,-0.2904474796838541,-0.27526764211594196,0.07976175009583422,-0.2827710766190044
0.9052326679229736,0.48326972126960754,175.25234985351562,-0.2904474796838541,-0.27526764211594196,0.07976175009583422,-0.2827710766190044
-0.31427308917045593,-0.24419882893562317,175.2459716796875,-0.2904474796838541,-0.27526764211594196,0.07976175009583422,-0.2827710766190044
-0.5089729428291321,0.2734089195728302,175.2444610595703,-0.2904474796838541,-0.27526764211594196,0.07976175009583422,-0.2827710766190044
-0.5995943546295166,0.09621010720729828,175.24722290039062,-0.2904474796838541,-0.27526764211594196,0.07976175009583422,-0.2827710766190044
-0.4171008765697479,0.12636636197566986,175.24916076660156,-0.2904474796838541,-0.27526764211594196,0.07976175009583422,-0.2827710766190044
-0.11842002719640732,0.06428156793117523,175.24557495117188,-0.2904474796838541,-0.27526764211594196,0.07976175009583422,-0.2827710766190044
0.11701461672782898,0.17369946837425232,175.24295043945312,-0.2904474796838541,-0.27526764211594196,0.07976175009583422,-0.2827710766190044
0.27482056617736816,0.06394585222005844,175.24520874023438,-0.2904474796838541,-0.27526764211594196,0.07976175009583422,-0.2827710766190044
0.08914252370595932,0.1304682493209839,175.24295043945312,-0.2904474796838541,-0.27526764211594196,0.07976175009583422,-0.2827710766190044
-0.18549714982509613,0.12972749769687653,175.2473907470703,-0.2904474796838541,-0.27526764211594196,0.07976175009583422,-0.2827710766190044
-0.2751394510269165,0.08253549039363861,175.2512969970703,-0.2904474796838541,-0.27526764211594196,0.07976175009583422,-0.2827710766190044
-0.19149629771709442,0.11520911753177643,175.2489471435547,-0.2904474796838541,-0.27526764211594196,0.07976175009583422,-0.2827710766190044
-0.026041964069008827,0.1422879993915558,175.25035095214844,-0.2904474796838541,-0.27526764211594196,0.07976175009583422,-0.2827710766190044
0.05455843731760979,0.07502202689647675,175.2484130859375,-0.2904474796838541,-0.27526764211594196,0.07976175009583422,-0.2827710766190044
-0.038972824811935425,0.13607151806354523,175.2472686767578,-0.2904474796838541,-0.27526764211594196,0.07976175009583422,-0.2827710766190044
-0.15353332459926605,0.10334570705890656,175.24916076660156,-0.2904474796838541,-0.27526764211594196,0.07976175009583422,-0.2827710766190044
-0.1715489774942398,0.09650842845439911,175.24874877929688,-0.2904474796838541,-0.27526764211594196,0.07976175009583422,-0.2827710766190044
-0.07284300774335861,0.11533195525407791,175.24876403808594,-0.28913508884789835,-0.2799657822551678,0.07772515021885423,-0.2810057400881004
0,0.09739746898412704,175.25027465820312,-0.2878447282197885,-0.28463443837995295,0.07711812515432624,-0.27923299488611536
-0.5207000374794006,0.21503527462482452,175.24212646484375,-0.28659558585870804,-0.2892666249097487,0.07277895817533124,-0.2766293886893741
-1.279006004333496,0.23302209377288818,175.2303466796875,-0.28550758280868954,-0.29384599962621066,0.05778140782689044,-0.27289557728605984
-1.9180433750152588,-0.10743715614080429,175.08901977539062,-0.2847665766629184,-0.29838553807142054,0.031139329665650816,-0.2718490361391258
-2.877723455429077,0.38207507133483887,174.93040466308594,-0.28458062719838284,-0.30289728326296195,-0.00882539392138532,-0.2695603868458422
-2.569124221801758,0.583000659942627,174.8533477783203,-0.2851059704079914,-0.30732293722905396,-0.054215791231642274,-0.2615180890851967
-1.2704154253005981,0.10367891192436218,174.77487182617188,-0.28627620162623424,-0.3116338859657609,-0.08621195495749524,-0.25579575931963844
-0.888873815536499,1.2259526252746582,174.7854461669922,-0.2878630181839173,-0.3158048130976716,-0.10420603196447105,-0.2447154965096466
-0.9782772064208984,-0.938606321811676,174.873779296875,-0.28972944864873884,-0.3198634501017586,-0.11976562381411603,-0.24232094398078843
-1.2715649604797363,0,174.83360290527344,-0.2918817814183422,-0.32396731349600866,-0.13851430853828797,-0.2501426633292191
-1.2362949848175049,0.8155826926231384,174.77459716796875,-0.2943645101679593,-0.32807972019784126,-0.159413141415765,-0.24334614089069292
-1.0323842763900757,-0.6273612976074219,174.6510009765625,-0.2971789430291392,-0.33212241828247674,-0.17831880192582816,-0.24177762926556196
-0.07062406837940216,1.12678062915802,174.4534149169922,-0.30022752086295645,-0.33611736353887844,-0.18751053813224047,-0.2376158015026403
-1.3623168468475342,-0.21424205601215363,174.35215759277344,-0.30345220628427344,-0.34001425616300957,-0.1994517124257983,-0.23001131339309142
-0.8470342755317688,0.2590005695819855,174.29066467285156,-0.3069298286526464,-0.3438446698227854,-0.21786297177895914,-0.22963832578000948
-0.9923149347305298,-0.3809906244277954,174.2498321533203,-0.3106886107663417,-0.3476804467840387,-0.23319088186447828,-0.23065490957039123
-1.0311335325241089,0.050281208008527756,174.25474548339844,-0.31471564271875346,-0.35154766120857434,-0.2500529524249336,-0.23341082137388514
-0.7808907628059387,0.5550638437271118,174.319091796875,-0.3190090269463447,-0.35539580371399077,-0.2651531548860173,-0.22836627927608813
0,0.466117262840271,174.42453002929688,-0.32348247471963987,-0.3591309930139695,-0.2716605779094001,-0.21985643672135993
-0.7773299813270569,-0.5210314989089966,174.4679412841797,-0.3280641322668331,-0.3627990804479414,-0.27813832775379227,-0.220314055355266
-0.2451362907886505,-1.0755940675735474,174.47535705566406,-0.33277077566495994,-0.3665818581459793,-0.28665888002142315,-0.23361926840928718
-0.5406580567359924,1.6534467935562134,174.4320068359375,-0.33277077566495994,-0.3665818581459793,-0.28665888002142315,-0.23361926840928718
-0.3058662414550781,0.7055452466011047,174.44180297851562,-0.33760721007491357,-0.3703116937277898,-0.2937132491730154,-0.2139610014079762
-0.3131912052631378,-1.1992921829223633,174.46429443359375,-0.34254542099493035,-0.37391199839961176,-0.2988720612290005,-0.21807555921065336
1.670945644378662,0.9309643507003784,174.42774963378906,-0.3474323335126973,-0.37756522493036027,-0.2875574409030378,-0.2203116244791699
0.822849690914154,-0.2880527377128601,174.4059295654297,-0.3520517772961304,-0.3811924386985556,-0.266775813108931,-0.21495402770427394
