faccX,faccY,yaw,posX,posY,velX,velY
0,0,-102.4289321899414,0.0,0.0,0.0,0.0
0,0,-102.42852020263672,0.0,0.0,0.0,0.0
0,0,-102.42938232421875,0.0,0.0,0.0,0.0
0,-0.1236148327589035,-102.43574523925781,0.0,-8.584363386034965e-06,0.0,-0.001030123606324196
0,-0.6380891799926758,-102.42242431640625,0.0,-7.864920215474234e-05,0.0,-0.007377657045920689
-0.9213491678237915,-2.0742318630218506,-102.45156860351562,-6.398258109887441e-05,-0.0003899657809072071,-0.007677909731864929,-0.029980332404375077
-0.5727927684783936,-2.658947229385376,-102.49776458740234,-0.00029570759998427497,-0.0012183309801750714,-0.020129092534383136,-0.06942349150776864
0.33455100655555725,-2.06247878074646,-102.41840362548828,-0.0006477370423575242,-0.0027032659782303707,-0.02211444055040677,-0.10876870825886727
0.08980128914117813,-0.09083309024572372,-102.32071685791016,-0.000986842142107586,-0.004665613329141505,-0.018578171419600643,-0.12671297385046879
-0.7914198040962219,-0.8794627785682678,-102.31111907958984,-0.0013452018404172526,-0.006844877884205845,-0.02442499237755934,-0.13479877275725205
0.057991527020931244,-1.1093714237213135,-102.38282775878906,-0.0018032175659512479,-0.009229637583096823,-0.030536894686520096,-0.15137239110966522
0.07164082676172256,-1.8740944862365723,-102.31572723388672,-0.002303163563936121,-0.011959695900893874,-0.029456625071664647,-0.17623460702598093
-0.594551682472229,-0.3876960873603821,-102.21444702148438,-0.0028304205689993166,-0.015054008141160011,-0.033814215535918866,-0.19508286180595555
0.07558184117078781,-0.7922727465629578,-102.21086120605469,-0.0034300304002438976,-0.018387331451392836,-0.038138964213430875,-0.2049159354219834
-0.1893930435180664,-0.5762322545051575,-102.26231384277344,-0.00407358335951964,-0.021897632111277845,-0.039087390899658195,-0.21632014376421768
-0.6391921639442444,-0.570356547832489,-102.23497009277344,-0.004782580513921048,-0.025582592063066033,-0.04599226762851079,-0.22587505045036474
0.8070971369743347,-1.367136001586914,-102.170654296875,-0.0055374582401580275,-0.02948172433094846,-0.0445930595199267,-0.24202082169552644
-1.2382699251174927,-1.3011360168457031,-102.11309814453125,-0.006310618453555636,-0.03370070136048728,-0.04818616608778635,-0.26425642184913156
1.0130594968795776,0,-102.16104888916016,-0.007129360834757487,-0.038195331725809314,-0.05006291965643564,-0.2750992219895124
-0.7585964798927307,-0.9997738003730774,-102.18167114257812,-0.007946071786185106,-0.042849747495104874,-0.047942394514878584,-0.28343067032595476
0.3251575529575348,-0.457500696182251,-102.20619201660156,-0.008775211620248026,-0.04767479161835379,-0.05155438557267188,-0.2955746244639158
-0.16393199563026428,-0.9577652215957642,-102.29000854492188,-0.009623255160533719,-0.05269931771482031,-0.050210839261611295,-0.3073685071120659
-0.2239910513162613,0.4936220049858093,-102.375,-0.010487041582042972,-0.05785435833450821,-0.053443531319499006,-0.3112363672504822
-1.3355274200439453,-1.3971776962280273,-102.34776306152344,-0.011486066997879081,-0.06310437804501917,-0.06643951858083406,-0.318765998010834
1.1079541444778442,-0.19355718791484833,-102.29360961914062,-0.012609196007251739,-0.06852761237882077,-0.06833596254388491,-0.33202212204535797
-0.8861978054046631,-0.055018141865730286,-102.28340911865234,-0.013732728970547517,-0.07407857658858927,-0.0664879930516084,-0.33409358312686277
0,-0.5253158211708069,-102.31356048583984,-0.014902403702338536,-0.0796871039436923,-0.07387297476331392,-0.33892969948550056
0.7012389898300171,0,-102.28812408447266,-0.01608492279632224,-0.08537241253380973,-0.06802931651473045,-0.3433073313285906
-0.3793841004371643,0.08874466270208359,-102.22156524658203,-0.0171963937042488,-0.09108803856548749,-0.06534719243645667,-0.3425677924727399
0.8014694452285767,-0.9808579087257385,-102.212646484375,-0.018256202095912562,-0.09685945408211813,-0.061829814563194904,-0.350002069522937
-0.5975463390350342,-0.10489655286073685,-102.28305053710938,-0.019272537678480146,-0.10276822152288836,-0.06013045534491538,-0.35905002336949093
-0.5499765872955322,-0.7232288122177124,-102.28666687011719,-0.019272537678480146,-0.10276822152288836,-0.06013045534491538,-0.35905002336949093
1.3246524333953857,-0.5252851843833923,-102.28939819335938,-0.020220915000471802,-0.10883909093992163,-0.05367482329408327,-0.36945430667450013
-0.10440780222415924,0.7148104310035706,-102.33684539794922,-0.021030756178208522,-0.11498350124237022,-0.04350611803432305,-0.367874929619332
-0.8570828437805176,1.9571757316589355,-102.52952575683594,-0.021822628329197565,-0.12092919547472974,-0.05151854008436202,-0.34560837826381113
0.14583086967468262,0.24758149683475494,-102.61177825927734,-0.022730663162138728,-0.1265362269715923,-0.057445639868577314,-0.32723540135969703
-0.6890352964401245,-0.6753711700439453,-102.64697265625,-0.023725813022918173,-0.13201985794378235,-0.061972343424956,-0.33080031530310694
-0.5071602463722229,-0.4026000499725342,-102.80316925048828,-0.02484175454825163,-0.1376080556446686,-0.0719406396150589,-0.33978340880324426
0.060093797743320465,-0.4156765639781952,-102.95164489746094,-0.026071811489657395,-0.1433279372229137,-0.07566619335363307,-0.346602380586167
-0.10725992918014526,-1.3465769290924072,-103.0478744506836,-0.02733619013801217,-0.14922702228081305,-0.07605924444893995,-0.3612878263617553
1.858970284461975,-1.125874400138855,-102.99485778808594,-0.028482197659711044,-0.15542018406248337,-0.0614616581549247,-0.3818915874386825
-0.23397167026996613,0.49929967522621155,-103.03878021240234,-0.02939371150297423,-0.16182855598680257,-0.04792000303665796,-0.3871130434796212
-0.912703275680542,0,-102.99278259277344,-0.03027200842483176,-0.16824576645623887,-0.057475627586245526,-0.3829522128527361
-0.22897499799728394,-0.2558523416519165,-103.05105590820312,-0.03130921876471903,-0.17464607086084363,-0.06698961320022741,-0.3850843156998354
-0.6723114848136902,1.107918381690979,-103.2508544921875,-0.03248830165714025,-0.18100497153639372,-0.07450033389031886,-0.37798376536617656
-0.6541659832000732,-0.47062182426452637,-103.38114929199219,-0.03382209037947985,-0.1872604442537865,-0.08555431279043356,-0.3726729607209561
0.15908899903297424,-0.16386368870735168,-103.32356262207031,-0.03528237593877646,-0.1935157217597588,-0.08967995432515938,-0.37796033999572176
0.577573299407959,-0.37805846333503723,-103.31937408447266,-0.03672588474013738,-0.19985269424246824,-0.0835411018381516,-0.3824763579294083
0,-0.8838785290718079,-103.41600799560547,-0.038078127180536575,-0.20631493472131995,-0.07872799100975193,-0.3929924995327987
0.4614761173725128,-0.740899920463562,-103.4137954711914,-0.038078127180536575,-0.20631493472131995,-0.07872799100975193,-0.3929924995327987
-0.22685971856117249,0.4653075337409973,-103.37586975097656,-0.03937396755855943,-0.21288394807372232,-0.07677285435299076,-0.39528910275548673
0,1.6690280437469482,-103.37416076660156,-0.04066926927823158,-0.21932388203787712,-0.0786633520076672,-0.3775029729430872
0.8354521989822388,1.853583812713623,-103.6282958984375,-0.04192230763120782,-0.2253709724302299,-0.07170125034948188,-0.34814787413924914
0.8855015635490417,-0.3612963855266571,-103.74739837646484,-0.04299781779241229,-0.23106980592788498,-0.05735996899505454,-0.33571214557935775
-0.39302679896354675,-0.19980213046073914,-103.7149658203125,-0.04391961763923365,-0.23670397352892897,-0.05325601262350875,-0.3403879665459194
-1.843096137046814,-0.20204609632492065,-103.74223327636719,-0.04496250416462619,-0.2424050124315544,-0.07189037042359508,-0.34373670176913323
-0.4356853663921356,-0.19567064940929413,-103.66879272460938,-0.04631892572053603,-0.24816157667949373,-0.09088021628558633,-0.347051007983585
0.37514156103134155,-1.6659547090530396,-103.72604370117188,-0.0478378004228903,-0.25407503968466894,-0.09138474799692628,-0.3625645526374378
-0.160859614610672,-0.4068184792995453,-103.83715057373047,-0.04934599886544874,-0.26026172481115073,-0.08959906511008736,-0.379837662540376
1.3093518018722534,0.7464824914932251,-103.77996826171875,-0.05075956021539037,-0.26656876474153246,-0.08002829688290752,-0.37700712910542866
-0.7271258234977722,-0.3593510687351227,-103.60636901855469,-0.052052932803829485,-0.27282533276670917,-0.07517641372978685,-0.3737810339157778
0.4353967607021332,-0.30526188015937805,-103.57450103759766,-0.05332613199535341,-0.279101170342312,-0.07760748925308385,-0.37931947515656533
-0.26443466544151306,0.0769033282995224,-103.61580657958984,-0.05460771778184504,-0.2854390198276895,-0.07618280512591201,-0.3812224630887308
0.1831340193748474,-0.8521653413772583,-103.69020080566406,-0.055883077078809316,-0.29184656518563207,-0.07686031050980088,-0.3876829798643786
0.8476876616477966,0.5021214485168457,-103.78184509277344,-0.05709249741501276,-0.29833225678704256,-0.06827012983461218,-0.39060001230488206
-1.8170716762542725,-0.4590418040752411,-103.83517456054688,-0.058297651246603965,-0.3048392653501488,-0.07634832995633281,-0.3902410152678687
-1.0326459407806396,0.3204139471054077,-103.88356018066406,-0.058297651246603965,-0.3048392653501488,-0.07634832995633281,-0.3902410152678687
-0.09322948753833771,-0.5713090896606445,-104.06029510498047,-0.05964830920617611,-0.3113607055450685,-0.08573062519232429,-0.3923318081224957
0.9926729202270508,0.24112848937511444,-104.11465454101562,-0.06101469160988924,-0.3179224982221299,-0.07823526325325168,-0.3950833131248751
1.0659189224243164,0.06637401878833771,-104.07978057861328,-0.06217565489725931,-0.3244858657666998,-0.061080331231156956,-0.392520792223513
0.8346389532089233,-0.08587823808193207,-104.05293273925781,-0.06306167723197073,-0.33102923343009816,-0.04524234893421329,-0.39268332738429296
-1.1489927768707275,0.6679852604866028,-104.159912109375,-0.06383754650751747,-0.3375335314543916,-0.04786196413139499,-0.3878324355309207
-0.38033780455589294,-0.3686758577823639,-104.22752380371094,-0.06474144942230646,-0.3439766200047191,-0.060606385643283495,-0.3853381905083854
-0.2252071499824524,-0.28157442808151245,-104.31896209716797,-0.06579360758264857,-0.35044407944971057,-0.0656525935977697,-0.3907569428905844
-0.8855639100074768,0.7259672284126282,-104.48207092285156,-0.0669649543551107,-0.35692583455341953,-0.07490901909768578,-0.3870536695544918
0,0.17564788460731506,-104.49051666259766,-0.06827493550048931,-0.363314116885368,-0.08228871834774809,-0.3795402102793256
0.9679986238479614,-0.3269849121570587,-104.39761352539062,-0.06957919201296234,-0.36965029657249215,-0.07422206314901508,-0.3808013521755735
0.6511420011520386,0.14604739844799042,-104.42147827148438,-0.0707037860775987,-0.37600955088053706,-0.06072922460734842,-0.3823091647898157
-0.7226572036743164,-0.7124736905097961,-104.53097534179688,-0.07172090615456299,-0.3824207054528716,-0.061325184628367405,-0.38702938389033076
-0.6345398426055908,-0.2548293471336365,-104.5195083618164,-0.07283724235991633,-0.3889383690064357,-0.07263516001403329,-0.39509024253735936
1.4367890357971191,-0.7077674269676208,-104.4223861694336,-0.07399211661062302,-0.3955900533802598,-0.06594975007077056,-0.4031118823215365
0,0.43376779556274414,-104.48860168457031,-0.07499150209542774,-0.4023276125044663,-0.05397650810579457,-0.4053952125832438
-0.6818397641181946,1.2547972202301025,-104.57339477539062,-0.07593846054747697,-0.40896693792142363,-0.05965850614011285,-0.39132383745163674
-0.6032093167304993,-0.5849456191062927,-104.73841094970703,-0.07593846054747697,-0.40896693792142363,-0.05965850614011285,-0.39132383745163674
0.3033253252506256,-0.05900752544403076,-104.74102783203125,-0.07695359426033162,-0.4155337208473225,-0.06215753940244513,-0.39669011365622275
0,0,-104.70636749267578,-0.07796848899167441,-0.42214932048641535,-0.05962982835868992,-0.397181843034923
0.05464095249772072,1.3533358573913574,-104.79222106933594,-0.07895852495372913,-0.42867503621356745,-0.05917448708787558,-0.38590404422332836
1.1363792419433594,2.592272996902466,-104.90210723876953,-0.07986205666946865,-0.43483276966907475,-0.04924931880086658,-0.3530239704375465
-0.8243028521537781,-0.2249888777732849,-104.86610412597656,-0.08066120667796993,-0.44055210777920545,-0.04664868221928674,-0.33329660277813666
0.4048976004123688,-0.881872296333313,-104.82100677490234,-0.0814678100796623,-0.44618391651815403,-0.05014372598379848,-0.34252044589569164
0.6147496700286865,-0.641934871673584,-104.91488647460938,-0.08223273000783388,-0.45199841055863826,-0.041646665396789684,-0.3552188389624158
-0.25274136662483215,-0.5466264486312866,-104.9178237915039,-0.08290170163226622,-0.45800126352192194,-0.038629929535090896,-0.36512351663162307
-0.07536385953426361,-0.28921183943748474,-104.90121459960938,-0.08356831887633434,-0.46414469979134265,-0.04136413975308336,-0.3720888356988628
-1.521042823791504,0.12775157392024994,-104.93496704101562,-0.08436858278078335,-0.4703573929047624,-0.054667528780798086,-0.37343433791150643
-0.3446742296218872,-0.23886525630950928,-105.09332275390625,-0.08540927194472814,-0.47658901476456456,-0.07021517089257634,-0.37436028526475024
0.6644110083580017,-0.7696423530578613,-105.21903991699219,-0.08655732084996996,-0.48289838810296093,-0.06755069773644205,-0.38276451534281164
0.7358986139297485,0.2551923096179962,-105.3206558227539,-0.08758592208847402,-0.4893135223894689,-0.055881450884044136,-0.38705159903814385
-0.6670978665351868,-0.33950933814048767,-105.31838989257812,-0.0885125017735279,-0.4957702377226409,-0.05530811132242279,-0.38775424094249794
0.6131292581558228,0.3368017375469208,-105.17919921875,-0.08943805144892795,-0.5022329964328348,-0.055757849725584153,-0.38777680428077765
0.6115005612373352,0,-105.1828384399414,-0.0902823052068965,-0.5086725541612959,-0.04555260123064117,-0.3849701231345533
-0.4529694616794586,-0.49386724829673767,-105.27162170410156,-0.0902823052068965,-0.5086725541612959,-0.04555260123064117,-0.3849701231345533
-1.3580204248428345,0.664459228515625,-105.3378677368164,-0.0902823052068965,-0.5086725541612959,-0.04555260123064117,-0.3849701231345533
-0.6166510581970215,0.29497411847114563,-105.45723724365234,-0.0902823052068965,-0.5086725541612959,-0.04555260123064117,-0.3849701231345533
0.6078912615776062,1.4605810642242432,-105.56431579589844,-0.0902823052068965,-0.5086725541612959,-0.04555260123064117,-0.3849701231345533
0.7656282186508179,2.436812162399292,-105.84881591796875,-0.0902823052068965,-0.5086725541612959,-0.04555260123064117,-0.3849701231345533
0.09834200888872147,2.32814621925354,-106.46015167236328,-0.0902823052068965,-0.5086725541612959,-0.04555260123064117,-0.3849701231345533
-0.09757912904024124,1.2533448934555054,-107.40352630615234,-0.0902823052068965,-0.5086725541612959,-0.04555260123064117,-0.3849701231345533
0.6170767545700073,1.863669514656067,-108.65481567382812,-0.0902823052068965,-0.5086725541612959,-0.04555260123064117,-0.3849701231345533
0.03433505445718765,1.6809622049331665,-110.05207824707031,-0.0902823052068965,-0.5086725541612959,-0.04555260123064117,-0.3849701231345533
0.24532876908779144,1.9039883613586426,-111.558837890625,-0.0902823052068965,-0.5086725541612959,-0.04555260123064117,-0.3849701231345533
0.8328020572662354,1.6260027885437012,-113.1993637084961,-0.0902823052068965,-0.5086725541612959,-0.04555260123064117,-0.3849701231345533
0.44595205783843994,1.5185679197311401,-114.9897232055664,-0.0902823052068965,-0.5086725541612959,-0.04555260123064117,-0.3849701231345533
-0.8184326887130737,1.3114768266677856,-116.78828430175781,-0.0902823052068965,-0.5086725541612959,-0.04555260123064117,-0.3849701231345533
-0.2733604907989502,0.7539458274841309,-118.55204772949219,-0.0902823052068965,-0.5086725541612959,-0.04555260123064117,-0.3849701231345533
-0.7144550681114197,0.7094540596008301,-120.23516845703125,-0.0902823052068965,-0.5086725541612959,-0.04555260123064117,-0.3849701231345533
0.054827284067869186,0.1102185919880867,-121.86676025390625,-0.0902823052068965,-0.5086725541612959,-0.04555260123064117,-0.3849701231345533
-0.6541668176651001,1.0638201236724854,-123.39031982421875,-0.0902823052068965,-0.5086725541612959,-0.04555260123064117,-0.3849701231345533
-0.15837694704532623,0.6566257476806641,-124.9242172241211,-0.0902823052068965,-0.5086725541612959,-0.04555260123064117,-0.3849701231345533
-0.18716998398303986,0.3061964213848114,-126.36579895019531,-0.0902823052068965,-0.5086725541612959,-0.04555260123064117,-0.3849701231345533
0.042737554758787155,0.8715991377830505,-127.82622528076172,-0.0902823052068965,-0.5086725541612959,-0.04555260123064117,-0.3849701231345533
-0.22427578270435333,0.5284626483917236,-129.28787231445312,-0.0902823052068965,-0.5086725541612959,-0.04555260123064117,-0.3849701231345533
-0.5095094442367554,0.8322323560714722,-130.73281860351562,-0.0902823052068965,-0.5086725541612959,-0.04555260123064117,-0.3849701231345533
0.2680402994155884,0.6234649419784546,-132.14866638183594,-0.0902823052068965,-0.5086725541612959,-0.04555260123064117,-0.3849701231345533
-0.3514014780521393,1.0099421739578247,-133.6233367919922,-0.0902823052068965,-0.5086725541612959,-0.04555260123064117,-0.3849701231345533
0.06442342698574066,0.9356912970542908,-135.15914916992188,-0.0902823052068965,-0.5086725541612959,-0.04555260123064117,-0.3849701231345533
-0.6947583556175232,0.5236110687255859,-136.71746826171875,-0.0902823052068965,-0.5086725541612959,-0.04555260123064117,-0.3849701231345533
-0.05445354804396629,-0.020128445699810982,-138.3317413330078,-0.0902823052068965,-0.5086725541612959,-0.04555260123064117,-0.3849701231345533
-0.12415692210197449,0.49826759099960327,-139.96644592285156,-0.0902823052068965,-0.5086725541612959,-0.04555260123064117,-0.3849701231345533
0.0020467578433454037,0.29955974221229553,-141.59107971191406,-0.0902823052068965,-0.5086725541612959,-0.04555260123064117,-0.3849701231345533
-0.43735718727111816,0.7267503142356873,-143.19094848632812,-0.0902823052068965,-0.5086725541612959,-0.04555260123064117,-0.3849701231345533
-0.13651803135871887,-0.16064730286598206,-144.7632598876953,-0.0902823052068965,-0.5086725541612959,-0.04555260123064117,-0.3849701231345533
0.15114648640155792,0.564740777015686,-146.3163299560547,-0.0902823052068965,-0.5086725541612959,-0.04555260123064117,-0.3849701231345533
0.4506305158138275,0.2719794511795044,-147.8642578125,-0.0902823052068965,-0.5086725541612959,-0.04555260123064117,-0.3849701231345533
0.2694430351257324,0.19856442511081696,-149.46986389160156,-0.0902823052068965,-0.5086725541612959,-0.04555260123064117,-0.3849701231345533
0.07444709539413452,0.8306184411048889,-151.05003356933594,-0.0902823052068965,-0.5086725541612959,-0.04555260123064117,-0.3849701231345533
-0.27146074175834656,0.31903693079948425,-152.6175537109375,-0.0902823052068965,-0.5086725541612959,-0.04555260123064117,-0.3849701231345533
0.3953593671321869,-0.1708376109600067,-154.18765258789062,-0.0902823052068965,-0.5086725541612959,-0.04555260123064117,-0.3849701231345533
-0.5067921280860901,0.5869622230529785,-155.819580078125,-0.0902823052068965,-0.5086725541612959,-0.04555260123064117,-0.3849701231345533
0.40727218985557556,0.19810684025287628,-157.3778533935547,-0.0902823052068965,-0.5086725541612959,-0.04555260123064117,-0.3849701231345533
0.11631262302398682,0.1385023146867752,-158.92657470703125,-0.0902823052068965,-0.5086725541612959,-0.04555260123064117,-0.3849701231345533
-0.5104823112487793,0.27791571617126465,-160.5048065185547,-0.0902823052068965,-0.5086725541612959,-0.04555260123064117,-0.3849701231345533
0.4167633652687073,0.018735505640506744,-162.130126953125,-0.0902823052068965,-0.5086725541612959,-0.04555260123064117,-0.3849701231345533
0.2635958194732666,0.6826117634773254,-163.72434997558594,-0.0902823052068965,-0.5086725541612959,-0.04555260123064117,-0.3849701231345533
0.24929079413414001,0.6165529489517212,-165.3115692138672,-0.0902823052068965,-0.5086725541612959,-0.04555260123064117,-0.3849701231345533
-0.38498035073280334,0.6298880577087402,-166.92935180664062,-0.0902823052068965,-0.5086725541612959,-0.04555260123064117,-0.3849701231345533
-0.09321034699678421,0.7949594259262085,-168.50196838378906,-0.0902823052068965,-0.5086725541612959,-0.04555260123064117,-0.3849701231345533
0.268178254365921,0.06700819730758667,-170.0666046142578,-0.0902823052068965,-0.5086725541612959,-0.04555260123064117,-0.3849701231345533
0.06875123083591461,-0.14402180910110474,-171.67825317382812,-0.0902823052068965,-0.5086725541612959,-0.04555260123064117,-0.3849701231345533
0.44757789373397827,0.760460615158081,-173.27224731445312,-0.0902823052068965,-0.5086725541612959,-0.04555260123064117,-0.3849701231345533
0.08344665169715881,0.22986328601837158,-174.82113647460938,-0.0902823052068965,-0.5086725541612959,-0.04555260123064117,-0.3849701231345533
0.030634881928563118,-0.09786798804998398,-176.39512634277344,-0.0902823052068965,-0.5086725541612959,-0.04555260123064117,-0.3849701231345533
-0.001112556317821145,0.6149048209190369,-177.96495056152344,-0.0902823052068965,-0.5086725541612959,-0.04555260123064117,-0.3849701231345533
0.2887345552444458,-0.10344397276639938,-179.50100708007812,-0.0902823052068965,-0.5086725541612959,-0.04555260123064117,-0.3849701231345533
0.1629258245229721,1.4886081218719482,178.96035766601562,-0.0902823052068965,-0.5086725541612959,-0.04555260123064117,-0.3849701231345533
-0.18880151212215424,0.0710613951086998,177.37435913085938,-0.0902823052068965,-0.5086725541612959,-0.04555260123064117,-0.3849701231345533
0.9486769437789917,0.13048723340034485,175.6702423095703,-0.0902823052068965,-0.5086725541612959,-0.04555260123064117,-0.3849701231345533
-0.24700777232646942,0.4649566411972046,173.9528350830078,-0.0902823052068965,-0.5086725541612959,-0.04555260123064117,-0.3849701231345533
-0.44306671619415283,-0.033670153468847275,172.23812866210938,-0.0902823052068965,-0.5086725541612959,-0.04555260123064117,-0.3849701231345533
-0.19230268895626068,0.19249475002288818,170.54627990722656,-0.0902823052068965,-0.5086725541612959,-0.04555260123064117,-0.3849701231345533
2.8915019035339355,-3.8498480319976807,169.03697204589844,-0.0902823052068965,-0.5086725541612959,-0.04555260123064117,-0.3849701231345533
-1.3491448163986206,0.14948444068431854,167.92384338378906,-0.0902823052068965,-0.5086725541612959,-0.04555260123064117,-0.3849701231345533
0.8799828886985779,0.7545890212059021,167.1630401611328,-0.0902823052068965,-0.5086725541612959,-0.04555260123064117,-0.3849701231345533
-0.293885201215744,-2.1199791431427,166.91961669921875,-0.0902823052068965,-0.5086725541612959,-0.04555260123064117,-0.3849701231345533
0.979898989200592,-1.1199951171875,166.9890899658203,-0.0902823052068965,-0.5086725541612959,-0.04555260123064117,-0.3849701231345533
1.6725624799728394,0.21430625021457672,167.2097930908203,-0.0902823052068965,-0.5086725541612959,-0.04555260123064117,-0.3849701231345533
3.0977413654327393,1.147963523864746,167.0635223388672,-0.0902823052068965,-0.5086725541612959,-0.04555260123064117,-0.3849701231345533
1.0300514698028564,0.5047610998153687,166.75909423828125,-0.0902823052068965,-0.5086725541612959,-0.04555260123064117,-0.3849701231345533
-0.3053525984287262,-0.49872955679893494,166.7592010498047,-0.0902823052068965,-0.5086725541612959,-0.04555260123064117,-0.3849701231345533
-0.282198041677475,-0.022932318970561028,166.93162536621094,-0.0902823052068965,-0.5086725541612959,-0.04555260123064117,-0.3849701231345533
-0.8453691005706787,0.6619925498962402,167.00074768066406,-0.0902823052068965,-0.5086725541612959,-0.04555260123064117,-0.3849701231345533
-0.809775710105896,0.6793379187583923,166.95965576171875,-0.0902823052068965,-0.5086725541612959,-0.04555260123064117,-0.3849701231345533
-0.2642456591129303,0.08846141397953033,166.96437072753906,-0.0902823052068965,-0.5086725541612959,-0.04555260123064117,-0.3849701231345533
0.4931158423423767,0.18415585160255432,166.96902465820312,-0.0902823052068965,-0.5086725541612959,-0.04555260123064117,-0.3849701231345533
0.673271119594574,-0.06714882701635361,166.9529571533203,-0.0902823052068965,-0.5086725541612959,-0.04555260123064117,-0.3849701231345533
0.3427148461341858,0.2759396731853485,166.96270751953125,-0.0902823052068965,-0.5086725541612959,-0.04555260123064117,-0.3849701231345533
-0.21898213028907776,0.10097421705722809,166.9742431640625,-0.0902823052068965,-0.5086725541612959,-0.04555260123064117,-0.3849701231345533
-0.31864041090011597,0.2952645421028137,166.97280883789062,-0.0902823052068965,-0.5086725541612959,-0.04555260123064117,-0.3849701231345533
-0.04686940088868141,0.21377575397491455,166.9710693359375,-0.0902823052068965,-0.5086725541612959,-0.04555260123064117,-0.3849701231345533
0.26076921820640564,0.10619615018367767,166.96856689453125,-0.0902823052068965,-0.5086725541612959,-0.04555260123064117,-0.3849701231345533
0.21566537022590637,0.1813170164823532,166.96670532226562,-0.0902823052068965,-0.5086725541612959,-0.04555260123064117,-0.3849701231345533
-0.0358920656144619,0.21615825593471527,166.97012329101562,-0.0902823052068965,-0.5086725541612959,-0.04555260123064117,-0.3849701231345533
-0.10086587816476822,0.18511971831321716,166.97134399414062,-0.0902823052068965,-0.5086725541612959,-0.04555260123064117,-0.3849701231345533
0.057546842843294144,0.18984784185886383,166.96990966796875,-0.0902823052068965,-0.5086725541612959,-0.04555260123064117,-0.3849701231345533
0.14517907798290253,0.16878677904605865,166.97010803222656,-0.0902823052068965,-0.5086725541612959,-0.04555260123064117,-0.3849701231345533
0.06678666174411774,0.16801577806472778,166.9700927734375,-0.0902823052068965,-0.5086725541612959,-0.04555260123064117,-0.3849701231345533
-0.03134824335575104,0.19108065962791443,166.97067260742188,-0.0902823052068965,-0.5086725541612959,-0.04555260123064117,-0.3849701231345533
0.026455353945493698,0.1927328258752823,166.9700164794922,-0.0902823052068965,-0.5086725541612959,-0.04555260123064117,-0.3849701231345533
0.11290738731622696,0.17488107085227966,166.96975708007812,-0.0902823052068965,-0.5086725541612959,-0.04555260123064117,-0.3849701231345533
0.08172111958265305,0.1760893315076828,166.97158813476562,-0.09102799935887254,-0.5150643499355968,-0.04393069700648384,-0.3820453697815536
0,0.19809025526046753,166.97213745117188,-0.09175450256456515,-0.5214057880717637,-0.043249687676628394,-0.3789272065584857
-0.15205493569374084,0.14635100960731506,166.9723663330078,-0.09248589006304324,-0.5276973219821227,-0.0445168121407429,-0.37605686268458755
-0.37469348311424255,0.4148108661174774,166.98899841308594,-0.09326441668336173,-0.5339259667854961,-0.0489063822974761,-0.3713805137202143
-0.7836090922355652,0.29830047488212585,167.02186584472656,-0.09415996073383007,-0.5400661203932636,-0.058558903758724495,-0.3654379192118843
-2.9168856143951416,0.4363575875759125,167.17942810058594,-0.09539292126221371,-0.5461057344591244,-0.08939635964731371,-0.35931576869140064
-2.2858991622924805,-0.2554242014884949,167.4583740234375,-0.09724416508805003,-0.5520817657855027,-0.1327528994530439,-0.35780799047400547
-0.4811292886734009,1.1891517639160156,167.64132690429688,-0.09964886816580673,-0.5579803901015675,-0.15581146987775957,-0.3500269274537761
0,0.9178147315979004,167.60459899902344,-0.1022791377532606,-0.5636678551080531,-0.15982088061670457,-0.3324688733244935
-1.331156849861145,0.28357264399528503,167.4549102783203,-0.10503526054477937,-0.569125573317934,-0.17091385436554746,-0.32245731186121696
-1.295654058456421,-0.13436095416545868,167.3807373046875,-0.10806624220839388,-0.5744894999260495,-0.19280394526819383,-0.32121388111263505
-0.6420313715934753,0,167.29901123046875,-0.11141420278439503,-0.5798523952330771,-0.20895132385194298,-0.3223335557306805
-0.8709231019020081,0.7724435925483704,167.33306884765625,-0.11500179113147571,-0.5851709792457725,-0.22155927779773868,-0.31589652579277744
-1.2621444463729858,-0.1775309443473816,167.405029296875,-0.11884257545229045,-0.5903946079639716,-0.2393348407000303,-0.31093892039110255
-0.7573474645614624,0.6990666389465332,167.45738220214844,-0.12297173195777251,-0.5955407055472539,-0.2561639399578174,-0.3065927896027763
-0.3033283054828644,0.36623048782348633,167.53228759765625,-0.12731478899665588,-0.6005766064068301,-0.26500290470818677,-0.2977153135463595
0.3720209002494812,0.5597314834594727,167.5560302734375,-0.13172673375604466,-0.6054742253845969,-0.26443046641846496,-0.2899989637856682
-1.6368502378463745,0.7742840647697449,167.5150146484375,-0.13172673375604466,-0.6054742253845969,-0.26443046641846496,-0.2899989637856682
-0.6618926525115967,-0.18681742250919342,167.43075561523438,-0.13629354311929393,-0.61026674515309,-0.28358665717144804,-0.2851034084334969
0.06386781483888626,-0.1434650868177414,167.36460876464844,-0.1410615169081009,-0.6150414049123515,-0.2885701974853873,-0.28785576267788804
0.8474376797676086,0.6656807065010071,167.27609252929688,-0.1458077350957319,-0.6198027359833939,-0.28097598503033316,-0.2835039658471942
0.7152526378631592,-0.37299174070358276,167.09454345703125,-0.1503821480186242,-0.6245074764582222,-0.26795356571674345,-0.2810648911322156
0.18387265503406525,0.5562673211097717,167.02249145507812,-0.15478560152411874,-0.6291791638395643,-0.2604608549425999,-0.2795375946288307
-1.7768603563308716,0.5751286745071411,166.91981506347656,-0.15923723991908548,-0.6337595545836825,-0.27373575245340664,-0.27010929466535644
-1.8315083980560303,0.7088082432746887,166.85206604003906,-0.16405008362347467,-0.6381722138754814,-0.3038054920732975,-0.25940982035050786
-0.32781997323036194,0.8088948726654053,166.91522216796875,-0.16926346185048008,-0.6423903148316051,-0.32179989516735075,-0.2467622943843404
-1.3447961807250977,-1.1796568632125854,167.01939392089844,-0.17474294733618284,-0.6465287670984655,-0.3357383631169796,-0.24985197763890024
1.1475393772125244,0.46048930287361145,167.09368896484375,-0.18035228511059864,-0.6507429089174708,-0.3373821698129177,-0.25584504064172503
-1.0536941289901733,0.42219626903533936,167.18714904785156,-0.18596880424302073,-0.6549456953190058,-0.33660012607773143,-0.24848932754248376
-0.16971012949943542,0.834604024887085,167.29893493652344,-0.19166376497337803,-0.6589999063131915,-0.34679516156514484,-0.2380159917597969
-0.1465631127357483,0,167.38380432128906,-0.19746564775239678,-0.6629088808963487,-0.3494307719171047,-0.2310609582190712
-0.7219473719596863,0.2661661207675934,167.3258819580078,-0.20334980717911905,-0.66674141310828,-0.35666835928956664,-0.22884290721267458
0,0.6276231408119202,167.11386108398438,-0.20934441506810902,-0.6704933928631037,-0.3626845873892307,-0.22139466336617863
-1.2002770900726318,0.17814381420612335,166.87135314941406,-0.20934441506810902,-0.6704933928631037,-0.3626845873892307,-0.22139466336617863
-0.42496198415756226,-0.9382718205451965,166.72569274902344,-0.2155020220158622,-0.6742360905863136,-0.376228246341149,-0.22772906341900426
0.2816585302352905,0.10534186661243439,166.744384765625,-0.22178244441695927,-0.6780894173345423,-0.3774224417905013,-0.23467014636844394
0.5704733729362488,0.2537510097026825,166.89341735839844,-0.22801364262019183,-0.6819756494353834,-0.3703213425974051,-0.23167770573248464
2.8413467407226562,0.11473692953586578,166.8810577392578,-0.23394873304447783,-0.6858113550906999,-0.3418895083169142,-0.22860697290549672
-0.2654479146003723,0.5197086930274963,166.78582763671875,-0.23946800965350123,-0.6895774125820024,-0.3204236847658952,-0.22331992605080203
-0.5517341494560242,0.45293936133384705,166.8279571533203,-0.24486515315404786,-0.6932318663457407,-0.3272335352996985,-0.21521452559779083
-1.0352212190628052,0.7059656977653503,166.8948211669922,-0.2504292506429677,-0.6967382955877109,-0.34045816337068874,-0.20555698343863085
-0.06756623089313507,-0.7201390266418457,166.95416259765625,-0.256180135827615,-0.7001652295706379,-0.34964805878698824,-0.20567509451260166
-1.0305392742156982,-0.8948562741279602,166.8699188232422,-0.2620838608008085,-0.703705300263957,-0.35879893799622853,-0.21913338868568338
-0.13633839786052704,1.3674280643463135,166.74783325195312,-0.26814487627241756,-0.7073247059232866,-0.36852291859686376,-0.21519529043386376
-0.3357434570789337,0.8529049754142761,166.6844024658203,-0.2743197083778472,-0.7107571043027565,-0.3724569340546926,-0.1966925151025255
-0.22977828979492188,-0.9109451174736023,166.57064819335938,-0.2805665962889583,-0.7140393434532194,-0.3771696152786414,-0.1971761829530199
-0.27127790451049805,2.3642802238464355,166.52772521972656,-0.2868875521126513,-0.7172246871200494,-0.3813450835645199,-0.1850650570665796
-0.5238062739372253,0.3268543779850006,166.6042022705078,-0.2932985176844522,-0.7201222203904764,-0.3879707850515843,-0.16263893538465096
0.21837536990642548,-2.457160472869873,166.6796417236328,-0.2997859079147585,-0.7229808072368098,-0.39051604258517425,-0.18039148617535822
0.26918691396713257,1.3825228214263916,166.74942016601562,-0.2997859079147585,-0.7229808072368098,-0.39051604258517425,-0.18039148617535822
0.4311024248600006,1.0674169063568115,166.6829376220703,-0.3062458774204262,-0.7258171973030808,-0.38468029809494814,-0.15997532177716486
0,-0.6501197218894958,166.64093017578125,-0.3126272780536156,-0.72845447369489,-0.3810877778877815,-0.15649784523993723
-0.06707606464624405,-0.44801855087280273,166.6179962158203,-0.31898339907845685,-0.7311390307178308,-0.3816467450931668,-0.1656489975129564
0.09090664237737656,0.1116577610373497,166.5983428955078,-0.32534252326211166,-0.7339232057312298,-0.3814481569454074,-0.1684520040949185
-0.4105052053928375,1.3466262817382812,166.4667510986328,-0.331722186889189,-0.7366294694076191,-0.3841114783038696,-0.15629963707178826
-0.5270130038261414,0.38629022240638733,166.3054962158203,-0.3381891502921159,-0.7391141219349167,-0.3919241300473611,-0.14185866620391602
-0.13610728085041046,0.7012310028076172,166.23646545410156,-0.34476726914600775,-0.7414029107310087,-0.3974501324196657,-0.13279598932713266
-0.12991003692150116,0.586310863494873,166.26400756835938,-0.3514099114445141,-0.74352676459019,-0.3996669434010983,-0.12206647377461191
-0.3312404751777649,-0.5855931043624878,166.36419677734375,-0.35810305150898375,-0.7455611559753826,-0.40350986433525887,-0.1220604924485087
0.6304336786270142,0,166.43191528320312,-0.3648074386087763,-0.7476361637039941,-0.4010165876398485,-0.12694043498486277
0.9447475671768188,0.8908630013465881,166.44338989257812,-0.3713816608162596,-0.7496899721342039,-0.3878900772581499,-0.11951657664030786
-0.13759829103946686,-0.5506617426872253,166.4564208984375,-0.3777904434041637,-0.7516582899908021,-0.38116383329033865,-0.11668156615147984
-0.9006550908088684,-0.31573814153671265,166.3395233154297,-0.38421527488829765,-0.7536631494186201,-0.38981594480574144,-0.12390156518667933
-0.9633143544197083,0.6850867867469788,166.06626892089844,-0.390841649624312,-0.7557025262935918,-0.40534902351597957,-0.12082365980992711
0.28059902787208557,-0.5654541850090027,165.97650146484375,-0.39764487746947746,-0.7577079461375255,-0.4110383179038764,-0.11982672146211064
-0.719687283039093,0.5727350115776062,166.02975463867188,-0.39764487746947746,-0.7577079461375255,-0.4110383179038764,-0.11982672146211064
0.9296444654464722,0.8990564346313477,166.1454315185547,-0.39764487746947746,-0.7577079461375255,-0.4110383179038764,-0.11982672146211064
-0.1650504618883133,-0.7128081321716309,166.14999389648438,-0.39764487746947746,-0.7577079461375255,-0.4110383179038764,-0.11982672146211064
0.6263840794563293,-0.13647666573524475,166.1993865966797,-0.39764487746947746,-0.7577079461375255,-0.4110383179038764,-0.11982672146211064
2.2114453315734863,0.6176292300224304,166.47799682617188,-0.39764487746947746,-0.7577079461375255,-0.4110383179038764,-0.11982672146211064
2.3529443740844727,0.19365312159061432,166.8888702392578,-0.39764487746947746,-0.7577079461375255,-0.4110383179038764,-0.11982672146211064
0.7079974412918091,-0.8439815044403076,167.36917114257812,-0.39764487746947746,-0.7577079461375255,-0.4110383179038764,-0.11982672146211064
0.37019428610801697,-0.7519277930259705,168.07394409179688,-0.39764487746947746,-0.7577079461375255,-0.4110383179038764,-0.11982672146211064
1.1104538440704346,-0.2102036327123642,169.0406036376953,-0.39764487746947746,-0.7577079461375255,-0.4110383179038764,-0.11982672146211064
1.0946495532989502,-0.05401605740189552,170.1029815673828,-0.39764487746947746,-0.7577079461375255,-0.4110383179038764,-0.11982672146211064
0.6688981056213379,-0.029928112402558327,171.2418975830078,-0.39764487746947746,-0.7577079461375255,-0.4110383179038764,-0.11982672146211064
2.0261390209198,-0.25971609354019165,172.3577423095703,-0.39764487746947746,-0.7577079461375255,-0.4110383179038764,-0.11982672146211064
0.8923911452293396,0.18298083543777466,173.5126190185547,-0.39764487746947746,-0.7577079461375255,-0.4110383179038764,-0.11982672146211064
1.0205364227294922,-0.5819572806358337,174.712158203125,-0.39764487746947746,-0.7577079461375255,-0.4110383179038764,-0.11982672146211064
0.8136098980903625,0.4672008454799652,175.94444274902344,-0.39764487746947746,-0.7577079461375255,-0.4110383179038764,-0.11982672146211064
0.9312447309494019,-0.5781266689300537,177.2274169921875,-0.39764487746947746,-0.7577079461375255,-0.4110383179038764,-0.11982672146211064
0.10073594003915787,-0.185072660446167,178.52798461914062,-0.39764487746947746,-0.7577079461375255,-0.4110383179038764,-0.11982672146211064
1.0539170503616333,-0.6141391396522522,179.81173706054688,-0.39764487746947746,-0.7577079461375255,-0.4110383179038764,-0.11982672146211064
0.38921689987182617,-0.08047950267791748,-178.9053955078125,-0.39764487746947746,-0.7577079461375255,-0.4110383179038764,-0.11982672146211064
0.5911558866500854,-0.6456393003463745,-177.6143035888672,-0.39764487746947746,-0.7577079461375255,-0.4110383179038764,-0.11982672146211064
0.23228690028190613,-1.0552219152450562,-176.2771759033203,-0.39764487746947746,-0.7577079461375255,-0.4110383179038764,-0.11982672146211064
0.3585509955883026,-0.32611510157585144,-174.88973999023438,-0.39764487746947746,-0.7577079461375255,-0.4110383179038764,-0.11982672146211064
0.20089687407016754,-1.258010983467102,-173.4610137939453,-0.39764487746947746,-0.7577079461375255,-0.4110383179038764,-0.11982672146211064
0.8817448616027832,-0.552845299243927,-172.08389282226562,-0.39764487746947746,-0.7577079461375255,-0.4110383179038764,-0.11982672146211064
-0.38560745120048523,-1.480049967765808,-170.6593475341797,-0.39764487746947746,-0.7577079461375255,-0.4110383179038764,-0.11982672146211064
0.8800477981567383,0.1582649052143097,-169.1766357421875,-0.39764487746947746,-0.7577079461375255,-0.4110383179038764,-0.11982672146211064
1.0886976718902588,0.8375819325447083,-167.75123596191406,-0.39764487746947746,-0.7577079461375255,-0.4110383179038764,-0.11982672146211064
0.5493695735931396,0.2200586497783661,-166.3040771484375,-0.39764487746947746,-0.7577079461375255,-0.4110383179038764,-0.11982672146211064
0.48580530285835266,0.35820046067237854,-164.8512420654297,-0.39764487746947746,-0.7577079461375255,-0.4110383179038764,-0.11982672146211064
-0.18308798968791962,-0.17358417809009552,-163.39096069335938,-0.39764487746947746,-0.7577079461375255,-0.4110383179038764,-0.11982672146211064
-0.05468042194843292,-0.2705274522304535,-162.00125122070312,-0.39764487746947746,-0.7577079461375255,-0.4110383179038764,-0.11982672146211064
-0.042219389230012894,0.684475302696228,-160.6085968017578,-0.39764487746947746,-0.7577079461375255,-0.4110383179038764,-0.11982672146211064
0.31032708287239075,-1.1236495971679688,-159.23976135253906,-0.39764487746947746,-0.7577079461375255,-0.4110383179038764,-0.11982672146211064
-0.030441109091043472,0.7039629220962524,-157.9117889404297,-0.39764487746947746,-0.7577079461375255,-0.4110383179038764,-0.11982672146211064
-0.0608179047703743,0.19096916913986206,-156.61737060546875,-0.39764487746947746,-0.7577079461375255,-0.4110383179038764,-0.11982672146211064
0.34799373149871826,-0.6596694588661194,-155.37008666992188,-0.39764487746947746,-0.7577079461375255,-0.4110383179038764,-0.11982672146211064
-0.008121715858578682,-0.00883755274116993,-154.14569091796875,-0.39764487746947746,-0.7577079461375255,-0.4110383179038764,-0.11982672146211064
0.038574814796447754,-0.11881674826145172,-152.8919219970703,-0.39764487746947746,-0.7577079461375255,-0.4110383179038764,-0.11982672146211064
0.629142165184021,0.056010786443948746,-151.70285034179688,-0.39764487746947746,-0.7577079461375255,-0.4110383179038764,-0.11982672146211064
0.8267830014228821,0.2659485638141632,-150.44985961914062,-0.39764487746947746,-0.7577079461375255,-0.4110383179038764,-0.11982672146211064
0.165756493806839,-0.2627454102039337,-149.18190002441406,-0.39764487746947746,-0.7577079461375255,-0.4110383179038764,-0.11982672146211064
0.36613768339157104,-0.4127122759819031,-147.83790588378906,-0.39764487746947746,-0.7577079461375255,-0.4110383179038764,-0.11982672146211064
0.18479205667972565,0.7040214538574219,-146.5339813232422,-0.39764487746947746,-0.7577079461375255,-0.4110383179038764,-0.11982672146211064
-0.0805710107088089,-0.1862785816192627,-145.1415252685547,-0.39764487746947746,-0.7577079461375255,-0.4110383179038764,-0.11982672146211064
0.16471873223781586,-0.4269908368587494,-143.81349182128906,-0.39764487746947746,-0.7577079461375255,-0.4110383179038764,-0.11982672146211064
0.26986342668533325,-0.2468266487121582,-142.48826599121094,-0.39764487746947746,-0.7577079461375255,-0.4110383179038764,-0.11982672146211064
-0.12959711253643036,-0.07763854414224625,-141.21446228027344,-0.39764487746947746,-0.7577079461375255,-0.4110383179038764,-0.11982672146211064
0.8361724019050598,-0.14505517482757568,-139.93017578125,-0.39764487746947746,-0.7577079461375255,-0.4110383179038764,-0.11982672146211064
-0.2821362316608429,-0.19835984706878662,-138.64834594726562,-0.39764487746947746,-0.7577079461375255,-0.4110383179038764,-0.11982672146211064
0.7216781973838806,1.0280202627182007,-137.36793518066406,-0.39764487746947746,-0.7577079461375255,-0.4110383179038764,-0.11982672146211064
-0.04162941500544548,0.07451757043600082,-136.0111846923828,-0.39764487746947746,-0.7577079461375255,-0.4110383179038764,-0.11982672146211064
0.4316747188568115,0.7784510254859924,-134.6144561767578,-0.39764487746947746,-0.7577079461375255,-0.4110383179038764,-0.11982672146211064
0.8530212044715881,-1.3348389863967896,-133.19528198242188,-0.39764487746947746,-0.7577079461375255,-0.4110383179038764,-0.11982672146211064
0.7559124231338501,1.0476181507110596,-131.77191162109375,-0.39764487746947746,-0.7577079461375255,-0.4110383179038764,-0.11982672146211064
-0.09858250617980957,-0.8115006685256958,-130.27366638183594,-0.39764487746947746,-0.7577079461375255,-0.4110383179038764,-0.11982672146211064
0.366116464138031,0.7644256949424744,-128.6800079345703,-0.39764487746947746,-0.7577079461375255,-0.4110383179038764,-0.11982672146211064
0.024240531027317047,0.47834834456443787,-127.03128814697266,-0.39764487746947746,-0.7577079461375255,-0.4110383179038764,-0.11982672146211064
0.6921094059944153,0.10416533797979355,-125.30674743652344,-0.39764487746947746,-0.7577079461375255,-0.4110383179038764,-0.11982672146211064
-0.24610844254493713,0.4114256799221039,-123.53189849853516,-0.39764487746947746,-0.7577079461375255,-0.4110383179038764,-0.11982672146211064
0.7050252556800842,0.3379189074039459,-121.7304458618164,-0.39764487746947746,-0.7577079461375255,-0.4110383179038764,-0.11982672146211064
-0.16658778488636017,0.4330556392669678,-119.91597747802734,-0.39764487746947746,-0.7577079461375255,-0.4110383179038764,-0.11982672146211064
0.6031894683837891,0.1945960819721222,-118.01983642578125,-0.39764487746947746,-0.7577079461375255,-0.4110383179038764,-0.11982672146211064
0.13102340698242188,-0.23590214550495148,-116.08815002441406,-0.39764487746947746,-0.7577079461375255,-0.4110383179038764,-0.11982672146211064
0.5239774584770203,1.5362248420715332,-114.13211822509766,-0.39764487746947746,-0.7577079461375255,-0.4110383179038764,-0.11982672146211064
0.5313252210617065,-0.6001313328742981,-112.18696594238281,-0.39764487746947746,-0.7577079461375255,-0.4110383179038764,-0.11982672146211064
0.034660544246435165,-0.07993360608816147,-110.15987396240234,-0.39764487746947746,-0.7577079461375255,-0.4110383179038764,-0.11982672146211064
0.6177402138710022,0.4034351706504822,-108.12535858154297,-0.39764487746947746,-0.7577079461375255,-0.4110383179038764,-0.11982672146211064
0.8332196474075317,0.5026191473007202,-106.13359832763672,-0.39764487746947746,-0.7577079461375255,-0.4110383179038764,-0.11982672146211064
0.05257846787571907,0.3614722490310669,-104.11168670654297,-0.39764487746947746,-0.7577079461375255,-0.4110383179038764,-0.11982672146211064
0.7029018998146057,-0.07793909311294556,-102.0776596069336,-0.39764487746947746,-0.7577079461375255,-0.4110383179038764,-0.11982672146211064
-0.38023829460144043,0.4059560000896454,-100.02787780761719,-0.39764487746947746,-0.7577079461375255,-0.4110383179038764,-0.11982672146211064
-0.17122392356395721,0.462349534034729,-97.95764923095703,-0.39764487746947746,-0.7577079461375255,-0.4110383179038764,-0.11982672146211064
1.531276822090149,-0.6920180916786194,-95.78992462158203,-0.39764487746947746,-0.7577079461375255,-0.4110383179038764,-0.11982672146211064
-1.1540049314498901,0.8131912350654602,-93.72965240478516,-0.39764487746947746,-0.7577079461375255,-0.4110383179038764,-0.11982672146211064
-0.7248449325561523,1.2269246578216553,-92.1883316040039,-0.39764487746947746,-0.7577079461375255,-0.4110383179038764,-0.11982672146211064
-0.6245362758636475,-0.1891237199306488,-91.01815795898438,-0.39764487746947746,-0.7577079461375255,-0.4110383179038764,-0.11982672146211064
-1.4211114645004272,1.0811172723770142,-90.31303405761719,-0.39764487746947746,-0.7577079461375255,-0.4110383179038764,-0.11982672146211064
-1.2882970571517944,-0.13614846765995026,-89.98422241210938,-0.39764487746947746,-0.7577079461375255,-0.4110383179038764,-0.11982672146211064
-0.6980441808700562,-0.23321880400180817,-89.96846008300781,-0.39764487746947746,-0.7577079461375255,-0.4110383179038764,-0.11982672146211064
0.5910502076148987,0.2918577790260315,-90.06099700927734,-0.39764487746947746,-0.7577079461375255,-0.4110383179038764,-0.11982672146211064
-0.5154258012771606,0.479087769985199,-90.02090454101562,-0.39764487746947746,-0.7577079461375255,-0.4110383179038764,-0.11982672146211064
0.3728606700897217,0.23539035022258759,-90.02165985107422,-0.39764487746947746,-0.7577079461375255,-0.4110383179038764,-0.11982672146211064
0.00609804131090641,-0.08169955760240555,-90.0450439453125,-0.39764487746947746,-0.7577079461375255,-0.4110383179038764,-0.11982672146211064
-0.07170391082763672,-0.2376597672700882,-90.04100036621094,-0.39764487746947746,-0.7577079461375255,-0.4110383179038764,-0.11982672146211064
0.15540218353271484,-0.2676011919975281,-90.03620147705078,-0.39764487746947746,-0.7577079461375255,-0.4110383179038764,-0.11982672146211064
-0.03095555305480957,-0.10269447416067123,-90.0421371459961,-0.39764487746947746,-0.7577079461375255,-0.4110383179038764,-0.11982672146211064
0.0314062163233757,0.08831428736448288,-90.03312683105469,-0.39764487746947746,-0.7577079461375255,-0.4110383179038764,-0.11982672146211064
0.05375572666525841,0.11940443515777588,-90.03663635253906,-0.39764487746947746,-0.7577079461375255,-0.4110383179038764,-0.11982672146211064
0.03269343078136444,-0.016409415751695633,-90.03966522216797,-0.39764487746947746,-0.7577079461375255,-0.4110383179038764,-0.11982672146211064
0.016934018582105637,-0.1509200781583786,-90.04024505615234,-0.39764487746947746,-0.7577079461375255,-0.4110383179038764,-0.11982672146211064
0.06467136740684509,-0.1488722860813141,-90.03895568847656,-0.39764487746947746,-0.7577079461375255,-0.4110383179038764,-0.11982672146211064
0.023016352206468582,-0.012127683497965336,-90.0386734008789,-0.39764487746947746,-0.7577079461375255,-0.4110383179038764,-0.11982672146211064
0.019965916872024536,0.05540436506271362,-90.03573608398438,-0.39764487746947746,-0.7577079461375255,-0.4110383179038764,-0.11982672146211064
0.02499198168516159,0.0021508520003408194,-90.03890228271484,-0.39764487746947746,-0.7577079461375255,-0.4110383179038764,-0.11982672146211064
0.024956177920103073,-0.0824243351817131,-90.0398941040039,-0.39764487746947746,-0.7577079461375255,-0.4110383179038764,-0.11982672146211064
0.03839555010199547,-0.1085314154624939,-90.03955841064453,-0.39764487746947746,-0.7577079461375255,-0.4110383179038764,-0.11982672146211064
0.03261865675449371,-0.06322594732046127,-90.0390396118164,-0.39764487746947746,-0.7577079461375255,-0.4110383179038764,-0.11982672146211064
0.01648363284766674,0.0089732576161623,-90.03944396972656,-0.39764487746947746,-0.7577079461375255,-0.4110383179038764,-0.11982672146211064
0.04544176906347275,0.0008692678529769182,-90.03931427001953,-0.39764487746947746,-0.7577079461375255,-0.4110383179038764,-0.11982672146211064
0.04842805862426758,-0.04793968051671982,-90.03984069824219,-0.39764487746947746,-0.7577079461375255,-0.4110383179038764,-0.11982672146211064
0,-0.09341534972190857,-90.03886413574219,-0.40449215304158204,-0.7597148744834383,-0.41063475074867417,-0.12100468004743255
0,-0.2572324872016907,-90.04566192626953,-0.41133606555405994,-0.7617559696951264,-0.41063475074867417,-0.12392674535512921
0,-0.7042471766471863,-90.05156707763672,-0.41817997806653784,-0.7638881848721458,-0.41063475074867417,-0.1319390758872032
0.3023710548877716,-2.483799934387207,-90.05883026123047,-0.42500289258909296,-0.7663085616307543,-0.40811499195794276,-0.15850613514582312
-0.1502472460269928,-2.6121671199798584,-90.0852279663086,-0.43179424496833224,-0.7693042171508491,-0.4068472935507696,-0.20097252726554868
0.6233441233634949,-1.6617251634597778,-90.12591552734375,-0.43854217924436334,-0.7729505573471804,-0.4029048195729654,-0.2365882962942123
-0.7559736371040344,-0.2396136224269867,-90.15673065185547,-0.4452664699534781,-0.7770257330344372,-0.40401006552080326,-0.252432786176602
0.2472616583108902,-0.6334235072135925,-90.14993286132812,-0.452035298266241,-0.7812935737158279,-0.40824933201074615,-0.25970809559027347
-0.05621616169810295,-1.8336108922958374,-90.218505859375,-0.45882618675137754,-0.785793363808965,-0.40665728620563957,-0.2802667155861854
0.26127004623413086,-1.8910056352615356,-90.30060577392578,-0.46558956833504545,-0.7907231296609263,-0.404948503834506,-0.3113051866491635
-0.26451656222343445,-0.8575180172920227,-90.29825592041016,-0.4723389355181198,-0.7961024191365064,-0.4049755581344168,-0.33420955042044315
0.2332509607076645,-1.1391589641571045,-90.24059295654297,-0.4790906993760209,-0.8018112364338922,-0.4052361048137149,-0.35084852526585253
0.18485426902770996,-0.2826308608055115,-90.19017028808594,-0.48581559937085117,-0.807757447259501,-0.40175189456592014,-0.36269677380720766
-0.28967487812042236,-1.3731509447097778,-90.2274398803711,-0.48581559937085117,-0.807757447259501,-0.40175189456592014,-0.36269677380720766
0.16037216782569885,-0.3413715660572052,-90.23909759521484,-0.49252044363516473,-0.8139214575528689,-0.4028294171517095,-0.37698446139693254
0,-1.3177088499069214,-90.19657897949219,-0.4992231302982609,-0.8203197458272597,-0.40149298241982867,-0.3908101315299669
0.11651512235403061,0.5839174389839172,-90.1413345336914,-0.5059065886773167,-0.8268842057562955,-0.4005220230668784,-0.39692505995432525
0.1969151794910431,0,-90.20088195800781,-0.5125601897352478,-0.8334590736000492,-0.3979101038848361,-0.39205908129612593
0,-0.7035430669784546,-90.30524444580078,-0.5191783501347526,-0.8400422487790804,-0.3962691440557441,-0.39792194018761307
0.71823650598526,-0.7644750475883484,-90.34150695800781,-0.5257329583338771,-0.8467762268179411,-0.3902838398392003,-0.41015542447566977
-0.5163798928260803,-1.8219935894012451,-90.31835174560547,-0.5322236711775055,-0.8537917664367709,-0.38860170139620714,-0.4317093297839164
0.7959734201431274,0.5916208624839783,-90.24795532226562,-0.5386809499836008,-0.8610723644836499,-0.3862717553352317,-0.4419624358415603
-1.1247367858886719,-0.829871654510498,-90.25074768066406,-0.5451416433618093,-0.8684549502748999,-0.38901145004977794,-0.443947859108448
-0.1163857951760292,-0.09553586691617966,-90.3792495727539,-0.5517113565974351,-0.8759183456712509,-0.3993541382253171,-0.45165958845367027
0.5072398781776428,-0.08457906544208527,-90.57887268066406,-0.5583401162565375,-0.8834585134602259,-0.39609702086697035,-0.45316054622332247
0.5444906949996948,-1.1081372499465942,-90.65995025634766,-0.5583401162565375,-0.8834585134602259,-0.39609702086697035,-0.45316054622332247
0.7298394441604614,-0.31036099791526794,-90.77503967285156,-0.5648532381224342,-0.8911096960533827,-0.3854776030406357,-0.46498136495550463
-0.3037393391132355,-0.17894570529460907,-90.86617279052734,-0.5712482745547054,-0.8988933651014752,-0.38192676883190885,-0.4690589208155869
0.14045566320419312,1.5636094808578491,-90.9122543334961,-0.5776250598460643,-0.9066148565750987,-0.3832874661311509,-0.4575200560192266
-1.1457023620605469,-0.5711872577667236,-90.90641021728516,-0.5840829930801151,-0.9141712726321489,-0.3916645219549538,-0.4492498708268005
0.2932896912097931,0.852809727191925,-90.94352722167969,-0.5906699304370623,-0.92163921336333,-0.3987679608787101,-0.44690301691492385
-0.22246615588665009,-0.7026541233062744,-91.0645523071289,-0.59731114481731,-0.9290771695060867,-0.39817776475101724,-0.44565172021587673
-0.9440791606903076,-0.8633615970611572,-91.12438201904297,-0.6040284509879226,-0.9366134492680435,-0.4078989757224919,-0.45870185121893864
-0.11108891665935516,-0.42641645669937134,-91.15455627441406,-0.6109000428108912,-0.9443480480420925,-0.4166920430337391,-0.46945000166694306
0.7227736115455627,-0.855035126209259,-91.1558609008789,-0.6178024320909753,-0.9522612044297991,-0.411594670576354,-0.48012876485784833
1.2966214418411255,-1.0284379720687866,-91.24200439453125,-0.6245221074996515,-0.9603941472536992,-0.3947663784647983,-0.4958243740101654
-0.9034437537193298,0.2828599512577057,-91.43097686767578,-0.6245221074996515,-0.9603941472536992,-0.3947663784647983,-0.4958243740101654
0,-0.1436726301908493,-91.47481536865234,-0.6311642862902953,-0.9686482210343501,-0.4022950764124594,-0.4946644796679416
0.27252712845802307,0.2702544629573822,-91.51255798339844,-0.6378502787354712,-0.9768838386237626,-0.40002401700864254,-0.4936096310615538
-0.9263358116149902,2.337782859802246,-91.5991439819336,-0.64456274906639,-0.9849295521051524,-0.40547242270161726,-0.47187598670522357
0.5707799196243286,0.8110916018486023,-91.6733627319336,-0.6513453141594718,-0.9925754800459582,-0.4084353884682061,-0.4456353661914665
0.054139018058776855,-1.0179873704910278,-91.63441467285156,-0.6581091734854917,-1.0000171039108605,-0.4032277306541802,-0.44735949759682003
-0.4866845905780792,-0.6494951248168945,-91.80895233154297,-0.6648596735500418,-1.0075888929329817,-0.40683227709184105,-0.4612551850577194
-1.076855182647705,-1.750524640083313,-91.9842300415039,-0.6717487906524909,-1.0154431473898395,-0.4198617752020559,-0.4812553497652211
0.9277973771095276,0.11869966983795166,-91.98734283447266,-0.6787568381423542,-1.023577391064416,-0.42110392358154075,-0.49485389118393247
0.15993070602416992,-0.18563050031661987,-92.02239227294922,-0.6856997001962734,-1.0318296038918202,-0.41203952288875995,-0.49541164810458804
0.29470327496528625,-0.06823228299617767,-92.07588195800781,-0.6925354537735173,-1.0401040940535156,-0.4082509063805145,-0.49752717129886137
0.09963397681713104,-0.3685128688812256,-92.12359619140625,-0.6925354537735173,-1.0401040940535156,-0.4082509063805145,-0.49752717129886137
-0.689300000667572,0.209633931517601,-92.10367584228516,-0.6925354537735173,-1.0401040940535156,-0.4082509063805145,-0.49752717129886137
0.4580586850643158,1.3166136741638184,-91.98313903808594,-0.6925354537735173,-1.0401040940535156,-0.4082509063805145,-0.49752717129886137
-0.09267912060022354,1.526187539100647,-91.8034439086914,-0.6925354537735173,-1.0401040940535156,-0.4082509063805145,-0.49752717129886137
0.3706999719142914,1.893836259841919,-91.56369018554688,-0.6925354537735173,-1.0401040940535156,-0.4082509063805145,-0.49752717129886137
0.16470368206501007,1.5677701234817505,-91.17604064941406,-0.6925354537735173,-1.0401040940535156,-0.4082509063805145,-0.49752717129886137
0.9623733758926392,-0.31200048327445984,-90.5477066040039,-0.6925354537735173,-1.0401040940535156,-0.4082509063805145,-0.49752717129886137
0.6482523083686829,0.5031105875968933,-89.63499450683594,-0.6925354537735173,-1.0401040940535156,-0.4082509063805145,-0.49752717129886137
-0.21533158421516418,1.390407681465149,-88.54708862304688,-0.6925354537735173,-1.0401040940535156,-0.4082509063805145,-0.49752717129886137
0.6733307838439941,0.8961266875267029,-87.4211196899414,-0.6925354537735173,-1.0401040940535156,-0.4082509063805145,-0.49752717129886137
-0.09618236124515533,0.6900860667228699,-86.22222900390625,-0.6925354537735173,-1.0401040940535156,-0.4082509063805145,-0.49752717129886137
0.6705269813537598,1.252414584159851,-84.9970474243164,-0.6925354537735173,-1.0401040940535156,-0.4082509063805145,-0.49752717129886137
-0.2629406452178955,0.4983091652393341,-83.743896484375,-0.6925354537735173,-1.0401040940535156,-0.4082509063805145,-0.49752717129886137
0.35794946551322937,0.508873462677002,-82.41798400878906,-0.6925354537735173,-1.0401040940535156,-0.4082509063805145,-0.49752717129886137
-0.18949997425079346,0.42335790395736694,-81.06444549560547,-0.6925354537735173,-1.0401040940535156,-0.4082509063805145,-0.49752717129886137
0.3775653541088104,0.9040279388427734,-79.62409973144531,-0.6925354537735173,-1.0401040940535156,-0.4082509063805145,-0.49752717129886137
0.6391570568084717,0.26901692152023315,-78.14213562011719,-0.6925354537735173,-1.0401040940535156,-0.4082509063805145,-0.49752717129886137
-0.42393356561660767,1.1067384481430054,-76.59832000732422,-0.6925354537735173,-1.0401040940535156,-0.4082509063805145,-0.49752717129886137
-0.2003207802772522,0.5687739253044128,-74.96732330322266,-0.6925354537735173,-1.0401040940535156,-0.4082509063805145,-0.49752717129886137
0.32382404804229736,0.7091630697250366,-73.29388427734375,-0.6925354537735173,-1.0401040940535156,-0.4082509063805145,-0.49752717129886137
-0.4496278762817383,0.7325621247291565,-71.59734344482422,-0.6925354537735173,-1.0401040940535156,-0.4082509063805145,-0.49752717129886137
0.9496792554855347,0.3755529820919037,-69.85802459716797,-0.6925354537735173,-1.0401040940535156,-0.4082509063805145,-0.49752717129886137
-0.4144079387187958,0.8414723873138428,-68.1008529663086,-0.6925354537735173,-1.0401040940535156,-0.4082509063805145,-0.49752717129886137
0.25760406255722046,0.4597553014755249,-66.3531265258789,-0.6925354537735173,-1.0401040940535156,-0.4082509063805145,-0.49752717129886137
0.765324592590332,0.7610033750534058,-64.59508514404297,-0.6925354537735173,-1.0401040940535156,-0.4082509063805145,-0.49752717129886137
-0.08454066514968872,-0.28569740056991577,-62.78609085083008,-0.6925354537735173,-1.0401040940535156,-0.4082509063805145,-0.49752717129886137
0.5178921818733215,0.9119592905044556,-61.00421905517578,-0.6925354537735173,-1.0401040940535156,-0.4082509063805145,-0.49752717129886137
0.9341859817504883,0.261147141456604,-59.2276496887207,-0.6925354537735173,-1.0401040940535156,-0.4082509063805145,-0.49752717129886137
-0.2728067934513092,0.6425561904907227,-57.44334030151367,-0.6925354537735173,-1.0401040940535156,-0.4082509063805145,-0.49752717129886137
0.04684505611658096,0.05669695511460304,-55.615299224853516,-0.6925354537735173,-1.0401040940535156,-0.4082509063805145,-0.49752717129886137
1.4982709884643555,0.6507178544998169,-53.814613342285156,-0.6925354537735173,-1.0401040940535156,-0.4082509063805145,-0.49752717129886137
-0.9301223158836365,0.4172942042350769,-51.941856384277344,-0.6925354537735173,-1.0401040940535156,-0.4082509063805145,-0.49752717129886137
-0.2995717227458954,0.15897339582443237,-49.997623443603516,-0.6925354537735173,-1.0401040940535156,-0.4082509063805145,-0.49752717129886137
-0.07272843271493912,-0.24736332893371582,-48.06322479248047,-0.6925354537735173,-1.0401040940535156,-0.4082509063805145,-0.49752717129886137
-0.3147136867046356,0.2220262587070465,-46.1213493347168,-0.6925354537735173,-1.0401040940535156,-0.4082509063805145,-0.49752717129886137
0.5175755620002747,0.6785097718238831,-44.215538024902344,-0.6925354537735173,-1.0401040940535156,-0.4082509063805145,-0.49752717129886137
-0.07273577898740768,-0.1485549509525299,-42.212005615234375,-0.6925354537735173,-1.0401040940535156,-0.4082509063805145,-0.49752717129886137
0.9797577261924744,1.3801671266555786,-40.23175811767578,-0.6925354537735173,-1.0401040940535156,-0.4082509063805145,-0.49752717129886137
-0.9797183275222778,-0.4900645613670349,-38.19449996948242,-0.6925354537735173,-1.0401040940535156,-0.4082509063805145,-0.49752717129886137
-0.668695867061615,0.47790461778640747,-36.17605209350586,-0.6925354537735173,-1.0401040940535156,-0.4082509063805145,-0.49752717129886137
0.6229284405708313,-0.168884739279747,-34.147010803222656,-0.6925354537735173,-1.0401040940535156,-0.4082509063805145,-0.49752717129886137
-0.7867208123207092,0.0197734571993351,-32.10771560668945,-0.6925354537735173,-1.0401040940535156,-0.4082509063805145,-0.49752717129886137
0.8123379945755005,0.8337159752845764,-30.06093978881836,-0.6925354537735173,-1.0401040940535156,-0.4082509063805145,-0.49752717129886137
0.09604665637016296,-0.3185640573501587,-27.963768005371094,-0.6925354537735173,-1.0401040940535156,-0.4082509063805145,-0.49752717129886137
0.1447620540857315,0.7806591391563416,-25.79921531677246,-0.6925354537735173,-1.0401040940535156,-0.4082509063805145,-0.49752717129886137
0.08795749396085739,0.10429438948631287,-23.634397506713867,-0.6925354537735173,-1.0401040940535156,-0.4082509063805145,-0.49752717129886137
-1.4472931623458862,-0.7329961061477661,-21.41819190979004,-0.6925354537735173,-1.0401040940535156,-0.4082509063805145,-0.49752717129886137
1.634295105934143,1.4267216920852661,-19.20709228515625,-0.6925354537735173,-1.0401040940535156,-0.4082509063805145,-0.49752717129886137
-0.6666865944862366,-0.8401662707328796,-16.98065757751465,-0.6925354537735173,-1.0401040940535156,-0.4082509063805145,-0.49752717129886137
-0.3986552357673645,-0.08235310763120651,-14.728806495666504,-0.6925354537735173,-1.0401040940535156,-0.4082509063805145,-0.49752717129886137
-0.24494022130966187,0.02728193625807762,-12.51457691192627,-0.6925354537735173,-1.0401040940535156,-0.4082509063805145,-0.49752717129886137
0.1363455057144165,-0.5115581750869751,-10.288747787475586,-0.6925354537735173,-1.0401040940535156,-0.4082509063805145,-0.49752717129886137
-0.19791366159915924,0.1824626922607422,-8.260965347290039,-0.6925354537735173,-1.0401040940535156,-0.4082509063805145,-0.49752717129886137
0.810187816619873,0.30613020062446594,-6.626103401184082,-0.6925354537735173,-1.0401040940535156,-0.4082509063805145,-0.49752717129886137
-0.3133748173713684,-0.765609085559845,-5.344186782836914,-0.6925354537735173,-1.0401040940535156,-0.4082509063805145,-0.49752717129886137
-0.25774797797203064,-1.6059752702713013,-4.394383430480957,-0.6925354537735173,-1.0401040940535156,-0.4082509063805145,-0.49752717129886137
-0.5286208987236023,-1.294102668762207,-3.705159902572632,-0.6925354537735173,-1.0401040940535156,-0.4082509063805145,-0.49752717129886137
-0.38794729113578796,-0.646407425403595,-3.3618829250335693,-0.6925354537735173,-1.0401040940535156,-0.4082509063805145,-0.49752717129886137
-0.2186357080936432,-1.2885664701461792,-3.375981569290161,-0.6925354537735173,-1.0401040940535156,-0.4082509063805145,-0.49752717129886137
0.2359531819820404,0.14259213209152222,-3.405324935913086,-0.6925354537735173,-1.0401040940535156,-0.4082509063805145,-0.49752717129886137
0.7108575701713562,0.1995776742696762,-3.4130334854125977,-0.6925354537735173,-1.0401040940535156,-0.4082509063805145,-0.49752717129886137
0.48158448934555054,-0.20540601015090942,-3.429199457168579,-0.6925354537735173,-1.0401040940535156,-0.4082509063805145,-0.49752717129886137
0.2946818172931671,-0.03030502423644066,-3.419736385345459,-0.6925354537735173,-1.0401040940535156,-0.4082509063805145,-0.49752717129886137
0.014241330325603485,-0.0437626987695694,-3.4201114177703857,-0.6925354537735173,-1.0401040940535156,-0.4082509063805145,-0.49752717129886137
-0.004689581226557493,-0.02879691869020462,-3.429481029510498,-0.6925354537735173,-1.0401040940535156,-0.4082509063805145,-0.49752717129886137
0.08198408782482147,-0.09073145687580109,-3.4245071411132812,-0.6925354537735173,-1.0401040940535156,-0.4082509063805145,-0.49752717129886137
0.21462398767471313,0.0023439996875822544,-3.4252192974090576,-0.6925354537735173,-1.0401040940535156,-0.4082509063805145,-0.49752717129886137
0.293471097946167,-0.09831983596086502,-3.4308831691741943,-0.6925354537735173,-1.0401040940535156,-0.4082509063805145,-0.49752717129886137
0.21755295991897583,-0.06377474218606949,-3.4275386333465576,-0.6925354537735173,-1.0401040940535156,-0.4082509063805145,-0.49752717129886137
0.12138503789901733,-0.02670053206384182,-3.4270033836364746,-0.6925354537735173,-1.0401040940535156,-0.4082509063805145,-0.49752717129886137
0.0883953869342804,-0.0634443610906601,-3.429682493209839,-0.6925354537735173,-1.0401040940535156,-0.4082509063805145,-0.49752717129886137
0.13787372410297394,-0.05078533664345741,-3.4289581775665283,-0.6925354537735173,-1.0401040940535156,-0.4082509063805145,-0.49752717129886137
0.2101878970861435,-0.055302832275629044,-3.430006504058838,-0.6925354537735173,-1.0401040940535156,-0.4082509063805145,-0.49752717129886137
0.2212643176317215,-0.07465993613004684,-3.4298596382141113,-0.6925354537735173,-1.0401040940535156,-0.4082509063805145,-0.49752717129886137
0.17939703166484833,-0.0526316799223423,-3.428999900817871,-0.6925354537735173,-1.0401040940535156,-0.4082509063805145,-0.49752717129886137
0.12219683825969696,-0.05233713239431381,-3.4289333820343018,-0.6925354537735173,-1.0401040940535156,-0.4082509063805145,-0.49752717129886137
0.14778544008731842,-0.057300977408885956,-3.42905855178833,-0.6925354537735173,-1.0401040940535156,-0.4082509063805145,-0.49752717129886137
0.18092931807041168,-0.05645294487476349,-3.428752899169922,-0.6925354537735173,-1.0401040940535156,-0.4082509063805145,-0.49752717129886137
0.18912065029144287,-0.056474555283784866,-3.428560495376587,-0.6925354537735173,-1.0401040940535156,-0.4082509063805145,-0.49752717129886137
0.16906452178955078,-0.06327109783887863,-3.4287023544311523,-0.6993147615762425,-1.048404529245519,-0.4052660299465062,-0.4985250517415502
0.22474844753742218,-0.0727161094546318,-3.432905435562134,-0.7060418472858143,-1.0567227236639403,-0.4019842552021147,-0.49965827846899613
0.532715916633606,-0.12978015840053558,-3.4252266883850098,-0.71268898318056,-1.0650644238792468,-0.3956720521673562,-0.5013457473677891
1.6152496337890625,0,-3.4032533168792725,-0.7191343531090143,-1.0734291988463767,-0.3777723392471673,-0.5024272486877936
1.4262218475341797,0.28624457120895386,-3.2654192447662354,-0.7252193454658197,-1.0817831082292837,-0.3524267435694736,-0.5000418772610523
1.431986689567566,0.3584880828857422,-3.0058016777038574,-0.7308946378213454,-1.090072366415989,-0.32860833909362575,-0.4946691051435965
0.9010738134384155,0.2584743797779083,-2.727520704269409,-0.7362094253824194,-1.0982740068862529,-0.30916616823524257,-0.4895277512880661
0.8845962882041931,0.13170962035655975,-2.4501793384552,-0.7412381899848371,-1.1064057066299335,-0.2942855840548875,-0.4862762179536122
1.3954921960830688,-0.07254782319068909,-2.167985439300537,-0.7459846102410098,-1.1145062018043572,-0.275284846685827,-0.48578320297722993
1.0594128370285034,-1.027854323387146,-2.046398639678955,-0.7504022115029186,-1.1226790053363789,-0.25482730474323056,-0.4949532208653786
1.9790910482406616,-0.710107147693634,-2.1319949626922607,-0.7504022115029186,-1.1226790053363789,-0.25482730474323056,-0.4949532208653786
0.9512293338775635,0.7896320223808289,-2.2057268619537354,-0.7544458387776587,-1.130922703123393,-0.23040796822557869,-0.4942905135763186
0.5220076441764832,0.2715388238430023,-2.2083353996276855,-0.7581836634579424,-1.1390871859297884,-0.21813099340846162,-0.48544742319112
0.2920409142971039,-0.5613874793052673,-2.194765567779541,-0.7617626488648561,-1.1471981046951587,-0.21134725542118174,-0.48786282865330555
0.788949191570282,-0.20870697498321533,-2.2253308296203613,-0.765210034364524,-1.1553826306209283,-0.20233900453895354,-0.49428028243904293
1.2043766975402832,-0.3149244487285614,-2.450239419937134,-0.7684439256978738,-1.163656998621559,-0.18572795546303217,-0.4986438776366411
1.5559171438217163,-0.34219324588775635,-2.6483824253082275,-0.7713477045499408,-1.1720133630887404,-0.16272550678501552,-0.5041198584251104
1.6538208723068237,-0.632157027721405,-2.733689308166504,-0.7738368978563488,-1.180483023942604,-0.13597768998394436,-0.5122394440385201
0.5267638564109802,0.7183729410171509,-2.7170727252960205,-0.7759517631943647,-1.1890143607937116,-0.11780615057796265,-0.5115209780943889
0.9325506687164307,-0.20853807032108307,-2.7849020957946777,-0.7778138577508635,-1.1975043052292642,-0.1056451962019009,-0.5072723541719216
0.6631472110748291,0.18777304887771606,-2.780679702758789,-0.779463798668132,-1.205960286480841,-0.09234771387030706,-0.507445396017283
0,-0.49638471007347107,-2.7955515384674072,-0.7809568753429791,-1.2144391411131565,-0.08682148711135015,-0.5100171598605809
1.7997487783432007,0.5237410664558411,-2.7699835300445557,-0.7822789175741166,-1.2229375273638619,-0.07182358062515681,-0.5097891902240612
1.651578426361084,0.790160596370697,-2.754916191101074,-0.7822789175741166,-1.2229375273638619,-0.07182358062515681,-0.5097891902240612
-0.22144730389118195,-0.9642276167869568,-2.7924113273620605,-0.7833766625899199,-1.231446101855125,-0.059905821271240965,-0.5112397487275301
-0.8226762413978577,-1.5550267696380615,-3.0580201148986816,-0.7844476015239745,-1.2401417125551968,-0.0686068508153163,-0.5322335352810719
-0.8701717257499695,0.4223226010799408,-3.4116528034210205,-0.7857086079241706,-1.2490909314882535,-0.08271391720821486,-0.5416727366857229
-1.0507586002349854,1.275511622428894,-3.5043461322784424,-0.7872205711502788,-1.2580009052786052,-0.09872166992475614,-0.5275241181564826
-0.379830539226532,-1.1972851753234863,-3.464402914047241,-0.7889652787837095,-1.2667875415223864,-0.11064324608693546,-0.5268722310972709
1.331154227256775,0.2733759880065918,-3.4736011028289795,-0.7907432687401563,-1.275632905734238,-0.10271554868668344,-0.5345714743249117
1.5829013586044312,-0.5936319231987,-3.6599807739257812,-0.7922528295803607,-1.2845646703018192,-0.07843175213784005,-0.537240273784846
1.009377360343933,-0.1556868553161621,-3.7531254291534424,-0.7933800060938422,-1.2935707108911858,-0.05682942947993702,-0.5434845969391364
1.4982661008834839,0.7491787075996399,-3.7157583236694336,-0.7941530213448115,-1.302587572794874,-0.03593240063637521,-0.5385388315034407
0.17047470808029175,0,-3.7114737033843994,-0.7946360099103508,-1.311511193687459,-0.02202622722834375,-0.532295675606777
0.1522846221923828,-0.8538863658905029,-3.697009801864624,-0.7949806998551098,-1.3204420859452033,-0.019336566142738126,-0.5394113953225312
0.7439022064208984,0.28842195868492126,-3.6961517333984375,-0.7952407407610572,-1.329471544228857,-0.011868342570960783,-0.5441235987159111
0.7229949831962585,0.2763652503490448,-3.6994333267211914,-0.7952407407610572,-1.329471544228857,-0.011868342570960783,-0.5441235987159111
-0.05075855553150177,-0.1350034475326538,-3.6887571811676025,-0.7953918633853188,-1.3385304540822598,-0.006266372340421143,-0.5429455836924412
-0.5575604438781738,-0.2040388286113739,-3.6608777046203613,-0.7955385472992847,-1.3476030917463104,-0.011335697335501773,-0.5457709359936413
-1.969884991645813,-0.3630397319793701,-3.7062840461730957,-0.7959029926323434,-1.3567386544684676,-0.032397742631535,-0.5504965906652309
-0.2545708119869232,0.09821514040231705,-3.884127140045166,-0.7965974311070102,-1.3659319882428589,-0.05093487432847447,-0.5527034622617064
-0.47573694586753845,-0.5737046599388123,-3.942225694656372,-0.7974970614956691,-1.3751767327194107,-0.057020772310594985,-0.5566658749245106
1.7893245220184326,-0.2698535621166229,-4.055975437164307,-0.7983561863413908,-1.384513077733573,-0.0460742091760042,-0.5636955267749726
2.898038387298584,1.1608351469039917,-4.083985805511475,-0.7987985785145105,-1.3938461294586568,-0.007012851598362395,-0.5562706802350779
0.2519795894622803,-0.6628789901733398,-4.078049659729004,-0.798696708126097,-1.403082727173913,0.01923729820797814,-0.5521210455956558
0.09442820399999619,0.39534205198287964,-3.928800344467163,-0.7983520303925292,-1.4123033235545484,0.02212402982016378,-0.5543505200805763
-0.22126418352127075,-0.09592822939157486,-3.6557674407958984,-0.7979921046163265,-1.4215217062626557,0.02106706332415316,-0.5518554048923154
-0.1620088368654251,-0.6515199542045593,-3.5362346172332764,-0.7976676030762286,-1.4307712024680552,0.01787312148759736,-0.5580841397556165
-0.2975061237812042,0.29891762137413025,-3.657395124435425,-0.7976676030762286,-1.4307712024680552,0.01787312148759736,-0.5580841397556165
0.929908037185669,-0.37054306268692017,-3.7889060974121094,-0.7973258009185601,-1.4400775787862956,0.023143137432634568,-0.5586810184332232
0.6237065196037292,0.8209537863731384,-3.9395835399627686,-0.7968321920615725,-1.4493576505710377,0.036089925405879554,-0.554927595735838
-0.24233336746692657,0.21733058989048004,-4.011580467224121,-0.7962042090581317,-1.4585343407516167,0.03926803500701958,-0.5462752259336412
-1.427539348602295,-0.5865069627761841,-4.1969122886657715,-0.795665705191075,-1.4676645650986277,0.025352429039776067,-0.5493516957076887
0.23195314407348633,-1.427202582359314,-4.41660737991333,-0.7953261915268377,-1.4769602676343903,0.015389210668702663,-0.5661326085838179
0.7768294215202332,0.17527073621749878,-4.385245323181152,-0.7949996503375264,-1.4864827508223248,0.023795732048650327,-0.576565373968333
1.1264123916625977,0.7656285166740417,-4.361436367034912,-0.7944708852330223,-1.4960268334959017,0.03965608049184058,-0.5687245468609035
1.0728050470352173,-0.06956584006547928,-4.3829731941223145,-0.7936572271249154,-1.5054572382577078,0.057982892480989034,-0.5629240245558321
-0.13422654569149017,-0.3329601585865021,-4.253643989562988,-0.7926256665209722,-1.5148672585279892,0.06580437999218676,-0.5662784078779319
0.07277939468622208,0.2876732051372528,-4.261876583099365,-0.7915331940177001,-1.5243083769199444,0.0652923204004762,-0.5666557991566756
-0.0720040574669838,-0.438249409198761,-4.490505218505859,-0.7904449348348297,-1.53376309692006,0.06529878154396984,-0.5679106008571883
1.1504039764404297,-0.9827653169631958,-4.776017189025879,-0.7904449348348297,-1.53376309692006,0.06529878154396984,-0.5679106008571883
-0.32751309871673584,0.22992025315761566,-4.883614540100098,-0.7892994766092549,-1.5432805545082218,0.07215620552500063,-0.5741843097222348
0.5924863219261169,0.6048811674118042,-4.962619304656982,-0.7880784722655598,-1.5527923206827194,0.07436431571841214,-0.5672276312174896
0.4376327097415924,-0.25453492999076843,-4.952229022979736,-0.7867675309597205,-1.5622217849365234,0.08294864098230971,-0.564308079238981
-1.437641978263855,-0.534923255443573,-4.974532127380371,-0.7854544986981071,-1.571681743075606,0.07461523041129085,-0.5708868974509338
0.46267226338386536,0,-5.0314860343933105,-0.7842786177547856,-1.5812336721480829,0.06649048278729094,-0.5753445912462969
1.3583548069000244,-0.1753460019826889,-5.12443208694458,-0.7830439828284499,-1.5908349254745477,0.08166570837299003,-0.576805807929486
0.3211508095264435,0,-5.157572269439697,-0.781566255354426,-1.600460532412399,0.09566158850987727,-0.5782670246126751
0.09658688306808472,-0.3658164441585541,-5.151602745056152,-0.7799428859839423,-1.6101237200756768,0.099142735948165,-0.581315494980663
0.15386538207530975,0.1864190250635147,-5.108523368835449,-0.7782731145330601,-1.6198247698127917,0.10122983815769329,-0.5828104734731216
0,-0.05008808895945549,-5.172452926635742,-0.7765752654677878,-1.629528810277892,0.10251204967498755,-0.5816743823389211
0.5893619656562805,0.9138080477714539,-5.283930778503418,-0.7748258033922563,-1.6391634027641788,0.10742339938878988,-0.5744767160154878
1.127282977104187,-0.46817946434020996,-5.40901517868042,-0.7748258033922563,-1.6391634027641788,0.10742339938878988,-0.5744767160154878
0.591170608997345,-0.3467508554458618,-5.434817790985107,-0.7729160763478528,-1.6487946070810888,0.12174384593963598,-0.5812678020137051
-1.1697732210159302,0.16960397362709045,-5.349541664123535,-0.7709271929858046,-1.6584947056481103,0.11692215750614778,-0.5827440260288616
-1.5803183317184448,-0.405800461769104,-5.12459135055542,-0.7691694689407531,-1.6682235086158235,0.09400472790002798,-0.5847123300967116
-1.7923426628112793,0.5539847612380981,-5.088396072387695,-0.7678369360448172,-1.6779584235410834,0.06589921961228028,-0.5834774609344701
0.3827756941318512,-1.7815018892288208,-5.102283477783203,-0.766836502312993,-1.6877682921349906,0.054152828206618375,-0.5937067703343928
0.9779630303382874,-0.09545499831438065,-5.1218647956848145,-0.7658394594314613,-1.6977937492021988,0.06549231757720286,-0.6093480777305861
0.5226811766624451,1.549962043762207,-5.144979000091553,-0.7646437094019106,-1.707848543063997,0.07799768596887563,-0.5972271856851875
0.8832424283027649,0.059223949909210205,-5.183254718780518,-0.7632461143854179,-1.717690580464745,0.08971371601025238,-0.5838173024045924
1.386697769165039,0,-5.106489181518555,-0.7615932510493117,-1.7274167560638558,0.10862988432248408,-0.5833237694886824
0,0,-5.091287136077881,-0.7596864545210783,-1.7371388188886672,0.12018569906552606,-0.5833237694886824
-0.06396791338920593,-0.316872239112854,-5.286888599395752,-0.7576878017528604,-1.7468828867300836,0.11965263312061601,-0.5859643714812894
0.38529473543167114,-1.5061174631118774,-5.473597526550293,-0.7576878017528604,-1.7468828867300836,0.11965263312061601,-0.5859643714812894
0.23842188715934753,0.7095978260040283,-5.506402492523193,-0.7576878017528604,-1.7468828867300836,0.11965263312061601,-0.5859643714812894
-0.46307650208473206,0.4355211555957794,-5.508876800537109,-0.7576878017528604,-1.7468828867300836,0.11965263312061601,-0.5859643714812894
-0.573262631893158,-1.1358824968338013,-5.585628032684326,-0.7576878017528604,-1.7468828867300836,0.11965263312061601,-0.5859643714812894
-2.4548916816711426,1.4184976816177368,-5.626935958862305,-0.7576878017528604,-1.7468828867300836,0.11965263312061601,-0.5859643714812894
-2.392854690551758,-0.15933001041412354,-5.301393985748291,-0.7576878017528604,-1.7468828867300836,0.11965263312061601,-0.5859643714812894
-1.2735705375671387,1.1915191411972046,-4.749945640563965,-0.7576878017528604,-1.7468828867300836,0.11965263312061601,-0.5859643714812894
-0.7374975085258484,-0.6550385355949402,-4.00559139251709,-0.7576878017528604,-1.7468828867300836,0.11965263312061601,-0.5859643714812894
-0.8947320580482483,0.12056621164083481,-2.9753003120422363,-0.7576878017528604,-1.7468828867300836,0.11965263312061601,-0.5859643714812894
-0.6888542771339417,-0.2152860313653946,-1.8895208835601807,-0.7576878017528604,-1.7468828867300836,0.11965263312061601,-0.5859643714812894
-1.6377466917037964,-0.8494473695755005,-0.7479386329650879,-0.7576878017528604,-1.7468828867300836,0.11965263312061601,-0.5859643714812894
-0.3030809164047241,0.696841299533844,0.42977944016456604,-0.7576878017528604,-1.7468828867300836,0.11965263312061601,-0.5859643714812894
-0.13897694647312164,0.08674448728561401,1.5905425548553467,-0.7576878017528604,-1.7468828867300836,0.11965263312061601,-0.5859643714812894
-0.8211592435836792,-0.5034641027450562,2.77319598197937,-0.7576878017528604,-1.7468828867300836,0.11965263312061601,-0.5859643714812894
-0.10550759732723236,0.33666548132896423,3.90299129486084,-0.7576878017528604,-1.7468828867300836,0.11965263312061601,-0.5859643714812894
-0.30711421370506287,-0.014941173605620861,4.916949272155762,-0.7576878017528604,-1.7468828867300836,0.11965263312061601,-0.5859643714812894
-0.4784013330936432,-0.3689877390861511,5.922542095184326,-0.7576878017528604,-1.7468828867300836,0.11965263312061601,-0.5859643714812894
-1.0782968997955322,-0.4495219588279724,6.891411781311035,-0.7576878017528604,-1.7468828867300836,0.11965263312061601,-0.5859643714812894
0.75716632604599,1.05689537525177,7.762503147125244,-0.7576878017528604,-1.7468828867300836,0.11965263312061601,-0.5859643714812894
-1.104950189590454,-0.9985376596450806,8.66876220703125,-0.7576878017528604,-1.7468828867300836,0.11965263312061601,-0.5859643714812894
0.7462878823280334,1.3682401180267334,9.57303524017334,-0.7576878017528604,-1.7468828867300836,0.11965263312061601,-0.5859643714812894
-0.6795659065246582,0.5105852484703064,10.397578239440918,-0.7576878017528604,-1.7468828867300836,0.11965263312061601,-0.5859643714812894
-0.7792661190032959,-0.15205587446689606,11.279061317443848,-0.7576878017528604,-1.7468828867300836,0.11965263312061601,-0.5859643714812894
-0.2134847640991211,1.7627981901168823,12.21010684967041,-0.7576878017528604,-1.7468828867300836,0.11965263312061601,-0.5859643714812894
-0.021073227748274803,0.37857189774513245,13.17931079864502,-0.7576878017528604,-1.7468828867300836,0.11965263312061601,-0.5859643714812894
-0.09810701012611389,0.9340760111808777,14.148600578308105,-0.7576878017528604,-1.7468828867300836,0.11965263312061601,-0.5859643714812894
-0.5624385476112366,0.3411869406700134,15.154772758483887,-0.7576878017528604,-1.7468828867300836,0.11965263312061601,-0.5859643714812894
-0.8871049880981445,-0.42677175998687744,16.232101440429688,-0.7576878017528604,-1.7468828867300836,0.11965263312061601,-0.5859643714812894
0.2376445084810257,0.6486745476722717,17.26168441772461,-0.7576878017528604,-1.7468828867300836,0.11965263312061601,-0.5859643714812894
-0.5140515565872192,-0.27895405888557434,18.27810287475586,-0.7576878017528604,-1.7468828867300836,0.11965263312061601,-0.5859643714812894
0.12257468700408936,0.1152268499135971,19.312578201293945,-0.7576878017528604,-1.7468828867300836,0.11965263312061601,-0.5859643714812894
0.527680516242981,0.13906855881214142,20.42380714416504,-0.7576878017528604,-1.7468828867300836,0.11965263312061601,-0.5859643714812894
0.4037539064884186,1.3210114240646362,21.571372985839844,-0.7576878017528604,-1.7468828867300836,0.11965263312061601,-0.5859643714812894
-0.37104907631874084,-0.7727838754653931,22.687593460083008,-0.7576878017528604,-1.7468828867300836,0.11965263312061601,-0.5859643714812894
0.33941972255706787,-0.09711501747369766,23.789840698242188,-0.7576878017528604,-1.7468828867300836,0.11965263312061601,-0.5859643714812894
-0.46607452630996704,-0.21025626361370087,25.069263458251953,-0.7576878017528604,-1.7468828867300836,0.11965263312061601,-0.5859643714812894
0.3467520773410797,0.27725762128829956,26.48670196533203,-0.7576878017528604,-1.7468828867300836,0.11965263312061601,-0.5859643714812894
-0.4498063921928406,0.2367834746837616,27.974828720092773,-0.7576878017528604,-1.7468828867300836,0.11965263312061601,-0.5859643714812894
-0.19961930811405182,-0.7622120976448059,29.48659896850586,-0.7576878017528604,-1.7468828867300836,0.11965263312061601,-0.5859643714812894
0.08221615105867386,1.0971953868865967,31.030414581298828,-0.7576878017528604,-1.7468828867300836,0.11965263312061601,-0.5859643714812894
0.34156233072280884,-0.32820960879325867,32.654823303222656,-0.7576878017528604,-1.7468828867300836,0.11965263312061601,-0.5859643714812894
-0.4851169288158417,0.6912875175476074,34.374935150146484,-0.7576878017528604,-1.7468828867300836,0.11965263312061601,-0.5859643714812894
-0.34950143098831177,-0.060786787420511246,36.01401138305664,-0.7576878017528604,-1.7468828867300836,0.11965263312061601,-0.5859643714812894
0.007650687824934721,0.9298393726348877,37.67920684814453,-0.7576878017528604,-1.7468828867300836,0.11965263312061601,-0.5859643714812894
-0.3435682952404022,0.31736743450164795,39.405521392822266,-0.7576878017528604,-1.7468828867300836,0.11965263312061601,-0.5859643714812894
-0.5204895734786987,-1.988010287284851,41.17564010620117,-0.7576878017528604,-1.7468828867300836,0.11965263312061601,-0.5859643714812894
-0.6662260293960571,0.12152491509914398,42.925846099853516,-0.7576878017528604,-1.7468828867300836,0.11965263312061601,-0.5859643714812894
-0.24565571546554565,0.6009104251861572,44.59490203857422,-0.7576878017528604,-1.7468828867300836,0.11965263312061601,-0.5859643714812894
-0.04745561257004738,0.012821816839277744,46.328147888183594,-0.7576878017528604,-1.7468828867300836,0.11965263312061601,-0.5859643714812894
-0.04926713928580284,-0.7678472995758057,48.230621337890625,-0.7576878017528604,-1.7468828867300836,0.11965263312061601,-0.5859643714812894
0.029828272759914398,-0.5585038065910339,50.152469635009766,-0.7576878017528604,-1.7468828867300836,0.11965263312061601,-0.5859643714812894
-0.45863690972328186,-1.0784832239151,52.03288650512695,-0.7576878017528604,-1.7468828867300836,0.11965263312061601,-0.5859643714812894
0.3570609390735626,1.1571455001831055,53.90795135498047,-0.7576878017528604,-1.7468828867300836,0.11965263312061601,-0.5859643714812894
0.21550539135932922,0.6919316649436951,55.90137481689453,-0.7576878017528604,-1.7468828867300836,0.11965263312061601,-0.5859643714812894
0.14611396193504333,-0.8463505506515503,57.90900802612305,-0.7576878017528604,-1.7468828867300836,0.11965263312061601,-0.5859643714812894
-0.42284876108169556,-0.4200098216533661,59.840030670166016,-0.7576878017528604,-1.7468828867300836,0.11965263312061601,-0.5859643714812894
-0.23591627180576324,0.6880784630775452,61.79477310180664,-0.7576878017528604,-1.7468828867300836,0.11965263312061601,-0.5859643714812894
0.6278827786445618,-1.4765290021896362,63.8621940612793,-0.7576878017528604,-1.7468828867300836,0.11965263312061601,-0.5859643714812894
-0.21805526316165924,0.9028768539428711,65.96525573730469,-0.7576878017528604,-1.7468828867300836,0.11965263312061601,-0.5859643714812894
0.1501295566558838,-0.489959180355072,68.10022735595703,-0.7576878017528604,-1.7468828867300836,0.11965263312061601,-0.5859643714812894
0.35239654779434204,-0.9984756112098694,70.19131469726562,-0.7576878017528604,-1.7468828867300836,0.11965263312061601,-0.5859643714812894
-0.2753426134586334,1.0628405809402466,72.22972869873047,-0.7576878017528604,-1.7468828867300836,0.11965263312061601,-0.5859643714812894
0.3637951612472534,-1.0232264995574951,74.06755065917969,-0.7576878017528604,-1.7468828867300836,0.11965263312061601,-0.5859643714812894
0.30119776725769043,-0.17268149554729462,75.40802001953125,-0.7576878017528604,-1.7468828867300836,0.11965263312061601,-0.5859643714812894
1.0093907117843628,-0.7886505126953125,76.34466552734375,-0.7576878017528604,-1.7468828867300836,0.11965263312061601,-0.5859643714812894
1.9026439189910889,-1.0362179279327393,76.89990234375,-0.7576878017528604,-1.7468828867300836,0.11965263312061601,-0.5859643714812894
0.9962515830993652,-0.2364788055419922,77.09691619873047,-0.7576878017528604,-1.7468828867300836,0.11965263312061601,-0.5859643714812894
0.34614455699920654,-0.615721583366394,76.980712890625,-0.7576878017528604,-1.7468828867300836,0.11965263312061601,-0.5859643714812894
-0.19648484885692596,-0.05128142237663269,76.9267807006836,-0.7576878017528604,-1.7468828867300836,0.11965263312061601,-0.5859643714812894
0.4292392432689667,0.17776499688625336,76.98284912109375,-0.7576878017528604,-1.7468828867300836,0.11965263312061601,-0.5859643714812894
-0.14722150564193726,0.3527209162712097,76.96029663085938,-0.7576878017528604,-1.7468828867300836,0.11965263312061601,-0.5859643714812894
0.5131505727767944,0.24686238169670105,76.95269775390625,-0.7576878017528604,-1.7468828867300836,0.11965263312061601,-0.5859643714812894
0.00752238417044282,0.2240438610315323,76.96719360351562,-0.7576878017528604,-1.7468828867300836,0.11965263312061601,-0.5859643714812894
0.14158350229263306,0.0019190228777006269,76.9525146484375,-0.7576878017528604,-1.7468828867300836,0.11965263312061601,-0.5859643714812894
0.17701566219329834,-0.013145712204277515,76.95426177978516,-0.7576878017528604,-1.7468828867300836,0.11965263312061601,-0.5859643714812894
0.11562153697013855,0.0019032408017665148,76.95751953125,-0.7576878017528604,-1.7468828867300836,0.11965263312061601,-0.5859643714812894
0.12471792101860046,0.12394915521144867,76.95276641845703,-0.7576878017528604,-1.7468828867300836,0.11965263312061601,-0.5859643714812894
0.20278187096118927,0.1632498800754547,76.95845794677734,-0.7576878017528604,-1.7468828867300836,0.11965263312061601,-0.5859643714812894
0.0992308035492897,0.09005323052406311,76.9580307006836,-0.7576878017528604,-1.7468828867300836,0.11965263312061601,-0.5859643714812894
0.16995923221111298,0.02373235486447811,76.95722961425781,-0.7576878017528604,-1.7468828867300836,0.11965263312061601,-0.5859643714812894
0.12186618894338608,0.05634148791432381,76.95933532714844,-0.7576878017528604,-1.7468828867300836,0.11965263312061601,-0.5859643714812894
0.13572175800800323,0.08284895867109299,76.9580078125,-0.7576878017528604,-1.7468828867300836,0.11965263312061601,-0.5859643714812894
0.16308815777301788,0.11714273691177368,76.9593734741211,-0.7576878017528604,-1.7468828867300836,0.11965263312061601,-0.5859643714812894
0.12189240008592606,0.0657762885093689,76.96004486083984,-0.7576878017528604,-1.7468828867300836,0.11965263312061601,-0.5859643714812894
0.13951382040977478,0.04378942400217056,76.95954132080078,-0.7576878017528604,-1.7468828867300836,0.11965263312061601,-0.5859643714812894
0.14650218188762665,0.05980916693806648,76.95978546142578,-0.7576878017528604,-1.7468828867300836,0.11965263312061601,-0.5859643714812894
0.14087210595607758,0.08613884449005127,76.95904541015625,-0.7576878017528604,-1.7468828867300836,0.11965263312061601,-0.5859643714812894
0.15158912539482117,0.06669626384973526,76.95726776123047,-0.7576878017528604,-1.7468828867300836,0.11965263312061601,-0.5859643714812894
0.1416250467300415,0.06533639878034592,76.9576187133789,-0.7576878017528604,-1.7468828867300836,0.11965263312061601,-0.5859643714812894
0.12194841355085373,0.056952886283397675,76.95746612548828,-0.7576878017528604,-1.7468828867300836,0.11965263312061601,-0.5859643714812894
0.14272582530975342,0.07161909341812134,76.95816802978516,-0.7556752110453737,-1.7566400309784036,0.12185825177778774,-0.5848929383171101
0.126922607421875,0.09766993671655655,76.95714569091797,-0.7536255145968043,-1.766376490434374,0.1241053220505513,-0.5834821963993211
0.1559232473373413,0.4608412981033325,76.95220184326172,-0.7515374504893813,-1.7760624082052778,0.12646237084021145,-0.5788279361091554
0.7503995299339294,1.1127395629882812,76.91702270507812,-0.7493668052269561,-1.7856002640250768,0.13401506065080537,-0.5657147622667252
0.9236119389533997,2.79323410987854,76.69566345214844,-0.7470169700863255,-1.794757595224462,0.14796515622486645,-0.5331649816595018
-0.14725908637046814,1.841675877571106,76.62336730957031,-0.744496970756704,-1.803321809502992,0.1544347633297242,-0.4945407317640881
0.2224518209695816,1.0916295051574707,76.65380096435547,-0.7419178363168614,-1.8113604532697039,0.15506136945138346,-0.47009652024134996
0.3834153115749359,1.2899752855300903,76.66477966308594,-0.7392914060529117,-1.819030006052151,0.16011026222258778,-0.45024981365228695
0.32085874676704407,1.4031133651733398,76.61952209472656,-0.736573993761817,-1.8263471495678347,0.16597921270877095,-0.4278074082297584
0.7828974723815918,1.3798999786376953,76.57494354248047,-0.7337310238125633,-1.8332840082227884,0.17517718120167625,-0.4046156303646664
0.11659088730812073,1.3366410732269287,76.57024383544922,-0.7307489396564458,-1.8398389533780422,0.18267291753242385,-0.38197778826579454
0.08154955506324768,0.5446171164512634,76.56785583496094,-0.727690631277963,-1.8460746069193,0.18432408788551857,-0.36630063668514296
1.0017263889312744,0.8906864523887634,76.54298400878906,-0.727690631277963,-1.8460746069193,0.18432408788551857,-0.36630063668514296
-0.23613889515399933,1.3827588558197021,76.4780502319336,-0.7245653973483587,-1.8520217393843157,0.19070398366699587,-0.3473552591167391
0,0.11594211310148239,76.51040649414062,-0.7214033961549611,-1.8577069172467529,0.18873615954071254,-0.33486608437572923
0.7112873196601868,-0.41048744320869446,76.529541015625,-0.7182083985431951,-1.863308473189828,0.1946635538712141,-0.33732062879328933
0.20013396441936493,1.5570603609085083,76.4788589477539,-0.7149007128339471,-1.8688508605504315,0.20225873123854368,-0.3277658544791242
0.20498479902744293,-0.3388465940952301,76.57118225097656,-0.7115016007325098,-1.8742290266134993,0.20563472093393376,-0.31761407308901357
0.44509121775627136,1.1575051546096802,76.52477264404297,-0.7080292112157787,-1.8794657432093915,0.21105202107379803,-0.3107919184180598
0.5535154342651367,1.0565550327301025,76.45499420166016,-0.7044423298470472,-1.8844918543366829,0.21937374317397643,-0.29234141685689496
-1.3385251760482788,0.7056671977043152,76.46159362792969,-0.7008406153595492,-1.8892418347405175,0.21283199532578356,-0.2776562316032748
1.1428877115249634,0.7487576603889465,76.59716796875,-0.6973070013724891,-1.8937684368743157,0.2112016831214226,-0.26553602445249763
-0.126245379447937,0.552415132522583,76.7166748046875,-0.6937163731585156,-1.8981036780601275,0.2196737025553978,-0.25469291784490156
0.3392411470413208,0.6518681049346924,76.77508544921875,-0.6900403534098428,-1.9022649292438303,0.22144866728534268,-0.24465722419942426
0.6294592618942261,-0.44938284158706665,76.77716064453125,-0.6862822714266889,-1.9063284881705327,0.2295211706931389,-0.2429698470048607
0.26657745242118835,0.7034025192260742,76.79345703125,-0.6823946938099757,-1.910360345365222,0.23698814331243404,-0.240853016357869
0.06345667690038681,0.7495182752609253,76.7103042602539,-0.6784219723846767,-1.9142736650271248,0.23973842772344717,-0.22874534307047734
1.1011590957641602,0.24758481979370117,76.59585571289062,-0.6743454558272953,-1.918016844141143,0.2494435591623184,-0.22043615061168878
-0.27674055099487305,0.8292222023010254,76.47705841064453,-0.6701308118867588,-1.9216160017192478,0.25631371370206246,-0.2114627587608994
0,0.7040866613388062,76.35973358154297,-0.6658781347522102,-1.9250339012497324,0.2540075424437718,-0.19868518489723414
0.3342437744140625,0.2395646721124649,76.39942932128906,-0.6658781347522102,-1.9250339012497324,0.2540075424437718,-0.19868518489723414
0.12899328768253326,-0.18956460058689117,76.47557830810547,-0.6616125064710573,-1.9283418487708304,0.2578678512945768,-0.19826851763452102
0.8626124262809753,0.6976854801177979,76.56918334960938,-0.6572458474415669,-1.9316110378925495,0.2661312322442727,-0.19403417697176348
-1.1617240905761719,-0.27324286103248596,76.62201690673828,-0.6528310985475162,-1.934815465660198,0.26363863504181273,-0.19049715514605253
1.0056757926940918,-0.3062025010585785,76.4909439086914,-0.6484479579841722,-1.9380306575072217,0.26233823255946204,-0.1953258664968114
0.5679295659065247,0.21975332498550415,76.10794830322266,-0.6439663759582783,-1.941292092030507,0.2754516105478005,-0.19604627629742036
-0.13660244643688202,0.23093901574611664,75.79862976074219,-0.6393455625102963,-1.9445282318895798,0.2790460032100475,-0.1922905067913235
-0.6404867172241211,1.5290361642837524,75.63652038574219,-0.6347487603153831,-1.947610853170822,0.27257026017953917,-0.17762404695774126
0.5579853653907776,-0.20590519905090332,75.58374786376953,-0.630211651906268,-1.9504793698586433,0.2718827489142613,-0.16659795558080084
1.2249754667282104,0.21789827942848206,75.53874206542969,-0.6255564560332443,-1.9532551695988527,0.28674075584858616,-0.166498013244321
0.27170315384864807,0.34940120577812195,75.4795913696289,-0.62067350742045,-1.9559907406886743,0.29921307768672667,-0.16177051753426597
-0.10307411849498749,0.6676077842712402,75.529052734375,-0.6156749124426606,-1.9586162903566031,0.30061831964800717,-0.15329544261718794
-0.17943136394023895,0.2319977879524231,75.61360168457031,-0.6106842255514741,-1.9611087417910407,0.2982641072943803,-0.14579872951532408
-0.855904757976532,0.5248008966445923,75.57064819335938,-0.6057850554383675,-1.9634861651520878,0.2896363062784072,-0.13949207381034895
0.5304594039916992,-0.2007044553756714,75.45811462402344,-0.6009803840388652,-1.9657885263516166,0.2869242616618669,-0.13679127013310793
0.9421445727348328,0.5547390580177307,75.45330810546875,-0.596096048846117,-1.9680437951175405,0.2991959614679213,-0.13384098177775744
0.25671055912971497,-0.10298330336809158,75.50653076171875,-0.5910261956597166,-1.9702431062197636,0.3091864209001259,-0.13007635048901045
0.4039618968963623,-1.272267460823059,75.36903381347656,-0.585827208613046,-1.9725065489198714,0.3146920247003432,-0.1415367735239367
-0.18001316487789154,0.8850045800209045,75.21034240722656,-0.580566789539428,-1.9748923884008815,0.3165582641338304,-0.144763964197288
0.06765186786651611,-0.05651753395795822,75.1748275756836,-0.5752986213383788,-1.9772475873148598,0.31562191999206896,-0.13785990548009677
-0.314355731010437,1.513569712638855,75.2261734008789,-0.5752986213383788,-1.9772475873148598,0.31562191999206896,-0.13785990548009677
0,0.7434669733047485,75.24543762207031,-0.5700600862642756,-1.9793885137474487,0.31300228890031534,-0.11905126643056674
0.15164680778980255,-0.3154493570327759,75.45777130126953,-0.5648328504209517,-1.981342978075717,0.3142660122985637,-0.11548445296163364
0.5055791139602661,-1.0957385301589966,75.59049224853516,-0.5595494428602985,-1.9833657181172437,0.3197428949798143,-0.12724435202156506
-0.14686821401119232,-1.4462366104125977,75.51231384277344,-0.5541954841314718,-1.9856629833690318,0.3227321524793899,-0.148427478192995
0.4424571990966797,0.23802690207958221,75.3494873046875,-0.5487960879106288,-1.988220678124216,0.32519539402176895,-0.15849589242910347
0,0.8726470470428467,75.21932220458984,-0.543345438482551,-1.990785146196012,0.3288825373475746,-0.14924027618641655
0.05874812602996826,1.105518102645874,75.18115997314453,-0.5378599831291171,-1.9931351115526128,0.329372105064491,-0.13275556660567722
0.0657537654042244,-0.3338054120540619,75.1533203125,-0.5323618020800259,-1.9952941131703053,0.3304096208264426,-0.1263246275174121
0.5126121044158936,-0.3051675856113434,75.14214324951172,-0.5268148107697366,-1.9974438967537667,0.3352293364082769,-0.13164940249795715
0.7963542938232422,0.3947145938873291,75.14907836914062,-0.5211367547186098,-1.9996318349198245,0.34613738972693636,-0.1309031774289906
-0.23471570014953613,0.5464977622032166,75.26034545898438,-0.5153287955430446,-2.001748192574468,0.3508177113408839,-0.12305974112823606
-0.2633081376552582,0.5769209265708923,75.3465347290039,-0.5095164186760996,-2.003721173073218,0.3466675126925106,-0.11369791872178515
1.0821245908737183,-1.027543544769287,75.23897552490234,-0.5036817645441954,-2.0056474316226227,0.3534909831359978,-0.11745310720677178
-1.2824066877365112,0.359798789024353,75.0150375366211,-0.4978041566375443,-2.0076513545729955,0.3518219656621412,-0.12301764683797957
-0.1343739926815033,0.08459487557411194,74.78673553466797,-0.4920388447570932,-2.0096707880158093,0.34001545999199106,-0.11931436629965902
1.083071231842041,0.12766355276107788,74.68685913085938,-0.4863060386711739,-2.011644620618836,0.34792127031832887,-0.11754554606353244
0.6553959846496582,0.7987803816795349,74.68138885498047,-0.4803866239425009,-2.013539376668892,0.36240849712242634,-0.109825179943194
0.35850751399993896,0.6290333867073059,74.74324035644531,-0.4803866239425009,-2.013539376668892,0.36240849712242634,-0.109825179943194
-0.0812734067440033,0.17584365606307983,74.79277038574219,-0.47432722995523435,-2.0153139020955306,0.36471878134955915,-0.1031178712534408
0.10522552579641342,0.15114513039588928,74.80448150634766,-0.4682469202578075,-2.017009825728473,0.3649183823416626,-0.10039296469961605
-1.861611247062683,-0.23426488041877747,74.74755096435547,-0.46228691844942327,-2.0186888140116626,0.3502818346644437,-0.10108562928314012
0.2840641736984253,-1.644813895225525,74.648193359375,-0.4565584397517773,-2.0205040660813567,0.3371356090530749,-0.11674461908017597
0.9592865109443665,-0.5385082364082336,74.5016860961914,-0.4508531691366814,-2.0226014293251677,0.3474968647584315,-0.13493897017712397
0.9643756747245789,0.8882625102996826,74.38198852539062,-0.4449279670722583,-2.0248261236702105,0.3635273829723394,-0.13202435122802855
0.14241236448287964,-0.08128608018159866,74.1897201538086,-0.4387923170755521,-2.0269704894941416,0.37275061663240155,-0.12529954764371118
-0.2714190185070038,0.40956437587738037,74.1048812866211,-0.43258876559376375,-2.029036018184336,0.3716755611822005,-0.12256389517957966
-0.1491047888994217,1.4521973133087158,74.32138061523438,-0.42642337594957475,-2.030949460764469,0.3681711961204803,-0.1070492144363622
-0.7519643306732178,0.256407767534256,74.46260070800781,-0.4203497635919815,-2.0326149612077944,0.36066228679070833,-0.09281083876267077
1.0630546808242798,-0.45220690965652466,74.62358856201172,-0.4143171219822648,-2.034175405683153,0.3632547063753005,-0.09444249828035634
0.23361635208129883,-0.45293810963630676,74.72969818115234,-0.4081728302765024,-2.0358123046141654,0.3740602983161803,-0.10198537344112993
0,-0.12483128905296326,74.67980194091797,-0.4019222686134493,-2.037552183713093,0.37600710125019116,-0.10680011843020717
0.3603113293647766,0.05491973087191582,74.51610565185547,-0.395630461972518,-2.039337040656248,0.3790096956615643,-0.10738271474838257
-0.3422684669494629,0.7760118842124939,74.37812042236328,-0.3893123807349353,-2.04106904898434,0.3791600528483586,-0.10045828462267915
0.34670278429985046,-0.5578089952468872,74.2923355102539,-0.3829927385820911,-2.042728200749651,0.37919700549294516,-0.09863992721463243
0.21959081292152405,-0.04112963750958443,74.25735473632812,-0.3829927385820911,-2.042728200749651,0.37919700549294516,-0.09863992721463243
0.2354048788547516,-0.07003384828567505,74.27819061279297,-0.3829927385820911,-2.042728200749651,0.37919700549294516,-0.09863992721463243
0.5892307758331299,-0.28018173575401306,74.31244659423828,-0.3829927385820911,-2.042728200749651,0.37919700549294516,-0.09863992721463243
-1.3266695737838745,-0.8786969184875488,74.37577819824219,-0.3829927385820911,-2.042728200749651,0.37919700549294516,-0.09863992721463243
-0.9118006229400635,-2.931685447692871,74.58386993408203,-0.3829927385820911,-2.042728200749651,0.37919700549294516,-0.09863992721463243
1.598389744758606,-3.7705464363098145,75.00628662109375,-0.3829927385820911,-2.042728200749651,0.37919700549294516,-0.09863992721463243
-2.9251177310943604,-0.0358862429857254,75.7998046875,-0.3829927385820911,-2.042728200749651,0.37919700549294516,-0.09863992721463243
-0.4232970178127289,-1.8459120988845825,76.7105484008789,-0.3829927385820911,-2.042728200749651,0.37919700549294516,-0.09863992721463243
0.3889412581920624,-1.1467305421829224,77.8167495727539,-0.3829927385820911,-2.042728200749651,0.37919700549294516,-0.09863992721463243
-1.0050855875015259,-1.3975141048431396,79.02212524414062,-0.3829927385820911,-2.042728200749651,0.37919700549294516,-0.09863992721463243
-0.10337334126234055,-1.2629116773605347,80.35798645019531,-0.3829927385820911,-2.042728200749651,0.37919700549294516,-0.09863992721463243
-0.23315192759037018,-0.810190737247467,81.62419128417969,-0.3829927385820911,-2.042728200749651,0.37919700549294516,-0.09863992721463243
0.9207202792167664,-2.1969239711761475,82.87565612792969,-0.3829927385820911,-2.042728200749651,0.37919700549294516,-0.09863992721463243
-0.5136540532112122,-0.6197666525840759,84.16297912597656,-0.3829927385820911,-2.042728200749651,0.37919700549294516,-0.09863992721463243
-1.2918965816497803,-0.4770169258117676,85.42749786376953,-0.3829927385820911,-2.042728200749651,0.37919700549294516,-0.09863992721463243
0.19372187554836273,-0.9254356622695923,86.64493560791016,-0.3829927385820911,-2.042728200749651,0.37919700549294516,-0.09863992721463243
-0.7009336352348328,-0.44245049357414246,87.8307113647461,-0.3829927385820911,-2.042728200749651,0.37919700549294516,-0.09863992721463243
-0.2148181051015854,-0.07602805644273758,88.92008972167969,-0.3829927385820911,-2.042728200749651,0.37919700549294516,-0.09863992721463243
-0.48054105043411255,-0.9564767479896545,90.00704956054688,-0.3829927385820911,-2.042728200749651,0.37919700549294516,-0.09863992721463243
-0.004638772923499346,-0.2240026742219925,91.12580108642578,-0.3829927385820911,-2.042728200749651,0.37919700549294516,-0.09863992721463243
-0.04873666539788246,-0.8563202619552612,92.2040023803711,-0.3829927385820911,-2.042728200749651,0.37919700549294516,-0.09863992721463243
0.22566212713718414,-0.4041637182235718,93.2409896850586,-0.3829927385820911,-2.042728200749651,0.37919700549294516,-0.09863992721463243
-1.1020992994308472,-0.14913326501846313,94.222412109375,-0.3829927385820911,-2.042728200749651,0.37919700549294516,-0.09863992721463243
0.32629236578941345,-0.5315586924552917,95.21392822265625,-0.3829927385820911,-2.042728200749651,0.37919700549294516,-0.09863992721463243
-0.5889450907707214,0.2020287811756134,96.29987335205078,-0.3829927385820911,-2.042728200749651,0.37919700549294516,-0.09863992721463243
0.562941312789917,-0.25585541129112244,97.44532012939453,-0.3829927385820911,-2.042728200749651,0.37919700549294516,-0.09863992721463243
-0.6452944874763489,-0.6033772230148315,98.67015075683594,-0.3829927385820911,-2.042728200749651,0.37919700549294516,-0.09863992721463243
0.19273969531059265,0.09217846393585205,99.95708465576172,-0.3829927385820911,-2.042728200749651,0.37919700549294516,-0.09863992721463243
-0.6050269603729248,-0.3271109163761139,101.39581298828125,-0.3829927385820911,-2.042728200749651,0.37919700549294516,-0.09863992721463243
-0.42549923062324524,0.1779986470937729,102.93866729736328,-0.3829927385820911,-2.042728200749651,0.37919700549294516,-0.09863992721463243
0.1040068194270134,-0.7127028107643127,104.56764221191406,-0.3829927385820911,-2.042728200749651,0.37919700549294516,-0.09863992721463243
-0.7336272597312927,0.3150172233581543,106.23068237304688,-0.3829927385820911,-2.042728200749651,0.37919700549294516,-0.09863992721463243
-0.10032790899276733,-1.2254552841186523,107.8442611694336,-0.3829927385820911,-2.042728200749651,0.37919700549294516,-0.09863992721463243
-0.060488250106573105,0.3456477224826813,109.52811431884766,-0.3829927385820911,-2.042728200749651,0.37919700549294516,-0.09863992721463243
0.1815841645002365,-0.7558666467666626,111.24392700195312,-0.3829927385820911,-2.042728200749651,0.37919700549294516,-0.09863992721463243
-0.8674090504646301,-0.12618780136108398,113.0003890991211,-0.3829927385820911,-2.042728200749651,0.37919700549294516,-0.09863992721463243
0.009577233344316483,-0.004441209603101015,114.75614166259766,-0.3829927385820911,-2.042728200749651,0.37919700549294516,-0.09863992721463243
0.5967005491256714,-0.6475062370300293,116.51909637451172,-0.3829927385820911,-2.042728200749651,0.37919700549294516,-0.09863992721463243
0.3172411024570465,-0.48758262395858765,118.2777328491211,-0.3829927385820911,-2.042728200749651,0.37919700549294516,-0.09863992721463243
-0.6467468738555908,0.37791213393211365,120.05113220214844,-0.3829927385820911,-2.042728200749651,0.37919700549294516,-0.09863992721463243
0.7045459747314453,-0.32639190554618835,121.88911437988281,-0.3829927385820911,-2.042728200749651,0.37919700549294516,-0.09863992721463243
0.24114368855953217,0.16861140727996826,123.69966125488281,-0.3829927385820911,-2.042728200749651,0.37919700549294516,-0.09863992721463243
0.3549666404724121,-0.2853412628173828,125.37796020507812,-0.3829927385820911,-2.042728200749651,0.37919700549294516,-0.09863992721463243
0.3709883391857147,0.21784380078315735,127.01582336425781,-0.3829927385820911,-2.042728200749651,0.37919700549294516,-0.09863992721463243
0.07323415577411652,-0.19805751740932465,128.67129516601562,-0.3829927385820911,-2.042728200749651,0.37919700549294516,-0.09863992721463243
0.21518175303936005,0.4053950309753418,130.36282348632812,-0.3829927385820911,-2.042728200749651,0.37919700549294516,-0.09863992721463243
0.1997041255235672,0.0402132049202919,132.0236053466797,-0.3829927385820911,-2.042728200749651,0.37919700549294516,-0.09863992721463243
0.5058368444442749,-0.015627941116690636,133.61610412597656,-0.3829927385820911,-2.042728200749651,0.37919700549294516,-0.09863992721463243
0.37065327167510986,-0.06984379142522812,135.1126251220703,-0.3829927385820911,-2.042728200749651,0.37919700549294516,-0.09863992721463243
0.3931839168071747,-0.15569713711738586,136.5940704345703,-0.3829927385820911,-2.042728200749651,0.37919700549294516,-0.09863992721463243
-0.9175735116004944,-0.3065573275089264,138.07728576660156,-0.3829927385820911,-2.042728200749651,0.37919700549294516,-0.09863992721463243
0.6949169039726257,-0.3706834614276886,139.58082580566406,-0.3829927385820911,-2.042728200749651,0.37919700549294516,-0.09863992721463243
0.5607883334159851,0.16698630154132843,141.12767028808594,-0.3829927385820911,-2.042728200749651,0.37919700549294516,-0.09863992721463243
-0.42469578981399536,-0.5798720717430115,142.71615600585938,-0.3829927385820911,-2.042728200749651,0.37919700549294516,-0.09863992721463243
0.3249756991863251,-0.26768091320991516,144.2856903076172,-0.3829927385820911,-2.042728200749651,0.37919700549294516,-0.09863992721463243
-0.5172009468078613,0.0702434703707695,145.90646362304688,-0.3829927385820911,-2.042728200749651,0.37919700549294516,-0.09863992721463243
1.2852375507354736,0.33886122703552246,147.57022094726562,-0.3829927385820911,-2.042728200749651,0.37919700549294516,-0.09863992721463243
-0.6727401614189148,0.15510006248950958,149.2607879638672,-0.3829927385820911,-2.042728200749651,0.37919700549294516,-0.09863992721463243
-0.08594150841236115,0.06506530940532684,150.99465942382812,-0.3829927385820911,-2.042728200749651,0.37919700549294516,-0.09863992721463243
0.16891993582248688,-0.14572273194789886,152.7362518310547,-0.3829927385820911,-2.042728200749651,0.37919700549294516,-0.09863992721463243
-0.9728943705558777,-0.04327304661273956,154.55197143554688,-0.3829927385820911,-2.042728200749651,0.37919700549294516,-0.09863992721463243
0.7367015480995178,-0.17647036910057068,156.3540496826172,-0.3829927385820911,-2.042728200749651,0.37919700549294516,-0.09863992721463243
-0.5232687592506409,0.22155828773975372,158.1696319580078,-0.3829927385820911,-2.042728200749651,0.37919700549294516,-0.09863992721463243
1.6336355209350586,0.8066975474357605,159.85595703125,-0.3829927385820911,-2.042728200749651,0.37919700549294516,-0.09863992721463243
-0.8196556568145752,0.6038097739219666,161.18650817871094,-0.3829927385820911,-2.042728200749651,0.37919700549294516,-0.09863992721463243
0.8293164372444153,1.6057538986206055,162.12643432617188,-0.3829927385820911,-2.042728200749651,0.37919700549294516,-0.09863992721463243
1.6803370714187622,2.0843536853790283,162.5415802001953,-0.3829927385820911,-2.042728200749651,0.37919700549294516,-0.09863992721463243
-0.015414376743137836,0.4971170127391815,162.48074340820312,-0.3829927385820911,-2.042728200749651,0.37919700549294516,-0.09863992721463243
-0.6284960508346558,-0.16684632003307343,162.38912963867188,-0.3829927385820911,-2.042728200749651,0.37919700549294516,-0.09863992721463243
-0.3414667248725891,0.32281434535980225,162.4405975341797,-0.3829927385820911,-2.042728200749651,0.37919700549294516,-0.09863992721463243
-0.07346167415380478,0.07673472166061401,162.44866943359375,-0.3829927385820911,-2.042728200749651,0.37919700549294516,-0.09863992721463243
-0.04370871186256409,0.031489308923482895,162.41665649414062,-0.3829927385820911,-2.042728200749651,0.37919700549294516,-0.09863992721463243
0.11205599457025528,0.09601069241762161,162.42857360839844,-0.3829927385820911,-2.042728200749651,0.37919700549294516,-0.09863992721463243
0.139051154255867,-0.04308156296610832,162.4307861328125,-0.3829927385820911,-2.042728200749651,0.37919700549294516,-0.09863992721463243
-0.025568991899490356,0.12169646471738815,162.4241180419922,-0.3829927385820911,-2.042728200749651,0.37919700549294516,-0.09863992721463243
-0.1854003369808197,0.1226327046751976,162.43136596679688,-0.3829927385820911,-2.042728200749651,0.37919700549294516,-0.09863992721463243
-0.16442543268203735,0.07282711565494537,162.42893981933594,-0.3829927385820911,-2.042728200749651,0.37919700549294516,-0.09863992721463243
-0.015485544688999653,0.11641451716423035,162.42782592773438,-0.3829927385820911,-2.042728200749651,0.37919700549294516,-0.09863992721463243
0.023095760494470596,0.04393671825528145,162.4307098388672,-0.3829927385820911,-2.042728200749651,0.37919700549294516,-0.09863992721463243
-0.03691193461418152,0.0872565433382988,162.42832946777344,-0.3829927385820911,-2.042728200749651,0.37919700549294516,-0.09863992721463243
-0.11701980978250504,0.1146317571401596,162.4288330078125,-0.3829927385820911,-2.042728200749651,0.37919700549294516,-0.09863992721463243
-0.10079118609428406,0.06630022823810577,162.42922973632812,-0.3829927385820911,-2.042728200749651,0.37919700549294516,-0.09863992721463243
-0.022591358050704002,0.07883584499359131,162.4292755126953,-0.3829927385820911,-2.042728200749651,0.37919700549294516,-0.09863992721463243
-0.019611872732639313,0.07028336077928543,162.4298858642578,-0.3829927385820911,-2.042728200749651,0.37919700549294516,-0.09863992721463243
-0.058724984526634216,0.07741565257310867,162.4289093017578,-0.3829927385820911,-2.042728200749651,0.37919700549294516,-0.09863992721463243
-0.096135713160038,0.09807781875133514,162.4268798828125,-0.3829927385820911,-2.042728200749651,0.37919700549294516,-0.09863992721463243
-0.060743704438209534,0.08325301855802536,162.42575073242188,-0.3829927385820911,-2.042728200749651,0.37919700549294516,-0.09863992721463243
-0.025403454899787903,0.07815738022327423,162.42591857910156,-0.3829927385820911,-2.042728200749651,0.37919700549294516,-0.09863992721463243
-0.041785988956689835,0.07237087935209274,162.42518615722656,-0.3829927385820911,-2.042728200749651,0.37919700549294516,-0.09863992721463243
-0.072525754570961,0.08307982236146927,162.42596435546875,-0.3829927385820911,-2.042728200749651,0.37919700549294516,-0.09863992721463243
-0.08104778081178665,0.09861741214990616,162.42520141601562,-0.3829927385820911,-2.042728200749651,0.37919700549294516,-0.09863992721463243
0,0.08048292249441147,162.42474365234375,-0.37667841680865394,-2.0443597620133223,0.3785216073195136,-0.09714742442592977
0,0.0838700458407402,162.42474365234375,-0.3703697233533287,-2.0459674723531758,0.3785216073195136,-0.09577781635647017
-0.1794811487197876,0.14101161062717438,162.42300415039062,-0.36407349386666454,-2.047548152510751,0.37702593108018206,-0.09390380255257089
-1.1725693941116333,0.4138931930065155,162.4390869140625,-0.35788362074746927,-2.0490746808308193,0.3657588432232536,-0.08927959585562348
-2.022303342819214,1.3178483247756958,162.29086303710938,-0.35200950618936855,-2.0504424142674558,0.3391349037488299,-0.07484841654077172
-2.3191254138946533,0,162.24449157714844,-0.34665874590165985,-2.0515983706316927,0.3029563307762143,-0.06386634716764092
-1.3490090370178223,-0.10350368171930313,162.3868408203125,-0.3418642052811474,-2.0526699975068285,0.27238854368527704,-0.06472887784863511
-1.239086389541626,0.8929327726364136,162.44216918945312,-0.33750412506879274,-2.053693990672992,0.25082108179728163,-0.05815030209099252
-0.638981282711029,0.8549460768699646,162.3684539794922,-0.3334541950716334,-2.0545417818988483,0.23517051786184284,-0.0435846450117727
-1.1711474657058716,-0.08473868668079376,162.3779754638672,-0.3296603898259094,-2.0552147060247257,0.22008611162503533,-0.03716625009352961
-1.7957974672317505,0.2622513473033905,162.40884399414062,-0.32619832580805724,-2.055821816258186,0.1953615705172218,-0.03568697792167464
-1.4032268524169922,0.23254311084747314,162.43539428710938,-0.32316445409941247,-2.0563822384972865,0.16870303452014895,-0.031563690770417444
-0.6158321499824524,0,162.5362548828125,-0.32049294928813216,-2.0568921511829847,0.15187754283348692,-0.02962583151335517
-0.5253266096115112,0.13771101832389832,162.5552978515625,-0.318040904043657,-2.0573763517763792,0.14236788650353724,-0.02847823969398935
-0.8695827722549438,0.9162026643753052,162.51405334472656,-0.31576497464233877,-2.0577778006544247,0.1307436416546501,-0.01969562567149599
-0.7199162840843201,1.0505403280258179,162.51220703125,-0.31369629582700703,-2.057969481707811,0.11749781618515624,-0.0033061007348199646
-0.8651825189590454,-0.4144432246685028,162.42059326171875,-0.31184807519635466,-2.057980409976769,0.1042886594931282,0.0019947084598243275
-0.4600452780723572,0.2877891957759857,162.28221130371094,-0.31020196057959637,-2.057955960254445,0.09324509451786651,0.0009392582190533517
-0.9955952167510986,0.36544954776763916,162.20603942871094,-0.3087489618164391,-2.0578949421491592,0.08111475706100438,0.006382914415250226
-1.820056438446045,-0.22603560984134674,162.21322631835938,-0.3075925805637,-2.0577788787187714,0.05765099326769485,0.007544697231302662
-0.6319251656532288,0.29888495802879333,162.2816925048828,-0.3068020071761897,-2.0576480747824033,0.037217813233534236,0.008151775132864717
-0.3002071678638458,1.1330077648162842,162.34469604492188,-0.30624644170101395,-2.0574127748688804,0.029450043787558614,0.020084214489907028
0.44295236468315125,-0.13366539776325226,162.3351287841797,-0.30574569477699776,-2.0570086391852254,0.030639587094386158,0.028412067548682293
-0.40863898396492004,0,162.27899169921875,-0.3052326521184303,-2.0565443870453697,0.03092553193370475,0.027298189233988523
-1.021392583847046,-0.3599892854690552,162.3106689453125,-0.3048165343339666,-2.0561144164807383,0.019008602201938368,0.024298278521746396
-1.2319447994232178,0.07567203044891357,162.24400329589844,-0.3046562060599947,-2.0557291894258634,0.0002307906746861696,0.021928968063245215
0,1.2631735801696777,162.11651611328125,-0.30473791127093214,-2.055270731235183,-0.010035415987173979,0.03308601481840014
-1.3376632928848267,0.12353979051113129,162.0124969482422,-0.3049980614882798,-2.0546229981152453,-0.021182610094547534,0.04464195957407355
0.3806353211402893,0.37142741680145264,161.9582977294922,-0.30541756526567115,-2.0538445927329474,-0.02915784319241868,0.048766686301678415
0.6445814371109009,1.1810795068740845,161.78671264648438,-0.30583233371066626,-2.0529240016471086,-0.020614370206992097,0.061704243998974555
0.47967836260795593,-0.7979022264480591,161.66212463378906,-0.3060978329502468,-2.051868988047096,-0.01124553854266829,0.06489738800252477
-1.302799940109253,-0.5628261566162109,161.68734741210938,-0.3063424198132844,-2.050881859940322,-0.018104885021845766,0.05355798481032252
-1.22734797000885,0.9741223454475403,161.75636291503906,-0.3068198726129623,-2.0499606646248143,-0.03918945093949662,0.0569854530505836
