faccX,faccY,yaw,posX,posY,velX,velY
0,0,54.449913024902344,0.0,0.0,0.0,0.0
0,0,54.452091217041016,0.0,0.0,0.0,0.0
0,0,54.452850341796875,0.0,0.0,0.0,0.0
0,0.08914651721715927,54.461952209472656,0.0,6.190730362302727e-06,0.0,0.0007428876434763273
0.4602283835411072,1.3206324577331543,54.54545211791992,3.1960304412576884e-05,0.00011647350879179105,0.0038352365295092265,0.012491045768062273
1.6130889654159546,2.6923375129699707,54.72117614746094,0.0002398612846930822,0.0006033360751138793,0.02111288110415141,0.045932462190588316
1.1679637432098389,1.4051979780197144,54.72665023803711,0.0007848712967501747,0.001653428187386857,0.04428832034269969,0.08007859128216901
0.7175005674362183,1.280669093132019,54.82718276977539,0.0016539449907011458,0.0031745899220307666,0.06000052293141683,0.10246081687510013
0.7103554606437683,0.8605748414993286,54.89531326293945,0.0027531103748414253,0.005030967698742946,0.07189932316541672,0.12030451633036135
0.6581054329872131,1.2358636856079102,54.91632843017578,0.0040464644341005225,0.007181628979742527,0.0833031639456749,0.13777483738958834
1.782437801361084,1.4218498468399048,55.07389450073242,0.005604332668913736,0.00966243970932232,0.10364102423191071,0.1599224501599868
0.5587230920791626,0.8637493252754211,55.12749481201172,0.007494263690378932,0.012486536043385664,0.12315069834391276,0.1789691099276145
0.30424755811691284,1.1903650760650635,55.11893844604492,0.009606703846818873,0.015612001375605662,0.13034212042888005,0.1960867299387852
0.426012247800827,0.7790923714637756,55.170196533203125,0.011829785007155605,0.019016881419552694,0.13642761881152787,0.21249887533485887
1.3726751804351807,0.894374668598175,55.2661018371582,0.014228487503197459,0.022674742330693533,0.1514166807134946,0.22644443400204178
-0.28848564624786377,1.000470519065857,55.33903503417969,0.01682738978829649,0.02658040270209312,0.1604515934983889,0.24223481056590873
1.4293352365493774,0.6273940205574036,55.29694366455078,0.019580808679262797,0.030730695693443215,0.16995867341756818,0.25580034839610255
-0.45090362429618835,1.085979700088501,55.35095977783203,0.022481399875962073,0.035113019119534225,0.17811227018634476,0.27007846273481845
0.24812637269496918,0.2886280417442322,55.396976470947266,0.025435855958817734,0.03970978570274181,0.1764224597563346,0.28153352725009123
0.6542711853981018,0.7164329290390015,55.39179229736328,0.028438896785179774,0.04447180705765883,0.1839424394071102,0.2899090353399515
-0.3006021976470947,0.2093217670917511,55.437164306640625,0.03152916445500321,0.049367912833889326,0.18688968097170192,0.2976236578077078
1.2851591110229492,0.9841129183769226,55.41960525512695,0.03471236447907156,0.054411184539397556,0.1950943219165007,0.30756894685328007
0.5267654061317444,0.38005930185317993,55.38362121582031,0.03808976460248232,0.05963206783557931,0.2101936928927898,0.3189370486885309
-1.272719144821167,0.09390264749526978,55.35836410522461,0.0415411904743976,0.0649805993379818,0.20397741173704462,0.322886731599768
1.0952727794647217,0.25835925340652466,55.43126678466797,0.04492849133908748,0.07038650749665167,0.20249869202574092,0.3258222474406163
-0.10841308534145355,0.12001881748437881,55.50312042236328,0.0483720014627195,0.07584315454225159,0.21072252281010148,0.3289753980313738
0.20347566902637482,1.4078923463821411,55.4509391784668,0.05189064507786598,0.08143218278470966,0.21151471100747582,0.34170799106359484
1.2186198234558105,-0.27977490425109863,55.37530517578125,0.05551464689274628,0.0872056574581398,0.2233655067781607,0.3511089697480202
0.34740757942199707,0.3887890875339508,55.3887825012207,0.05934615724202658,0.09306504405000145,0.23641573513547576,0.3520174212753773
0.36412373185157776,0.14883418381214142,55.33034133911133,0.06333583139090074,0.09896933602065677,0.24234516272942222,0.3564976152032614
0.42414554953575134,0.9257981777191162,55.283748626708984,0.06742965835870968,0.10498559018803968,0.24891407340764996,0.36545288488268857
-0.4708176255226135,0.2778681516647339,55.22477722167969,0.0715749851324492,0.1111600595422917,0.24852513944109278,0.375483437627554
-0.30142664909362793,0,55.12314987182617,0.07566344271517461,0.11743741323550543,0.24208977048595742,0.3777990055580934
-0.2589632272720337,0.1297014355659485,54.97135925292969,0.0796593562596374,0.12374307037227684,0.23741985484957692,0.37887985085447634
0.8724294304847717,0,55.03042984008789,0.08365895566013123,0.13006674159732132,0.24253207320968306,0.37996069615085926
0.307638943195343,0.4425002336502075,55.16184997558594,0.08778310607290929,0.13643014904939468,0.252365976323684,0.3836481980979443
0.12677805125713348,-0.3415862023830414,55.1987190246582,0.092019373525141,0.1428312936031984,0.2559861179441213,0.384489148358504
0.1427278369665146,0.9606830477714539,55.10948944091797,0.09630452451089189,0.14928243891232545,0.25823200034598504,0.3896482887367408
0.9727766513824463,0.42847123742103577,54.98727798461914,0.10068585677279365,0.1558730461055206,0.26752787108222637,0.4012245744466782
-1.134960412979126,0.3424396812915802,55.115360260009766,0.1051333918629421,0.16261365782676473,0.26617633973558735,0.40764883210261665
-0.14737577736377716,0.828481912612915,55.281593322753906,0.10948061306753919,0.16948911902805172,0.25549020481606316,0.4174065120518208
0.8510347008705139,-0.4973258674144745,55.27255630493164,0.1137876483508282,0.17646889117649864,0.2613540291786193,0.4201661457618078
-0.14537619054317474,-0.49097883701324463,55.240577697753906,0.1181925529003557,0.18340302800138794,0.2672345167646804,0.4119302732249101
0.3378787338733673,0.1868966817855835,55.303550720214844,0.12265982974527607,0.1902474157388012,0.26883870462576537,0.4093962552646796
0,0.06838762760162354,55.35614776611328,0.12716393862333558,0.19708841473691996,0.2716543607413768,0.41152362450957297
-1.0528523921966553,0.4979358911514282,55.375450134277344,0.13161839655290042,0.20398646983421515,0.26288059080640463,0.4162429871658484
-0.12983471155166626,0.5090302228927612,55.40694808959961,0.13591760868413574,0.21099378115601014,0.2530248649418353,0.42463437144954996
1.2496616840362549,0.08928155153989792,55.452781677246094,0.14021245552847778,0.21811257010894936,0.26235675637920686,0.42962030290315545
0.2666749954223633,0.11738158762454987,55.49040222167969,0.14469036929309362,0.22528726009755504,0.27499289537469535,0.4313424957295258
-2.0814428329467773,-0.28471559286117554,55.51198196411133,0.14914755867173268,0.2324646812760168,0.2598698300619919,0.4299480456858873
1.3960062265396118,-0.27183806896209717,55.59212112426758,0.15343112274176537,0.2395918324775994,0.25415785834193216,0.4253100985040267
-0.9597311019897461,-0.21377204358577728,55.65489196777344,0.15769738393111354,0.2466466111948507,0.2577934843798477,0.4212633475661277
0.4270437955856323,0.8350817561149597,55.6070556640625,0.16195694983005515,0.253710813495434,0.2533544234931468,0.4264409285038709
1.149213194847107,0.13235846161842346,55.668731689453125,0.1662889858459432,0.26088534565228555,0.26648989841341963,0.43450293031831577
0.08395376056432724,-0.1978374421596527,55.715274810791016,0.17081612074695932,0.2681225140061643,0.2767662897085149,0.43395727214713886
-0.16618169844150543,-0.17639321088790894,55.65119934082031,0.17542318196863754,0.27532914696882166,0.27608105689287177,0.4308386833717425
0,-0.05600232258439064,55.54063415527344,0.18001299252112696,0.2824936531129707,0.2746962094058592,0.42890205392614
-1.2456295490264893,0.6699333786964417,55.415122985839844,0.18450476062587554,0.28968465477952526,0.26431596316397177,0.4340181460604071
-0.14253200590610504,-0.5796819925308228,55.403465270996094,0.18881362657062697,0.29692455800457135,0.25274795020620017,0.4347702409451206
2.330827236175537,-0.07702603191137314,55.472373962402344,0.19317805735394347,0.30412512396307045,0.27098374379177875,0.429297674074769
0,-1.2705508470535278,55.433868408203125,0.19785631608631865,0.31118650346994403,0.29040730409324156,0.41806786675006147
-0.2689090073108673,1.1329556703567505,55.22970199584961,0.2026777635845872,0.3181447460285078,0.28816639569898433,0.4169212402775883
0.13421611487865448,1.8136317729949951,55.02899932861328,0.20747118317315136,0.32529805749447815,0.28704395492871587,0.44147613563885285
-1.0027992725372314,-1.6298893690109253,55.14490509033203,0.21219493081379256,0.3326687529776246,0.2798057619482277,0.4430073223387201
-0.1435585469007492,0.28653228282928467,55.28684616088867,0.21677875199769095,0.3399589196633962,0.2702527801195779,0.43181267995387307
1.1455568075180054,-0.8079343438148499,55.25554275512695,0.21677875199769095,0.3399589196633962,0.2702527801195779,0.43181267995387307
-0.6652183532714844,-0.48877331614494324,55.23638153076172,0.21677875199769095,0.3399589196633962,0.2702527801195779,0.43181267995387307
-0.8391144275665283,-1.7131420373916626,55.13436508178711,0.21677875199769095,0.3399589196633962,0.2702527801195779,0.43181267995387307
-2.191418170928955,-2.320408344268799,54.580631256103516,0.21677875199769095,0.3399589196633962,0.2702527801195779,0.43181267995387307
-0.4695751368999481,-2.438133716583252,53.75129318237305,0.21677875199769095,0.3399589196633962,0.2702527801195779,0.43181267995387307
-0.7350638508796692,-2.033972978591919,52.773189544677734,0.21677875199769095,0.3399589196633962,0.2702527801195779,0.43181267995387307
-1.4361763000488281,-2.091078519821167,51.54496383666992,0.21677875199769095,0.3399589196633962,0.2702527801195779,0.43181267995387307
-0.43653541803359985,-1.6508100032806396,50.063751220703125,0.21677875199769095,0.3399589196633962,0.2702527801195779,0.43181267995387307
-0.8016249537467957,-1.6201348304748535,48.47541809082031,0.21677875199769095,0.3399589196633962,0.2702527801195779,0.43181267995387307
-0.9546651840209961,-1.249721884727478,46.7852783203125,0.21677875199769095,0.3399589196633962,0.2702527801195779,0.43181267995387307
-0.2653587758541107,-0.35050642490386963,45.007408142089844,0.21677875199769095,0.3399589196633962,0.2702527801195779,0.43181267995387307
-0.4811774492263794,-1.2405184507369995,43.1456413269043,0.21677875199769095,0.3399589196633962,0.2702527801195779,0.43181267995387307
-0.7802336812019348,-1.3166016340255737,41.195369720458984,0.21677875199769095,0.3399589196633962,0.2702527801195779,0.43181267995387307
-0.8012238144874573,-1.1282286643981934,39.131507873535156,0.21677875199769095,0.3399589196633962,0.2702527801195779,0.43181267995387307
-0.9610556364059448,-0.7209151387214661,37.019683837890625,0.21677875199769095,0.3399589196633962,0.2702527801195779,0.43181267995387307
0.2753746509552002,-0.5046148300170898,34.90250015258789,0.21677875199769095,0.3399589196633962,0.2702527801195779,0.43181267995387307
-1.314029335975647,-0.3964780867099762,32.73370361328125,0.21677875199769095,0.3399589196633962,0.2702527801195779,0.43181267995387307
0.3566591739654541,-1.6349431276321411,30.536779403686523,0.21677875199769095,0.3399589196633962,0.2702527801195779,0.43181267995387307
-0.7604047060012817,-0.317618191242218,28.329524993896484,0.21677875199769095,0.3399589196633962,0.2702527801195779,0.43181267995387307
-1.4414663314819336,-0.921929121017456,26.075153350830078,0.21677875199769095,0.3399589196633962,0.2702527801195779,0.43181267995387307
0.43455174565315247,-1.8604389429092407,23.744945526123047,0.21677875199769095,0.3399589196633962,0.2702527801195779,0.43181267995387307
-0.21076038479804993,0.5976381897926331,21.39777946472168,0.21677875199769095,0.3399589196633962,0.2702527801195779,0.43181267995387307
-0.23548048734664917,-1.484786033630371,18.99015235900879,0.21677875199769095,0.3399589196633962,0.2702527801195779,0.43181267995387307
-0.3926163613796234,-0.41304296255111694,16.55644989013672,0.21677875199769095,0.3399589196633962,0.2702527801195779,0.43181267995387307
0.2509879171848297,-0.9080374836921692,14.151582717895508,0.21677875199769095,0.3399589196633962,0.2702527801195779,0.43181267995387307
-1.2257635593414307,-0.8741275668144226,11.747771263122559,0.21677875199769095,0.3399589196633962,0.2702527801195779,0.43181267995387307
0.8976792693138123,-1.626359224319458,9.38206958770752,0.21677875199769095,0.3399589196633962,0.2702527801195779,0.43181267995387307
-0.5531884431838989,0.05296626314520836,7.027939319610596,0.21677875199769095,0.3399589196633962,0.2702527801195779,0.43181267995387307
-0.46323126554489136,-0.9605558514595032,4.639407634735107,0.21677875199769095,0.3399589196633962,0.2702527801195779,0.43181267995387307
-0.9111099243164062,-0.09450473636388779,2.2070844173431396,0.21677875199769095,0.3399589196633962,0.2702527801195779,0.43181267995387307
-0.5358989238739014,-1.05535089969635,-0.23576946556568146,0.21677875199769095,0.3399589196633962,0.2702527801195779,0.43181267995387307
-0.22431595623493195,-1.2587904930114746,-2.7769079208374023,0.21677875199769095,0.3399589196633962,0.2702527801195779,0.43181267995387307
-0.8083897829055786,0.9062063097953796,-5.340175151824951,0.21677875199769095,0.3399589196633962,0.2702527801195779,0.43181267995387307
-1.5858694314956665,-0.6486603021621704,-7.915737628936768,0.21677875199769095,0.3399589196633962,0.2702527801195779,0.43181267995387307
0.11506669968366623,-0.5557147860527039,-10.503853797912598,0.21677875199769095,0.3399589196633962,0.2702527801195779,0.43181267995387307
-1.141800880432129,2.060375690460205,-13.147294998168945,0.21677875199769095,0.3399589196633962,0.2702527801195779,0.43181267995387307
-0.6065210700035095,-0.7359387874603271,-15.766050338745117,0.21677875199769095,0.3399589196633962,0.2702527801195779,0.43181267995387307
-0.4482964277267456,-1.29313063621521,-18.322296142578125,0.21677875199769095,0.3399589196633962,0.2702527801195779,0.43181267995387307
-0.3144172728061676,1.84176504611969,-20.90581703186035,0.21677875199769095,0.3399589196633962,0.2702527801195779,0.43181267995387307
-1.0312715768814087,-0.7935883402824402,-23.44687271118164,0.21677875199769095,0.3399589196633962,0.2702527801195779,0.43181267995387307
-0.16789548099040985,-0.3157382011413574,-26.03981590270996,0.21677875199769095,0.3399589196633962,0.2702527801195779,0.43181267995387307
-0.8006895780563354,-0.5369895100593567,-28.62067985534668,0.21677875199769095,0.3399589196633962,0.2702527801195779,0.43181267995387307
-0.6299079656600952,0.8253636360168457,-31.161569595336914,0.21677875199769095,0.3399589196633962,0.2702527801195779,0.43181267995387307
-1.0216553211212158,-0.9381834268569946,-33.71720504760742,0.21677875199769095,0.3399589196633962,0.2702527801195779,0.43181267995387307
0.13349208235740662,1.2735958099365234,-36.33958435058594,0.21677875199769095,0.3399589196633962,0.2702527801195779,0.43181267995387307
-0.574479341506958,0.5634045600891113,-39.01149368286133,0.21677875199769095,0.3399589196633962,0.2702527801195779,0.43181267995387307
-0.191151961684227,-0.6606444120407104,-41.626869201660156,0.21677875199769095,0.3399589196633962,0.2702527801195779,0.43181267995387307
-0.3526194989681244,0.6920047998428345,-44.01938247680664,0.21677875199769095,0.3399589196633962,0.2702527801195779,0.43181267995387307
-0.04100121557712555,-1.0084092617034912,-45.98289108276367,0.21677875199769095,0.3399589196633962,0.2702527801195779,0.43181267995387307
1.3168604373931885,0.46748819947242737,-47.539817810058594,0.21677875199769095,0.3399589196633962,0.2702527801195779,0.43181267995387307
1.4876168966293335,2.2081379890441895,-48.755775451660156,0.21677875199769095,0.3399589196633962,0.2702527801195779,0.43181267995387307
1.105745792388916,-0.5928182005882263,-49.580421447753906,0.21677875199769095,0.3399589196633962,0.2702527801195779,0.43181267995387307
1.354128122329712,1.1820077896118164,-49.98177719116211,0.21677875199769095,0.3399589196633962,0.2702527801195779,0.43181267995387307
1.0529277324676514,0.26098474860191345,-50.01146697998047,0.21677875199769095,0.3399589196633962,0.2702527801195779,0.43181267995387307
-0.2278321236371994,-0.7204274535179138,-49.907657623291016,0.21677875199769095,0.3399589196633962,0.2702527801195779,0.43181267995387307
0.39849382638931274,-0.7534126043319702,-49.93716812133789,0.21677875199769095,0.3399589196633962,0.2702527801195779,0.43181267995387307
0.0999339371919632,-0.3446448743343353,-49.937355041503906,0.21677875199769095,0.3399589196633962,0.2702527801195779,0.43181267995387307
-0.30094113945961,-0.11683426052331924,-49.91975021362305,0.21677875199769095,0.3399589196633962,0.2702527801195779,0.43181267995387307
-0.3764830231666565,0.314982146024704,-49.94330596923828,0.21677875199769095,0.3399589196633962,0.2702527801195779,0.43181267995387307
-0.3889242708683014,-0.042173467576503754,-49.93057632446289,0.21677875199769095,0.3399589196633962,0.2702527801195779,0.43181267995387307
0.04361024126410484,-0.11695273220539093,-49.93416976928711,0.21677875199769095,0.3399589196633962,0.2702527801195779,0.43181267995387307
-0.017825178802013397,-0.44419577717781067,-49.934303283691406,0.21677875199769095,0.3399589196633962,0.2702527801195779,0.43181267995387307
0.005097422283142805,-0.18272387981414795,-49.927001953125,0.21677875199769095,0.3399589196633962,0.2702527801195779,0.43181267995387307
-0.2680261433124542,-0.05581148341298103,-49.93068313598633,0.21677875199769095,0.3399589196633962,0.2702527801195779,0.43181267995387307
-0.22031325101852417,-0.0033279263880103827,-49.92921447753906,0.21677875199769095,0.3399589196633962,0.2702527801195779,0.43181267995387307
-0.09778781235218048,-0.17222975194454193,-49.932029724121094,0.21677875199769095,0.3399589196633962,0.2702527801195779,0.43181267995387307
-0.05092178285121918,-0.24134045839309692,-49.93252182006836,0.21677875199769095,0.3399589196633962,0.2702527801195779,0.43181267995387307
-0.11182411015033722,-0.17065660655498505,-49.92927169799805,0.21677875199769095,0.3399589196633962,0.2702527801195779,0.43181267995387307
-0.18628647923469543,-0.08438084274530411,-49.92910385131836,0.21677875199769095,0.3399589196633962,0.2702527801195779,0.43181267995387307
-0.16082045435905457,-0.10213786363601685,-49.92765426635742,0.21677875199769095,0.3399589196633962,0.2702527801195779,0.43181267995387307
-0.08977673947811127,-0.16436445713043213,-49.92829895019531,0.21677875199769095,0.3399589196633962,0.2702527801195779,0.43181267995387307
-0.08500906080007553,-0.19449719786643982,-49.92668914794922,0.21677875199769095,0.3399589196633962,0.2702527801195779,0.43181267995387307
-0.12465070188045502,-0.12630920112133026,-49.925411224365234,0.21677875199769095,0.3399589196633962,0.2702527801195779,0.43181267995387307
-0.17318300902843475,-0.10643216967582703,-49.925819396972656,0.21677875199769095,0.3399589196633962,0.2702527801195779,0.43181267995387307
-0.12816762924194336,-0.137320414185524,-49.926116943359375,0.21677875199769095,0.3399589196633962,0.2702527801195779,0.43181267995387307
-0.08942046016454697,-0.16758333146572113,-49.92656707763672,0.21677875199769095,0.3399589196633962,0.2702527801195779,0.43181267995387307
-0.1122787669301033,-0.16273829340934753,-49.92679214477539,0.21677875199769095,0.3399589196633962,0.2702527801195779,0.43181267995387307
-0.13538554310798645,-0.12591443955898285,-49.925209045410156,0.21677875199769095,0.3399589196633962,0.2702527801195779,0.43181267995387307
-0.1561005562543869,-0.1204768493771553,-49.9250373840332,0.21677875199769095,0.3399589196633962,0.2702527801195779,0.43181267995387307
-0.12302756309509277,-0.14955411851406097,-49.92496871948242,0.21677875199769095,0.3399589196633962,0.2702527801195779,0.43181267995387307
-0.115260548889637,-0.16118359565734863,-49.924686431884766,0.21677875199769095,0.3399589196633962,0.2702527801195779,0.43181267995387307
-0.1279441863298416,-0.11980482935905457,-49.9246826171875,0.21677875199769095,0.3399589196633962,0.2702527801195779,0.43181267995387307
-0.1415719836950302,-0.12777259945869446,-49.92446517944336,0.21677875199769095,0.3399589196633962,0.2702527801195779,0.43181267995387307
-0.13049225509166718,-0.1384596824645996,-49.92308807373047,0.21677875199769095,0.3399589196633962,0.2702527801195779,0.43181267995387307
-0.12004227191209793,-0.1500636339187622,-49.92422866821289,0.21677875199769095,0.3399589196633962,0.2702527801195779,0.43181267995387307
-0.12880046665668488,-0.13593779504299164,-49.924564361572266,0.21677875199769095,0.3399589196633962,0.2702527801195779,0.43181267995387307
-0.13498851656913757,-0.13940921425819397,-49.924560546875,0.21677875199769095,0.3399589196633962,0.2702527801195779,0.43181267995387307
-0.12077892571687698,-0.13891927897930145,-49.92470169067383,0.21677875199769095,0.3399589196633962,0.2702527801195779,0.43181267995387307
-0.11942169815301895,-0.14362263679504395,-49.925148010253906,0.21677875199769095,0.3399589196633962,0.2702527801195779,0.43181267995387307
-0.11730412393808365,-0.1388070285320282,-49.925987243652344,0.21677875199769095,0.3399589196633962,0.2702527801195779,0.43181267995387307
-0.12375855445861816,-0.13231971859931946,-49.925758361816406,0.21677875199769095,0.3399589196633962,0.2702527801195779,0.43181267995387307
-0.12066061794757843,-0.12462715059518814,-49.92665481567383,0.21677875199769095,0.3399589196633962,0.2702527801195779,0.43181267995387307
-0.11707780510187149,-0.13516682386398315,-49.92809295654297,0.21677875199769095,0.3399589196633962,0.2702527801195779,0.43181267995387307
-0.12474942207336426,-0.143042653799057,-49.92807388305664,0.21677875199769095,0.3399589196633962,0.2702527801195779,0.43181267995387307
-0.12549525499343872,-0.1306781768798828,-49.927555084228516,0.21677875199769095,0.3399589196633962,0.2702527801195779,0.43181267995387307
-0.11283804476261139,-0.13776913285255432,-49.92661666870117,0.21677875199769095,0.3399589196633962,0.2702527801195779,0.43181267995387307
-0.12171293050050735,-0.12709981203079224,-49.926361083984375,0.21677875199769095,0.3399589196633962,0.2702527801195779,0.43181267995387307
-0.12858502566814423,-0.1568906456232071,-49.92615509033203,0.21677875199769095,0.3399589196633962,0.2702527801195779,0.43181267995387307
-0.11862588673830032,-0.13210290670394897,-49.92605972290039,0.21677875199769095,0.3399589196633962,0.2702527801195779,0.43181267995387307
-0.12214220315217972,-0.13243231177330017,-49.924774169921875,0.21677875199769095,0.3399589196633962,0.2702527801195779,0.43181267995387307
-0.11735262721776962,-0.1491013616323471,-49.92438507080078,0.21677875199769095,0.3399589196633962,0.2702527801195779,0.43181267995387307
-0.11638826876878738,-0.1299477070569992,-49.924476623535156,0.21677875199769095,0.3399589196633962,0.2702527801195779,0.43181267995387307
-0.11859097331762314,-0.13663914799690247,-49.92326736450195,0.21677875199769095,0.3399589196633962,0.2702527801195779,0.43181267995387307
-0.12896780669689178,-0.11903505027294159,-49.9233512878418,0.21677875199769095,0.3399589196633962,0.2702527801195779,0.43181267995387307
-0.12833522260189056,-0.1404283493757248,-49.923118591308594,0.21677875199769095,0.3399589196633962,0.2702527801195779,0.43181267995387307
-0.12726062536239624,-0.1375579684972763,-49.92377471923828,0.21677875199769095,0.3399589196633962,0.2702527801195779,0.43181267995387307
-0.12362594902515411,-0.13298781216144562,-49.92387008666992,0.21677875199769095,0.3399589196633962,0.2702527801195779,0.43181267995387307
-0.11602270603179932,-0.1311088651418686,-49.92463302612305,0.21677875199769095,0.3399589196633962,0.2702527801195779,0.43181267995387307
-0.1293501853942871,-0.12506791949272156,-49.92542266845703,0.21677875199769095,0.3399589196633962,0.2702527801195779,0.43181267995387307
-0.12027668207883835,-0.126041442155838,-49.925384521484375,0.21677875199769095,0.3399589196633962,0.2702527801195779,0.43181267995387307
-0.1305501013994217,-0.1296720653772354,-49.92613220214844,0.21677875199769095,0.3399589196633962,0.2702527801195779,0.43181267995387307
-0.1207222118973732,-0.1366073489189148,-49.92635726928711,0.21677875199769095,0.3399589196633962,0.2702527801195779,0.43181267995387307
-0.11537058651447296,-0.13801251351833344,-49.927345275878906,0.21677875199769095,0.3399589196633962,0.2702527801195779,0.43181267995387307
-0.1339035928249359,-0.13903559744358063,-49.92770004272461,0.21677875199769095,0.3399589196633962,0.2702527801195779,0.43181267995387307
-0.12688793241977692,-0.13417387008666992,-49.9282112121582,0.21677875199769095,0.3399589196633962,0.2702527801195779,0.43181267995387307
-0.11396130919456482,-0.12736734747886658,-49.92863464355469,0.21677875199769095,0.3399589196633962,0.2702527801195779,0.43181267995387307
-0.12082420289516449,-0.1220974549651146,-49.92774200439453,0.21677875199769095,0.3399589196633962,0.2702527801195779,0.43181267995387307
-0.1128898561000824,-0.11979330331087112,-49.92851257324219,0.21677875199769095,0.3399589196633962,0.2702527801195779,0.43181267995387307
-0.12496311962604523,-0.12710660696029663,-49.92749786376953,0.21677875199769095,0.3399589196633962,0.2702527801195779,0.43181267995387307
-0.11624125391244888,-0.1341509371995926,-49.92692947387695,0.21677875199769095,0.3399589196633962,0.2702527801195779,0.43181267995387307
-0.13011419773101807,-0.12483349442481995,-49.92623519897461,0.21677875199769095,0.3399589196633962,0.2702527801195779,0.43181267995387307
-0.1093844324350357,-0.14580781757831573,-49.92497634887695,0.21677875199769095,0.3399589196633962,0.2702527801195779,0.43181267995387307
-0.12134624272584915,-0.1408875584602356,-49.92621994018555,0.21677875199769095,0.3399589196633962,0.2702527801195779,0.43181267995387307
-0.12276790291070938,-0.1303175985813141,-49.92665100097656,0.21677875199769095,0.3399589196633962,0.2702527801195779,0.43181267995387307
-0.11973189562559128,-0.13087058067321777,-49.92533874511719,0.21677875199769095,0.3399589196633962,0.2702527801195779,0.43181267995387307
-0.12329211086034775,-0.13426347076892853,-49.92583465576172,0.21677875199769095,0.3399589196633962,0.2702527801195779,0.43181267995387307
-0.12566879391670227,-0.13968858122825623,-49.926048278808594,0.21677875199769095,0.3399589196633962,0.2702527801195779,0.43181267995387307
-0.12728305160999298,-0.11722443997859955,-49.92509460449219,0.21677875199769095,0.3399589196633962,0.2702527801195779,0.43181267995387307
-0.12671668827533722,-0.12589462101459503,-49.92607116699219,0.21677875199769095,0.3399589196633962,0.2702527801195779,0.43181267995387307
-0.11771903187036514,-0.12168977409601212,-49.9262580871582,0.21677875199769095,0.3399589196633962,0.2702527801195779,0.43181267995387307
-0.11365510523319244,-0.113091841340065,-49.92698669433594,0.21677875199769095,0.3399589196633962,0.2702527801195779,0.43181267995387307
-0.1270289570093155,-0.13628439605236053,-49.926639556884766,0.21677875199769095,0.3399589196633962,0.2702527801195779,0.43181267995387307
-0.11022081971168518,-0.12720048427581787,-49.92709732055664,0.21677875199769095,0.3399589196633962,0.2702527801195779,0.43181267995387307
-0.11884048581123352,-0.12425431609153748,-49.92534255981445,0.21677875199769095,0.3399589196633962,0.2702527801195779,0.43181267995387307
-0.1214018315076828,-0.12976573407649994,-49.92572784423828,0.22126628150542565,0.3471381573813657,0.2682507608085869,0.42969584620247275
-0.1159152165055275,-0.12954609096050262,-49.925262451171875,0.22572064716834564,0.354281747052446,0.26627311874181014,0.4275349143271644
0.14924855530261993,-0.28186264634132385,-49.92662048339844,0.2301608472959034,0.36137875890669724,0.26655089656511927,0.4241065081829825
0.7359018921852112,-1.1051472425460815,-49.84995651245117,0.23466483101973093,0.36835088057857424,0.2739271502941845,0.41254809244225416
1.2677528858184814,-1.4077705144882202,-49.688785552978516,0.23936942621755092,0.37505217394170665,0.29062427344421526,0.391607111133635
1.022436499595642,-2.0863828659057617,-49.71924591064453,0.2443722050378305,0.3813363095869621,0.309709184989333,0.3624891662970185
0.09571942687034607,-1.0354175567626953,-49.84182357788086,0.2496116745047684,0.38716100399589376,0.3190271510432162,0.33647416277478137
1.4849649667739868,-1.0356642007827759,-49.91572952270508,0.25503856343838066,0.392625081586755,0.33219952099025235,0.3192151481285691
0.863112211227417,-1.0540021657943726,-49.88752365112305,0.2607382830366905,0.3978002183356633,0.3517668308069307,0.3018012617404262
0.6420304179191589,-2.0147290229797363,-49.84854507446289,0.2667055873438301,0.40261713303211666,0.36430968604981884,0.2762285018339753
0.845598578453064,-0.967130184173584,-49.889949798583984,0.2728807230138529,0.40701386783996396,0.3767065943529207,0.25137967510769765
1.1850478649139404,-0.6207754611968994,-49.89013671875,0.279300183367191,0.41109325786638595,0.39362864804764575,0.23814712806294364
1.637786626815796,-0.2276914119720459,-49.659793853759766,0.28605669100768855,0.4150034553567983,0.4171522688120602,0.23107657078653576
0.4283269941806793,-1.5743850469589233,-49.435367584228516,0.2931527089337921,0.418729587338037,0.43436988232036416,0.21605926696211103
0.10418162494897842,-0.3489028215408325,-49.28736877441406,0.30042918673768215,0.42219701346320415,0.4388074541464446,0.2000318680579464
0.3501230776309967,-1.9699815511703491,-49.133689880371094,0.30777419324446875,0.4253698442938428,0.44259332666794443,0.18070783161868656
0.8080448508262634,0.548185408115387,-49.006534576416016,0.3152311770172996,0.42828290564421984,0.4522447260717549,0.16885953042656188
0,-1.4342955350875854,-49.01705551147461,0.32282470334424734,0.43103569572584505,0.4589784331619738,0.16147527936846023
0.22320936620235443,-1.017594337463379,-49.06016159057617,0.3304898445473776,0.43355668025194777,0.4608385112136601,0.14104286376386888
0.3189229965209961,0.07631213963031769,-49.10658645629883,0.3382081344816833,0.4358420278287183,0.46535628090302134,0.13319884544859337
0.09216924756765366,-1.4367761611938477,-49.24064254760742,0.3459926205692398,0.43796753191803073,0.4687820496037601,0.12186164526889728
0.8543730974197388,-0.43491363525390625,-49.36436080932617,0.35387138683659325,0.4398685808810924,0.47666990247865504,0.10626423029849934
-0.052804410457611084,-0.3090515434741974,-49.473609924316406,0.36187154970338764,0.4415879871375446,0.48334964153667276,0.10006452047576514
-0.30012062191963196,-1.5078229904174805,-49.52388381958008,0.36990286837952824,0.44312955730284265,0.4804085996001957,0.08492389936000116
1.1257827281951904,0.5794272422790527,-49.51368713378906,0.37796701601913396,0.44448048369855525,0.487289117152492,0.07718726812551427
1.158637285232544,-0.6928253173828125,-49.52043533325195,0.3862471415837191,0.4457590633009872,0.5063259505977231,0.07624228416631627
-0.10946273058652878,-0.6419333815574646,-49.54850387573242,0.3947587667710871,0.4469370764607772,0.5150690718864399,0.06511929500848063
-0.5538614988327026,-0.3376310169696808,-49.546546936035156,0.40329718711992923,0.44795437273879857,0.509541369974613,0.05695625835408775
-1.0075932741165161,-0.10154345631599426,-49.63530349731445,0.4116811089269402,0.4488731454840552,0.4965292468667028,0.053296471076707125
0.08343580365180969,-1.1877554655075073,-49.755184173583984,0.41989241877260297,0.44967188535465147,0.48882793461283025,0.04255231339484461
0.4082939624786377,0,-49.836246490478516,0.4280736989165759,0.4502986075594609,0.4929256826639173,0.03265435118228205
0.16633814573287964,0.344200074672699,-49.91889953613281,0.43632903196848916,0.45086674952879563,0.4977142835656799,0.03552268513788787
-0.3850606381893158,-0.5462243556976318,-50.007625579833984,0.44460908096594104,0.4514447648171337,0.49589159612854294,0.0338391494626801
0.3187907040119171,-0.7928093671798706,-49.98152542114258,0.45286933882265445,0.4519157621885341,0.49533934667706464,0.02268053510536758
0.4097771942615509,0.35254859924316406,-49.94942855834961,0.4611755895935412,0.4522631974425168,0.5014107458293435,0.019011695372561692
0.21487535536289215,-1.0048977136611938,-49.96155548095703,0.46957581400664306,0.45253475701022494,0.5066161837428805,0.013575452752411444
0.6433718204498291,0,-49.99882888793945,0.4780790175673447,0.45269122999264977,0.5137682435413199,0.005201305138568162
-0.47959649562835693,-0.5012089014053345,-49.96171951293945,0.48665319491281267,0.4527431122379172,0.5151330379148321,0.0010245642935237083
-1.0294780731201172,0,-49.857669830322266,0.4951339486996746,0.45272538213576724,0.5025574165085949,-0.0031521765515207453
0.4965331256389618,0.20642131567001343,-49.898048400878906,0.5034728955756872,0.4526871806734968,0.49811620861291855,-0.0014319989209373
-0.21081770956516266,-1.0702264308929443,-50.04739761352539,0.5117946737342409,0.45260332755847954,0.5004971704135336,-0.00863037488112839
1.4623744487762451,0.7253453135490417,-49.94034194946289,0.5202232069035784,0.45243553789953406,0.5109268099069593,-0.011504384192327579
-0.09096252173185349,-0.11287286877632141,-49.650306701660156,0.5288338906747391,0.45228633097166004,0.5223552426323292,-0.006400447152554909
0,-0.3622509837150574,-49.372135162353516,0.537533494543491,0.4521466621404722,0.5215972216178971,-0.010359812589983065
-0.23096078634262085,-0.6876819729804993,-49.24261474609375,0.5462107426269599,0.4519010865864242,0.5196725483983753,-0.01910925389577937
-0.14585717022418976,-0.5641166567802429,-49.32511520385742,0.5548457838532823,0.45149566856109447,0.5165323987603185,-0.029540909143785557
-0.130006343126297,-0.5084657669067383,-49.457584381103516,0.5634354999775272,0.4509288351848309,0.5142335361490645,-0.03847909600784373
0.3311992287635803,-0.27897870540618896,-49.58940887451172,0.5720200306415142,0.4502328332741229,0.5159101435293753,-0.045041133277118124
-0.18384306132793427,0,-49.765872955322266,0.5806287661008535,0.4494627741982955,0.5171381115913389,-0.0473659558221697
-1.7434659004211426,0.14477474987506866,-49.919227600097656,0.5891138937272543,0.448683395403334,0.5010772035767633,-0.0461594995732108
1.687315583229065,0.6599652767181396,-49.950477600097656,0.5974612811259509,0.44796995513451615,0.5006092842668294,-0.03945333268493406
-0.7205037474632263,-0.4713073968887329,-49.91972732543945,0.6058719089078818,0.4473255008314221,0.508666049564878,-0.03788118368635567
0.362045019865036,-0.3075754940509796,-49.88865280151367,0.6058719089078818,0.4473255008314221,0.508666049564878,-0.03788118368635567
-1.7069364786148071,-0.01770447939634323,-50.02421569824219,0.6058719089078818,0.4473255008314221,0.508666049564878,-0.03788118368635567
0.4208335876464844,-1.1911160945892334,-50.214420318603516,0.6058719089078818,0.4473255008314221,0.508666049564878,-0.03788118368635567
-0.4867676794528961,1.6143840551376343,-50.395118713378906,0.6058719089078818,0.4473255008314221,0.508666049564878,-0.03788118368635567
-1.8373916149139404,2.1928811073303223,-50.771053314208984,0.6058719089078818,0.4473255008314221,0.508666049564878,-0.03788118368635567
-1.663142204284668,2.7237966060638428,-51.463809967041016,0.6058719089078818,0.4473255008314221,0.508666049564878,-0.03788118368635567
-2.359624147415161,1.3869423866271973,-52.46559524536133,0.6058719089078818,0.4473255008314221,0.508666049564878,-0.03788118368635567
-1.3861873149871826,1.1159380674362183,-53.69482421875,0.6058719089078818,0.4473255008314221,0.508666049564878,-0.03788118368635567
-1.2643526792526245,0.4984736740589142,-55.10945510864258,0.6058719089078818,0.4473255008314221,0.508666049564878,-0.03788118368635567
-1.4126204252243042,0.611381471157074,-56.706668853759766,0.6058719089078818,0.4473255008314221,0.508666049564878,-0.03788118368635567
-1.6663203239440918,1.3057392835617065,-58.45468521118164,0.6058719089078818,0.4473255008314221,0.508666049564878,-0.03788118368635567
-1.4115914106369019,1.5012720823287964,-60.34114456176758,0.6058719089078818,0.4473255008314221,0.508666049564878,-0.03788118368635567
-1.1061289310455322,0.7207202911376953,-62.273101806640625,0.6058719089078818,0.4473255008314221,0.508666049564878,-0.03788118368635567
-0.4615132808685303,-0.4520896375179291,-64.22505187988281,0.6058719089078818,0.4473255008314221,0.508666049564878,-0.03788118368635567
-1.2198976278305054,0.2914625108242035,-66.23371124267578,0.6058719089078818,0.4473255008314221,0.508666049564878,-0.03788118368635567
-0.9780592918395996,0.7979554533958435,-68.33563232421875,0.6058719089078818,0.4473255008314221,0.508666049564878,-0.03788118368635567
-1.6614354848861694,1.7461298704147339,-70.50261688232422,0.6058719089078818,0.4473255008314221,0.508666049564878,-0.03788118368635567
-1.6681828498840332,-0.4659450352191925,-72.76738739013672,0.6058719089078818,0.4473255008314221,0.508666049564878,-0.03788118368635567
-0.9602749347686768,1.2937774658203125,-75.00360870361328,0.6058719089078818,0.4473255008314221,0.508666049564878,-0.03788118368635567
-1.3081228733062744,-0.18018558621406555,-77.31916046142578,0.6058719089078818,0.4473255008314221,0.508666049564878,-0.03788118368635567
-0.5136683583259583,0.8191840052604675,-79.61585235595703,0.6058719089078818,0.4473255008314221,0.508666049564878,-0.03788118368635567
-1.5179016590118408,0.4399321377277374,-81.93275451660156,0.6058719089078818,0.4473255008314221,0.508666049564878,-0.03788118368635567
0.46470674872398376,1.1092238426208496,-84.23786926269531,0.6058719089078818,0.4473255008314221,0.508666049564878,-0.03788118368635567
-2.065598487854004,-0.7404678463935852,-86.43004608154297,0.6058719089078818,0.4473255008314221,0.508666049564878,-0.03788118368635567
1.0201497077941895,1.7212135791778564,-88.6739501953125,0.6058719089078818,0.4473255008314221,0.508666049564878,-0.03788118368635567
-2.0909266471862793,-0.8299741148948669,-90.80327606201172,0.6058719089078818,0.4473255008314221,0.508666049564878,-0.03788118368635567
1.121582269668579,1.4048353433609009,-93.00448608398438,0.6058719089078818,0.4473255008314221,0.508666049564878,-0.03788118368635567
-2.095900535583496,-0.6809961795806885,-95.22224426269531,0.6058719089078818,0.4473255008314221,0.508666049564878,-0.03788118368635567
0.1050645262002945,1.2695077657699585,-97.46855926513672,0.6058719089078818,0.4473255008314221,0.508666049564878,-0.03788118368635567
-0.30249032378196716,1.2837181091308594,-99.7203598022461,0.6058719089078818,0.4473255008314221,0.508666049564878,-0.03788118368635567
-0.40934455394744873,-0.1441567838191986,-101.85540771484375,0.6058719089078818,0.4473255008314221,0.508666049564878,-0.03788118368635567
-0.181330144405365,0.2533746361732483,-104.06145477294922,0.6058719089078818,0.4473255008314221,0.508666049564878,-0.03788118368635567
-1.0716862678527832,0.3592877984046936,-106.27350616455078,0.6058719089078818,0.4473255008314221,0.508666049564878,-0.03788118368635567
0.5605355501174927,0.13036209344863892,-108.54753112792969,0.6058719089078818,0.4473255008314221,0.508666049564878,-0.03788118368635567
-0.301177978515625,0.7682957649230957,-110.94768524169922,0.6058719089078818,0.4473255008314221,0.508666049564878,-0.03788118368635567
-0.5145882964134216,0.338793009519577,-113.5530014038086,0.6058719089078818,0.4473255008314221,0.508666049564878,-0.03788118368635567
0.532433807849884,0.7763581275939941,-116.15906524658203,0.6058719089078818,0.4473255008314221,0.508666049564878,-0.03788118368635567
-0.945736289024353,0.5629165172576904,-118.79638671875,0.6058719089078818,0.4473255008314221,0.508666049564878,-0.03788118368635567
0.454235315322876,0.2500811219215393,-121.42794799804688,0.6058719089078818,0.4473255008314221,0.508666049564878,-0.03788118368635567
-1.498437762260437,0.5057182312011719,-124.05950164794922,0.6058719089078818,0.4473255008314221,0.508666049564878,-0.03788118368635567
1.535955548286438,0.08901267498731613,-126.7479476928711,0.6058719089078818,0.4473255008314221,0.508666049564878,-0.03788118368635567
-0.3823792338371277,0.35600745677948,-129.0256805419922,0.6058719089078818,0.4473255008314221,0.508666049564878,-0.03788118368635567
-0.8242654204368591,-1.1329652070999146,-130.84938049316406,0.6058719089078818,0.4473255008314221,0.508666049564878,-0.03788118368635567
1.5549242496490479,-2.3729121685028076,-132.32798767089844,0.6058719089078818,0.4473255008314221,0.508666049564878,-0.03788118368635567
0.3086305558681488,-1.3355895280838013,-133.32098388671875,0.6058719089078818,0.4473255008314221,0.508666049564878,-0.03788118368635567
0.6535418629646301,-1.5729575157165527,-133.8917694091797,0.6058719089078818,0.4473255008314221,0.508666049564878,-0.03788118368635567
1.112634539604187,-0.5589104294776917,-134.12327575683594,0.6058719089078818,0.4473255008314221,0.508666049564878,-0.03788118368635567
0.13920632004737854,0.155225470662117,-134.07713317871094,0.6058719089078818,0.4473255008314221,0.508666049564878,-0.03788118368635567
0.3683733344078064,0.5046883821487427,-134.0380859375,0.6058719089078818,0.4473255008314221,0.508666049564878,-0.03788118368635567
0.3724515438079834,0.9631096124649048,-134.0363311767578,0.6058719089078818,0.4473255008314221,0.508666049564878,-0.03788118368635567
0.05977379158139229,0.2020941823720932,-134.0314483642578,0.6058719089078818,0.4473255008314221,0.508666049564878,-0.03788118368635567
-0.44060930609703064,-0.2323654592037201,-134.02853393554688,0.6058719089078818,0.4473255008314221,0.508666049564878,-0.03788118368635567
-0.4367249608039856,-0.2500126361846924,-134.02688598632812,0.6058719089078818,0.4473255008314221,0.508666049564878,-0.03788118368635567
-0.3705008327960968,-0.13447929918766022,-134.02801513671875,0.6058719089078818,0.4473255008314221,0.508666049564878,-0.03788118368635567
-0.2074628472328186,0.004900441039353609,-134.0263671875,0.6058719089078818,0.4473255008314221,0.508666049564878,-0.03788118368635567
-0.1045595034956932,0.1352587193250656,-134.03134155273438,0.6058719089078818,0.4473255008314221,0.508666049564878,-0.03788118368635567
-0.11141941696405411,0.15152467787265778,-134.02882385253906,0.6058719089078818,0.4473255008314221,0.508666049564878,-0.03788118368635567
-0.17072540521621704,0.027013663202524185,-134.02748107910156,0.6058719089078818,0.4473255008314221,0.508666049564878,-0.03788118368635567
-0.2616029977798462,-0.06253053992986679,-134.02508544921875,0.6058719089078818,0.4473255008314221,0.508666049564878,-0.03788118368635567
-0.24665074050426483,-0.06059492751955986,-134.0245361328125,0.6058719089078818,0.4473255008314221,0.508666049564878,-0.03788118368635567
-0.21922756731510162,0.011359160766005516,-134.02529907226562,0.6058719089078818,0.4473255008314221,0.508666049564878,-0.03788118368635567
-0.16353532671928406,0.07704618573188782,-134.0249481201172,0.6058719089078818,0.4473255008314221,0.508666049564878,-0.03788118368635567
-0.16240382194519043,0.07707329839468002,-134.02413940429688,0.6058719089078818,0.4473255008314221,0.508666049564878,-0.03788118368635567
-0.21324275434017181,0.018168961629271507,-134.02294921875,0.6058719089078818,0.4473255008314221,0.508666049564878,-0.03788118368635567
-0.2296057790517807,-0.01981135457754135,-134.02215576171875,0.6058719089078818,0.4473255008314221,0.508666049564878,-0.03788118368635567
-0.20025448501110077,0.008562644943594933,-134.02175903320312,0.6058719089078818,0.4473255008314221,0.508666049564878,-0.03788118368635567
-0.18494920432567596,0.04001672565937042,-134.022705078125,0.6058719089078818,0.4473255008314221,0.508666049564878,-0.03788118368635567
-0.17690367996692657,0.033014461398124695,-134.0215301513672,0.6058719089078818,0.4473255008314221,0.508666049564878,-0.03788118368635567
-0.20242300629615784,0.021208662539720535,-134.0225067138672,0.6058719089078818,0.4473255008314221,0.508666049564878,-0.03788118368635567
-0.2049826681613922,0.011209893971681595,-134.02349853515625,0.6058719089078818,0.4473255008314221,0.508666049564878,-0.03788118368635567
-0.21359598636627197,0.013192275539040565,-134.02420043945312,0.6058719089078818,0.4473255008314221,0.508666049564878,-0.03788118368635567
-0.1940445899963379,0.04147898405790329,-134.02345275878906,0.6058719089078818,0.4473255008314221,0.508666049564878,-0.03788118368635567
-0.1870921105146408,0.03221387416124344,-134.02276611328125,0.6058719089078818,0.4473255008314221,0.508666049564878,-0.03788118368635567
-0.19583477079868317,0.03284207731485367,-134.02130126953125,0.6058719089078818,0.4473255008314221,0.508666049564878,-0.03788118368635567
-0.2060404121875763,0.007493212353438139,-134.02096557617188,0.6058719089078818,0.4473255008314221,0.508666049564878,-0.03788118368635567
-0.19958597421646118,0.019910721108317375,-134.0201873779297,0.6058719089078818,0.4473255008314221,0.508666049564878,-0.03788118368635567
-0.17986758053302765,0.039849068969488144,-134.01951599121094,0.6058719089078818,0.4473255008314221,0.508666049564878,-0.03788118368635567
-0.18909668922424316,0.03656649962067604,-134.01893615722656,0.6058719089078818,0.4473255008314221,0.508666049564878,-0.03788118368635567
-0.21149803698062897,0.028604872524738312,-134.01768493652344,0.6058719089078818,0.4473255008314221,0.508666049564878,-0.03788118368635567
-0.20140892267227173,0.022748110815882683,-134.017578125,0.6058719089078818,0.4473255008314221,0.508666049564878,-0.03788118368635567
-0.18013204634189606,0.02912689372897148,-134.01766967773438,0.6058719089078818,0.4473255008314221,0.508666049564878,-0.03788118368635567
-0.18592114746570587,0.03521069511771202,-134.0168914794922,0.6058719089078818,0.4473255008314221,0.508666049564878,-0.03788118368635567
-0.1980697512626648,0.008714773692190647,-134.01669311523438,0.6058719089078818,0.4473255008314221,0.508666049564878,-0.03788118368635567
-0.18729864060878754,0.027732232585549355,-134.0164031982422,0.6058719089078818,0.4473255008314221,0.508666049564878,-0.03788118368635567
-0.17910727858543396,0.033366184681653976,-134.0150146484375,0.6058719089078818,0.4473255008314221,0.508666049564878,-0.03788118368635567
-0.19667762517929077,0.019285595044493675,-134.01412963867188,0.6058719089078818,0.4473255008314221,0.508666049564878,-0.03788118368635567
-0.18263806402683258,0.03329814597964287,-134.01382446289062,0.6058719089078818,0.4473255008314221,0.508666049564878,-0.03788118368635567
-0.17626340687274933,0.009159749373793602,-134.0140838623047,0.6058719089078818,0.4473255008314221,0.508666049564878,-0.03788118368635567
-0.1874738335609436,0.025144197046756744,-134.01353454589844,0.6058719089078818,0.4473255008314221,0.508666049564878,-0.03788118368635567
-0.18750585615634918,0.025498829782009125,-134.01344299316406,0.6058719089078818,0.4473255008314221,0.508666049564878,-0.03788118368635567
-0.1875280886888504,0.027360325679183006,-134.01295471191406,0.6058719089078818,0.4473255008314221,0.508666049564878,-0.03788118368635567
-0.19843973219394684,0.025492116808891296,-134.01278686523438,0.6058719089078818,0.4473255008314221,0.508666049564878,-0.03788118368635567
-0.19232119619846344,0.028327258303761482,-134.01266479492188,0.6058719089078818,0.4473255008314221,0.508666049564878,-0.03788118368635567
-0.1923283189535141,0.01395898126065731,-134.01190185546875,0.6058719089078818,0.4473255008314221,0.508666049564878,-0.03788118368635567
-0.19704261422157288,0.026148417964577675,-134.0122833251953,0.6058719089078818,0.4473255008314221,0.508666049564878,-0.03788118368635567
-0.18557430803775787,0.01817525550723076,-134.01174926757812,0.6058719089078818,0.4473255008314221,0.508666049564878,-0.03788118368635567
-0.16750657558441162,0.02595590241253376,-134.01174926757812,0.6058719089078818,0.4473255008314221,0.508666049564878,-0.03788118368635567
-0.18327341973781586,0.02065238542854786,-134.01043701171875,0.6058719089078818,0.4473255008314221,0.508666049564878,-0.03788118368635567
-0.17742227017879486,0.03042200580239296,-134.0096435546875,0.6058719089078818,0.4473255008314221,0.508666049564878,-0.03788118368635567
-0.19068890810012817,0.028622128069400787,-134.0099334716797,0.6058719089078818,0.4473255008314221,0.508666049564878,-0.03788118368635567
-0.18745633959770203,0.03156094625592232,-134.01028442382812,0.6058719089078818,0.4473255008314221,0.508666049564878,-0.03788118368635567
-0.18959009647369385,0.022920044139027596,-134.0101318359375,0.6058719089078818,0.4473255008314221,0.508666049564878,-0.03788118368635567
-0.1883939802646637,0.03136812150478363,-134.01124572753906,0.6058719089078818,0.4473255008314221,0.508666049564878,-0.03788118368635567
-0.18405713140964508,0.02579653263092041,-134.01173400878906,0.6058719089078818,0.4473255008314221,0.508666049564878,-0.03788118368635567
-0.1775435358285904,0.016563890501856804,-134.0109405517578,0.6058719089078818,0.4473255008314221,0.508666049564878,-0.03788118368635567
-0.17111128568649292,0.030217988416552544,-134.01043701171875,0.6058719089078818,0.4473255008314221,0.508666049564878,-0.03788118368635567
-0.1746067851781845,0.02534976415336132,-134.01011657714844,0.6058719089078818,0.4473255008314221,0.508666049564878,-0.03788118368635567
-0.18767213821411133,0.01765197142958641,-134.00975036621094,0.6058719089078818,0.4473255008314221,0.508666049564878,-0.03788118368635567
-0.1833961009979248,0.03110550157725811,-134.01011657714844,0.6058719089078818,0.4473255008314221,0.508666049564878,-0.03788118368635567
-0.17932631075382233,0.03959318995475769,-134.00965881347656,0.6058719089078818,0.4473255008314221,0.508666049564878,-0.03788118368635567
-0.1625196486711502,0.03167886286973953,-134.01010131835938,0.6058719089078818,0.4473255008314221,0.508666049564878,-0.03788118368635567
-0.1640707403421402,0.03057532198727131,-134.0105438232422,0.6058719089078818,0.4473255008314221,0.508666049564878,-0.03788118368635567
-0.1801714152097702,0.018248459324240685,-134.01010131835938,0.6058719089078818,0.4473255008314221,0.508666049564878,-0.03788118368635567
-0.191879540681839,0.01255819108337164,-134.01002502441406,0.6058719089078818,0.4473255008314221,0.508666049564878,-0.03788118368635567
-0.18071280419826508,0.030552461743354797,-134.01043701171875,0.6058719089078818,0.4473255008314221,0.508666049564878,-0.03788118368635567
-0.1767813265323639,0.027942132204771042,-134.01060485839844,0.6058719089078818,0.4473255008314221,0.508666049564878,-0.03788118368635567
-0.1834569126367569,0.02264363504946232,-134.0100555419922,0.6058719089078818,0.4473255008314221,0.508666049564878,-0.03788118368635567
-0.17109918594360352,0.02366541139781475,-134.01048278808594,0.6058719089078818,0.4473255008314221,0.508666049564878,-0.03788118368635567
-0.17264649271965027,0.03647683933377266,-134.009033203125,0.6058719089078818,0.4473255008314221,0.508666049564878,-0.03788118368635567
-0.17865020036697388,0.033054906874895096,-134.0097198486328,0.6058719089078818,0.4473255008314221,0.508666049564878,-0.03788118368635567
-0.17977727949619293,0.03294425085186958,-134.00950622558594,0.6058719089078818,0.4473255008314221,0.508666049564878,-0.03788118368635567
-0.178058460354805,0.024165745824575424,-134.00869750976562,0.6058719089078818,0.4473255008314221,0.508666049564878,-0.03788118368635567
-0.17124724388122559,0.031862057745456696,-134.00784301757812,0.6058719089078818,0.4473255008314221,0.508666049564878,-0.03788118368635567
-0.16725003719329834,0.026986557990312576,-134.0084991455078,0.6058719089078818,0.4473255008314221,0.508666049564878,-0.03788118368635567
-0.1873367726802826,0.028646716848015785,-134.00680541992188,0.6058719089078818,0.4473255008314221,0.508666049564878,-0.03788118368635567
-0.1702197939157486,0.037070244550704956,-134.0073699951172,0.6058719089078818,0.4473255008314221,0.508666049564878,-0.03788118368635567
-0.18120203912258148,0.03492879867553711,-134.00814819335938,0.6058719089078818,0.4473255008314221,0.508666049564878,-0.03788118368635567
-0.17928360402584076,0.02083851397037506,-134.0078582763672,0.6058719089078818,0.4473255008314221,0.508666049564878,-0.03788118368635567
-0.18037422001361847,0.020797600969672203,-134.00811767578125,0.6058719089078818,0.4473255008314221,0.508666049564878,-0.03788118368635567
-0.1702205240726471,0,-134.00721740722656,0.6143253295434016,0.44669559204782794,0.5057444266974925,-0.03770787034494174
-0.21196720004081726,0,-134.0089569091797,0.6227278625075185,0.4460671275420789,0.502559528996547,-0.03770787034494174
-1.1696181297302246,-1.1489112377166748,-134.0074462890625,0.6310079112317825,0.4453588775337107,0.49104631791512166,-0.047282130659247364
-1.9216803312301636,-2.956676721572876,-133.9204864501953,0.6389773430261345,0.4442857317477725,0.46528549740711844,-0.08149536365332696
-2.2164738178253174,-0.5422050952911377,-133.95738220214844,0.6464447295003465,0.44268449778293484,0.4308008794983228,-0.11065271212719374
-0.5611628890037537,-1.0911585092544556,-134.01760864257812,0.6534318527206776,0.4407268578860548,0.4076539069414139,-0.12426407549840701
-1.628554344177246,-0.7990737557411194,-134.18614196777344,0.6600740208062859,0.43852452383156776,0.38940626333157224,-0.1400160110400368
-0.4447499215602875,-1.1027917861938477,-134.08529663085938,0.666420145732247,0.4360588496515994,0.3721287277837595,-0.15586489055616154
-0.7928564548492432,-1.411830186843872,-133.99630737304688,0.6725363463080589,0.43328647494975797,0.3618153413136801,-0.1768200736648092
-1.520758867263794,0.08674842119216919,-133.9359893798828,0.678405934265918,0.430247454154952,0.3425352136294048,-0.18786242171190673
-0.7957645654678345,-2.521918296813965,-133.8282012939453,0.6839539848102462,0.4269473047739465,0.32323085168997456,-0.20815550400875502
-1.306386947631836,-0.19509124755859375,-133.66404724121094,0.6891951829277805,0.42328936515544135,0.305712922414144,-0.23079725021185968
-0.0537421815097332,-0.47932150959968567,-133.59580993652344,0.6941959448896036,0.4193959100993299,0.2943785130046309,-0.236417356521512
-1.818795919418335,-0.23566119372844696,-133.72349548339844,0.6989722160715608,0.41540596924735135,0.27877402883023034,-0.2423755457159131
-0.06147797778248787,-0.6581770777702332,-133.6522216796875,0.7034878753092034,0.41130430471656537,0.2631050796868901,-0.2498241979784021
-0.46845462918281555,-0.84989994764328,-133.50668334960938,0.7078361590951678,0.40703584051238273,0.25868897462884594,-0.26239150652351473
-1.0472856760025024,-1.0916974544525146,-133.4759521484375,0.7120423822622329,0.40252781558406747,0.2460578054189683,-0.278571484874313
-0.2773555815219879,0.07190612703561783,-133.4276580810547,0.7160513567096655,0.3978141386606472,0.23501912827293087,-0.28706974593612045
-1.1250840425491333,-1.6441859006881714,-133.33392333984375,0.7198709505403205,0.39292045679965265,0.2233321314056715,-0.30017207738322504
-0.36800992488861084,0.33756372332572937,-133.33401489257812,0.7234894656493429,0.38782685119205984,0.21088968167702365,-0.31106059552791204
-1.584340214729309,0,-133.35533142089844,0.7268687138064865,0.3826659498584923,0.19462009718020765,-0.30824756450019763
0.07182924449443817,-0.19379830360412598,-133.24110412597656,0.7300073466087792,0.37751503223462757,0.18201583909491706,-0.30986255036356536
-0.5077667236328125,-1.4338210821151733,-133.24012756347656,0.7330106704909766,0.3722376272712265,0.17838302676876394,-0.32342604524455953
-0.7442679405212402,0,-133.28372192382812,0.7358967740854453,0.36674762227533697,0.16794940456748017,-0.335374554262186
-0.4434182643890381,1.776610016822815,-133.35768127441406,0.7386134526195623,0.36128142206657987,0.15805201952656117,-0.32056947078866255
-0.23583005368709564,-1.3896898031234741,-133.42303466796875,0.7412004829229164,0.3559654670127202,0.15239161687592673,-0.3173451356745014
0.9837371706962585,-1.3452200889587402,-133.54055786132812,0.7437922811984186,0.3504864571200839,0.1586241761843364,-0.34013605144185316
-1.469558835029602,-0.3134566843509674,-133.59706115722656,0.7464022798525788,0.344702337042351,0.1545756623148919,-0.35395835788610075
-0.8051190972328186,-0.7591320872306824,-133.6657257080078,0.7488205771458644,0.3387285457462228,0.13562001287937173,-0.36289659764928117
0.32088369131088257,-0.15937919914722443,-133.86221313476562,0.7510472832351093,0.3326164836127363,0.13158471783002226,-0.37055085836909707
-2.437832832336426,1.3957213163375854,-134.01544189453125,0.753093351508594,0.3265264930647229,0.11394347498814274,-0.3602480073925107
0.3868597447872162,-0.884904146194458,-134.08152770996094,0.7548499807384277,0.32055783302277435,0.09685203259189933,-0.355991197641318
1.388613224029541,-0.1791340410709381,-134.0232696533203,0.7565874780155716,0.31455075485463674,0.1116476406653723,-0.3648581825351963
-0.8853512406349182,-0.38366132974624634,-134.04779052734375,0.758483220775508,0.3084307021338545,0.11584149052699416,-0.36954814395867286
-0.6772305965423584,0.7084746956825256,-134.10655212402344,0.7603053996567095,0.3022941228849555,0.10281997521718353,-0.36684136590920385
-0.09928487241268158,-0.7703880071640015,-134.20748901367188,0.7619651412249852,0.29617580058428256,0.09634901297589153,-0.3673573101715495
-0.3127825856208801,-0.6232448220252991,-134.3509063720703,0.76354234231222,0.2899563986905075,0.09291511749227852,-0.3789709170814603
-0.8314664959907532,-0.38065358996391296,-134.3988037109375,0.7650114658619793,0.2835705015716506,0.08337970847884824,-0.3873367371813704
-0.4586339592933655,0,-134.33775329589844,0.7663115373605653,0.2770884550082136,0.07262887135148058,-0.3905088504310697
-0.37356850504875183,0.8113425970077515,-134.1622314453125,0.7674642267119551,0.2706363174035991,0.06569385081529627,-0.38374766212267175
-0.31130868196487427,-0.10517413169145584,-134.05029296875,0.7685115633097785,0.264289562511646,0.05998654092351605,-0.37786292491170265
-0.10417953878641129,0.2951619029045105,-134.07200622558594,0.7694824856431739,0.25800504069167407,0.05652413908392201,-0.3762796934849272
1.459464192390442,0.7391865253448486,-134.10662841796875,0.7705186716177396,0.25180554221888707,0.0678181778639556,-0.36766012324951586
-1.1445343494415283,-0.2474140077829361,-134.08180236816406,0.7716708447101214,0.24571202436733694,0.0704425932218632,-0.3635620189364999
0.06933680176734924,-0.6636260151863098,-134.1114959716797,0.7727702214341194,0.2395893907168002,0.06148261365791172,-0.3711540191279103
-0.4727100133895874,-0.697134256362915,-134.09927368164062,0.7737669196331665,0.23330899315692188,0.0581211702277264,-0.3824936880574872
-0.5405341386795044,0.3160034418106079,-134.13778686523438,0.7746652416264016,0.22690763093828653,0.04967746896048397,-0.3856697781787564
-0.5238295197486877,-0.13688355684280396,-134.28314208984375,0.7754192852994632,0.22049224018287447,0.04080777180691571,-0.38417711247069136
-0.8379177451133728,0,-134.35279846191406,0.7760048490472964,0.21407978250580442,0.029459877933065204,-0.3853178087777147
-0.656767725944519,0.6857917904853821,-134.4179229736328,0.7763920494106906,0.20770544345607067,0.01700416567424944,-0.37960287719033653
0.14098933339118958,0.5438083410263062,-134.56121826171875,0.7766396342280008,0.20146411773425338,0.012706012402971693,-0.3693562094277391
1.315811038017273,-1.5352044105529785,-134.70706176757812,0.7769525677938426,0.19523933396118504,0.024846015498042214,-0.3776178433404614
-0.25038135051727295,-0.2315331995487213,-134.85763549804688,0.7774406562248863,0.1888230131270314,0.03372459622720888,-0.3923406567579756
-0.8416494131088257,-0.11983990669250488,-134.9502410888672,0.7779268973589769,0.1822596012709095,0.024624339863658057,-0.39526876597665245
-0.5169102549552917,0.8594471216201782,-135.0725555419922,0.7782429586019779,0.17572315011677972,0.013303009296457079,-0.38910537251892185
-1.3244013786315918,0.580357015132904,-135.11953735351562,0.778336806560142,0.16933804697318333,-0.0020412543167669505,-0.3771070047126462
1.250274658203125,-0.17507223784923553,-135.11666870117188,0.778297637965944,0.16308107500417282,-0.0026589769870041737,-0.3737296315686156
-0.2702944576740265,-0.19714687764644623,-135.16592407226562,0.7783213758634195,0.15682639926167535,0.005507524684071648,-0.3768314575310796
-0.2682872414588928,1.633202314376831,-135.33717346191406,0.7783757664346032,0.15064560104148586,0.001019343857963987,-0.3648643288916597
0.8256059288978577,-0.7645791172981262,-135.5009002685547,0.7784314581855303,0.14462484994864422,0.005663666253288694,-0.35762580224933715
-0.5432397723197937,-0.7446537613868713,-135.6328125,0.7785454613839585,0.1385596120723577,0.008016717558105894,-0.37020274290504546
-1.191409945487976,-1.31028151512146,-135.6222381591797,0.7785586115573014,0.1322468625186272,-0.006438696756958854,-0.3873272035426149
0.47297894954681396,1.1643112897872925,-135.52880859375,0.7784014089033007,0.12578127230504652,-0.012425621723135206,-0.3885436220870663
-0.9540472626686096,0.41350120306015015,-135.3809051513672,0.7781609076861705,0.11941511558226538,-0.016434524332483505,-0.37539518464667093
-0.16463251411914825,-0.1296178251504898,-135.27532958984375,0.7778093128516855,0.11317824329495348,-0.02575685580571482,-0.3730294898307571
1.366620659828186,0.6928724646568298,-135.30001831054688,0.7774635033205979,0.1070002000366288,-0.01574028792480617,-0.3683357011682043
-0.5008347630500793,-0.13518960773944855,-135.22080993652344,0.7772612892091274,0.10089999966000021,-0.008525405451655282,-0.3636883440272261
-0.13257496058940887,-1.3271052837371826,-135.08917236328125,0.7770752123319026,0.0947369790031939,-0.013803819815317683,-0.37587413478953136
-0.4214327931404114,0.6499823927879333,-135.0721893310547,0.7768066759076383,0.08842538766705246,-0.01842055109639952,-0.38151682554744176
-0.7406871318817139,-0.252073734998703,-135.0571746826172,0.7764189639501273,0.08209440645360824,-0.02810488380491723,-0.37820092006586487
-0.4935608506202698,0.28290385007858276,-135.0243377685547,0.7764189639501273,0.08209440645360824,-0.02810488380491723,-0.37820092006586487
-0.7055211663246155,0.08761659264564514,-134.95326232910156,0.7764189639501273,0.08209440645360824,-0.02810488380491723,-0.37820092006586487
0.7506816387176514,1.7961245775222778,-135.0595245361328,0.7764189639501273,0.08209440645360824,-0.02810488380491723,-0.37820092006586487
2.43221378326416,1.9778858423233032,-135.53054809570312,0.7764189639501273,0.08209440645360824,-0.02810488380491723,-0.37820092006586487
1.335545301437378,2.3777787685394287,-136.31405639648438,0.7764189639501273,0.08209440645360824,-0.02810488380491723,-0.37820092006586487
1.856707215309143,2.389009952545166,-137.32386779785156,0.7764189639501273,0.08209440645360824,-0.02810488380491723,-0.37820092006586487
1.0542453527450562,1.324913501739502,-138.4678192138672,0.7764189639501273,0.08209440645360824,-0.02810488380491723,-0.37820092006586487
-0.1647791713476181,1.4056910276412964,-139.8295440673828,0.7764189639501273,0.08209440645360824,-0.02810488380491723,-0.37820092006586487
-0.20958691835403442,1.7354015111923218,-141.33685302734375,0.7764189639501273,0.08209440645360824,-0.02810488380491723,-0.37820092006586487
0.6872438192367554,1.1542997360229492,-142.9198760986328,0.7764189639501273,0.08209440645360824,-0.02810488380491723,-0.37820092006586487
0.7791840434074402,1.654268503189087,-144.56712341308594,0.7764189639501273,0.08209440645360824,-0.02810488380491723,-0.37820092006586487
0.47437921166419983,1.2983566522598267,-146.1452178955078,0.7764189639501273,0.08209440645360824,-0.02810488380491723,-0.37820092006586487
1.059421420097351,1.4116443395614624,-147.8208465576172,0.7764189639501273,0.08209440645360824,-0.02810488380491723,-0.37820092006586487
0.03353193774819374,0.514094352722168,-149.5578155517578,0.7764189639501273,0.08209440645360824,-0.02810488380491723,-0.37820092006586487
0.667364239692688,0.3421943783760071,-151.35751342773438,0.7764189639501273,0.08209440645360824,-0.02810488380491723,-0.37820092006586487
-0.8280487656593323,0.689490795135498,-153.16236877441406,0.7764189639501273,0.08209440645360824,-0.02810488380491723,-0.37820092006586487
1.9986586570739746,1.150050163269043,-155.00799560546875,0.7764189639501273,0.08209440645360824,-0.02810488380491723,-0.37820092006586487
0.288519024848938,0.35975179076194763,-156.86471557617188,0.7764189639501273,0.08209440645360824,-0.02810488380491723,-0.37820092006586487
0.9128164649009705,1.5178778171539307,-158.72659301757812,0.7764189639501273,0.08209440645360824,-0.02810488380491723,-0.37820092006586487
0.37261763215065,0.35320940613746643,-160.65264892578125,0.7764189639501273,0.08209440645360824,-0.02810488380491723,-0.37820092006586487
0.9206836819648743,0.6825198531150818,-162.63807678222656,0.7764189639501273,0.08209440645360824,-0.02810488380491723,-0.37820092006586487
0.11086102575063705,0.27824336290359497,-164.71713256835938,0.7764189639501273,0.08209440645360824,-0.02810488380491723,-0.37820092006586487
1.5552024841308594,0.03587067499756813,-166.86605834960938,0.7764189639501273,0.08209440645360824,-0.02810488380491723,-0.37820092006586487
1.1133183240890503,1.0056297779083252,-169.09043884277344,0.7764189639501273,0.08209440645360824,-0.02810488380491723,-0.37820092006586487
0.18600788712501526,0.9512575268745422,-171.24659729003906,0.7764189639501273,0.08209440645360824,-0.02810488380491723,-0.37820092006586487
-0.007324503734707832,-0.5579468011856079,-173.36825561523438,0.7764189639501273,0.08209440645360824,-0.02810488380491723,-0.37820092006586487
-0.010387103073298931,1.3001660108566284,-175.49725341796875,0.7764189639501273,0.08209440645360824,-0.02810488380491723,-0.37820092006586487
1.505836009979248,0.19416844844818115,-177.6802978515625,0.7764189639501273,0.08209440645360824,-0.02810488380491723,-0.37820092006586487
0.8679606914520264,0.200127258896827