faccX,faccY,yaw,posX,posY,velX,velY
0,0,-106.45499420166016,0.0,0.0,0.0,0.0
0,0,-106.4556884765625,0.0,0.0,0.0,0.0
0,0,-106.45684051513672,0.0,0.0,0.0,0.0
0.10243677347898483,-0.31202080845832825,-106.44849395751953,7.113664824929501e-06,-2.1668111698495014e-05,0.0008536397789915402,-0.002600173403819402
-0.6410815119743347,-1.2507914304733276,-106.4905014038086,-1.6064890142944123e-05,-0.00017353296279907227,-0.0036350663751363753,-0.015623608728249867
-1.000101089477539,-2.6918842792510986,-106.46037292480469,-0.00019062034371826383,-0.0007077233658896551,-0.01731158805390199,-0.04847923964262008
-0.22992128133773804,-2.7716991901397705,-106.3598403930664,-0.0005645650314788024,-0.0018951262119743556,-0.027561774477362633,-0.094009101887544
-0.47784191370010376,-0.7658792734146118,-106.34200286865234,-0.001073078161312474,-0.003707609747846921,-0.03345980110267798,-0.12348892241716385
-0.2100018411874771,-1.801202416419983,-106.2911148071289,-0.0016785084404465226,-0.005944028016593721,-0.03919183239340782,-0.14488126983245214
-0.5882803797721863,-1.1943939924240112,-106.1692123413086,-0.0023871419123477405,-0.008566743375526533,-0.04584418423473835,-0.16984457323948543
-0.11294981092214584,-1.3504259586334229,-106.12068939208984,-0.0031999081906138194,-0.011574209870563613,-0.051687769157191116,-0.19105140616496405
-0.6020937561988831,-0.8204228281974792,-106.12126159667969,-0.004111026813172632,-0.014909153361287382,-0.057646465549866355,-0.20914181272188823
0.10751453042030334,-1.2926796674728394,-106.16160583496094,-0.005106147018571695,-0.018541593468851512,-0.061767959098021186,-0.22675100018580754
-0.7156881093978882,-1.6309032440185547,-106.18849182128906,-0.0061778472798566025,-0.022523803396357428,-0.06683607225616772,-0.2511141911149025
-0.19302703440189362,-0.4213990271091461,-106.09981536865234,-0.007354887035778827,-0.026851560905989672,-0.07440869845449924,-0.2682167100409667
-0.2512890696525574,-0.3565824031829834,-106.09827423095703,-0.008625887295024262,-0.03137586589488718,-0.078111332654953,-0.27469988862673445
0.4402349889278412,-2.0469613075256348,-106.17434692382812,-0.009914621594879363,-0.03612111012968752,-0.07653678332765897,-0.29472941954930626
-1.108517050743103,0.5810856819152832,-106.23795318603516,-0.011236643126855295,-0.041135064040621123,-0.08210580050945282,-0.30694504976272585
-0.24266505241394043,-1.2287002801895142,-106.2424087524414,-0.012698905225843191,-0.04629578810599115,-0.09336565136909485,-0.31234183808167776
0.9173621535301208,-1.2555444240570068,-106.24930572509766,-0.014208145449972814,-0.0516740024007029,-0.08774317552646001,-0.3330438772837321
-1.110510230064392,0.9287145733833313,-106.29777526855469,-0.015683944769617583,-0.057247430206173,-0.08935274283091227,-0.3357674593726794
-0.7455026507377625,-2.2750604152679443,-106.23351287841797,-0.017302046933521827,-0.06293705076807075,-0.10481951683759688,-0.34698700805505117
0.10844654589891434,-0.2763877511024475,-105.92852020263672,-0.019093278888095585,-0.06889735146943066,-0.11012831771125395,-0.3682490761081378
1.461909294128418,-1.875370740890503,-105.65937042236328,-0.02081969836105903,-0.07518426374428802,-0.09704201904435951,-0.3861803968747457
-1.2299593687057495,0.7856237888336182,-105.57830047607422,-0.02242095771142178,-0.08169628056387107,-0.09510910299917061,-0.39526162147521976
0.23833614587783813,0,-105.59590148925781,-0.024074972151882118,-0.08822941704756684,-0.10337262985606988,-0.3887147565682729
-0.09038335084915161,-1.2997236251831055,-105.68024444580078,-0.025787574816495178,-0.09479825490878689,-0.10213968989749748,-0.39954578677813213
0.1813461184501648,0.15705206990242004,-105.73097229003906,-0.027483586122592288,-0.10153670354642803,-0.10138166683415571,-0.4090680497388045
1.1496139764785767,-1.5631179809570312,-105.71538543701172,-0.027483586122592288,-0.10153670354642803,-0.10138166683415571,-0.4090680497388045
-0.09638490527868271,0.31532812118530273,-105.64855194091797,-0.029100139662106003,-0.10844115644900337,-0.09260475790748993,-0.4194662985702356
-1.149836778640747,0.30068960785865784,-105.55840301513672,-0.030730095466391907,-0.11538948241621258,-0.10298993860681852,-0.4143328174948693
-1.1060361862182617,0.32569241523742676,-105.48654174804688,-0.03260325228795409,-0.1222515306228565,-0.12178887998064358,-0.40911296730240193
0.25493577122688293,0.9276211261749268,-105.45401000976562,-0.034692171149783665,-0.12898304441529845,-0.12888138343890507,-0.3986686877906323
0.6802998185157776,0.3839963674545288,-105.5836410522461,-0.0367752472911444,-0.13553643799697362,-0.12108775352438289,-0.3877385420103868
0.819492757320404,0.18447516858577728,-105.74191284179688,-0.03868922425433993,-0.14195926984047727,-0.10858948205908138,-0.38300127921005095
-0.43624868988990784,-2.73665452003479,-105.7930908203125,-0.04047243478397528,-0.1485198591711621,-0.10539578149716058,-0.40426944047212604
-0.8418868780136108,0.34755203127861023,-105.7027816772461,-0.042317790556699035,-0.15542359307408338,-0.11604691122968991,-0.4241786278784275
-1.005184531211853,0.13964387774467468,-105.61878204345703,-0.044380174591723415,-0.16245940382281945,-0.13143917297323543,-0.42011866196990016
0.18071794509887695,-0.6211641430854797,-105.54591369628906,-0.046628082098646294,-0.16949482042963313,-0.13830972785751022,-0.4241313308477402
1.0069599151611328,-0.6405883431434631,-105.49220275878906,-0.04885076660042007,-0.17665129764419468,-0.12841241235534348,-0.43464593489964803
1.162858009338379,-0.08727024495601654,-105.52857971191406,-0.050840291672696665,-0.1839459422944735,-0.11033059631784756,-0.44071142313381034
-1.9098325967788696,0.5660080909729004,-105.62804412841797,-0.052731008179899716,-0.19125788699628585,-0.11655538454651831,-0.43672194108366963
-0.3599803149700165,-0.46881103515625,-105.67312622070312,-0.054831223818990915,-0.19852983621880418,-0.1354704921444257,-0.43591196561853085
0.15674620866775513,-0.9011570811271667,-105.6013412475586,-0.054831223818990915,-0.19852983621880418,-0.1354704921444257,-0.43591196561853085
0.28954634070396423,-0.19301959872245789,-105.51390075683594,-0.05705807281658053,-0.2058710201374359,-0.13175138756632804,-0.4450301046172777
0.39000529050827026,0.5925508141517639,-105.56443786621094,-0.05920673819051848,-0.21326044332443017,-0.1260884573062261,-0.4417006778220335
0.6986106634140015,2.0136642456054688,-105.61991119384766,-0.061232614148822084,-0.22044113413120314,-0.11701665769020715,-0.4199822189907232
0.9886910319328308,2.659921884536743,-105.70917510986328,-0.06306571804814867,-0.22711628318867755,-0.10295581022898355,-0.38103566790620474
0.9680424332618713,0,-105.8644790649414,-0.06464576395021543,-0.23328216085624368,-0.0866496980190277,-0.3588696522017319
-2.96834135055542,-1.0175563097000122,-105.87557220458984,-0.06622883523090016,-0.2393339853588906,-0.1033188556631406,-0.3673492881158987
-0.6011745929718018,-0.280230849981308,-105.72046661376953,-0.06819869921025301,-0.2455465976024668,-0.13306482185920077,-0.378164181113243
0.6209176778793335,-2.6666452884674072,-105.63517761230469,-0.07041507519367667,-0.25205397813063535,-0.132900296151638,-0.4027214822669823
1.223874568939209,1.1225475072860718,-105.60647583007812,-0.07250196955684157,-0.2588732318476671,-0.11752702742815016,-0.41558896377682675
-0.3939161002635956,-0.7216803431510925,-105.63898468017578,-0.0744031173425416,-0.26577187657977147,-0.11061070685585338,-0.4122484040757019
-0.26267772912979126,0,-105.7226791381836,-0.07629222591718036,-0.2726928000048631,-0.11608232210079827,-0.4182624069352943
0.41083893179893494,-1.1655725240707397,-105.70417022705078,-0.07821664231311942,-0.27974478265684516,-0.11484764541188874,-0.42797551130255046
0.2673071026802063,-0.41734373569488525,-105.563232421875,-0.08008367626203429,-0.2869876325854825,-0.1091964284578959,-0.44116648013393067
-0.501723051071167,0.39956289529800415,-105.43702697753906,-0.08191989562163748,-0.29434164203496443,-0.11114989469448724,-0.44131465380390467
-0.9226545691490173,0.46893611550331116,-105.35287475585938,-0.0838713089790609,-0.3016365738337239,-0.12301970819632212,-0.434077162047227
0.6708737015724182,-0.4341250956058502,-105.34619903564453,-0.0838713089790609,-0.3016365738337239,-0.12301970819632212,-0.434077162047227
-0.796520471572876,-0.6456735730171204,-105.47966766357422,-0.08593036291913851,-0.30894617921983203,-0.1240667646129926,-0.4430754842857518
0.6346437931060791,0.7816064357757568,-105.62828063964844,-0.08800938376535969,-0.31632133084245856,-0.12541573693354924,-0.4419427104294298
0,2.8087029457092285,-105.69882202148438,-0.09005557356195314,-0.3234377156425682,-0.12012703865766525,-0.4120234655837216
1.5314170122146606,1.5499147176742554,-105.75926971435547,-0.09195134246928821,-0.33000209162011745,-0.10736523022254307,-0.37570165172219255
-0.868060827255249,-0.16281987726688385,-105.77119445800781,-0.09369469657126397,-0.3361674597849035,-0.10183726201454797,-0.3641425280521311
0.15989460051059723,-0.3469724655151367,-105.74903869628906,-0.09544116248169704,-0.3422719041651322,-0.10773864723742008,-0.3683907975753146
-0.3062562346458435,-1.7331466674804688,-105.80953216552734,-0.09724697060469122,-0.3485562035089566,-0.10895832752188046,-0.38572512368361134
-0.4832655191421509,-0.8133546710014343,-105.84554290771484,-0.0991177706296245,-0.35516179594107805,-0.11553767547011375,-0.4069459681709605
-0.4482991099357605,0,-105.8840560913086,-0.1011080905422568,-0.3620007117071914,-0.12330071404576301,-0.4137239237626391
0.5632327795028687,-0.5582478046417236,-105.88034057617188,-0.10315512093818847,-0.36893487764522437,-0.12234293346603711,-0.41837598880132015
0.1886405497789383,0.20242567360401154,-105.83455657958984,-0.10514195640364453,-0.375932520662124,-0.11607732238868872,-0.42134117322663445
-0.0939749926328659,0.28866153955459595,-105.77959442138672,-0.10707000444643197,-0.382920770270543,-0.11528844274580478,-0.41724877978364605
-0.3242824375629425,-0.3239375352859497,-105.77959442138672,-0.1090205241470701,-0.3898773663221962,-0.11877392133076986,-0.41754274641474065
-0.6509429216384888,0.2777400016784668,-105.81529235839844,-0.11106781348586081,-0.3968396202578313,-0.12690079932411513,-0.4179277258614697
0.7740576267242432,-1.223306655883789,-105.84675598144531,-0.11317427717563178,-0.40387074670650897,-0.12587484344840053,-0.4258074479798474
-0.9389557838439941,0.3316737115383148,-105.82743835449219,-0.11317427717563178,-0.40387074670650897,-0.12587484344840053,-0.4258074479798474
-0.07706804573535919,-1.2132422924041748,-105.52645874023438,-0.11534274844349257,-0.41102875754651097,-0.13434170869489515,-0.4331538528203962
-0.06010470166802406,1.6222389936447144,-105.27069091796875,-0.11759130280697717,-0.41821958587815367,-0.13548481492325667,-0.429745546976725
1.8991942405700684,0.149131178855896,-105.20397186279297,-0.11972166850438548,-0.4252589998435643,-0.12015906876573965,-0.41498412887255326
0.2937406301498413,0.6926040649414062,-105.38272857666016,-0.12157203250668115,-0.43211694815506535,-0.1018846115097404,-0.40796966850757577
-0.05623091384768486,-0.18293315172195435,-105.45391845703125,-0.12325361563487806,-0.4388810488167736,-0.0999053638738891,-0.4037224108974137
0,-0.48810553550720215,-105.46829986572266,-0.12492260995734897,-0.44565635557389915,-0.10037395482261981,-0.40931439995765667
0.2082596868276596,-1.0630578994750977,-105.3250961303711,-0.1265810467261407,-0.452585981922845,-0.0986384574323893,-0.4222407619158425
-0.46548131108283997,0,-105.1983871459961,-0.12824288362947603,-0.45969715142001705,-0.10078197096784915,-0.4310995777448016
-0.6925906538963318,0.43584537506103516,-105.17095184326172,-0.1300030048098415,-0.4668518773424956,-0.11043257067600891,-0.42746753295262635
0.057069115340709686,-0.24453510344028473,-105.21784210205078,-0.13188768109461912,-0.4739630507895102,-0.11572858349730576,-0.4258732806891201
-0.22066721320152283,-0.3481910228729248,-105.37186431884766,-0.13382785179859233,-0.481102100337545,-0.1170919009794792,-0.43081266507506355
0.8558672070503235,-0.5687867999076843,-105.42211151123047,-0.13573527237089972,-0.4883459904376003,-0.11179856769740587,-0.43845414693156864
-0.749493420124054,0.7805545926094055,-105.31526947021484,-0.1375911947639866,-0.49563885345641107,-0.11091211947302029,-0.436689415325721
-0.3775775730609894,-0.06294035911560059,-105.26553344726562,-0.13951799890750813,-0.502867176056736,-0.12030437774956232,-0.4307092967132726
-0.23469844460487366,0.45707663893699646,-105.24279022216797,-0.13951799890750813,-0.502867176056736,-0.12030437774956232,-0.4307092967132726
0.7114487886428833,-0.6624746322631836,-105.24356842041016,-0.1414899642072204,-0.5100599280848271,-0.11633145821591225,-0.4324209466576575
0.5692646503448486,0.8148488402366638,-105.26945495605469,-0.14333988341088924,-0.5172563623202344,-0.10565884622434782,-0.43115116159121186
-0.4734407365322113,2.2583303451538086,-105.3398208618164,-0.14509420974283582,-0.5242287997922136,-0.10486031360924251,-0.40554133504629125
0.7623438835144043,1.671226978302002,-105.51644897460938,-0.14682181891778276,-0.5307149361177451,-0.10245278738439091,-0.3727950240174928
0.11833084374666214,-0.45245224237442017,-105.53239440917969,-0.14846820740701835,-0.5368435493835972,-0.09511383132388203,-0.36263856788476295
-0.838965654373169,-0.7334165573120117,-105.53739166259766,-0.15010348201315435,-0.5429698775149882,-0.10111912141243626,-0.37252080788214986
-0.577625036239624,-1.4647964239120483,-105.64215087890625,-0.1518871750568764,-0.549331211325609,-0.11292404383420954,-0.3908392493923504
0.178648442029953,0.07457094639539719,-105.59811401367188,-0.15379694916204445,-0.5559417422514202,-0.1162488487859568,-0.40242446170498913
0.9595335125923157,-0.9164758324623108,-105.59774780273438,-0.1556553895616283,-0.562707282230258,-0.10676399916410456,-0.4094403357555467
0,0.343220055103302,-105.57928466796875,-0.1573681552759889,-0.5695710972551671,-0.0987678865591686,-0.41421746723353847
-1.4367218017578125,-0.09129559993743896,-105.46465301513672,-0.15911405906598602,-0.5764572269552284,-0.1107405682404837,-0.41211809677382294
0,0.4551890194416046,-105.23535919189453,-0.16105950755067172,-0.5833005915251043,-0.1227132499217988,-0.40908565161128824
1.9123589992523193,0.5640327334403992,-105.13754272460938,-0.1629719256744203,-0.5900479064302312,-0.10677692492802947,-0.4005921370039382
0.262225478887558,-0.5821670889854431,-105.2404556274414,-0.1646005282789055,-0.5967257013772097,-0.08865538761019716,-0.4007432566334802
-0.6384918093681335,0,-105.3858871459961,-0.16610424767869217,-0.6034451839245029,-0.09179094036420196,-0.40559464904169223
0.40889641642570496,-1.2459557056427002,-105.38260650634766,-0.16610424767869217,-0.6034451839245029,-0.09179094036420196,-0.40559464904169223
0.07068585604429245,-0.5951834917068481,-105.21469116210938,-0.1676007923602851,-0.6103329516305692,-0.08779442142695199,-0.4209374756862718
-0.3734630346298218,0.6558708548545837,-105.1327896118164,-0.1690850589103583,-0.6173443618251219,-0.09031756458183139,-0.4204317476600407
0.21111994981765747,3.130749225616455,-105.30416870117188,-0.170601625478723,-0.6240885978916454,-0.09167042362193276,-0.38887658032278205
0.26757243275642395,1.4533367156982422,-105.47766876220703,-0.17209622334585425,-0.6302515349288782,-0.08768132043381541,-0.35067586414515955
0.26111531257629395,-0.6030142903327942,-105.54080963134766,-0.17352086425965862,-0.6360370824962027,-0.08327558922270943,-0.34358984393378084
0.5952633619308472,-0.6023380756378174,-105.6012954711914,-0.17484932000541856,-0.6418472849205137,-0.07613910026848325,-0.3536344469835359
-0.7386404275894165,-1.2227267026901245,-105.52362823486328,-0.176128261750564,-0.6478679329798454,-0.07733390914897133,-0.36884332013626875
-1.1851468086242676,-0.280239075422287,-105.39899444580078,-0.17755075657222838,-0.6541196942722632,-0.09336546945075203,-0.38136803495387217
0,0,-105.30238342285156,-0.17918914959145094,-0.6604952892350654,-0.10324169285595425,-0.38370336058239124
0,-0.239864319562912,-105.26402282714844,-0.1809098444723835,-0.666907002489186,-0.10324169285595425,-0.3857022299120822
0.8013750910758972,0.34249347448349,-105.2777099609375,-0.1825748883053247,-0.6733282459630734,-0.09656356709698843,-0.3848469869544107
-0.47522732615470886,0.4313068985939026,-105.29145812988281,-0.18416163193993276,-0.6796886262752944,-0.09384566905597853,-0.3783986505120991
-0.20550081133842468,-0.13480590283870697,-105.41458129882812,-0.185772999211525,-0.6859746801035685,-0.09951840353508798,-0.3759278088808058
-0.0586165152490139,-0.9472864866256714,-105.38054656982422,-0.18744998075145614,-0.6923152888897393,-0.10171938125664996,-0.3849452454596756
0.5122509598731995,-0.6663649678230286,-105.22649383544922,-0.1891138013804125,-0.6988431021095151,-0.09793909421811509,-0.3983923409134148
-0.05237339064478874,0,-105.1354751586914,-0.19071418367507356,-0.7055292498030596,-0.09410678114121167,-0.40394538231194005
-0.07810131460428238,0.37406179308891296,-105.21527099609375,-0.19071418367507356,-0.7055292498030596,-0.09410678114121167,-0.40394538231194005
0.07569118589162827,0.657406747341156,-105.2500991821289,-0.19228279739747658,-0.7121900430818399,-0.09412686554715045,-0.3953498111416895
0.7586120367050171,-0.6499621868133545,-105.22283935546875,-0.19379364076613767,-0.718778689617498,-0.08717433869217842,-0.39528777313729113
-0.10319242626428604,0.9723377823829651,-105.19424438476562,-0.19520103116028226,-0.7253444319756495,-0.08171250860517232,-0.3926013098408777
-0.11740708351135254,1.7589807510375977,-105.33995819091797,-0.19657822571410288,-0.7316981122415099,-0.08355083785330264,-0.36984032206237305
-0.5552414059638977,0.7766678929328918,-105.53288269042969,-0.1980174513789826,-0.7376860308978294,-0.08915624193226306,-0.3487099166959523
1.2927156686782837,1.5275444984436035,-105.5347671508789,-0.19945217525405404,-0.7433378480933608,-0.08301062307630984,-0.32950814676781487
-0.15765811502933502,-2.545316696166992,-105.49702453613281,-0.20075686219743358,-0.7489003291643329,-0.07355181012923527,-0.3379895817488431
0.4236597418785095,-1.6819748878479004,-105.49244689941406,-0.20196425336438964,-0.7548270507757036,-0.07133512990549215,-0.37321701161563386
-0.9280358552932739,-1.1378320455551147,-105.37390899658203,-0.203188198315135,-0.7612431542285616,-0.07553826418394852,-0.39671540272732564
-0.23170356452465057,0.6408015489578247,-105.27727508544922,-0.20452770684457705,-0.7678895936140585,-0.08520275934909789,-0.4008573235323031
-0.40950486063957214,0,-105.22388458251953,-0.2059922811965873,-0.774526048898697,-0.09054616289213308,-0.3955173106243212
-0.808575451374054,1.5718529224395752,-105.2189712524414,-0.2075859728220127,-0.7810088476228219,-0.10069683215891329,-0.3824185362706581
0.7565345168113708,-0.25044962763786316,-105.28225708007812,-0.20926786731178365,-0.7872907257763049,-0.10113050661360232,-0.37140684214731046
0.5815437436103821,-0.7097892761230469,-105.43458557128906,-0.2108604536539255,-0.793547523069299,-0.08997985444342105,-0.3794088330119847
-0.3113575279712677,-0.8370919227600098,-105.36256408691406,-0.21234135496300757,-0.7999784259249767,-0.08772830264642843,-0.3922995096693435
0.6146948933601379,-0.2557959258556366,-105.25630187988281,-0.21378242824562937,-0.8065926460756196,-0.08520049126818785,-0.40140690840780724
-1.0443031787872314,0.30257362127304077,-105.21681213378906,-0.21378242824562937,-0.8065926460756196,-0.08520049126818785,-0.40140690840780724
-0.3009781837463379,0.16472119092941284,-105.19414520263672,-0.21529585875027513,-0.8132503101871246,-0.09641116928930094,-0.3975127849727868
0.5135707855224609,-0.24705193936824799,-105.21735382080078,-0.21688794819664015,-0.8198812406830904,-0.0946395642744999,-0.3981988745431104
0.5769067406654358,2.3447623252868652,-105.21715545654297,-0.21838954666189653,-0.8263722142597868,-0.08555225155626743,-0.38071795466045527
0.3841882050037384,2.6791772842407227,-105.3445816040039,-0.2197486748166073,-0.8323686288090216,-0.07754312700902431,-0.33885179124772535
0.40368109941482544,-0.5985810160636902,-105.50481414794922,-0.22098634712061752,-0.8378716728111937,-0.07097754947220294,-0.32151348901291676
-0.15204909443855286,-0.7825906276702881,-105.436767578125,-0.22215183183369755,-0.8433261456588905,-0.06888061609740068,-0.33302325271069994
-0.389142245054245,-1.9539520740509033,-105.27020263671875,-0.2233374248338968,-0.8490665708916884,-0.07339054392650732,-0.3558277752250432
-0.37807130813598633,0.3679859936237335,-105.29136657714844,-0.22461387928497678,-0.8551071703454688,-0.07978399020309258,-0.36904415922860295
-0.42429593205451965,-0.19294466078281403,-105.35506439208984,-0.22599933240226378,-0.8612457506844983,-0.0864703838713468,-0.36758548145492864
0.32726600766181946,0.24375155568122864,-105.31881713867188,-0.22744724365598015,-0.8673686471188236,-0.0872789665746193,-0.36716209066410854
0.6353147029876709,-0.31044498085975647,-105.19734191894531,-0.22883504721620648,-0.8734926467844183,-0.0792574606525402,-0.36771786920726296
-0.3936369717121124,0.11459915339946747,-105.10281372070312,-0.2301392217179658,-0.8796348783425574,-0.07724347955857722,-0.36934991776943205
-1.718968152999878,-0.4170202910900116,-105.04874420166016,-0.2315733217331582,-0.8858117117732764,-0.09484852226451047,-0.3718700939168533
1.608629822731018,0.8969883918762207,-104.92461395263672,-0.23316179282161315,-0.8919762155537805,-0.09576800835008431,-0.36787035974363486
0.9106392860412598,-1.1639456748962402,-104.86172485351562,-0.2345829770504498,-0.8981259269163842,-0.07477409911031532,-0.37009500376880167
0.07006056606769562,-0.5737701654434204,-104.90612030029297,-0.23576110787922527,-0.9044148516903322,-0.0666016003427407,-0.3845759691049655
-0.516668438911438,-0.47079092264175415,-104.85334777832031,-0.23576110787922527,-0.9044148516903322,-0.0666016003427407,-0.3845759691049655
0.6469759941101074,0.011510106734931469,-104.71428680419922,-0.23576110787922527,-0.9044148516903322,-0.0666016003427407,-0.3845759691049655
-0.3853449523448944,2.251401662826538,-104.74005889892578,-0.23576110787922527,-0.9044148516903322,-0.0666016003427407,-0.3845759691049655
1.158537745475769,3.4085161685943604,-104.79217529296875,-0.23576110787922527,-0.9044148516903322,-0.0666016003427407,-0.3845759691049655
-0.15780507028102875,2.23221492767334,-104.5633773803711,-0.23576110787922527,-0.9044148516903322,-0.0666016003427407,-0.3845759691049655
0.7663557529449463,0.865241289138794,-104.12411499023438,-0.23576110787922527,-0.9044148516903322,-0.0666016003427407,-0.3845759691049655
0.8918927907943726,-0.458664208650589,-103.51274108886719,-0.23576110787922527,-0.9044148516903322,-0.0666016003427407,-0.3845759691049655
0.36858609318733215,0.3729811906814575,-102.60319519042969,-0.23576110787922527,-0.9044148516903322,-0.0666016003427407,-0.3845759691049655
1.346642255783081,1.7083295583724976,-101.48005676269531,-0.23576110787922527,-0.9044148516903322,-0.0666016003427407,-0.3845759691049655
0.3638210892677307,1.6675931215286255,-100.19434356689453,-0.23576110787922527,-0.9044148516903322,-0.0666016003427407,-0.3845759691049655
1.1199815273284912,0.33322158455848694,-98.84906005859375,-0.23576110787922527,-0.9044148516903322,-0.0666016003427407,-0.3845759691049655
-0.2583118677139282,0.9957313537597656,-97.46307373046875,-0.23576110787922527,-0.9044148516903322,-0.0666016003427407,-0.3845759691049655
0.5622490048408508,0.011135033331811428,-95.95533752441406,-0.23576110787922527,-0.9044148516903322,-0.0666016003427407,-0.3845759691049655
0.008757861331105232,1.1800473928451538,-94.41293334960938,-0.23576110787922527,-0.9044148516903322,-0.0666016003427407,-0.3845759691049655
0.38859453797340393,0.3490884602069855,-92.81117248535156,-0.23576110787922527,-0.9044148516903322,-0.0666016003427407,-0.3845759691049655
0.67195725440979,0.6166601181030273,-91.1788101196289,-0.23576110787922527,-0.9044148516903322,-0.0666016003427407,-0.3845759691049655
0.5249427556991577,0.6025478839874268,-89.50453186035156,-0.23576110787922527,-0.9044148516903322,-0.0666016003427407,-0.3845759691049655
0.2807074189186096,0.5803431868553162,-87.88983917236328,-0.23576110787922527,-0.9044148516903322,-0.0666016003427407,-0.3845759691049655
-0.023432347923517227,0.5195826888084412,-86.28553009033203,-0.23576110787922527,-0.9044148516903322,-0.0666016003427407,-0.3845759691049655
-0.03252237290143967,1.4810242652893066,-84.70279693603516,-0.23576110787922527,-0.9044148516903322,-0.0666016003427407,-0.3845759691049655
1.1715824604034424,-0.535111129283905,-83.07717895507812,-0.23576110787922527,-0.9044148516903322,-0.0666016003427407,-0.3845759691049655
-0.1993827521800995,1.0657209157943726,-81.41081237792969,-0.23576110787922527,-0.9044148516903322,-0.0666016003427407,-0.3845759691049655
1.0388609170913696,-0.3387601673603058,-79.67412567138672,-0.23576110787922527,-0.9044148516903322,-0.0666016003427407,-0.3845759691049655
-0.4221469461917877,0.6991055607795715,-77.8841323852539,-0.23576110787922527,-0.9044148516903322,-0.0666016003427407,-0.3845759691049655
-0.6971215009689331,1.3931294679641724,-76.02839660644531,-0.23576110787922527,-0.9044148516903322,-0.0666016003427407,-0.3845759691049655
0.5517523884773254,0.2901914715766907,-74.14443969726562,-0.23576110787922527,-0.9044148516903322,-0.0666016003427407,-0.3845759691049655
0.5075703859329224,0.39112788438796997,-72.1883316040039,-0.23576110787922527,-0.9044148516903322,-0.0666016003427407,-0.3845759691049655
0.1321863830089569,0.021102728322148323,-70.22782135009766,-0.23576110787922527,-0.9044148516903322,-0.0666016003427407,-0.3845759691049655
-0.18472149968147278,0.9131876826286316,-68.22299194335938,-0.23576110787922527,-0.9044148516903322,-0.0666016003427407,-0.3845759691049655
1.1977763175964355,-0.15913209319114685,-66.24339294433594,-0.23576110787922527,-0.9044148516903322,-0.0666016003427407,-0.3845759691049655
-0.8909778594970703,0.6848927736282349,-64.28948974609375,-0.23576110787922527,-0.9044148516903322,-0.0666016003427407,-0.3845759691049655
0.2373773455619812,0.37781083583831787,-62.2962760925293,-0.23576110787922527,-0.9044148516903322,-0.0666016003427407,-0.3845759691049655
3.2628109455108643,-0.023744657635688782,-60.277252197265625,-0.23576110787922527,-0.9044148516903322,-0.0666016003427407,-0.3845759691049655
-0.2365197390317917,0.8735981583595276,-58.18571472167969,-0.23576110787922527,-0.9044148516903322,-0.0666016003427407,-0.3845759691049655
0.7327904105186462,-0.0031178363133221865,-56.0533561706543,-0.23576110787922527,-0.9044148516903322,-0.0666016003427407,-0.3845759691049655
0.4360567629337311,0.7365873456001282,-53.885990142822266,-0.23576110787922527,-0.9044148516903322,-0.0666016003427407,-0.3845759691049655
0.6333674192428589,1.130077600479126,-51.6743049621582,-0.23576110787922527,-0.9044148516903322,-0.0666016003427407,-0.3845759691049655
0.3042997717857361,0.8596614003181458,-49.47554397583008,-0.23576110787922527,-0.9044148516903322,-0.0666016003427407,-0.3845759691049655
1.6281673908233643,0.5178929567337036,-47.32377243041992,-0.23576110787922527,-0.9044148516903322,-0.0666016003427407,-0.3845759691049655
-0.11422360688447952,0.5613219141960144,-45.2165641784668,-0.23576110787922527,-0.9044148516903322,-0.0666016003427407,-0.3845759691049655
-0.24083806574344635,0.5972188115119934,-43.066097259521484,-0.23576110787922527,-0.9044148516903322,-0.0666016003427407,-0.3845759691049655
0.5555229783058167,0.38017451763153076,-40.83197784423828,-0.23576110787922527,-0.9044148516903322,-0.0666016003427407,-0.3845759691049655
-0.26109400391578674,0.8646312952041626,-38.67674255371094,-0.23576110787922527,-0.9044148516903322,-0.0666016003427407,-0.3845759691049655
-1.7854111194610596,-0.24813291430473328,-36.51014709472656,-0.23576110787922527,-0.9044148516903322,-0.0666016003427407,-0.3845759691049655
1.841408610343933,0.5883087515830994,-34.307193756103516,-0.23576110787922527,-0.9044148516903322,-0.0666016003427407,-0.3845759691049655
1.522038459777832,0.31661492586135864,-32.15571975708008,-0.23576110787922527,-0.9044148516903322,-0.0666016003427407,-0.3845759691049655
-2.0129776000976562,0.15464194118976593,-29.970378875732422,-0.23576110787922527,-0.9044148516903322,-0.0666016003427407,-0.3845759691049655
1.2156895399093628,0.6503802537918091,-27.711193084716797,-0.23576110787922527,-0.9044148516903322,-0.0666016003427407,-0.3845759691049655
-0.041762251406908035,0.7858602404594421,-25.509469985961914,-0.23576110787922527,-0.9044148516903322,-0.0666016003427407,-0.3845759691049655
-0.11052415519952774,0.7227015495300293,-23.193628311157227,-0.23576110787922527,-0.9044148516903322,-0.0666016003427407,-0.3845759691049655
0.07782329618930817,0.27167725563049316,-20.936674118041992,-0.23576110787922527,-0.9044148516903322,-0.0666016003427407,-0.3845759691049655
-0.7578129172325134,0.6932837963104248,-18.66370391845703,-0.23576110787922527,-0.9044148516903322,-0.0666016003427407,-0.3845759691049655
1.0606205463409424,0.2698921859264374,-16.358299255371094,-0.23576110787922527,-0.9044148516903322,-0.0666016003427407,-0.3845759691049655
-0.9022819399833679,0.5308584570884705,-14.017474174499512,-0.23576110787922527,-0.9044148516903322,-0.0666016003427407,-0.3845759691049655
0.4166654348373413,1.1589698791503906,-11.958454132080078,-0.23576110787922527,-0.9044148516903322,-0.0666016003427407,-0.3845759691049655
-0.271724134683609,-0.695337176322937,-10.245540618896484,-0.23576110787922527,-0.9044148516903322,-0.0666016003427407,-0.3845759691049655
-1.2684723138809204,-1.6191391944885254,-8.826003074645996,-0.23576110787922527,-0.9044148516903322,-0.0666016003427407,-0.3845759691049655
-0.4722996950149536,-0.9081680774688721,-7.767124652862549,-0.23576110787922527,-0.9044148516903322,-0.0666016003427407,-0.3845759691049655
-0.6155097484588623,-1.0111424922943115,-7.1331963539123535,-0.23576110787922527,-0.9044148516903322,-0.0666016003427407,-0.3845759691049655
-0.8556158542633057,-1.1189113855361938,-6.832174301147461,-0.23576110787922527,-0.9044148516903322,-0.0666016003427407,-0.3845759691049655
-0.8500982522964478,-0.7049041390419006,-6.74692440032959,-0.23576110787922527,-0.9044148516903322,-0.0666016003427407,-0.3845759691049655
-0.9226418137550354,0.6157558560371399,-6.785799980163574,-0.23576110787922527,-0.9044148516903322,-0.0666016003427407,-0.3845759691049655
-0.3135696053504944,-0.39895546436309814,-6.75046443939209,-0.23576110787922527,-0.9044148516903322,-0.0666016003427407,-0.3845759691049655
0.47616395354270935,0.23484760522842407,-6.7804765701293945,-0.23576110787922527,-0.9044148516903322,-0.0666016003427407,-0.3845759691049655
0.42404264211654663,-0.06313745677471161,-6.790268898010254,-0.23576110787922527,-0.9044148516903322,-0.0666016003427407,-0.3845759691049655
0.6936156749725342,0.01849154755473137,-6.7825703620910645,-0.23576110787922527,-0.9044148516903322,-0.0666016003427407,-0.3845759691049655
0.05450970679521561,0.006631273310631514,-6.781533241271973,-0.23576110787922527,-0.9044148516903322,-0.0666016003427407,-0.3845759691049655
-0.11928556859493256,0.12158318608999252,-6.78218412399292,-0.23576110787922527,-0.9044148516903322,-0.0666016003427407,-0.3845759691049655
0.250046968460083,-0.04138580709695816,-6.782180309295654,-0.23576110787922527,-0.9044148516903322,-0.0666016003427407,-0.3845759691049655
0.35843223333358765,0.046246543526649475,-6.781999588012695,-0.23576110787922527,-0.9044148516903322,-0.0666016003427407,-0.3845759691049655
0.19333988428115845,0.028165413066744804,-6.78095006942749,-0.23576110787922527,-0.9044148516903322,-0.0666016003427407,-0.3845759691049655
0.13810674846172333,0.038631703704595566,-6.7850446701049805,-0.23576110787922527,-0.9044148516903322,-0.0666016003427407,-0.3845759691049655
0.14639951288700104,-0.009237329475581646,-6.782956600189209,-0.23576110787922527,-0.9044148516903322,-0.0666016003427407,-0.3845759691049655
0.23058010637760162,0.029331913217902184,-6.7828826904296875,-0.23576110787922527,-0.9044148516903322,-0.0666016003427407,-0.3845759691049655
0.27907460927963257,0.004233879968523979,-6.783581256866455,-0.23576110787922527,-0.9044148516903322,-0.0666016003427407,-0.3845759691049655
0.18567438423633575,0.011047260835766792,-6.78306245803833,-0.23576110787922527,-0.9044148516903322,-0.0666016003427407,-0.3845759691049655
0.11147450655698776,0.044464800506830215,-6.782370567321777,-0.23576110787922527,-0.9044148516903322,-0.0666016003427407,-0.3845759691049655
0.22618722915649414,0.028515761718153954,-6.781352519989014,-0.23576110787922527,-0.9044148516903322,-0.0666016003427407,-0.3845759691049655
0.26441797614097595,0.02000444009900093,-6.779618740081787,-0.23576110787922527,-0.9044148516903322,-0.0666016003427407,-0.3845759691049655
0.1914839893579483,0.032024871557950974,-6.778999328613281,-0.23576110787922527,-0.9044148516903322,-0.0666016003427407,-0.3845759691049655
0.15051409602165222,0.02645653299987316,-6.779889106750488,-0.23576110787922527,-0.9044148516903322,-0.0666016003427407,-0.3845759691049655
0.2089109569787979,0,-6.780384063720703,-0.23684617447847925,-0.9108226139161788,-0.06360639156773694,-0.3843554979966332
0.596139669418335,0.05051426216959953,-6.780043125152588,-0.2378503747111084,-0.9172250309479165,-0.056897636347760835,-0.3839345458118866
1.5722228288650513,0.5981453061103821,-6.6732401847839355,-0.2386480879211903,-0.9235788942414285,-0.03882794886206595,-0.3785290494095534
2.165410041809082,-0.5293033719062805,-6.453174114227295,-0.23903566256398348,-0.9298829310417124,-0.007681008273114836,-0.37795536662451923
2.688589096069336,-0.8032869100570679,-6.398677349090576,-0.23882659609507162,-0.9362747281439241,0.03276898454253864,-0.38906028564088047
1.499472975730896,0.3020229637622833,-6.346499443054199,-0.23798960870882097,-0.9427938762342093,0.06766950180754057,-0.393237485193337
1.2947148084640503,0.2962649166584015,-6.15350341796875,-0.23666774286034842,-0.9493062865512912,0.09095440000916512,-0.388251752856498
1.1300393342971802,-0.07189878821372986,-5.897230625152588,-0.23498345048917058,-0.9557615681177576,0.11116068453217537,-0.38638203511945907
1.776480793952942,-0.3615838885307312,-5.695655345916748,-0.2329289307380614,-0.9622313716667447,0.1353816856009264,-0.3899943907589962
1.6825727224349976,0,-5.5069379806518555,-0.23043235726163014,-0.9687563881716537,0.1642071315708259,-0.39300758983008566
0.5934977531433105,-0.21800167858600616,-5.414661407470703,-0.22753751128575678,-0.9753216536742791,0.18317438553397847,-0.39482427048496904
1.6615170240402222,-0.2674221992492676,-5.329646110534668,-0.22432800661177493,-0.9819357681738783,0.20196617534384123,-0.39886946946692964
0.6994363069534302,0,-5.2226738929748535,-0.22079794859694746,-0.9886021636510528,0.221640786435455,-0.40109798779400685
1.4617329835891724,0.2929956614971161,-5.078507900238037,-0.21695385428895775,-0.9952667831933489,0.23965053052331003,-0.39865635728153087
1.4170349836349487,-0.934680700302124,-4.941323757171631,-0.21275976433806756,-1.001955617275736,0.26364026358351106,-0.40400373260490596
1.4007279872894287,0.8725515007972717,-4.942321300506592,-0.21275976433806756,-1.001955617275736,0.26364026358351106,-0.40400373260490596
1.2265987396240234,-0.5660026669502258,-4.9928669929504395,-0.2081833067000845,-1.0086677247056894,0.2855346529744565,-0.4014491589895139
0.25235170125961304,0.30727607011795044,-5.127902507781982,-0.20332169092544886,-1.0153765111469613,0.2978592399818202,-0.40360521396311616
-0.5669860243797302,1.1534719467163086,-5.252103328704834,-0.1983792198648574,-1.022001823878511,0.29523728728915255,-0.39143231382283067
-0.9670950770378113,-0.2856521010398865,-5.457891941070557,-0.19356513181985885,-1.0284654305084973,0.28245327811067306,-0.3842004817755271
1.2471554279327393,-0.5243789553642273,-5.478583335876465,-0.18883812854920215,-1.0349250240281174,0.2847871143681308,-0.39095074057889473
0.9541959166526794,-0.1623317450284958,-5.3882904052734375,-0.18393880502191487,-1.041488557947515,0.3031317089063426,-0.39667332974883407
1.4379923343658447,0.13655805587768555,-5.313988208770752,-0.17872048568937732,-1.04810156994952,0.32306661099816364,-0.3968881104917575
1.4396001100540161,-0.3046541213989258,-5.353048324584961,-0.17313620936410098,-1.0547280451289327,0.3470465480349958,-0.3982889110377678
-0.27428287267684937,-0.9822667837142944,-5.376735210418701,-0.1672711754220332,-1.0614555631535283,0.35675752501313884,-0.4090132519137113
1.8537211418151855,0.8305313587188721,-5.457042694091797,-0.16121553345867962,-1.068282987867715,0.3699195105892916,-0.41027771378867317
0.7221200466156006,0.5072051286697388,-5.490512847900391,-0.15487133042188372,-1.075028051397013,0.39138485382621485,-0.39912990972710144
1.5422219038009644,1.5811436176300049,-5.419962406158447,-0.1481910035560012,-1.0815351923406382,0.41025437007968624,-0.3817270035079369
0.07325601577758789,-0.4641347825527191,-5.3222784996032715,-0.1481910035560012,-1.0815351923406382,0.41025437007968624,-0.3817270035079369
0.7587491273880005,-0.9940606951713562,-5.304928779602051,-0.1412956525863977,-1.0879985726406125,0.4171877462727328,-0.39387863248897087
-0.30448269844055176,-0.6501715779304504,-5.327339172363281,-0.13431097720206414,-1.094677399312172,0.42097329984729487,-0.4075805680981526
-1.6954827308654785,-0.24779434502124786,-5.367408275604248,-0.1274336420260888,-1.1015327675251239,0.4043069212697446,-0.4150636174560834
-2.317561149597168,-0.4482429325580597,-5.423760414123535,-0.12097387694106965,-1.1084988304047794,0.37086488893255587,-0.4208639281025776
0.6465468406677246,0.4032769203186035,-5.483261585235596,-0.1149088381192027,-1.1155163518462279,0.35693976969147717,-0.42123864487123974
0.13155069947242737,0.9445605874061584,-5.365688800811768,-0.10890580740627946,-1.1224433961004898,0.3634239158593118,-0.41000666564020005
2.083895444869995,-0.28269150853157043,-5.177999496459961,-0.10269489171526715,-1.1292308773973492,0.38188596706216527,-0.40449108998291183
1.6851272583007812,0.8609058856964111,-4.963658332824707,-0.0960683879098442,-1.135932241787539,0.4132944895885884,-0.3996726368398715
0.2650596499443054,0.09942968189716339,-4.834375858306885,-0.08904471677029516,-1.1425267624315651,0.42954604715729744,-0.39166984044325837
1.2698408365249634,0.5803666114807129,-4.724778175354004,-0.08177902567277984,-1.1490073850296905,0.44233688454454134,-0.3860048713317761
-1.1475175619125366,-0.4661238491535187,-4.567479133605957,-0.07439824959185606,-1.155432866026725,0.44335624516631156,-0.3850528483123828
0.7480298280715942,0.5065496563911438,-4.538084506988525,-0.07439824959185606,-1.155432866026725,0.44335624516631156,-0.3850528483123828
0.22422537207603455,-1.1299223899841309,-4.579115390777588,-0.06694146111685173,-1.1618937032717642,0.45145837183420845,-0.39024762109232436
0.7764012813568115,-0.9374901056289673,-4.51593017578125,-0.059347666957570974,-1.168541400602165,0.4597969272794822,-0.40747605855576685
-0.7174960374832153,0.5530882477760315,-4.418209552764893,-0.051680294194310604,-1.175359362818223,0.46028780431176214,-0.410679407371208
-2.9640724658966064,0.6275861859321594,-4.5587544441223145,-0.044264495268515947,-1.1821220283276246,0.429608066783597,-0.4008404537569731
1.6481289863586426,-1.0200048685073853,-4.758449554443359,-0.037195745785979464,-1.1888299538543086,0.4186418711207806,-0.40411060944509997
0.8603830337524414,-0.371443510055542,-4.7531938552856445,-0.030044179043680962,-1.195661759038016,0.43954613795503966,-0.415706012599791
1.8621652126312256,0.6678118109703064,-4.807525634765625,-0.022529344227320326,-1.202569611449338,0.46223404000823687,-0.4132362767588346
0.8035376667976379,1.0345817804336548,-4.814695835113525,-0.014640325305000484,-1.2093386609514711,0.4844482306701441,-0.39904966349713494
0.7455666661262512,0.8239665627479553,-4.777468204498291,-0.006458611437378367,-1.215860422819258,0.49735743344450983,-0.3835617606372882
0,-1.3314586877822876,-4.799345970153809,0.0018824545829555644,-1.2222883613385624,0.5035704889955619,-0.387790861679241
0.3026845455169678,-1.5771031379699707,-4.775702953338623,0.0018824545829555644,-1.2222883613385624,0.5035704889955619,-0.387790861679241
0.521304190158844,0.5403071641921997,-4.713713645935059,0.010332517506192417,-1.228823542086951,0.5104370617928603,-0.39643082812738906
0.22521232068538666,0.22215016186237335,-4.814845085144043,0.018891643293770938,-1.2353777741303205,0.5166580327165622,-0.39007701707693426
-1.4756602048873901,0.20815643668174744,-5.013762950897217,0.0274157738470885,-1.2418491753455927,0.5062376336815455,-0.38649112875573327
-1.2066686153411865,0.9353948831558228,-5.124028205871582,0.03566679490704283,-1.2482112808720884,0.48388489351297403,-0.3769615344237535
0.08113112300634384,0.6656067967414856,-5.130805969238281,0.04365338080640248,-1.2543827924402693,0.4745054144101837,-0.3636198537579426
0.14586769044399261,-0.41363513469696045,-5.19310998916626,0.05157756818639515,-1.2604256253041486,0.4763970711889365,-0.36152008990757156
2.353259801864624,-0.6872004866600037,-5.305751800537109,0.05969106989317663,-1.2665274070540913,0.4972231336248416,-0.37069372008554624
0.09074843674898148,-0.3778477609157562,-5.337311267852783,0.06814784491460549,-1.2727795974060432,0.5175898689466216,-0.37956912214867755
0.5909294486045837,-0.2077280431985855,-5.311254501342773,0.07682168147242095,-1.2791464144282514,0.5232705179912347,-0.3844489205162971
0.19707156717777252,-1.0815619230270386,-5.343464374542236,0.08559757906503752,-1.2856434304622886,0.5298371931227543,-0.39519300356817727
0.9172872304916382,1.0004850625991821,-5.239151477813721,0.08559757906503752,-1.2856434304622886,0.5298371931227543,-0.39519300356817727
-0.30349570512771606,0.50160151720047,-5.035123825073242,0.09447082336190037,-1.2921256689537166,0.534952122500787,-0.3826756154031802
-0.4376530945301056,0.6265565156936646,-4.923168659210205,0.10333522340360392,-1.2984252515692631,0.5287758825036385,-0.37327429846239574
-0.29703354835510254,-0.17146894335746765,-4.982812404632568,0.11209713487290865,-1.3046148865733354,0.5226534938129285,-0.36948190202626074
-0.8473877906799316,-0.1899426430463791,-5.228990077972412,0.1207285527323578,-1.3107980163006065,0.5131166493209699,-0.3724936652462928
0,0.6697582006454468,-5.306705951690674,0.12922165051335452,-1.3169729235298782,0.5060550843986371,-0.36849520226630056
0.5945971608161926,-0.43856778740882874,-5.216078758239746,0.1376971933894996,-1.3230984553445084,0.5110100607387721,-0.36656861548932873
0,0.2118123471736908,-5.131794452667236,0.1462553192046469,-1.3292236791749024,0.5159650370789071,-0.36845824415795486
1.0999444723129272,-0.3756009042263031,-5.111904144287109,0.15493112152209487,-1.3353760241162191,0.5251312410148481,-0.36982314880005995
-0.06154799461364746,-0.7599813938140869,-5.000223636627197,0.16375541973884924,-1.3416186031446953,0.5337845449956754,-0.3792863346170632
1.6126868724822998,0.8102584481239319,-4.908994197845459,0.17275954679974026,-1.3479365505928749,0.5467107023112475,-0.37886735916448117
0.34397998452186584,-0.4701792299747467,-4.823575496673584,0.17275954679974026,-1.3479365505928749,0.5467107023112475,-0.37886735916448117
0.6291923522949219,-0.6301268935203552,-4.732176780700684,0.17275954679974026,-1.3479365505928749,0.5467107023112475,-0.37886735916448117
-0.4582747220993042,1.0795857906341553,-4.659282684326172,0.17275954679974026,-1.3479365505928749,0.5467107023112475,-0.37886735916448117
-2.338289737701416,0.07152484357357025,-4.814449787139893,0.17275954679974026,-1.3479365505928749,0.5467107023112475,-0.37886735916448117
-2.741270065307617,1.2232589721679688,-4.800703525543213,0.17275954679974026,-1.3479365505928749,0.5467107023112475,-0.37886735916448117
-1.7619457244873047,-0.1479736566543579,-4.491813659667969,0.17275954679974026,-1.3479365505928749,0.5467107023112475,-0.37886735916448117
0.6261561512947083,1.5272573232650757,-3.850658893585205,0.17275954679974026,-1.3479365505928749,0.5467107023112475,-0.37886735916448117
0.1272704303264618,0.1302042156457901,-2.8431644439697266,0.17275954679974026,-1.3479365505928749,0.5467107023112475,-0.37886735916448117
-1.5811727046966553,0.12471489608287811,-1.658355951309204,0.17275954679974026,-1.3479365505928749,0.5467107023112475,-0.37886735916448117
-0.6242334246635437,0.1168622151017189,-0.375232458114624,0.17275954679974026,-1.3479365505928749,0.5467107023112475,-0.37886735916448117
-0.8956199288368225,0.9673561453819275,1.0160521268844604,0.17275954679974026,-1.3479365505928749,0.5467107023112475,-0.37886735916448117
-0.5180426239967346,0.8132500052452087,2.5393776893615723,0.17275954679974026,-1.3479365505928749,0.5467107023112475,-0.37886735916448117
-0.43406763672828674,1.338925838470459,4.021440505981445,0.17275954679974026,-1.3479365505928749,0.5467107023112475,-0.37886735916448117
-0.22918669879436493,0.14800839126110077,5.566088676452637,0.17275954679974026,-1.3479365505928749,0.5467107023112475,-0.37886735916448117
-0.8546343445777893,0.8497095108032227,7.15955114364624,0.17275954679974026,-1.3479365505928749,0.5467107023112475,-0.37886735916448117
-1.4028791189193726,-0.7949017286300659,8.741705894470215,0.17275954679974026,-1.3479365505928749,0.5467107023112475,-0.37886735916448117
-0.5019221901893616,0.4817224442958832,10.217995643615723,0.17275954679974026,-1.3479365505928749,0.5467107023112475,-0.37886735916448117
-1.361162543296814,-0.8307117819786072,11.667638778686523,0.17275954679974026,-1.3479365505928749,0.5467107023112475,-0.37886735916448117
0.1366349160671234,0.30358821153640747,13.138656616210938,0.17275954679974026,-1.3479365505928749,0.5467107023112475,-0.37886735916448117
-1.4013500213623047,-1.5045524835586548,14.59101390838623,0.17275954679974026,-1.3479365505928749,0.5467107023112475,-0.37886735916448117
0.6663166284561157,0.8594915270805359,16.010652542114258,0.17275954679974026,-1.3479365505928749,0.5467107023112475,-0.37886735916448117
-0.5084304213523865,-0.7999094128608704,17.42122459411621,0.17275954679974026,-1.3479365505928749,0.5467107023112475,-0.37886735916448117
-0.39935728907585144,-0.6790574789047241,18.85753059387207,0.17275954679974026,-1.3479365505928749,0.5467107023112475,-0.37886735916448117
-0.0023023721296340227,0.033404283225536346,20.434694290161133,0.17275954679974026,-1.3479365505928749,0.5467107023112475,-0.37886735916448117
-0.14888668060302734,1.3349331617355347,21.988176345825195,0.17275954679974026,-1.3479365505928749,0.5467107023112475,-0.37886735916448117
-0.7872041463851929,-2.110044002532959,23.625593185424805,0.17275954679974026,-1.3479365505928749,0.5467107023112475,-0.37886735916448117
0.5940755605697632,1.8849048614501953,25.366893768310547,0.17275954679974026,-1.3479365505928749,0.5467107023112475,-0.37886735916448117
-0.9614103436470032,2.1822707653045654,27.11306381225586,0.17275954679974026,-1.3479365505928749,0.5467107023112475,-0.37886735916448117
-0.4790327847003937,0.8515100479125977,28.87306022644043,0.17275954679974026,-1.3479365505928749,0.5467107023112475,-0.37886735916448117
-0.3189444839954376,0.37769192457199097,30.657485961914062,0.17275954679974026,-1.3479365505928749,0.5467107023112475,-0.37886735916448117
-0.5821061134338379,-0.18827061355113983,32.4240608215332,0.17275954679974026,-1.3479365505928749,0.5467107023112475,-0.37886735916448117
-0.7589696645736694,1.8380142450332642,34.159767150878906,0.17275954679974026,-1.3479365505928749,0.5467107023112475,-0.37886735916448117
-0.17737367749214172,-0.9267821311950684,36.03993606567383,0.17275954679974026,-1.3479365505928749,0.5467107023112475,-0.37886735916448117
-0.803207516670227,0.32606178522109985,37.97455596923828,0.17275954679974026,-1.3479365505928749,0.5467107023112475,-0.37886735916448117
0.47180208563804626,-0.3511655032634735,39.93332290649414,0.17275954679974026,-1.3479365505928749,0.5467107023112475,-0.37886735916448117
-0.7758987545967102,1.1453486680984497,41.99543762207031,0.17275954679974026,-1.3479365505928749,0.5467107023112475,-0.37886735916448117
-0.14726819097995758,0.28079861402511597,44.08900451660156,0.17275954679974026,-1.3479365505928749,0.5467107023112475,-0.37886735916448117
-0.5468245148658752,0.16145573556423187,46.223690032958984,0.17275954679974026,-1.3479365505928749,0.5467107023112475,-0.37886735916448117
0.7241533398628235,0.09773435443639755,48.40732192993164,0.17275954679974026,-1.3479365505928749,0.5467107023112475,-0.37886735916448117
0.1400480419397354,0.32472842931747437,50.73499298095703,0.17275954679974026,-1.3479365505928749,0.5467107023112475,-0.37886735916448117
-0.704372227191925,0.5663866400718689,53.09207534790039,0.17275954679974026,-1.3479365505928749,0.5467107023112475,-0.37886735916448117
-0.12247097492218018,0.03415027633309364,55.4764518737793,0.17275954679974026,-1.3479365505928749,0.5467107023112475,-0.37886735916448117
-0.5411661863327026,-0.001479823375120759,57.91167068481445,0.17275954679974026,-1.3479365505928749,0.5467107023112475,-0.37886735916448117
0.3833160102367401,-0.9913701415061951,60.34455108642578,0.17275954679974026,-1.3479365505928749,0.5467107023112475,-0.37886735916448117
-1.0098328590393066,1.4327865839004517,62.864173889160156,0.17275954679974026,-1.3479365505928749,0.5467107023112475,-0.37886735916448117
-1.612472653388977,1.4033962488174438,65.34058380126953,0.17275954679974026,-1.3479365505928749,0.5467107023112475,-0.37886735916448117
0.330132395029068,-1.0261505842208862,67.89773559570312,0.17275954679974026,-1.3479365505928749,0.5467107023112475,-0.37886735916448117
-0.32110628485679626,0.6666952967643738,70.36602020263672,0.17275954679974026,-1.3479365505928749,0.5467107023112475,-0.37886735916448117
0.8749383687973022,-0.0907498374581337,72.83634948730469,0.17275954679974026,-1.3479365505928749,0.5467107023112475,-0.37886735916448117
1.167525291442871,-2.237093448638916,75.04291534423828,0.17275954679974026,-1.3479365505928749,0.5467107023112475,-0.37886735916448117
0.8197371959686279,-0.8728878498077393,76.72410583496094,0.17275954679974026,-1.3479365505928749,0.5467107023112475,-0.37886735916448117
0.7415230870246887,-0.0431285984814167,77.80290222167969,0.17275954679974026,-1.3479365505928749,0.5467107023112475,-0.37886735916448117
3.0660560131073,-0.931088924407959,78.48208618164062,0.17275954679974026,-1.3479365505928749,0.5467107023112475,-0.37886735916448117
1.4626191854476929,-1.4872736930847168,78.78330993652344,0.17275954679974026,-1.3479365505928749,0.5467107023112475,-0.37886735916448117
-0.7301121354103088,-0.24382749199867249,78.7203369140625,0.17275954679974026,-1.3479365505928749,0.5467107023112475,-0.37886735916448117
0.0015265864785760641,-2.1358938217163086,78.68681335449219,0.17275954679974026,-1.3479365505928749,0.5467107023112475,-0.37886735916448117
0.43480387330055237,-1.0063672065734863,78.69497680664062,0.17275954679974026,-1.3479365505928749,0.5467107023112475,-0.37886735916448117
-0.3356550633907318,0.27535685896873474,78.66744232177734,0.17275954679974026,-1.3479365505928749,0.5467107023112475,-0.37886735916448117
0.7654747366905212,0.9994713664054871,78.63077545166016,0.17275954679974026,-1.3479365505928749,0.5467107023112475,-0.37886735916448117
0.022549929097294807,1.5024876594543457,78.63310241699219,0.17275954679974026,-1.3479365505928749,0.5467107023112475,-0.37886735916448117
0.4072727859020233,0.6216949224472046,78.63726806640625,0.17275954679974026,-1.3479365505928749,0.5467107023112475,-0.37886735916448117
0.08897923678159714,-0.07286893576383591,78.63412475585938,0.17275954679974026,-1.3479365505928749,0.5467107023112475,-0.37886735916448117
0.028726547956466675,-0.488939493894577,78.65644836425781,0.17275954679974026,-1.3479365505928749,0.5467107023112475,-0.37886735916448117
0.16891655325889587,-0.31718751788139343,78.65055847167969,0.17275954679974026,-1.3479365505928749,0.5467107023112475,-0.37886735916448117
0.12481178343296051,0.295543372631073,78.6515884399414,0.17275954679974026,-1.3479365505928749,0.5467107023112475,-0.37886735916448117
0.2626056671142578,0.5514156222343445,78.64728546142578,0.17275954679974026,-1.3479365505928749,0.5467107023112475,-0.37886735916448117
0.15155474841594696,0.37458422780036926,78.64420318603516,0.17275954679974026,-1.3479365505928749,0.5467107023112475,-0.37886735916448117
0.17033052444458008,-0.0618104562163353,78.64170837402344,0.17275954679974026,-1.3479365505928749,0.5467107023112475,-0.37886735916448117
0.09652459621429443,-0.024332493543624878,78.64329528808594,0.17275954679974026,-1.3479365505928749,0.5467107023112475,-0.37886735916448117
0.19687752425670624,0.18321670591831207,78.6452865600586,0.17275954679974026,-1.3479365505928749,0.5467107023112475,-0.37886735916448117
0.1794389933347702,0.3375137150287628,78.64591979980469,0.17275954679974026,-1.3479365505928749,0.5467107023112475,-0.37886735916448117
0.17106960713863373,0.16575883328914642,78.6427993774414,0.17275954679974026,-1.3479365505928749,0.5467107023112475,-0.37886735916448117
0.130837082862854,0.055347129702568054,78.6412582397461,0.17275954679974026,-1.3479365505928749,0.5467107023112475,-0.37886735916448117
0.1583516150712967,0.10866749286651611,78.64112854003906,0.17275954679974026,-1.3479365505928749,0.5467107023112475,-0.37886735916448117
0.1806536465883255,0.2331923544406891,78.64253997802734,0.17275954679974026,-1.3479365505928749,0.5467107023112475,-0.37886735916448117
0.15882524847984314,0.24779993295669556,78.6422119140625,0.17275954679974026,-1.3479365505928749,0.5467107023112475,-0.37886735916448117
0.14599734544754028,0.1175813227891922,78.64116668701172,0.18189256007395044,-1.354225632880634,0.5492508905939757,-0.3758225153665988
0.14976489543914795,0.3540226221084595,78.63943481445312,0.19106728062835604,-1.360456591196126,0.5517155759346981,-0.37189248249245166
0.4348897337913513,1.4570209980010986,78.66767883300781,0.20030314124318646,-1.3665290323196035,0.5565876978449523,-0.356800452324872
0.7061254382133484,2.9448094367980957,78.6600570678711,0.2096588400386582,-1.372170023855935,0.5660961576116581,-0.3201185320348787
0.6448960304260254,2.179976224899292,78.60905456542969,0.21918759693417467,-1.3771494448300095,0.5773546698503196,-0.27741198485406715
0.06348146498203278,2.0730555057525635,78.57299041748047,0.2288593676466389,-1.3814776284851709,0.5832578156453867,-0.24197005376530167
0.5826227068901062,0.5898168683052063,78.61129760742188,0.23862519958599757,-1.3853255410219496,0.5886420170776545,-0.2197794506481536
0.3023262619972229,2.394285202026367,78.72785949707031,0.2484973546601312,-1.388781302555646,0.5960165918183823,-0.19491193339539048
0,1.7458244562149048,78.79522705078125,0.25845195940307625,-1.3917423271637468,0.5985359773350258,-0.16041101957671322
0.7310881018638611,0.7353164553642273,78.80927276611328,0.26847832903240054,-1.394243542704499,0.6046283781838914,-0.1397348453135538
1.1585609912872314,0.9329118132591248,78.90845489501953,0.26847832903240054,-1.394243542704499,0.6046283781838914,-0.1397348453135538
-1.446954607963562,1.9378089904785156,78.9372329711914,0.2785354413343073,-1.3963731011816876,0.602225098044922,-0.11581217194907345
0.4835165739059448,0.7209789156913757,78.8284683227539,0.2885056208826909,-1.398118665998466,0.5941964477611085,-0.09365560606432435
0.8321921825408936,-2.210258722305298,78.7208480834961,0.29850026367568483,-1.3997830149749972,0.6051606873981654,-0.10606627111944036
0.15241307020187378,0.20171843469142914,78.47218322753906,0.30865465049709473,-1.401690268124739,0.6133657311710218,-0.12280410684955594
0.6863886713981628,0.7129077315330505,78.3038101196289,0.31893566280422286,-1.4036734875329104,0.6203557456843554,-0.1151822221310186
0.06065061688423157,2.6919498443603516,78.3028793334961,0.3293268029606484,-1.4053567427923237,0.6265810730867086,-0.08680840899857359
0.5414343476295471,1.5664957761764526,78.3125228881836,0.3398116323012959,-1.4065078242186515,0.6315984477909902,-0.05132136216076689
1.7612451314926147,0.5515574216842651,78.30208587646484,0.3504981813949737,-1.407216093227035,0.6507874434503416,-0.03367091884526091
-0.21852442622184753,0.5446608662605286,78.29310607910156,0.3614517721681232,-1.407701148937793,0.663643449327598,-0.024535766445720964
-0.13743191957473755,0.5657560229301453,78.37295532226562,0.3724877771329028,-1.4080329660945836,0.6606771464459598,-0.015282292369132016
-0.34634339809417725,0.4402133524417877,78.50640106201172,0.3724877771329028,-1.4080329660945836,0.6606771464459598,-0.015282292369132016
-1.0144433975219727,2.288229465484619,78.59413146972656,0.38340456382397325,-1.4080981957717131,0.6493372564824919,0.007454731113588041
1.4750250577926636,-0.31830984354019165,78.60357666015625,0.39425883626953356,-1.4078371502794071,0.6531754369847476,0.023870727963124935
0.7917734384536743,-2.4104483127593994,78.45641326904297,0.405302510114852,-1.4076288019075425,0.6720654244534671,0.001131076660628342
-1.2763475179672241,1.0439321994781494,78.17571258544922,0.4164699495446658,-1.4077048475821765,0.6680273071241875,-0.010256557616715407
0.34479740262031555,1.5442451238632202,78.14513397216797,0.4275390470165032,-1.4076960556727787,0.6602643894962965,0.011311586744462674
0.3121996819972992,-0.2041388750076294,78.14305114746094,0.438589078305651,-1.4074144662930894,0.6657393652014433,0.02247913881825926
1.2885342836380005,1.8161256313323975,78.16093444824219,0.44979589647328866,-1.406927870454707,0.6790788149150708,0.03591236178763233
-0.29883694648742676,0.40130239725112915,78.29743957519531,0.46118260570361974,-1.4061753430340393,0.687326292724659,0.05439092869249505
0.06996489316225052,1.421373724937439,78.39118957519531,0.47262215002310537,-1.4051422528251236,0.6854190256136158,0.06957989637739978
0.8327573537826538,-0.3254320025444031,78.43605041503906,0.47262215002310537,-1.4051422528251236,0.6854190256136158,0.06957989637739978
0.5212520956993103,0.15375691652297974,78.45269012451172,0.48413982888399076,-1.4039945097664739,0.6967024376926322,0.06814927066055458
0,-0.9365624189376831,78.4403076171875,0.4957877342410693,-1.4029130500820213,0.7010462051567931,0.06162589147376539
-0.4254726767539978,-1.1871000528335571,78.47722625732422,0.5074422909466857,-1.4020334284513316,0.6975005995171764,0.043928704209005055
-1.0846079587936401,0.16053171455860138,78.4251708984375,0.5189624342278367,-1.4013725728491173,0.6849165942209461,0.03537396805671376
0.37197715044021606,0.8540946245193481,78.51136016845703,0.5303282225476057,-1.4007125465524028,0.6789780041513342,0.04382918754903001
0.434047132730484,0.9414294362068176,78.5984878540039,0.5417004965253481,-1.3998573709223685,0.6856948731777568,0.05879188805508139
-1.1721669435501099,2.350599527359009,78.73473358154297,0.5530774860914482,-1.3986488929989807,0.6795438747542599,0.08622546275146328
1.4525514841079712,0.32762983441352844,78.72789764404297,0.5644226884860024,-1.3970258138029998,0.6818804125922421,0.10854404076623443
1.4079970121383667,1.3253439664840698,78.78638458251953,0.5759860112303347,-1.3951019566096114,0.7057183167276282,0.12231882244038109
-0.43919119238853455,-0.6386815905570984,78.87075805664062,0.5759860112303347,-1.3951019566096114,0.7057183167276282,0.12231882244038109
-0.6472505331039429,0.4426722228527069,78.97830963134766,0.5759860112303347,-1.3951019566096114,0.7057183167276282,0.12231882244038109
1.0722755193710327,-0.4344058930873871,79.07129669189453,0.5759860112303347,-1.3951019566096114,0.7057183167276282,0.12231882244038109
-0.41084757447242737,-1.3668773174285889,79.22298431396484,0.5759860112303347,-1.3951019566096114,0.7057183167276282,0.12231882244038109
-0.5152679681777954,-3.7889742851257324,79.35193634033203,0.5759860112303347,-1.3951019566096114,0.7057183167276282,0.12231882244038109
-0.51948481798172,-1.3514455556869507,79.6297607421875,0.5759860112303347,-1.3951019566096114,0.7057183167276282,0.12231882244038109
-0.3010643720626831,-0.49240708351135254,80.18341827392578,0.5759860112303347,-1.3951019566096114,0.7057183167276282,0.12231882244038109
-0.098448246717453,0.6711466908454895,81.16956329345703,0.5759860112303347,-1.3951019566096114,0.7057183167276282,0.12231882244038109
-1.190315842628479,-1.5974782705307007,82.34262084960938,0.5759860112303347,-1.3951019566096114,0.7057183167276282,0.12231882244038109
-0.002652913797646761,-0.47224676609039307,83.61737823486328,0.5759860112303347,-1.3951019566096114,0.7057183167276282,0.12231882244038109
-1.097664475440979,-0.9585831165313721,84.97056579589844,0.5759860112303347,-1.3951019566096114,0.7057183167276282,0.12231882244038109
0.678901731967926,-0.9473479390144348,86.455078125,0.5759860112303347,-1.3951019566096114,0.7057183167276282,0.12231882244038109
-1.108501672744751,0.2633303701877594,87.99360656738281,0.5759860112303347,-1.3951019566096114,0.7057183167276282,0.12231882244038109
0.5059540271759033,-1.0639450550079346,89.60208129882812,0.5759860112303347,-1.3951019566096114,0.7057183167276282,0.12231882244038109
-1.086361050605774,-0.09638381004333496,91.22211456298828,0.5759860112303347,-1.3951019566096114,0.7057183167276282,0.12231882244038109
-0.11462394148111343,-0.6860314011573792,92.86067199707031,0.5759860112303347,-1.3951019566096114,0.7057183167276282,0.12231882244038109
-2.3973801136016846,0.7055383324623108,94.49309539794922,0.5759860112303347,-1.3951019566096114,0.7057183167276282,0.12231882244038109
0.9432509541511536,-0.5074338316917419,96.09996032714844,0.5759860112303347,-1.3951019566096114,0.7057183167276282,0.12231882244038109
-0.727694034576416,0.03876202180981636,97.76578521728516,0.5759860112303347,-1.3951019566096114,0.7057183167276282,0.12231882244038109
-0.5907709002494812,-0.5846503376960754,99.3995361328125,0.5759860112303347,-1.3951019566096114,0.7057183167276282,0.12231882244038109
-1.389776349067688,0.17744065821170807,101.06494140625,0.5759860112303347,-1.3951019566096114,0.7057183167276282,0.12231882244038109
0.7902924418449402,-0.23040521144866943,102.76985168457031,0.5759860112303347,-1.3951019566096114,0.7057183167276282,0.12231882244038109
0.5526750087738037,-0.5587356686592102,104.49512481689453,0.5759860112303347,-1.3951019566096114,0.7057183167276282,0.12231882244038109
-1.2488551139831543,0.022439520806074142,106.24211120605469,0.5759860112303347,-1.3951019566096114,0.7057183167276282,0.12231882244038109
-0.45784732699394226,-0.7678537368774414,107.96623229980469,0.5759860112303347,-1.3951019566096114,0.7057183167276282,0.12231882244038109
-0.09678775072097778,0.04556829109787941,109.7108154296875,0.5759860112303347,-1.3951019566096114,0.7057183167276282,0.12231882244038109
-0.25987347960472107,0.02852519229054451,111.53948974609375,0.5759860112303347,-1.3951019566096114,0.7057183167276282,0.12231882244038109
0.3341429829597473,0.25050872564315796,113.37461853027344,0.5759860112303347,-1.3951019566096114,0.7057183167276282,0.12231882244038109
-0.5849239826202393,0.12211056053638458,115.25096130371094,0.5759860112303347,-1.3951019566096114,0.7057183167276282,0.12231882244038109
-0.9689071178436279,-0.7484968900680542,117.10208892822266,0.5759860112303347,-1.3951019566096114,0.7057183167276282,0.12231882244038109
1.0587034225463867,-0.19785891473293304,118.93804931640625,0.5759860112303347,-1.3951019566096114,0.7057183167276282,0.12231882244038109
-1.519866704940796,-0.09517795592546463,120.77684020996094,0.5759860112303347,-1.3951019566096114,0.7057183167276282,0.12231882244038109
1.0121381282806396,-0.6554921269416809,122.51563262939453,0.5759860112303347,-1.3951019566096114,0.7057183167276282,0.12231882244038109
-1.0865154266357422,0.37380966544151306,124.32003021240234,0.5759860112303347,-1.3951019566096114,0.7057183167276282,0.12231882244038109
0.289170503616333,-0.5148515105247498,126.14471435546875,0.5759860112303347,-1.3951019566096114,0.7057183167276282,0.12231882244038109
-1.462742567062378,-0.19423359632492065,127.92510223388672,0.5759860112303347,-1.3951019566096114,0.7057183167276282,0.12231882244038109
1.167903184890747,0.10600322484970093,129.7604217529297,0.5759860112303347,-1.3951019566096114,0.7057183167276282,0.12231882244038109
-0.46401160955429077,-0.1905151754617691,131.5755615234375,0.5759860112303347,-1.3951019566096114,0.7057183167276282,0.12231882244038109
0.6075833439826965,-0.027777211740612984,133.37936401367188,0.5759860112303347,-1.3951019566096114,0.7057183167276282,0.12231882244038109
-1.4397903680801392,0.17081694304943085,135.2626953125,0.5759860112303347,-1.3951019566096114,0.7057183167276282,0.12231882244038109
1.2654966115951538,-0.40623557567596436,137.1563262939453,0.5759860112303347,-1.3951019566096114,0.7057183167276282,0.12231882244038109
-0.499528169631958,-0.7381312847137451,139.02096557617188,0.5759860112303347,-1.3951019566096114,0.7057183167276282,0.12231882244038109
0.5500805377960205,0.0004866086528636515,140.82437133789062,0.5759860112303347,-1.3951019566096114,0.7057183167276282,0.12231882244038109
-0.5631060004234314,-0.28675153851509094,142.65003967285156,0.5759860112303347,-1.3951019566096114,0.7057183167276282,0.12231882244038109
-0.48167410492897034,-0.13902196288108826,144.4700927734375,0.5759860112303347,-1.3951019566096114,0.7057183167276282,0.12231882244038109
1.9343289136886597,0.11712857335805893,146.1966552734375,0.5759860112303347,-1.3951019566096114,0.7057183167276282,0.12231882244038109
0.334928959608078,0.34261202812194824,147.77403259277344,0.5759860112303347,-1.3951019566096114,0.7057183167276282,0.12231882244038109
0.22819338738918304,-0.008733014576137066,149.32481384277344,0.5759860112303347,-1.3951019566096114,0.7057183167276282,0.12231882244038109
-0.8413918614387512,-0.30238163471221924,150.83799743652344,0.5759860112303347,-1.3951019566096114,0.7057183167276282,0.12231882244038109
1.2260457277297974,-0.030720626935362816,152.30783081054688,0.5759860112303347,-1.3951019566096114,0.7057183167276282,0.12231882244038109
0.12571251392364502,0.5633941888809204,153.81858825683594,0.5759860112303347,-1.3951019566096114,0.7057183167276282,0.12231882244038109
0.2920590341091156,-0.3060326874256134,155.20469665527344,0.5759860112303347,-1.3951019566096114,0.7057183167276282,0.12231882244038109
1.1025086641311646,-0.1628498136997223,156.2089080810547,0.5759860112303347,-1.3951019566096114,0.7057183167276282,0.12231882244038109
1.1230684518814087,0.4483383595943451,156.98501586914062,0.5759860112303347,-1.3951019566096114,0.7057183167276282,0.12231882244038109
1.9476042985916138,0.511455237865448,157.52650451660156,0.5759860112303347,-1.3951019566096114,0.7057183167276282,0.12231882244038109
1.3423399925231934,-0.09961435943841934,157.92027282714844,0.5759860112303347,-1.3951019566096114,0.7057183167276282,0.12231882244038109
1.3471802473068237,-0.19288769364356995,158.130615234375,0.5759860112303347,-1.3951019566096114,0.7057183167276282,0.12231882244038109
1.0148893594741821,0.5532878637313843,158.22283935546875,0.5759860112303347,-1.3951019566096114,0.7057183167276282,0.12231882244038109
1.0396536588668823,-0.3118204176425934,158.24105834960938,0.5759860112303347,-1.3951019566096114,0.7057183167276282,0.12231882244038109
0.6308201551437378,0.031078623607754707,158.23435974121094,0.5759860112303347,-1.3951019566096114,0.7057183167276282,0.12231882244038109
0.013668657280504704,0.10879704356193542,158.19979858398438,0.5759860112303347,-1.3951019566096114,0.7057183167276282,0.12231882244038109
-0.6565576791763306,0.35534223914146423,158.19992065429688,0.5759860112303347,-1.3951019566096114,0.7057183167276282,0.12231882244038109
-0.7340994477272034,0.5077938437461853,158.21116638183594,0.5759860112303347,-1.3951019566096114,0.7057183167276282,0.12231882244038109
0.2958138883113861,-0.1112123429775238,158.2139129638672,0.5759860112303347,-1.3951019566096114,0.7057183167276282,0.12231882244038109
0.5092823505401611,0.09520091861486435,158.21543884277344,0.5759860112303347,-1.3951019566096114,0.7057183167276282,0.12231882244038109
-0.010107533074915409,0.10955251008272171,158.20928955078125,0.5759860112303347,-1.3951019566096114,0.7057183167276282,0.12231882244038109
-0.33251190185546875,0.30689212679862976,158.21189880371094,0.5759860112303347,-1.3951019566096114,0.7057183167276282,0.12231882244038109
-0.19040876626968384,0.149774968624115,158.21218872070312,0.5759860112303347,-1.3951019566096114,0.7057183167276282,0.12231882244038109
0.1416747123003006,0.12243440747261047,158.21414184570312,0.5759860112303347,-1.3951019566096114,0.7057183167276282,0.12231882244038109
0.19065158069133759,0.10291745513677597,158.2145233154297,0.5759860112303347,-1.3951019566096114,0.7057183167276282,0.12231882244038109
-0.0817454382777214,0.1815132051706314,158.21310424804688,0.5759860112303347,-1.3951019566096114,0.7057183167276282,0.12231882244038109
-0.21689918637275696,0.21122890710830688,158.21044921875,0.5759860112303347,-1.3951019566096114,0.7057183167276282,0.12231882244038109
-0.01755240000784397,0.16712863743305206,158.21299743652344,0.5759860112303347,-1.3951019566096114,0.7057183167276282,0.12231882244038109
0.15068766474723816,0.10207042098045349,158.21237182617188,0.5759860112303347,-1.3951019566096114,0.7057183167276282,0.12231882244038109
0.010334465652704239,0.14583861827850342,158.21231079101562,0.5759860112303347,-1.3951019566096114,0.7057183167276282,0.12231882244038109
-0.14587022364139557,0.1978997439146042,158.2106475830078,0.5759860112303347,-1.3951019566096114,0.7057183167276282,0.12231882244038109
-0.07519477605819702,0.15918728709220886,158.21153259277344,0.5759860112303347,-1.3951019566096114,0.7057183167276282,0.12231882244038109
0.04427340254187584,0.11417675018310547,158.21131896972656,0.5759860112303347,-1.3951019566096114,0.7057183167276282,0.12231882244038109
0.030085409060120583,0.1309024840593338,158.21092224121094,0.5759860112303347,-1.3951019566096114,0.7057183167276282,0.12231882244038109
-0.0678308829665184,0.16233624517917633,158.2108917236328,0.5877453619623294,-1.393042945768297,0.7054037711117416,0.12476247851736867
-0.09520406275987625,0.16700279712677002,158.21006774902344,0.5994907696096274,-1.390940700359514,0.7040451465640216,0.12750697053658488
-0.6974695324897766,0.4811168909072876,158.17916870117188,0.6111698086082465,-1.3887705758722353,0.6974395332702745,0.1329079679368687
-2.5081021785736084,0.3520042896270752,158.23306274414062,0.6225711916828162,-1.3864975874357504,0.6707264356780797,0.13985064444132173
-1.8044389486312866,1.4986954927444458,158.22914123535156,0.6334504835880616,-1.3840382225435082,0.6347885929513722,0.15527314262775108
-2.146437644958496,1.5757256746292114,158.07603454589844,0.643755927040474,-1.381236835363089,0.601864621338124,0.18089331902253156
-1.2453283071517944,0,158.09115600585938,0.6535514647605462,-1.378112521318642,0.5735999050705383,0.1940243663111083
-1.834334373474121,0.11676082760095596,158.11239624023438,0.6628975977144561,-1.374870673489318,0.5479360493986556,0.19499737320778293
-0.4448533356189728,1.1212319135665894,158.10464477539062,0.6718715882801911,-1.3715347455510516,0.5289428184895465,0.20531397938417914
-1.7605922222137451,0.6963234543800354,158.1073455810547,0.6805341459801674,-1.3679866267718745,0.5105641055076072,0.22046027411706767
-0.9228780269622803,-0.1665896624326706,158.0315399169922,0.6805341459801674,-1.3679866267718745,0.5105641055076072,0.22046027411706767
-0.28904104232788086,0.7687821984291077,158.042724609375,0.688959386692149,-1.3642704699438126,0.5004647799301892,0.2254785452503713
1.0085643529891968,0.2832409143447876,158.1012725830078,0.6973504332542259,-1.3604394370290305,0.5064608075190336,0.2342454045234871
1.9049919843673706,-0.3781203329563141,158.1045684814453,0.7059937770140817,-1.3565419358021538,0.5307404436636716,0.2334547427017244
-0.2121749371290207,-0.11683713644742966,158.12718200683594,0.7149570078145344,-1.352685395470278,0.5448472523906578,0.22933009712335986
-1.4150434732437134,0.5102322697639465,158.1399688720703,0.7239247940758806,-1.3488359080784083,0.531287098970885,0.2326083899009975
-2.2068042755126953,1.498794674873352,158.29965209960938,0.7325280618539539,-1.344819585820014,0.5011050343979149,0.24935028110630833
-2.6417245864868164,0.8264049887657166,158.4080047607422,0.7405431090340581,-1.3405022756027118,0.4607006272145856,0.26872694496996724
0.26975947618484497,0.24156755208969116,158.45089721679688,0.7480567330216413,-1.335949328426764,0.44093425129540254,0.27762671614376233
-1.4865435361862183,-1.1171131134033203,158.5480194091797,0.7553211383168423,-1.331383018266126,0.43079438412872445,0.2703305031328154
-0.8195521831512451,1.2774302959442139,158.76434326171875,0.7623408991829227,-1.3268663767429025,0.41157691980091227,0.27166647965398955
-0.5531184077262878,0.6893742680549622,158.9869384765625,0.7691051901663492,-1.322202018431725,0.40013799821026613,0.288056517687316
-0.4260985255241394,0.5417463183403015,159.11154174804688,0.7757061556272667,-1.3173155819851032,0.3919778570998459,0.29831585590727655
-0.7250263690948486,-0.25517603754997253,159.0589599609375,0.7757061556272667,-1.3173155819851032,0.3919778570998459,0.29831585590727655
-1.6232882738113403,-0.2611902058124542,158.9566192626953,0.7757061556272667,-1.3173155819851032,0.3919778570998459,0.29831585590727655
-0.12191154807806015,1.6465339660644531,158.95948791503906,0.7757061556272667,-1.3173155819851032,0.3919778570998459,0.29831585590727655
0.5026840567588806,-0.675102949142456,159.01747131347656,0.7757061556272667,-1.3173155819851032,0.3919778570998459,0.29831585590727655
2.072364091873169,-0.15848776698112488,158.85572814941406,0.7757061556272667,-1.3173155819851032,0.3919778570998459,0.29831585590727655
1.7826817035675049,-1.0390710830688477,158.64395141601562,0.7757061556272667,-1.3173155819851032,0.3919778570998459,0.29831585590727655
1.2238901853561401,0.07925008237361908,158.654052734375,0.7757061556272667,-1.3173155819851032,0.3919778570998459,0.29831585590727655
1.3186649084091187,-0.030434921383857727,158.68618774414062,0.7757061556272667,-1.3173155819851032,0.3919778570998459,0.29831585590727655
1.1065365076065063,-1.0125741958618164,158.65692138671875,0.7757061556272667,-1.3173155819851032,0.3919778570998459,0.29831585590727655
1.0932286977767944,0.004707224667072296,158.57655334472656,0.7757061556272667,-1.3173155819851032,0.3919778570998459,0.29831585590727655
1.0863664150238037,-0.277627557516098,158.55526733398438,0.7757061556272667,-1.3173155819851032,0.3919778570998459,0.29831585590727655
1.2084448337554932,0.3043956756591797,158.49050903320312,0.7757061556272667,-1.3173155819851032,0.3919778570998459,0.29831585590727655
1.0517865419387817,-0.5339475274085999,158.49659729003906,0.7757061556272667,-1.3173155819851032,0.3919778570998459,0.29831585590727655
-0.33879926800727844,-0.9858096837997437,158.5457000732422,0.7757061556272667,-1.3173155819851032,0.3919778570998459,0.29831585590727655
0.8744822144508362,0.9964230060577393,158.54843139648438,0.7757061556272667,-1.3173155819851032,0.3919778570998459,0.29831585590727655
1.3242346048355103,-0.8513962030410767,158.5435791015625,0.7757061556272667,-1.3173155819851032,0.3919778570998459,0.29831585590727655
1.6431059837341309,-0.16000059247016907,158.51902770996094,0.7757061556272667,-1.3173155819851032,0.3919778570998459,0.29831585590727655
1.0185937881469727,0.2213207185268402,158.46591186523438,0.7757061556272667,-1.3173155819851032,0.3919778570998459,0.29831585590727655
0.636127233505249,-0.3629848062992096,158.41763305664062,0.7757061556272667,-1.3173155819851032,0.3919778570998459,0.29831585590727655
0.9091672301292419,-0.3352208137512207,158.3393096923828,0.7757061556272667,-1.3173155819851032,0.3919778570998459,0.29831585590727655
1.192868947982788,-0.3010231554508209,158.31419372558594,0.7757061556272667,-1.3173155819851032,0.3919778570998459,0.29831585590727655
0.8300348520278931,-0.2640138864517212,158.32241821289062,0.7757061556272667,-1.3173155819851032,0.3919778570998459,0.29831585590727655
0.947120189666748,-0.13730648159980774,158.33712768554688,0.7757061556272667,-1.3173155819851032,0.3919778570998459,0.29831585590727655
0.5769896507263184,-0.1616087704896927,158.32199096679688,0.7757061556272667,-1.3173155819851032,0.3919778570998459,0.29831585590727655
0.22012457251548767,0.11767420917749405,158.32626342773438,0.7757061556272667,-1.3173155819851032,0.3919778570998459,0.29831585590727655
-0.22945843636989594,0.14293712377548218,158.3492431640625,0.7757061556272667,-1.3173155819851032,0.3919778570998459,0.29831585590727655
-0.05354108661413193,0.20685389637947083,158.34243774414062,0.7757061556272667,-1.3173155819851032,0.3919778570998459,0.29831585590727655
-0.1985856294631958,0.14509090781211853,158.33859252929688,0.7757061556272667,-1.3173155819851032,0.3919778570998459,0.29831585590727655
-0.1283951848745346,0.20398597419261932,158.3489990234375,0.7757061556272667,-1.3173155819851032,0.3919778570998459,0.29831585590727655
-0.17550483345985413,0.16028231382369995,158.34454345703125,0.7757061556272667,-1.3173155819851032,0.3919778570998459,0.29831585590727655
-0.1632515788078308,0.16856911778450012,158.34625244140625,0.7757061556272667,-1.3173155819851032,0.3919778570998459,0.29831585590727655
-0.08151739835739136,0.17805293202400208,158.34962463378906,0.7757061556272667,-1.3173155819851032,0.3919778570998459,0.29831585590727655
-0.016696913167834282,0.09276480227708817,158.34706115722656,0.7757061556272667,-1.3173155819851032,0.3919778570998459,0.29831585590727655
0.04415643587708473,0.11950002610683441,158.347900390625,0.7757061556272667,-1.3173155819851032,0.3919778570998459,0.29831585590727655
-0.010941516607999802,0.10728191584348679,158.34661865234375,0.7757061556272667,-1.3173155819851032,0.3919778570998459,0.29831585590727655
-0.03937448561191559,0.15599273145198822,158.34561157226562,0.7757061556272667,-1.3173155819851032,0.3919778570998459,0.29831585590727655
-0.06790092587471008,0.13038088381290436,158.34800720214844,0.7757061556272667,-1.3173155819851032,0.3919778570998459,0.29831585590727655
-0.06528903543949127,0.13326376676559448,158.3463897705078,0.7757061556272667,-1.3173155819851032,0.3919778570998459,0.29831585590727655
-0.024666568264365196,0.131064310669899,158.34808349609375,0.7757061556272667,-1.3173155819851032,0.3919778570998459,0.29831585590727655
-0.007937435060739517,0.11811994761228561,158.34971618652344,0.7757061556272667,-1.3173155819851032,0.3919778570998459,0.29831585590727655
-0.01821862906217575,0.11934794485569,158.34803771972656,0.7757061556272667,-1.3173155819851032,0.3919778570998459,0.29831585590727655
-0.053645774722099304,0.1299346387386322,158.3482666015625,0.7757061556272667,-1.3173155819851032,0.3919778570998459,0.29831585590727655
-0.04709414020180702,0.12707501649856567,158.34857177734375,0.7757061556272667,-1.3173155819851032,0.3919778570998459,0.29831585590727655
-0.050436895340681076,0.13390088081359863,158.34884643554688,0.7757061556272667,-1.3173155819851032,0.3919778570998459,0.29831585590727655
-0.03165663778781891,0.11738379299640656,158.34815979003906,0.7757061556272667,-1.3173155819851032,0.3919778570998459,0.29831585590727655
-0.03288104012608528,0.1253993958234787,158.34689331054688,0.7757061556272667,-1.3173155819851032,0.3919778570998459,0.29831585590727655
-0.047328099608421326,0.12074604630470276,158.346923828125,0.7757061556272667,-1.3173155819851032,0.3919778570998459,0.29831585590727655
-0.0462038554251194,0.12600181996822357,158.34619140625,0.7757061556272667,-1.3173155819851032,0.3919778570998459,0.29831585590727655
-0.04970954731106758,0.12393742799758911,158.3472442626953,0.7757061556272667,-1.3173155819851032,0.3919778570998459,0.29831585590727655
-0.042718563228845596,0.11841230094432831,158.3468017578125,0.7757061556272667,-1.3173155819851032,0.3919778570998459,0.29831585590727655
-0.030852554365992546,0.1195315420627594,158.3464813232422,0.7757061556272667,-1.3173155819851032,0.3919778570998459,0.29831585590727655
-0.03924895077943802,0.12027211487293243,158.34649658203125,0.7757061556272667,-1.3173155819851032,0.3919778570998459,0.29831585590727655
-0.025511259213089943,0.12408929318189621,158.3468780517578,0.7757061556272667,-1.3173155819851032,0.3919778570998459,0.29831585590727655
-0.041796114295721054,0.12417194992303848,158.34681701660156,0.7757061556272667,-1.3173155819851032,0.3919778570998459,0.29831585590727655
-0.04340004920959473,0.12269295006990433,158.346435546875,0.7757061556272667,-1.3173155819851032,0.3919778570998459,0.29831585590727655
-0.04046637564897537,0.11642903834581375,158.34677124023438,0.7757061556272667,-1.3173155819851032,0.3919778570998459,0.29831585590727655
-0.040673136711120605,0.12010049819946289,158.34693908691406,0.7757061556272667,-1.3173155819851032,0.3919778570998459,0.29831585590727655
-0.0398968905210495,0.1259135752916336,158.34730529785156,0.7757061556272667,-1.3173155819851032,0.3919778570998459,0.29831585590727655
-0.03982727229595184,0.12662416696548462,158.34690856933594,0.7757061556272667,-1.3173155819851032,0.3919778570998459,0.29831585590727655
-0.04395526275038719,0.13682284951210022,158.34669494628906,0.7757061556272667,-1.3173155819851032,0.3919778570998459,0.29831585590727655
-0.03535022214055061,0.1264001876115799,158.3472137451172,0.7757061556272667,-1.3173155819851032,0.3919778570998459,0.29831585590727655
-0.04087892174720764,0.12888701260089874,158.3467559814453,0.7757061556272667,-1.3173155819851032,0.3919778570998459,0.29831585590727655
-0.04466083645820618,0.1133209764957428,158.34669494628906,0.7757061556272667,-1.3173155819851032,0.3919778570998459,0.29831585590727655
-0.049993567168712616,0.12800319492816925,158.34652709960938,0.7757061556272667,-1.3173155819851032,0.3919778570998459,0.29831585590727655
-0.04129444807767868,0.12507358193397522,158.3444061279297,0.7757061556272667,-1.3173155819851032,0.3919778570998459,0.29831585590727655
-0.04367821291089058,0.11912430077791214,158.3438720703125,0.7757061556272667,-1.3173155819851032,0.3919778570998459,0.29831585590727655
-0.04155920818448067,0.12258400768041611,158.3448944091797,0.7757061556272667,-1.3173155819851032,0.3919778570998459,0.29831585590727655
-0.03513776883482933,0.11551127582788467,158.34506225585938,0.7757061556272667,-1.3173155819851032,0.3919778570998459,0.29831585590727655
-0.042279817163944244,0.12101520597934723,158.34512329101562,0.7757061556272667,-1.3173155819851032,0.3919778570998459,0.29831585590727655
-0.043737076222896576,0.11998724192380905,158.34544372558594,0.7757061556272667,-1.3173155819851032,0.3919778570998459,0.29831585590727655
-0.0432669036090374,0.11644764989614487,158.34490966796875,0.7757061556272667,-1.3173155819851032,0.3919778570998459,0.29831585590727655
-0.05425209179520607,0.12039783596992493,158.34503173828125,0.7757061556272667,-1.3173155819851032,0.3919778570998459,0.29831585590727655
-0.05036638677120209,0.11625269055366516,158.3439178466797,0.7757061556272667,-1.3173155819851032,0.3919778570998459,0.29831585590727655
-0.06082747131586075,0.10979534685611725,158.3439178466797,0.7757061556272667,-1.3173155819851032,0.3919778570998459,0.29831585590727655
-0.04646988585591316,0.13723598420619965,158.34396362304688,0.7757061556272667,-1.3173155819851032,0.3919778570998459,0.29831585590727655
-0.038470715284347534,0.12951816618442535,158.3427276611328,0.7757061556272667,-1.3173155819851032,0.3919778570998459,0.29831585590727655
-0.04410938918590546,0.12457479536533356,158.34381103515625,0.7757061556272667,-1.3173155819851032,0.3919778570998459,0.29831585590727655
-0.04660093039274216,0.11838731169700623,158.34376525878906,0.7757061556272667,-1.3173155819851032,0.3919778570998459,0.29831585590727655
-0.044159647077322006,0.11241132020950317,158.34352111816406,0.7757061556272667,-1.3173155819851032,0.3919778570998459,0.29831585590727655
-0.046914905309677124,0.1269058883190155,158.34332275390625,0.7757061556272667,-1.3173155819851032,0.3919778570998459,0.29831585590727655
-0.0416821613907814,0.11377480626106262,158.3430633544922,0.7757061556272667,-1.3173155819851032,0.3919778570998459,0.29831585590727655
-0.04980744794011116,0.1133117750287056,158.34405517578125,0.7757061556272667,-1.3173155819851032,0.3919778570998459,0.29831585590727655
-0.03229973837733269,0.10659932345151901,158.3434295654297,0.7757061556272667,-1.3173155819851032,0.3919778570998459,0.29831585590727655
-0.049874696880578995,0.09683869034051895,158.34324645996094,0.7757061556272667,-1.3173155819851032,0.3919778570998459,0.29831585590727655
-0.054407548159360886,0.102681003510952,158.3429718017578,0.7757061556272667,-1.3173155819851032,0.3919778570998459,0.29831585590727655
-0.05199497938156128,0.11789398640394211,158.34243774414062,0.7757061556272667,-1.3173155819851032,0.3919778570998459,0.29831585590727655
-0.04306386783719063,0.11685170978307724,158.34237670898438,0.7757061556272667,-1.3173155819851032,0.3919778570998459,0.29831585590727655
-0.0291022639721632,0.11637400835752487,158.3429412841797,0.7757061556272667,-1.3173155819851032,0.3919778570998459,0.29831585590727655
-0.050899848341941833,0.1066882312297821,158.3429718017578,0.7757061556272667,-1.3173155819851032,0.3919778570998459,0.29831585590727655
-0.045472897589206696,0.10646993666887283,158.3426055908203,0.7757061556272667,-1.3173155819851032,0.3919778570998459,0.29831585590727655
-0.048422086983919144,0.11070429533720016,158.3425750732422,0.7757061556272667,-1.3173155819851032,0.3919778570998459,0.29831585590727655
-0.04844314232468605,0.1158851757645607,158.34327697753906,0.7757061556272667,-1.3173155819851032,0.3919778570998459,0.29831585590727655
-0.045331891626119614,0.10190778970718384,158.34300231933594,0.7757061556272667,-1.3173155819851032,0.3919778570998459,0.29831585590727655
-0.046779077500104904,0.11911026388406754,158.34207153320312,0.7757061556272667,-1.3173155819851032,0.3919778570998459,0.29831585590727655
-0.039907440543174744,0.10710231214761734,158.3426513671875,0.7757061556272667,-1.3173155819851032,0.3919778570998459,0.29831585590727655
-0.05816846713423729,0.12073516100645065,158.3426055908203,0.7757061556272667,-1.3173155819851032,0.3919778570998459,0.29831585590727655
-0.032347679138183594,0.11624760925769806,158.34283447265625,0.7757061556272667,-1.3173155819851032,0.3919778570998459,0.29831585590727655
-0.049826864153146744,0.09708705544471741,158.3422088623047,0.7757061556272667,-1.3173155819851032,0.3919778570998459,0.29831585590727655
-0.05156850442290306,0.11336861550807953,158.34263610839844,0.7757061556272667,-1.3173155819851032,0.3919778570998459,0.29831585590727655
-0.04055945947766304,0.1141197606921196,158.3426513671875,0.7757061556272667,-1.3173155819851032,0.3919778570998459,0.29831585590727655
-0.0393153540790081,0.11115244776010513,158.34307861328125,0.7757061556272667,-1.3173155819851032,0.3919778570998459,0.29831585590727655
-0.043930359184741974,0.11959291249513626,158.3426971435547,0.7757061556272667,-1.3173155819851032,0.3919778570998459,0.29831585590727655
-0.0421639010310173,0.10223131626844406,158.34274291992188,0.7757061556272667,-1.3173155819851032,0.3919778570998459,0.29831585590727655
-0.04796361178159714,0.11334288865327835,158.34307861328125,0.7757061556272667,-1.3173155819851032,0.3919778570998459,0.29831585590727655
-0.061335958540439606,0.11260083317756653,158.34259033203125,0.7757061556272667,-1.3173155819851032,0.3919778570998459,0.29831585590727655
-0.05410652607679367,0.10219397395849228,158.34304809570312,0.7757061556272667,-1.3173155819851032,0.3919778570998459,0.29831585590727655
-0.04434332624077797,0.11029141396284103,158.3434600830078,0.7757061556272667,-1.3173155819851032,0.3919778570998459,0.29831585590727655
-0.055340152233839035,0.11715688556432724,158.34454345703125,0.7757061556272667,-1.3173155819851032,0.3919778570998459,0.29831585590727655
-0.053825367242097855,0.11343100666999817,158.34429931640625,0.7757061556272667,-1.3173155819851032,0.3919778570998459,0.29831585590727655
-0.051489993929862976,0.10643903911113739,158.3446044921875,0.7757061556272667,-1.3173155819851032,0.3919778570998459,0.29831585590727655
-0.04427162557840347,0.1024228185415268,158.34519958496094,0.7757061556272667,-1.3173155819851032,0.3919778570998459,0.29831585590727655
-0.04572640731930733,0.09672116488218307,158.34628295898438,0.7757061556272667,-1.3173155819851032,0.3919778570998459,0.29831585590727655
-0.04737813398241997,0.09506279975175858,158.34634399414062,0.7757061556272667,-1.3173155819851032,0.3919778570998459,0.29831585590727655
-0.05355776101350784,0.09256710857152939,158.3462677001953,0.7757061556272667,-1.3173155819851032,0.3919778570998459,0.29831585590727655
-0.04212662950158119,0.10326272249221802,158.3472137451172,0.7757061556272667,-1.3173155819851032,0.3919778570998459,0.29831585590727655
-0.05422099679708481,0.09798399358987808,158.3464813232422,0.7757061556272667,-1.3173155819851032,0.3919778570998459,0.29831585590727655
-0.052667759358882904,0.10117466747760773,158.34649658203125,0.7757061556272667,-1.3173155819851032,0.3919778570998459,0.29831585590727655
-0.05243649706244469,0.10736703127622604,158.3455810546875,0.7757061556272667,-1.3173155819851032,0.3919778570998459,0.29831585590727655
-0.049396347254514694,0.11188016086816788,158.3456573486328,0.7757061556272667,-1.3173155819851032,0.3919778570998459,0.29831585590727655
-0.06069283187389374,0.10122530162334442,158.34559631347656,0.7757061556272667,-1.3173155819851032,0.3919778570998459,0.29831585590727655
-0.046754784882068634,0.10550541430711746,158.3462371826172,0.7757061556272667,-1.3173155819851032,0.3919778570998459,0.29831585590727655
-0.05513238161802292,0.09425137937068939,158.34661865234375,0.7757061556272667,-1.3173155819851032,0.3919778570998459,0.29831585590727655
-0.04952459782361984,0.09629196673631668,158.3466796875,0.7757061556272667,-1.3173155819851032,0.3919778570998459,0.29831585590727655
-0.05340663716197014,0.09321840852499008,158.34658813476562,0.7757061556272667,-1.3173155819851032,0.3919778570998459,0.29831585590727655
-0.05050826072692871,0.0937599390745163,158.34669494628906,0.7757061556272667,-1.3173155819851032,0.3919778570998459,0.29831585590727655
-0.04883239045739174,0.10739638656377792,158.3466033935547,0.7757061556272667,-1.3173155819851032,0.3919778570998459,0.29831585590727655
-0.048349808901548386,0.09426603466272354,158.34567260742188,0.7757061556272667,-1.3173155819851032,0.3919778570998459,0.29831585590727655
-0.0418408140540123,0.09477297216653824,158.34632873535156,0.7757061556272667,-1.3173155819851032,0.3919778570998459,0.29831585590727655
-0.04950561746954918,0.08842495828866959,158.3460235595703,0.7757061556272667,-1.3173155819851032,0.3919778570998459,0.29831585590727655
-0.05143815279006958,0.0916680097579956,158.34710693359375,0.7757061556272667,-1.3173155819851032,0.3919778570998459,0.29831585590727655
-0.05868295580148697,0.09579353034496307,158.34597778320312,0.7757061556272667,-1.3173155819851032,0.3919778570998459,0.29831585590727655
-0.06200452521443367,0.09241324663162231,158.34544372558594,0.7757061556272667,-1.3173155819851032,0.3919778570998459,0.29831585590727655
-0.0631822794675827,0.10245992243289948,158.34494018554688,0.7757061556272667,-1.3173155819851032,0.3919778570998459,0.29831585590727655
-0.05569329485297203,0.0939200222492218,158.3448944091797,0.7757061556272667,-1.3173155819851032,0.3919778570998459,0.29831585590727655
-0.0641057938337326,0.08855578303337097,158.34506225585938,0.7757061556272667,-1.3173155819851032,0.3919778570998459,0.29831585590727655
-0.052401136606931686,0.08783018589019775,158.3455352783203,0.7757061556272667,-1.3173155819851032,0.3919778570998459,0.29831585590727655
-0.05586893856525421,0.09044463187456131,158.34548950195312,0.7757061556272667,-1.3173155819851032,0.3919778570998459,0.29831585590727655
-0.0399467907845974,0.08122959733009338,158.34585571289062,0.7757061556272667,-1.3173155819851032,0.3919778570998459,0.29831585590727655
-0.041202813386917114,0.08997432142496109,158.34481811523438,0.7757061556272667,-1.3173155819851032,0.3919778570998459,0.29831585590727655
-0.05521412566304207,0.08831430971622467,158.344482421875,0.7757061556272667,-1.3173155819851032,0.3919778570998459,0.29831585590727655
-0.05050908401608467,0.08681922405958176,158.34335327148438,0.7757061556272667,-1.3173155819851032,0.3919778570998459,0.29831585590727655
-0.06442868709564209,0.07973737269639969,158.34262084960938,0.7757061556272667,-1.3173155819851032,0.3919778570998459,0.29831585590727655
-0.06569282710552216,0.08968612551689148,158.3422393798828,0.7757061556272667,-1.3173155819851032,0.3919778570998459,0.29831585590727655
-0.052534542977809906,0.0816275104880333,158.3417205810547,0.7757061556272667,-1.3173155819851032,0.3919778570998459,0.29831585590727655
-0.04321214556694031,0.07282134890556335,158.34104919433594,0.7757061556272667,-1.3173155819851032,0.3919778570998459,0.29831585590727655
-0.06345754861831665,0.07487373054027557,158.3408966064453,0.7757061556272667,-1.3173155819851032,0.3919778570998459,0.29831585590727655
-0.0523064061999321,0.0938863679766655,158.3400421142578,0.7757061556272667,-1.3173155819851032,0.3919778570998459,0.29831585590727655
-0.049734991043806076,0.098736971616745,158.34182739257812,0.7757061556272667,-1.3173155819851032,0.3919778570998459,0.29831585590727655
-0.053363606333732605,0.09921752661466599,158.34231567382812,0.7757061556272667,-1.3173155819851032,0.3919778570998459,0.29831585590727655
-0.05718361213803291,0.08712677657604218,158.34207153320312,0.7757061556272667,-1.3173155819851032,0.3919778570998459,0.29831585590727655
-0.05932954326272011,0.08067422360181808,158.34178161621094,0.7757061556272667,-1.3173155819851032,0.3919778570998459,0.29831585590727655
-0.05691661313176155,0.0945148840546608,158.3419189453125,0.7757061556272667,-1.3173155819851032,0.3919778570998459,0.29831585590727655
-0.05934767797589302,0.08478900045156479,158.34217834472656,0.7757061556272667,-1.3173155819851032,0.3919778570998459,0.29831585590727655
-0.0571255162358284,0.07702352851629257,158.3419952392578,0.7757061556272667,-1.3173155819851032,0.3919778570998459,0.29831585590727655
-0.05700447037816048,0.08482559770345688,158.34182739257812,0.7757061556272667,-1.3173155819851032,0.3919778570998459,0.29831585590727655
-0.05451099947094917,0.07526488602161407,158.34249877929688,0.7757061556272667,-1.3173155819851032,0.3919778570998459,0.29831585590727655
-0.05700723081827164,0.07694073021411896,158.342041015625,0.7757061556272667,-1.3173155819851032,0.3919778570998459,0.29831585590727655
-0.06958646327257156,0.08330081403255463,158.34422302246094,0.7757061556272667,-1.3173155819851032,0.3919778570998459,0.29831585590727655
-0.04918905720114708,0.08426348119974136,158.3447265625,0.7757061556272667,-1.3173155819851032,0.3919778570998459,0.29831585590727655
-0.042115021497011185,0.07985150814056396,158.34471130371094,0.7757061556272667,-1.3173155819851032,0.3919778570998459,0.29831585590727655
-0.06467731297016144,0.07985895127058029,158.34474182128906,0.7757061556272667,-1.3173155819851032,0.3919778570998459,0.29831585590727655
-0.059230703860521317,0.08542369306087494,158.34375,0.7757061556272667,-1.3173155819851032,0.3919778570998459,0.29831585590727655
-0.06002740189433098,0.08573616296052933,158.34361267089844,0.7757061556272667,-1.3173155819851032,0.3919778570998459,0.29831585590727655
-0.05385485291481018,0.070991650223732,158.343505859375,0.7757061556272667,-1.3173155819851032,0.3919778570998459,0.29831585590727655
-0.061680328100919724,0.07878630608320236,158.34202575683594,0.7757061556272667,-1.3173155819851032,0.3919778570998459,0.29831585590727655
-0.04794825613498688,0.07825092226266861,158.34234619140625,0.7757061556272667,-1.3173155819851032,0.3919778570998459,0.29831585590727655
-0.05627458542585373,0.06766518205404282,158.34312438964844,0.7757061556272667,-1.3173155819851032,0.3919778570998459,0.29831585590727655
-0.03897080570459366,0.07299575209617615,158.34376525878906,0.7757061556272667,-1.3173155819851032,0.3919778570998459,0.29831585590727655
-0.056445859372615814,0.08225534856319427,158.34225463867188,0.7757061556272667,-1.3173155819851032,0.3919778570998459,0.29831585590727655
-0.062230806797742844,0.07572363317012787,158.34120178222656,0.7757061556272667,-1.3173155819851032,0.3919778570998459,0.29831585590727655
-0.051590707153081894,0.07904774695634842,158.34117126464844,0.7757061556272667,-1.3173155819851032,0.3919778570998459,0.29831585590727655
-0.06705348193645477,0.07892969995737076,158.34011840820312,0.7757061556272667,-1.3173155819851032,0.3919778570998459,0.29831585590727655
-0.06076165661215782,0.07145136594772339,158.3415069580078,0.7757061556272667,-1.3173155819851032,0.3919778570998459,0.29831585590727655
-0.05863149091601372,0.0695684626698494,158.34190368652344,0.7757061556272667,-1.3173155819851032,0.3919778570998459,0.29831585590727655
-0.04931847006082535,0.08705902099609375,158.34266662597656,0.7757061556272667,-1.3173155819851032,0.3919778570998459,0.29831585590727655
-0.05492427572607994,0.08973809331655502,158.34124755859375,0.7757061556272667,-1.3173155819851032,0.3919778570998459,0.29831585590727655
-0.07118415832519531,0.08594084531068802,158.34152221679688,0.7757061556272667,-1.3173155819851032,0.3919778570998459,0.29831585590727655
-0.054014477878808975,0.08550268411636353,158.34112548828125,0.7757061556272667,-1.3173155819851032,0.3919778570998459,0.29831585590727655
-0.05944051966071129,0.07342339307069778,158.34059143066406,0.7757061556272667,-1.3173155819851032,0.3919778570998459,0.29831585590727655
-0.06551436334848404,0.08451443910598755,158.33946228027344,0.7757061556272667,-1.3173155819851032,0.3919778570998459,0.29831585590727655
-0.05661756917834282,0.0741235762834549,158.3394775390625,0.7757061556272667,-1.3173155819851032,0.3919778570998459,0.29831585590727655
-0.0671195238828659,0.07638440281152725,158.33946228027344,0.7757061556272667,-1.3173155819851032,0.3919778570998459,0.29831585590727655
-0.05014042556285858,0.05983893573284149,158.3397979736328,0.7757061556272667,-1.3173155819851032,0.3919778570998459,0.29831585590727655
-0.056070588529109955,0.07624062895774841,158.33946228027344,0.7757061556272667,-1.3173155819851032,0.3919778570998459,0.29831585590727655
-0.053937334567308426,0.07855542749166489,158.33839416503906,0.7757061556272667,-1.3173155819851032,0.3919778570998459,0.29831585590727655
-0.05353095009922981,0.08322253078222275,158.33689880371094,0.7757061556272667,-1.3173155819851032,0.3919778570998459,0.29831585590727655
-0.043829381465911865,0.0828036516904831,158.33633422851562,0.7757061556272667,-1.3173155819851032,0.3919778570998459,0.29831585590727655
-0.05177285894751549,0.06640806049108505,158.3363800048828,0.7757061556272667,-1.3173155819851032,0.3919778570998459,0.29831585590727655
-0.0484473742544651,0.07229426503181458,158.3359375,0.7757061556272667,-1.3173155819851032,0.3919778570998459,0.29831585590727655
-0.05757147818803787,0.08775380998849869,158.33563232421875,0.7757061556272667,-1.3173155819851032,0.3919778570998459,0.29831585590727655
-0.05633585527539253,0.07742494344711304,158.33551025390625,0.7757061556272667,-1.3173155819851032,0.3919778570998459,0.29831585590727655
-0.05612127482891083,0.0626487135887146,158.33502197265625,0.7757061556272667,-1.3173155819851032,0.3919778570998459,0.29831585590727655
-0.0445125512778759,0.06097123399376869,158.33502197265625,0.7757061556272667,-1.3173155819851032,0.3919778570998459,0.29831585590727655
-0.07659470289945602,0.07030417770147324,158.3346710205078,0.7757061556272667,-1.3173155819851032,0.3919778570998459,0.29831585590727655
-0.05504557490348816,0.07087258249521255,158.33384704589844,0.7757061556272667,-1.3173155819851032,0.3919778570998459,0.29831585590727655
-0.05454976484179497,0.0793498232960701,158.3351287841797,0.7757061556272667,-1.3173155819851032,0.3919778570998459,0.29831585590727655
-0.0630955621600151,0.06601777672767639,158.33558654785156,0.7757061556272667,-1.3173155819851032,0.3919778570998459,0.29831585590727655
-0.04319995269179344,0.06650009006261826,158.334228515625,0.7757061556272667,-1.3173155819851032,0.3919778570998459,0.29831585590727655
-0.05556517094373703,0.08481287956237793,158.33384704589844,0.7757061556272667,-1.3173155819851032,0.3919778570998459,0.29831585590727655
-0.05743108689785004,0.06367094069719315,158.3317108154297,0.7757061556272667,-1.3173155819851032,0.3919778570998459,0.29831585590727655
-0.05220675468444824,0.08791067451238632,158.33164978027344,0.7757061556272667,-1.3173155819851032,0.3919778570998459,0.29831585590727655
-0.051938507705926895,0.06918791681528091,158.33091735839844,0.7757061556272667,-1.3173155819851032,0.3919778570998459,0.29831585590727655
-0.05292772129178047,0.07387524098157883,158.3307342529297,0.7757061556272667,-1.3173155819851032,0.3919778570998459,0.29831585590727655
-0.054400552064180374,0.06029993295669556,158.32980346679688,0.7757061556272667,-1.3173155819851032,0.3919778570998459,0.29831585590727655
-0.05528574436903,0.07171841710805893,158.33018493652344,0.7757061556272667,-1.3173155819851032,0.3919778570998459,0.29831585590727655
-0.07379978150129318,0.08150988072156906,158.331298828125,0.7757061556272667,-1.3173155819851032,0.3919778570998459,0.29831585590727655
-0.051757827401161194,0.07723663002252579,158.3319091796875,0.7757061556272667,-1.3173155819851032,0.3919778570998459,0.29831585590727655
-0.059219177812337875,0.07740424573421478,158.33238220214844,0.7757061556272667,-1.3173155819851032,0.3919778570998459,0.29831585590727655
-0.0484732910990715,0.07092616707086563,158.33241271972656,0.7757061556272667,-1.3173155819851032,0.3919778570998459,0.29831585590727655
-0.040534764528274536,0.06186186149716377,158.33309936523438,0.7757061556272667,-1.3173155819851032,0.3919778570998459,0.29831585590727655
-0.06575233489274979,0.07228557765483856,158.3326416015625,0.7757061556272667,-1.3173155819851032,0.3919778570998459,0.29831585590727655
-0.06095096468925476,0.06725706905126572,158.33255004882812,0.7757061556272667,-1.3173155819851032,0.3919778570998459,0.29831585590727655
-0.06075383722782135,0.06214778497815132,158.33290100097656,0.7757061556272667,-1.3173155819851032,0.3919778570998459,0.29831585590727655
-0.0609031580388546,0.06771783530712128,158.33245849609375,0.7757061556272667,-1.3173155819851032,0.3919778570998459,0.29831585590727655
-0.049900807440280914,0.06932186335325241,158.331298828125,0.7757061556272667,-1.3173155819851032,0.3919778570998459,0.29831585590727655
-0.062211792916059494,0.057965561747550964,158.33108520507812,0.7757061556272667,-1.3173155819851032,0.3919778570998459,0.29831585590727655
-0.05785654857754707,0.060745786875486374,158.3301239013672,0.7757061556272667,-1.3173155819851032,0.3919778570998459,0.29831585590727655
-0.05258820205926895,0.06667330116033554,158.33045959472656,0.7757061556272667,-1.3173155819851032,0.3919778570998459,0.29831585590727655
-0.07133223116397858,0.06534884870052338,158.3309326171875,0.7757061556272667,-1.3173155819851032,0.3919778570998459,0.29831585590727655
-0.04592963680624962,0.052318818867206573,158.33084106445312,0.7757061556272667,-1.3173155819851032,0.3919778570998459,0.29831585590727655
-0.05250395089387894,0.058853279799222946,158.3306121826172,0.7757061556272667,-1.3173155819851032,0.3919778570998459,0.29831585590727655
-0.05302780494093895,0.062186192721128464,158.33132934570312,0.7757061556272667,-1.3173155819851032,0.3919778570998459,0.29831585590727655
-0.049392372369766235,0.06488092243671417,158.3313751220703,0.7757061556272667,-1.3173155819851032,0.3919778570998459,0.29831585590727655
-0.06449764221906662,0.06979576498270035,158.33055114746094,0.7757061556272667,-1.3173155819851032,0.3919778570998459,0.29831585590727655
-0.05403618514537811,0.056516241282224655,158.32949829101562,0.7757061556272667,-1.3173155819851032,0.3919778570998459,0.29831585590727655
-0.04782582446932793,0.060779836028814316,158.32861328125,0.7757061556272667,-1.3173155819851032,0.3919778570998459,0.29831585590727655
-0.0521671324968338,0.07138883322477341,158.32760620117188,0.7757061556272667,-1.3173155819851032,0.3919778570998459,0.29831585590727655
-0.0509161651134491,0.05917045846581459,158.32627868652344,0.7757061556272667,-1.3173155819851032,0.3919778570998459,0.29831585590727655
-0.04906657710671425,0.05229654908180237,158.3267822265625,0.7757061556272667,-1.3173155819851032,0.3919778570998459,0.29831585590727655
-0.059118617326021194,0.061907876282930374,158.32717895507812,0.7757061556272667,-1.3173155819851032,0.3919778570998459,0.29831585590727655
-0.06895202398300171,0.055379122495651245,158.32794189453125,0.7757061556272667,-1.3173155819851032,0.3919778570998459,0.29831585590727655
-0.04857756569981575,0.05411052703857422,158.32797241210938,0.7757061556272667,-1.3173155819851032,0.3919778570998459,0.29831585590727655
-0.05144525319337845,0.06867314130067825,158.32861328125,0.7757061556272667,-1.3173155819851032,0.3919778570998459,0.29831585590727655
-0.04879257082939148,0.05023055151104927,158.32696533203125,0.7757061556272667,-1.3173155819851032,0.3919778570998459,0.29831585590727655
-0.06807747483253479,0.04998478293418884,158.32659912109375,0.7757061556272667,-1.3173155819851032,0.3919778570998459,0.29831585590727655
-0.058555398136377335,0.06094386801123619,158.32676696777344,0.7757061556272667,-1.3173155819851032,0.3919778570998459,0.29831585590727655
-0.057711757719516754,0.05955054983496666,158.32595825195312,0.7757061556272667,-1.3173155819851032,0.3919778570998459,0.29831585590727655
-0.054218169301748276,0.05894608795642853,158.3251190185547,0.7757061556272667,-1.3173155819851032,0.3919778570998459,0.29831585590727655
-0.059946391731500626,0.048911016434431076,158.32521057128906,0.7757061556272667,-1.3173155819851032,0.3919778570998459,0.29831585590727655
-0.06290259212255478,0.05416380241513252,158.32505798339844,0.7757061556272667,-1.3173155819851032,0.3919778570998459,0.29831585590727655
-0.06122419983148575,0.05558842048048973,158.32388305664062,0.7757061556272667,-1.3173155819851032,0.3919778570998459,0.29831585590727655
-0.056270282715559006,0.06310705840587616,158.32376098632812,0.7757061556272667,-1.3173155819851032,0.3919778570998459,0.29831585590727655
-0.05559108033776283,0.04386473819613457,158.32420349121094,0.7757061556272667,-1.3173155819851032,0.3919778570998459,0.29831585590727655
-0.0647757425904274,0.056582942605018616,158.32379150390625,0.7757061556272667,-1.3173155819851032,0.3919778570998459,0.29831585590727655
-0.06640062481164932,0.053052328526973724,158.32308959960938,0.7757061556272667,-1.3173155819851032,0.3919778570998459,0.29831585590727655
-0.04931604489684105,0.049631036818027496,158.3236846923828,0.7757061556272667,-1.3173155819851032,0.3919778570998459,0.29831585590727655
-0.05825645476579666,0.0443604476749897,158.32485961914062,0.7757061556272667,-1.3173155819851032,0.3919778570998459,0.29831585590727655
-0.05529465153813362,0.043624188750982285,158.3239288330078,0.7757061556272667,-1.3173155819851032,0.3919778570998459,0.29831585590727655
-0.06477727741003036,0.06231509894132614,158.3225860595703,0.7757061556272667,-1.3173155819851032,0.3919778570998459,0.29831585590727655
-0.07022102922201157,0.05606534704566002,158.3606414794922,0.7757061556272667,-1.3173155819851032,0.3919778570998459,0.29831585590727655
-0.05697719752788544,0.0709194466471672,158.36062622070312,0.7757061556272667,-1.3173155819851032,0.3919778570998459,0.29831585590727655
-0.05399785563349724,0.059698984026908875,158.3614044189453,0.7757061556272667,-1.3173155819851032,0.3919778570998459,0.29831585590727655
-0.06032472848892212,0.06418884545564651,158.3616485595703,0.7757061556272667,-1.3173155819851032,0.3919778570998459,0.29831585590727655
-0.070747509598732,0.042808666825294495,158.3616943359375,0.7757061556272667,-1.3173155819851032,0.3919778570998459,0.29831585590727655
-0.045539941638708115,0.05184477940201759,158.36119079589844,0.7757061556272667,-1.3173155819851032,0.3919778570998459,0.29831585590727655
-0.06479069590568542,0.06449750065803528,158.3612060546875,0.7757061556272667,-1.3173155819851032,0.3919778570998459,0.29831585590727655
-0.04934735596179962,0.05433473736047745,158.36097717285156,0.7757061556272667,-1.3173155819851032,0.3919778570998459,0.29831585590727655
-0.07098857313394547,0.042663078755140305,158.3599395751953,0.7757061556272667,-1.3173155819851032,0.3919778570998459,0.29831585590727655
-0.055702801793813705,0.0537007600069046,158.359130859375,0.7757061556272667,-1.3173155819851032,0.3919778570998459,0.29831585590727655
-0.05044816806912422,0.053718049079179764,158.35952758789062,0.7757061556272667,-1.3173155819851032,0.3919778570998459,0.29831585590727655
-0.04665655270218849,0.05207580327987671,158.3588104248047,0.7757061556272667,-1.3173155819851032,0.3919778570998459,0.29831585590727655
-0.062054816633462906,0.05889645963907242,158.35983276367188,0.7757061556272667,-1.3173155819851032,0.3919778570998459,0.29831585590727655
-0.06189138814806938,0.048568591475486755,158.35914611816406,0.7757061556272667,-1.3173155819851032,0.3919778570998459,0.29831585590727655
-0.05435081943869591,0.05864699184894562,158.35838317871094,0.7757061556272667,-1.3173155819851032,0.3919778570998459,0.29831585590727655
-0.06721055507659912,0.04342465475201607,158.35826110839844,0.7757061556272667,-1.3173155819851032,0.3919778570998459,0.29831585590727655
-0.05826001614332199,0.056629423052072525,158.3587646484375,0.7757061556272667,-1.3173155819851032,0.3919778570998459,0.29831585590727655
-0.07735047489404678,0.055748775601387024,158.3590545654297,0.7757061556272667,-1.3173155819851032,0.3919778570998459,0.29831585590727655
-0.05180023983120918,0.04184124246239662,158.35963439941406,0.7757061556272667,-1.3173155819851032,0.3919778570998459,0.29831585590727655
-0.054029278457164764,0.04504234716296196,158.3592987060547,0.7757061556272667,-1.3173155819851032,0.3919778570998459,0.29831585590727655
-0.05393395572900772,0.050039730966091156,158.35987854003906,0.7757061556272667,-1.3173155819851032,0.3919778570998459,0.29831585590727655
-0.07189717143774033,0.04424635320901871,158.3588409423828,0.7757061556272667,-1.3173155819851032,0.3919778570998459,0.29831585590727655
-0.07153122127056122,0.041324157267808914,158.35704040527344,0.7757061556272667,-1.3173155819851032,0.3919778570998459,0.29831585590727655
-0.06593676656484604,0.04522218927741051,158.3568572998047,0.7757061556272667,-1.3173155819851032,0.3919778570998459,0.29831585590727655
-0.055182043462991714,0.053761404007673264,158.3563232421875,0.7757061556272667,-1.3173155819851032,0.3919778570998459,0.29831585590727655
-0.06353041529655457,0.046169158071279526,158.35574340820312,0.7757061556272667,-1.3173155819851032,0.3919778570998459,0.29831585590727655
-0.05541093647480011,0.04871902987360954,158.3570098876953,0.7757061556272667,-1.3173155819851032,0.3919778570998459,0.29831585590727655
-0.05453892797231674,0.05187860131263733,158.35760498046875,0.7757061556272667,-1.3173155819851032,0.3919778570998459,0.29831585590727655
-0.05876253917813301,0.04176405072212219,158.35850524902344,0.7757061556272667,-1.3173155819851032,0.3919778570998459,0.29831585590727655
-0.05073241516947746,0.05333118885755539,158.35818481445312,0.7757061556272667,-1.3173155819851032,0.3919778570998459,0.29831585590727655
-0.05725880712270737,0.05471426621079445,158.35897827148438,0.7757061556272667,-1.3173155819851032,0.3919778570998459,0.29831585590727655
-0.0526781901717186,0.046564824879169464,158.3600616455078,0.7757061556272667,-1.3173155819851032,0.3919778570998459,0.29831585590727655
-0.057598989456892014,0.04826980084180832,158.35951232910156,0.7757061556272667,-1.3173155819851032,0.3919778570998459,0.29831585590727655
-0.06827106326818466,0.05293354019522667,158.35975646972656,0.7757061556272667,-1.3173155819851032,0.3919778570998459,0.29831585590727655
-0.048014797270298004,0.04906460642814636,158.360107421875,0.7757061556272667,-1.3173155819851032,0.3919778570998459,0.29831585590727655
-0.0690578892827034,0.03828548267483711,158.3599395751953,0.7757061556272667,-1.3173155819851032,0.3919778570998459,0.29831585590727655
-0.0568508617579937,0.06009453162550926,158.3600616455078,0.7757061556272667,-1.3173155819851032,0.3919778570998459,0.29831585590727655
-0.04862413555383682,0.03583367541432381,158.36123657226562,0.7757061556272667,-1.3173155819851032,0.3919778570998459,0.29831585590727655
-0.06408621370792389,0.04337942227721214,158.36236572265625,0.7757061556272667,-1.3173155819851032,0.3919778570998459,0.29831585590727655
-0.05197679251432419,0.053646404296159744,158.36154174804688,0.7757061556272667,-1.3173155819851032,0.3919778570998459,0.29831585590727655
-0.06857430934906006,0.039978791028261185,158.36074829101562,0.7757061556272667,-1.3173155819851032,0.3919778570998459,0.29831585590727655
-0.06290168315172195,0.04904715716838837,158.3607940673828,0.7757061556272667,-1.3173155819851032,0.3919778570998459,0.29831585590727655
-0.04439617693424225,0.0421513095498085,158.36135864257812,0.7757061556272667,-1.3173155819851032,0.3919778570998459,0.29831585590727655
-0.06806454807519913,0.045418888330459595,158.36160278320312,0.7757061556272667,-1.3173155819851032,0.3919778570998459,0.29831585590727655
-0.06769619137048721,0.06087832152843475,158.36126708984375,0.7757061556272667,-1.3173155819851032,0.3919778570998459,0.29831585590727655
-0.06664574146270752,0.049295175820589066,158.3617401123047,0.7757061556272667,-1.3173155819851032,0.3919778570998459,0.29831585590727655
-0.06496971100568771,0.033732254058122635,158.3627471923828,0.7757061556272667,-1.3173155819851032,0.3919778570998459,0.29831585590727655
-0.07286059111356735,0.04168299213051796,158.36251831054688,0.7757061556272667,-1.3173155819851032,0.3919778570998459,0.29831585590727655
-0.0708792507648468,0.05023316666483879,158.3620147705078,0.7757061556272667,-1.3173155819851032,0.3919778570998459,0.29831585590727655
-0.058632414788007736,0.049867723137140274,158.36260986328125,0.7757061556272667,-1.3173155819851032,0.3919778570998459,0.29831585590727655
-0.060845088213682175,0.040208060294389725,158.362548828125,0.7757061556272667,-1.3173155819851032,0.3919778570998459,0.29831585590727655
-0.06205006688833237,0.048928242176771164,158.3629150390625,0.7757061556272667,-1.3173155819851032,0.3919778570998459,0.29831585590727655
-0.052199989557266235,0.04398583993315697,158.3636474609375,0.7757061556272667,-1.3173155819851032,0.3919778570998459,0.29831585590727655
-0.062317296862602234,0.043562449514865875,158.3627471923828,0.7757061556272667,-1.3173155819851032,0.3919778570998459,0.29831585590727655
-0.0666823610663414,0.04053058102726936,158.363037109375,0.7757061556272667,-1.3173155819851032,0.3919778570998459,0.29831585590727655
-0.06740204989910126,0.04609609767794609,158.36268615722656,0.7757061556272667,-1.3173155819851032,0.3919778570998459,0.29831585590727655
-0.05986349657177925,0.03239239752292633,158.362548828125,0.7757061556272667,-1.3173155819851032,0.3919778570998459,0.29831585590727655
-0.06158357486128807,0.03832896426320076,158.3633575439453,0.7757061556272667,-1.3173155819851032,0.3919778570998459,0.29831585590727655
-0.08077429980039597,0.04678992182016373,158.36402893066406,0.7757061556272667,-1.3173155819851032,0.3919778570998459,0.29831585590727655
-0.07051531225442886,0.04072483256459236,158.36463928222656,0.7757061556272667,-1.3173155819851032,0.3919778570998459,0.29831585590727655
-0.0575481653213501,0.03686247020959854,158.36488342285156,0.7757061556272667,-1.3173155819851032,0.3919778570998459,0.29831585590727655
-0.07813690602779388,0.03242175653576851,158.36424255371094,0.7757061556272667,-1.3173155819851032,0.3919778570998459,0.29831585590727655
-0.061082180589437485,0.04781327024102211,158.36453247070312,0.7757061556272667,-1.3173155819851032,0.3919778570998459,0.29831585590727655
-0.06723152846097946,0.024705925956368446,158.3643035888672,0.7757061556272667,-1.3173155819851032,0.3919778570998459,0.29831585590727655
-0.07497239857912064,0.03721260651946068,158.3647918701172,0.7757061556272667,-1.3173155819851032,0.3919778570998459,0.29831585590727655
-0.06604716181755066,0.05362500622868538,158.3653564453125,0.7757061556272667,-1.3173155819851032,0.3919778570998459,0.29831585590727655
-0.06750241667032242,0.039042141288518906,158.365966796875,0.7757061556272667,-1.3173155819851032,0.3919778570998459,0.29831585590727655
-0.05179741978645325,0.03371237590909004,158.3665008544922,0.7757061556272667,-1.3173155819851032,0.3919778570998459,0.29831585590727655
-0.056429363787174225,0.055971402674913406,158.36578369140625,0.7757061556272667,-1.3173155819851032,0.3919778570998459,0.29831585590727655
-0.06934507936239243,0.0331089124083519,158.36663818359375,0.7757061556272667,-1.3173155819851032,0.3919778570998459,0.29831585590727655
-0.06380487233400345,0.0433853380382061,158.36669921875,0.7757061556272667,-1.3173155819851032,0.3919778570998459,0.29831585590727655
-0.05003049224615097,0.03445222228765488,158.36639404296875,0.7757061556272667,-1.3173155819851032,0.3919778570998459,0.29831585590727655
-0.05503493919968605,0.03351505473256111,158.36624145507812,0.7757061556272667,-1.3173155819851032,0.3919778570998459,0.29831585590727655
-0.061212968081235886,0.039945829659700394,158.3660125732422,0.7757061556272667,-1.3173155819851032,0.3919778570998459,0.29831585590727655
-0.0674000233411789,0.02639198675751686,158.3665008544922,0.7757061556272667,-1.3173155819851032,0.3919778570998459,0.29831585590727655
-0.052993129938840866,0.04446461424231529,158.36622619628906,0.7757061556272667,-1.3173155819851032,0.3919778570998459,0.29831585590727655
-0.05343557149171829,0.044587645679712296,158.36705017089844,0.7757061556272667,-1.3173155819851032,0.3919778570998459,0.29831585590727655
-0.044016603380441666,0.03792525827884674,158.36679077148438,0.7757061556272667,-1.3173155819851032,0.3919778570998459,0.29831585590727655
-0.06660182029008865,0.03973623737692833,158.36721801757812,0.7757061556272667,-1.3173155819851032,0.3919778570998459,0.29831585590727655
-0.06411752849817276,0.046378880739212036,158.3672332763672,0.7757061556272667,-1.3173155819851032,0.3919778570998459,0.29831585590727655
-0.06330014020204544,0.03821230307221413,158.36618041992188,0.7757061556272667,-1.3173155819851032,0.3919778570998459,0.29831585590727655
-0.05705903470516205,0.028234733268618584,158.36671447753906,0.7757061556272667,-1.3173155819851032,0.3919778570998459,0.29831585590727655
-0.06151075288653374,0.04987986385822296,158.36692810058594,0.7757061556272667,-1.3173155819851032,0.3919778570998459,0.29831585590727655
-0.06038372963666916,0.03871610388159752,158.36724853515625,0.7757061556272667,-1.3173155819851032,0.3919778570998459,0.29831585590727655
-0.05667455121874809,0.046265918761491776,158.36659240722656,0.7757061556272667,-1.3173155819851032,0.3919778570998459,0.29831585590727655
-0.05329018458724022,0.02863771840929985,158.36599731445312,0.7757061556272667,-1.3173155819851032,0.3919778570998459,0.29831585590727655
-0.04930415004491806,0.04483838751912117,158.3656005859375,0.7757061556272667,-1.3173155819851032,0.3919778570998459,0.29831585590727655
