faccX,faccY,yaw,posX,posY,velX,velY
0,0,-97.18873596191406,0.0,0.0,0.0,0.0
0,0,-97.18882751464844,0.0,0.0,0.0,0.0
0,0,-97.188720703125,0.0,0.0,0.0,0.0
0,-0.29177290201187134,-97.20002746582031,0.0,-2.0262007084157734e-05,0.0,-0.002431440850098928
0.06364919990301132,-1.94704008102417,-97.12581634521484,4.420083326598009e-06,-0.0002162591450744205,0.000530409999191761,-0.021088215708732604
-0.07129266113042831,-1.7789884805679321,-96.99586486816406,1.27294540612234e-05,-0.0008264813903305265,0.0004667144889632861,-0.05213845372200012
-0.5743119120597839,-1.7074716091156006,-96.98992919921875,-2.4325622038708786e-05,-0.0019375709030363293,-0.004913323620955149,-0.08119228780269623
-0.7218567728996277,-2.0756924152374268,-97.12439727783203,-0.0001962260632879204,-0.003553495423661338,-0.015714729328950246,-0.1127186546723048
-0.10914234071969986,-1.1759452819824219,-97.15398406982422,-0.0005158464905495445,-0.005657947841617796,-0.02263972194244464,-0.1398156354824702
0.36053502559661865,-0.6208873391151428,-97.21002960205078,-0.0008757173642516136,-0.008112988476124076,-0.02054478290180365,-0.15478924065828323
-0.057808101177215576,-1.459057331085205,-97.2725830078125,-0.001197107709530327,-0.010837249755859375,-0.018022058531641957,-0.1721221129099528
-0.2699628174304962,-1.8818241357803345,-97.24921417236328,-0.0015202372210721174,-0.01393795729511314,-0.02075348285337289,-0.19996279180049897
0,-0.2111329734325409,-97.25978088378906,-0.0018848760198387833,-0.01741601473548346,-0.023003172998627024,-0.2174041010439396
0.33670318126678467,-1.682121753692627,-97.33081817626953,-0.002244880071116818,-0.021170892442266144,-0.02019731315473715,-0.23318122376998265
0,-1.4756215810775757,-97.30257415771484,-0.002558119791663355,-0.02527653390334712,-0.01739145331084728,-0.25949575155973437
0.06762821972370148,-1.8689953088760376,-97.22470092773438,-0.0028432809426966635,-0.02983372815781169,-0.016827884813149768,-0.28736755897601446
-0.5985863208770752,0.063469797372818,-97.16861724853516,-0.003160617779940366,-0.03474857119015521,-0.02125253565609455,-0.30241360490520797
0.6383617520332336,-1.151979923248291,-97.107666015625,-0.003512064524822764,-0.03986438891953892,-0.020921073729793228,-0.3114845226208369
-0.6086049675941467,-0.18864083290100098,-96.99078369140625,-0.003858682643622159,-0.04514889629350768,-0.02067310052613417,-0.32265636225541433
-0.10030020028352737,-1.631757378578186,-96.85254669189453,-0.0042524638446047895,-0.05065291887356175,-0.026580643591781455,-0.3378263473510742
-0.23791858553886414,-1.117817997932434,-96.6844711303711,-0.004718961986816591,-0.056474300730559555,-0.029399133473634716,-0.3607394754886627
-0.49924635887145996,0.344565749168396,-96.56061553955078,-0.005260139554738997,-0.0625403233948681,-0.03554217467705408,-0.367183244228363
0.10860409587621689,-0.7567717432975769,-96.47148895263672,-0.005879637067620124,-0.06868866954826645,-0.038797526868681105,-0.37061829417943953
0.4521700441837311,-1.4876434803009033,-96.46745300292969,-0.006487319866816201,-0.07502150328622922,-0.0341244090348482,-0.3893217543760935
-0.23742158710956573,-0.32751014828681946,-96.46012878417969,-0.007041146930100188,-0.08163625152781603,-0.03233483855923016,-0.40444803461432455
-0.41991496086120605,-0.3242473900318146,-96.43960571289062,-0.007625709277474216,-0.08842231304488246,-0.03781264312565326,-0.4098793474336465
0.25190532207489014,-0.3319282531738281,-96.59635162353516,-0.008267587332261931,-0.09529920325511029,-0.039212723448872555,-0.4153474777936935
0.7234455943107605,-0.3928215503692627,-96.76061248779297,-0.008853400020549693,-0.10227199106580678,-0.0310847991456588,-0.4213870594898859
-0.7302512526512146,-0.9032714366912842,-96.68951416015625,-0.009371952621473204,-0.10938511518140631,-0.031141512965162585,-0.43218783438205716
0,0.29969415068626404,-96.5057601928711,-0.00994168973010447,-0.1166301608437465,-0.037226940070589375,-0.43721764509876565
0,-0.36019960045814514,-96.49411010742188,-0.01056213873128096,-0.12392132336273787,-0.037226940070589375,-0.437721857180198
-0.7957497239112854,0,-96.52849578857422,-0.01123784812995129,-0.13124170151021744,-0.043858187769850086,-0.4407235205173492
0.3051001727581024,-0.8899902701377869,-96.6553726196289,-0.012002890811612207,-0.1386488983987106,-0.047946934029459945,-0.44814010610183075
-0.5869786143302917,0.1644614040851593,-96.69110870361328,-0.012821581270545718,-0.14616828411610588,-0.050295921042561524,-0.4541861799856026
0.13044767081737518,-0.1591409295797348,-96.65910339355469,-0.01369155015899903,-0.15373768430513637,-0.05410034557183583,-0.4541418426980574
0.6312395334243774,-0.8654158115386963,-96.58474731445312,-0.014540327640457283,-0.16137786479045946,-0.04775295220315456,-0.462679815540711
0.4069269001483917,-0.1561105102300644,-96.5767822265625,-0.015264115285956194,-0.16916013437737193,-0.039101565256714814,-0.47119253488878404
0.30512651801109314,-1.244157075881958,-96.54161834716797,-0.015866359886195922,-0.1771105840967761,-0.03316778677205244,-0.48286143143971755
-0.07697797566652298,-0.5120372176170349,-96.47433471679688,-0.016403312683622866,-0.18528023255781995,-0.03126654891918102,-0.4974963838855425
-0.6693829894065857,0.6206896305084229,-96.38475799560547,-0.016976252454850405,-0.19356429364946154,-0.037486223628123594,-0.49659094711144763
-0.10046441853046417,0.5478238463401794,-96.42842102050781,-0.01765448447420365,-0.20175966266542672,-0.043901618694265676,-0.4868533348043759
0,0.26681020855903625,-96.4704360961914,-0.01839315481483936,-0.20981731310279833,-0.04473882218201954,-0.4800647176802158
0.35358089208602905,-0.5390750765800476,-96.50159454345703,-0.01911424762258927,-0.2178372990133034,-0.0417923147479693,-0.4823335915803909
1.663683295249939,-1.6952571868896484,-96.49498748779297,-0.01967069841093487,-0.22603135416905087,-0.024981779853502903,-0.500953027109305
-0.6458740830421448,0.2656605839729309,-96.39891052246094,-0.020016380213201044,-0.2344798488294085,-0.016500036418437954,-0.512866332133611
-0.9517520070075989,0.23196566104888916,-96.24983215332031,-0.020402327076428466,-0.24299306365350884,-0.029813587168852483,-0.5087194467584292
-0.7932391166687012,0.27841904759407043,-96.0947265625,-0.02102040013505353,-0.251436277716938,-0.04435517986615498,-0.5044662408530711
-0.31637853384017944,0.8252524733543396,-96.01458740234375,-0.02183670991410812,-0.2597674045422011,-0.05360199362039565,-0.495268978178501
0.2308391034603119,-0.43712881207466125,-95.93810272216797,-0.02273601671266887,-0.2679949344798095,-0.05431482220689455,-0.4920346143345037
0.8423374891281128,-0.9158108830451965,-95.95510864257812,-0.02356673759718736,-0.27628946553087896,-0.04537168393532434,-0.5033091117938359
-0.44251781702041626,-0.431489497423172,-96.07087707519531,-0.024295167074435287,-0.2847715132538643,-0.04203985333442687,-0.5145366149644056
0.6372310519218445,0,-96.18455505371094,-0.024982309544252027,-0.2933770880517032,-0.04041724304358164,-0.5181323607762653
0.7788853645324707,0.4268042743206024,-96.30360412597656,-0.025557588843835726,-0.3019829882122576,-0.028616272906462344,-0.5145756584902603
-1.7201175689697266,-0.4614299237728119,-96.2508316040039,-0.026099890073140463,-0.310561653746085,-0.03645987461010614,-0.5148642055690288
1.5372381210327148,1.8070611953735352,-96.1253433227539,-0.026720254611637857,-0.3190492772228188,-0.03798387000958124,-0.5036506116390228
-2.2126524448394775,0,-96.08600616455078,-0.027400222884284127,-0.32731796372267935,-0.04361232270797093,-0.48859176834424334
1.576533555984497,-1.4727383852005005,-96.15818786621094,-0.028171269852254127,-0.3355634333607223,-0.0489133134484291,-0.5008645882209142
-0.7331927418708801,1.089586853981018,-96.19097900390625,-0.028927926408747834,-0.3439377842429611,-0.041885473330815624,-0.5040575176477432
0.4207983911037445,-1.167853832244873,-96.12789154052734,-0.029647711683064702,-0.3523441780772474,-0.044488759587208423,-0.5047097424666087
0.3434489369392395,-0.46352332830429077,-96.07205963134766,-0.03033611827840408,-0.3608692971989512,-0.03812003185351689,-0.5183045521378518
0.9275045990943909,0.7084861993789673,-96.08074951171875,-0.030883191480404804,-0.36949069509075744,-0.027528752386569967,-0.5162631948788962
-0.35459548234939575,-1.142907738685608,-96.11465454101562,-0.03130221866485146,-0.3781252498345242,-0.02275450974702834,-0.5198833743731182
-1.0519018173217773,0.7112602591514587,-96.0480728149414,-0.03177913391755687,-0.386819948260155,-0.034475320577621454,-0.5234804367025694
-0.754902720451355,0.8701044321060181,-96.00431823730469,-0.03247919513119592,-0.3954348052127494,-0.049532025059064226,-0.5103023976087571
0.3385247588157654,-0.30082759261131287,-96.05919647216797,-0.033333644018405016,-0.40390031205904153,-0.05300184140602747,-0.5055584239463012
0.2372337132692337,-0.4482494592666626,-96.0633773803711,-0.033333644018405016,-0.40390031205904153,-0.05300184140602747,-0.5055584239463012
2.357440710067749,-1.1288049221038818,-96.02368927001953,-0.033333644018405016,-0.40390031205904153,-0.05300184140602747,-0.5055584239463012
-0.0670078918337822,-0.5997530221939087,-96.00700378417969,-0.033333644018405016,-0.40390031205904153,-0.05300184140602747,-0.5055584239463012
-2.107616662979126,1.2851428985595703,-95.95207214355469,-0.033333644018405016,-0.40390031205904153,-0.05300184140602747,-0.5055584239463012
0.5844408869743347,0.9923388361930847,-95.79613494873047,-0.033333644018405016,-0.40390031205904153,-0.05300184140602747,-0.5055584239463012
-0.7283229827880859,-0.11054696142673492,-95.72189331054688,-0.033333644018405016,-0.40390031205904153,-0.05300184140602747,-0.5055584239463012
0.7553691267967224,-0.4549665153026581,-95.71546173095703,-0.033333644018405016,-0.40390031205904153,-0.05300184140602747,-0.5055584239463012
-0.2299317717552185,0.06665344536304474,-95.78951263427734,-0.033333644018405016,-0.40390031205904153,-0.05300184140602747,-0.5055584239463012
-0.4146427810192108,-0.01535741612315178,-95.8912353515625,-0.033333644018405016,-0.40390031205904153,-0.05300184140602747,-0.5055584239463012
1.0402764081954956,-0.35595908761024475,-95.97796630859375,-0.033333644018405016,-0.40390031205904153,-0.05300184140602747,-0.5055584239463012
0.2649274468421936,-0.21561792492866516,-96.06859588623047,-0.033333644018405016,-0.40390031205904153,-0.05300184140602747,-0.5055584239463012
-1.6565231084823608,-0.6177980899810791,-95.98438262939453,-0.033333644018405016,-0.40390031205904153,-0.05300184140602747,-0.5055584239463012
0.17090469598770142,1.1768078804016113,-95.8628158569336,-0.033333644018405016,-0.40390031205904153,-0.05300184140602747,-0.5055584239463012
-0.414939820766449,-0.5040891170501709,-95.94247436523438,-0.033333644018405016,-0.40390031205904153,-0.05300184140602747,-0.5055584239463012
0.6435088515281677,0.9040917158126831,-96.0372085571289,-0.033333644018405016,-0.40390031205904153,-0.05300184140602747,-0.5055584239463012
-0.23842096328735352,0.7737565040588379,-95.9932861328125,-0.033333644018405016,-0.40390031205904153,-0.05300184140602747,-0.5055584239463012
0.2866972088813782,-1.6795357465744019,-95.9293441772461,-0.033333644018405016,-0.40390031205904153,-0.05300184140602747,-0.5055584239463012
1.3632620573043823,0.7108892798423767,-95.89388275146484,-0.033333644018405016,-0.40390031205904153,-0.05300184140602747,-0.5055584239463012
-0.45756620168685913,-0.31613823771476746,-95.91397094726562,-0.033333644018405016,-0.40390031205904153,-0.05300184140602747,-0.5055584239463012
-0.27558091282844543,1.5733518600463867,-96.11019134521484,-0.033333644018405016,-0.40390031205904153,-0.05300184140602747,-0.5055584239463012
0.10939925163984299,3.9266459941864014,-96.64482879638672,-0.033333644018405016,-0.40390031205904153,-0.05300184140602747,-0.5055584239463012
-0.32420533895492554,1.8089878559112549,-97.38555145263672,-0.033333644018405016,-0.40390031205904153,-0.05300184140602747,-0.5055584239463012
-0.4897209703922272,3.1404569149017334,-98.35726928710938,-0.033333644018405016,-0.40390031205904153,-0.05300184140602747,-0.5055584239463012
1.101354956626892,1.0332363843917847,-99.6099624633789,-0.033333644018405016,-0.40390031205904153,-0.05300184140602747,-0.5055584239463012
-1.3224986791610718,1.8401542901992798,-101.0767593383789,-0.033333644018405016,-0.40390031205904153,-0.05300184140602747,-0.5055584239463012
0.044967520982027054,1.8398290872573853,-102.6752700805664,-0.033333644018405016,-0.40390031205904153,-0.05300184140602747,-0.5055584239463012
-0.8849188089370728,1.660309910774231,-104.38661193847656,-0.033333644018405016,-0.40390031205904153,-0.05300184140602747,-0.5055584239463012
0.160861998796463,1.64042329788208,-106.18527221679688,-0.033333644018405016,-0.40390031205904153,-0.05300184140602747,-0.5055584239463012
-0.7428446412086487,1.5333631038665771,-108.09673309326172,-0.033333644018405016,-0.40390031205904153,-0.05300184140602747,-0.5055584239463012
0.1270407736301422,0.8000569343566895,-110.10429382324219,-0.033333644018405016,-0.40390031205904153,-0.05300184140602747,-0.5055584239463012
-1.4198451042175293,0.3618291914463043,-112.2389907836914,-0.033333644018405016,-0.40390031205904153,-0.05300184140602747,-0.5055584239463012
0.699274480342865,1.6119295358657837,-114.41741943359375,-0.033333644018405016,-0.40390031205904153,-0.05300184140602747,-0.5055584239463012
0.09072872996330261,1.7263858318328857,-116.7183837890625,-0.033333644018405016,-0.40390031205904153,-0.05300184140602747,-0.5055584239463012
-0.28179940581321716,1.392167568206787,-119.10726165771484,-0.033333644018405016,-0.40390031205904153,-0.05300184140602747,-0.5055584239463012
0.8182492256164551,1.1951249837875366,-121.56095886230469,-0.033333644018405016,-0.40390031205904153,-0.05300184140602747,-0.5055584239463012
-1.3297992944717407,1.479563593864441,-124.09941864013672,-0.033333644018405016,-0.40390031205904153,-0.05300184140602747,-0.5055584239463012
-0.15554757416248322,-0.17006365954875946,-126.62413024902344,-0.033333644018405016,-0.40390031205904153,-0.05300184140602747,-0.5055584239463012
-0.40508803725242615,1.6128952503204346,-129.21047973632812,-0.033333644018405016,-0.40390031205904153,-0.05300184140602747,-0.5055584239463012
0.9192439317703247,1.396952509880066,-131.86196899414062,-0.033333644018405016,-0.40390031205904153,-0.05300184140602747,-0.5055584239463012
-0.4164079427719116,0.74596107006073,-134.55276489257812,-0.033333644018405016,-0.40390031205904153,-0.05300184140602747,-0.5055584239463012
0.292850524187088,1.3327674865722656,-137.31747436523438,-0.033333644018405016,-0.40390031205904153,-0.05300184140602747,-0.5055584239463012
-0.024274282157421112,0.37019386887550354,-140.10968017578125,-0.033333644018405016,-0.40390031205904153,-0.05300184140602747,-0.5055584239463012
0.37827521562576294,0.2806881368160248,-142.93753051757812,-0.033333644018405016,-0.40390031205904153,-0.05300184140602747,-0.5055584239463012
-0.7952744960784912,1.1476306915283203,-145.74273681640625,-0.033333644018405016,-0.40390031205904153,-0.05300184140602747,-0.5055584239463012
1.7383363246917725,0.7074923515319824,-148.59674072265625,-0.033333644018405016,-0.40390031205904153,-0.05300184140602747,-0.5055584239463012
-0.8395065069198608,1.420406460762024,-151.4422149658203,-0.033333644018405016,-0.40390031205904153,-0.05300184140602747,-0.5055584239463012
1.0534876585006714,-0.4925786256790161,-154.31825256347656,-0.033333644018405016,-0.40390031205904153,-0.05300184140602747,-0.5055584239463012
0.6932240128517151,0.8187228441238403,-157.2278289794922,-0.033333644018405016,-0.40390031205904153,-0.05300184140602747,-0.5055584239463012
-0.31032419204711914,1.0386877059936523,-160.18507385253906,-0.033333644018405016,-0.40390031205904153,-0.05300184140602747,-0.5055584239463012
-0.012196662835776806,0.336104154586792,-163.15069580078125,-0.033333644018405016,-0.40390031205904153,-0.05300184140602747,-0.5055584239463012
1.0630215406417847,0.8221665024757385,-166.10787963867188,-0.033333644018405016,-0.40390031205904153,-0.05300184140602747,-0.5055584239463012
0.30778419971466064,1.5564510822296143,-169.1287841796875,-0.033333644018405016,-0.40390031205904153,-0.05300184140602747,-0.5055584239463012
0.807214617729187,-0.25323325395584106,-172.10702514648438,-0.033333644018405016,-0.40390031205904153,-0.05300184140602747,-0.5055584239463012
-0.6209530830383301,1.4713438749313354,-175.05520629882812,-0.033333644018405016,-0.40390031205904153,-0.05300184140602747,-0.5055584239463012
1.2222411632537842,-0.9931833744049072,-177.99148559570312,-0.033333644018405016,-0.40390031205904153,-0.05300184140602747,-0.5055584239463012
-0.43053895235061646,1.0520464181900024,179.05105590820312,-0.033333644018405016,-0.40390031205904153,-0.05300184140602747,-0.5055584239463012
0.7942354679107666,0.5369606614112854,176.0281219482422,-0.033333644018405016,-0.40390031205904153,-0.05300184140602747,-0.5055584239463012
1.2185518741607666,-0.4998544156551361,173.0260467529297,-0.033333644018405016,-0.40390031205904153,-0.05300184140602747,-0.5055584239463012
0.6194728016853333,0.12591180205345154,169.98538208007812,-0.033333644018405016,-0.40390031205904153,-0.05300184140602747,-0.5055584239463012
-0.22626009583473206,1.8314430713653564,166.93399047851562,-0.033333644018405016,-0.40390031205904153,-0.05300184140602747,-0.5055584239463012
0.6133809089660645,-1.2460923194885254,163.88844299316406,-0.033333644018405016,-0.40390031205904153,-0.05300184140602747,-0.5055584239463012
0.7518492937088013,1.1542091369628906,160.90867614746094,-0.033333644018405016,-0.40390031205904153,-0.05300184140602747,-0.5055584239463012
0.35647180676460266,-0.8735530972480774,157.953857421875,-0.033333644018405016,-0.40390031205904153,-0.05300184140602747,-0.5055584239463012
0.5640891790390015,1.4933698177337646,154.9957733154297,-0.033333644018405016,-0.40390031205904153,-0.05300184140602747,-0.5055584239463012
0.5425132513046265,-0.9098150134086609,152.01602172851562,-0.033333644018405016,-0.40390031205904153,-0.05300184140602747,-0.5055584239463012
-0.04030279442667961,0.411653995513916,149.04078674316406,-0.033333644018405016,-0.40390031205904153,-0.05300184140602747,-0.5055584239463012
0.04720177873969078,0.1730038821697235,146.02462768554688,-0.033333644018405016,-0.40390031205904153,-0.05300184140602747,-0.5055584239463012
0.5288839340209961,-0.6353127956390381,142.98045349121094,-0.033333644018405016,-0.40390031205904153,-0.05300184140602747,-0.5055584239463012
1.2566611766815186,1.2101596593856812,139.9976806640625,-0.033333644018405016,-0.40390031205904153,-0.05300184140602747,-0.5055584239463012
-0.4832283556461334,-1.2975163459777832,136.9913330078125,-0.033333644018405016,-0.40390031205904153,-0.05300184140602747,-0.5055584239463012
1.6067396402359009,0.8693523406982422,133.9645538330078,-0.033333644018405016,-0.40390031205904153,-0.05300184140602747,-0.5055584239463012
-0.6453292965888977,-1.4154760837554932,130.986083984375,-0.033333644018405016,-0.40390031205904153,-0.05300184140602747,-0.5055584239463012
0.7856640219688416,1.1109519004821777,128.02960205078125,-0.033333644018405016,-0.40390031205904153,-0.05300184140602747,-0.5055584239463012
-0.48325109481811523,-0.7528347969055176,125.45050811767578,-0.033333644018405016,-0.40390031205904153,-0.05300184140602747,-0.5055584239463012
0.45143499970436096,1.1216429471969604,123.1457748413086,-0.033333644018405016,-0.40390031205904153,-0.05300184140602747,-0.5055584239463012
-1.068017840385437,-1.0540307760238647,121.34825897216797,-0.033333644018405016,-0.40390031205904153,-0.05300184140602747,-0.5055584239463012
-1.2006326913833618,-0.3045118451118469,119.81355285644531,-0.033333644018405016,-0.40390031205904153,-0.05300184140602747,-0.5055584239463012
-1.0342084169387817,-0.12793369591236115,118.67633819580078,-0.033333644018405016,-0.40390031205904153,-0.05300184140602747,-0.5055584239463012
-1.2914422750473022,-0.6560428142547607,117.9145736694336,-0.033333644018405016,-0.40390031205904153,-0.05300184140602747,-0.5055584239463012
-0.9191389679908752,-0.27789852023124695,117.59058380126953,-0.033333644018405016,-0.40390031205904153,-0.05300184140602747,-0.5055584239463012
-1.0661425590515137,-0.3272364139556885,117.59352111816406,-0.033333644018405016,-0.40390031205904153,-0.05300184140602747,-0.5055584239463012
0.23186364769935608,0.1772790551185608,117.72270965576172,-0.033333644018405016,-0.40390031205904153,-0.05300184140602747,-0.5055584239463012
1.0549492835998535,0.12844158709049225,117.74213409423828,-0.033333644018405016,-0.40390031205904153,-0.05300184140602747,-0.5055584239463012
-0.0756128802895546,-0.28033968806266785,117.69943237304688,-0.033333644018405016,-0.40390031205904153,-0.05300184140602747,-0.5055584239463012
0.3728356659412384,0.26089420914649963,117.73335266113281,-0.033333644018405016,-0.40390031205904153,-0.05300184140602747,-0.5055584239463012
-0.09201619029045105,0.3227505087852478,117.73219299316406,-0.033333644018405016,-0.40390031205904153,-0.05300184140602747,-0.5055584239463012
0.0631374642252922,0.4044545292854309,117.72811889648438,-0.033333644018405016,-0.40390031205904153,-0.05300184140602747,-0.5055584239463012
0.12622590363025665,0.3097238838672638,117.73197174072266,-0.033333644018405016,-0.40390031205904153,-0.05300184140602747,-0.5055584239463012
0.08179827034473419,0.15595360100269318,117.73454284667969,-0.0342025619186461,-0.4122939470772528,-0.05126830662290255,-0.5016777782390516
0.24658633768558502,0.15473169088363647,117.72854614257812,-0.03503422920902571,-0.4206336680137449,-0.04853176822264989,-0.4990887341399988
0.09168101102113724,0.18279223144054413,117.73323059082031,-0.0358196012246319,-0.42892837442147236,-0.04571287365009387,-0.4962760347872973
0,0.39779406785964966,117.72848510742188,-0.036575115715257,-0.43715932317492034,-0.04494886522491773,-0.4914378156264624
-0.0799252986907959,0.5361824035644531,117.74430847167969,-0.03732981383697027,-0.44528509395817917,-0.04561490938067436,-0.48365467836459486
-0.36941343545913696,2.439138889312744,117.83430480957031,-0.03812126640540858,-0.45313938573002815,-0.0493593988319238,-0.4588603342572849
-2.1390433311462402,3.026759624481201,117.89631652832031,-0.03911812143917713,-0.46040748168196943,-0.07026320522030194,-0.4133111799756687
-2.50862717628479,1.3435378074645996,118.07544708251953,-0.040611929755864876,-0.46699250847101215,-0.10899379278222719,-0.37689203470945365
0.2818054258823395,1.6150456666946411,118.27072143554688,-0.0425831333682355,-0.47306858519713085,-0.12755064070224761,-0.3522371724247933
0.1888393610715866,1.3469575643539429,118.52609252929688,-0.04467629371417894,-0.4787335100687213,-0.1236286008109649,-0.3275538121660551
-0.927298367023468,1.3743666410446167,118.60757446289062,-0.04678805226977501,-0.48400375942389173,-0.1297824258605639,-0.30487611045440044
-1.173706293106079,1.7697900533676147,118.6372299194336,-0.0490969958021823,-0.4888666837165753,-0.14729079802831013,-0.27867480466763184
0.9121387600898743,1.5279278755187988,118.68340301513672,-0.05157000684800248,-0.49328225560486316,-0.14947052747011183,-0.25119382192691175
-1.2613985538482666,0.8775153756141663,118.63153839111328,-0.054085436458182014,-0.49730177463342745,-0.15238102575143175,-0.2311484615008037
0.0763760656118393,2.0575637817382812,118.60978698730469,-0.05670741344905563,-0.5009504240502913,-0.16225621315340197,-0.20668946852286663
-0.6180071234703064,0,118.56111907958984,-0.059449296936185836,-0.5042523621519406,-0.16676980530222252,-0.18954310367504762
0,1.1535357236862183,118.46404266357422,-0.062271710852574984,-0.5073313072323798,-0.17191986466447506,-0.17993030597766246
-0.9162656664848328,2.0450541973114014,118.44603729248047,-0.06520067149048879,-0.5101080213652716,-0.179555411885182,-0.15327538996934897
-0.8758701682090759,0.24798859655857086,118.55085754394531,-0.06831771556598445,-0.5125033721151864,-0.19448987717429791,-0.13416670002043254
0.3722577691078186,0.9159887433052063,118.6148452758789,-0.07159418660216034,-0.5146586520224808,-0.1986866471668084,-0.12446688885490106
0,0.2610996663570404,118.73417663574219,-0.07487977948764132,-0.5166513579193915,-0.1955844990909099,-0.11465781877438234
-0.8143448233604431,1.2427271604537964,118.7764892578125,-0.07819607286300097,-0.5184578891471027,-0.20237070595224693,-0.1021259285509587
0.7593461871147156,1.286437749862671,118.8546371459961,-0.08157273731194437,-0.51998435150418,-0.20282902792096133,-0.08104955429832147
-1.6489886045455933,0.058097682893276215,118.86100006103516,-0.08501500183405976,-0.5212418068929884,-0.2102427147328853,-0.06984509235868858
-0.12682951986789703,0.4561358392238617,118.81078338623047,-0.08864236778269212,-0.522370181104375,-0.22504119910299772,-0.06555981300771242
0.34305766224861145,0.9446638822555542,118.7912826538086,-0.09237803859118786,-0.5233655668960675,-0.22323929791649177,-0.053886481995383956
0.3465450704097748,0.8949787616729736,118.88887023925781,-0.0960508044778059,-0.52413592196794,-0.21749260847767188,-0.03855612662931289
-0.9472917318344116,0.7397228479385376,118.95389556884766,-0.09971739980392158,-0.5246650031333167,-0.2224988306562105,-0.02493361321588363
-0.35978370904922485,0.2764039933681488,118.94176483154297,-0.1035164827760309,-0.5250099989896018,-0.23339112599690748,-0.01646588953832791
-0.10769862681627274,0.6028377413749695,119.0528335571289,-0.10743879892708112,-0.5252233720281057,-0.23728681212911995,-0.009138875082135258
-0.5007638335227966,0.20392026007175446,119.265625,-0.11143583346675667,-0.5253196617515963,-0.24235733263194553,-0.0024158917367458925
1.7308095693588257,0.0525117926299572,119.32870483398438,-0.11538970250118938,-0.5253421188324378,-0.23210695149997862,-0.0002789579642316288
-0.39573416113853455,1.2142084836959839,119.30616760253906,-0.11916543812284039,-0.5252588014459857,-0.22098132309814286,0.010277044338484547
-0.4761815667152405,1.1230770349502563,119.2449951171875,-0.12290900987779928,-0.5249252058793272,-0.22824728749692433,0.02975442366053655
-1.0802289247512817,0.3098801374435425,119.27737426757812,-0.12682121539798874,-0.5243297879035688,-0.24121737492581202,0.041695733430484876
0.08232433348894119,0.3111289143562317,119.45317840576172,-0.13091080391003437,-0.5235917333844635,-0.24953324651966485,0.04687080886214966
0.33147916197776794,0.11313402652740479,119.56605529785156,-0.13504095499817692,-0.522781090532533,-0.24608488405744228,0.05040633336951329
0.15906696021556854,-0.4709610342979431,119.50382232666016,-0.13910830402953753,-0.5219658340741362,-0.24199699970583113,0.04742444163809214
0.6402338743209839,0.4413222372531891,119.37110900878906,-0.14308608035556966,-0.5211774849632961,-0.23533615941802652,0.04717745166271919
0.2508179545402527,1.670851469039917,119.24193572998047,-0.14694647107997696,-0.520244515372647,-0.22791072751084954,0.06477889921516174
-1.0310084819793701,0.70416659116745,119.2741470336914,-0.15079916310289662,-0.5189999352426578,-0.23441231523950884,0.08457071638355645
0.327278733253479,0.44396308064460754,119.27784729003906,-0.1547549051449944,-0.5175106920757226,-0.2402767298122246,0.09413846364865694
1.2436397075653076,-0.4073905050754547,119.2232894897461,-0.1586504257501413,-0.515939177919386,-0.22718574280540138,0.0944432351117332
-0.8169159889221191,-0.2839292585849762,119.15217590332031,-0.16240722120532555,-0.514413132317778,-0.22362971181670815,0.08868223708122962
0.13149824738502502,0.6024827361106873,119.1790542602539,-0.16618198152321076,-0.5129129732638182,-0.22934152632951726,0.09133684939394388
0.36350107192993164,0,119.3337631225586,-0.16996996534263917,-0.5113488533616892,-0.22521653200189262,0.09635753886153293
-0.30177295207977295,0.5574093461036682,119.45777130126953,-0.1737192875343478,-0.5097041853982953,-0.2247021310031413,0.10100261674573018
-0.10082516819238663,0.9787720441818237,119.50413513183594,-0.1774922812538635,-0.5079141291893189,-0.22805711533874262,0.11380412833144261
-0.12252410501241684,-0.3197483718395233,119.49895477294922,-0.18130874354237064,-0.5059716281843266,-0.22991835928211599,0.11929599226762845
-0.11746080964803696,0,119.47864532470703,-0.18515738181614622,-0.5040055663945773,-0.2319182335709531,0.11663142250229909
1.2933083772659302,0.6445537805557251,119.4853515625,-0.18894102962791084,-0.5020169486736671,-0.22211950384080398,0.12200270400693013
-0.28456711769104004,0.12750156223773956,119.53649139404297,-0.19257296988223155,-0.49992995531919093,-0.2137133266776799,0.128436498530209
0.35682323575019836,-1.5517288446426392,119.68731689453125,-0.19612984087421656,-0.49788825168274337,-0.21311119236052023,0.1165679378435015
-1.7998422384262085,1.6163816452026367,119.934326171875,-0.19978190373318885,-0.49594096294086837,-0.22513635071615365,0.11710671118150148
1.0249881744384766,-0.3597535192966461,119.98611450195312,-0.2035879855551239,-0.4939019185790999,-0.23159346791605143,0.12757861223071806
1.413923978805542,0.3950299322605133,119.91185760498047,-0.20727850778752724,-0.4917731586243543,-0.21126919997235127,0.1278725823387503
-1.016716718673706,1.4283783435821533,119.82561492919922,-0.2107720772828906,-0.48951532334399717,-0.20795913947125264,0.14306765130410584
-0.6025161743164062,0.5243914127349854,119.85460662841797,-0.21435050966942468,-0.4869952534780734,-0.2214527469128369,0.15934073260674866
0.2949962317943573,-0.6197487711906433,120.02397918701172,-0.21806274433620265,-0.4843461966400759,-0.22401541310052064,0.15854608795295153
-0.7413467764854431,-0.3643931746482849,120.15315246582031,-0.2218273311201482,-0.4817721050315433,-0.22773500097294636,0.15034490507096046
0.7013357877731323,0.2207547426223755,120.16690826416016,-0.2256256930105801,-0.47927633150480686,-0.2280684258788823,0.1491479181374112
0.5324813723564148,0.13938888907432556,120.09868621826172,-0.2293411516946636,-0.47676552289476,-0.21778661621113607,0.15214911506821704
1.0185843706130981,1.3000974655151367,120.06562805175781,-0.23286321573269853,-0.4741297399801099,-0.20486106835305679,0.1641448346897959
0,0.5881317853927612,120.11786651611328,-0.2362068318461791,-0.4712628657039669,-0.1963728652646143,0.17988007844736173
-0.4247264862060547,-0.5669938921928406,120.23285675048828,-0.2395092078287981,-0.4682633964872609,-0.19991225264966478,0.18005622755736106
0.7754322290420532,0.5845260620117188,120.28868865966797,-0.24281672414081779,-0.4652612418495119,-0.19698970479269812,0.18020232897251837
-1.0224597454071045,-0.12828662991523743,120.2712173461914,-0.24611704057599923,-0.4622261864060743,-0.19904826742907356,0.18400432423998905
0.5554628968238831,0,120.32344055175781,-0.24946694203652428,-0.45916835646248527,-0.20293990783393373,0.1829352689906954
-0.27547717094421387,0.1249161958694458,120.42012786865234,-0.25282983038057044,-0.4561107605768161,-0.20060669345160315,0.18397623728960744
0.42105692625045776,0.05110103636980057,120.39456939697266,-0.2561631655662009,-0.45303226653641715,-0.19939352882405112,0.18544304755826782
-0.5236109495162964,0,120.3339614868164,-0.259493512853773,-0.4499380003940314,-0.20024814568459978,0.18586888952801617
-0.2032937854528427,0.5106832385063171,120.31147766113281,-0.26288146144400026,-0.44680472145477934,-0.20630568514267594,0.1901245831822355
0.12864422798156738,0.8620576858520508,120.3288803100586,-0.26632507352675816,-0.44354064917088387,-0.2069277647882699,0.2015640908852219
-0.3497852385044098,0.139628604054451,120.37455749511719,-0.2697892266211823,-0.44011168610822,-0.20877060654262694,0.20991147663444273
0.41205862164497375,-0.7008769512176514,120.4483642578125,-0.27326441218973024,-0.43665213707731004,-0.20825166168312223,0.2052344070747494
-0.22360815107822418,0.06941413879394531,120.55826568603516,-0.2767221863795485,-0.4332754152102603,-0.20668124109506597,0.19997221697121853
0.8137001395225525,0.6085213422775269,120.59464263916016,-0.2801258951208243,-0.4298954660745545,-0.20176380785802991,0.2056216793134808
1.5604982376098633,-0.07520171254873276,120.51769256591797,-0.2833237503644906,-0.42643140200059865,-0.18197882138192645,0.21006600956122076
-1.0497570037841797,1.0019863843917847,120.44416046142578,-0.28632126257961815,-0.4228659417945892,-0.1777226444333791,0.21778921515991287
-0.5628883838653564,0.7798376083374023,120.45043182373047,-0.289395295916539,-0.4191123837646511,-0.19116135599712522,0.23263774843265608
0.5342345833778381,-0.6794390082359314,120.60584259033203,-0.2925833083637472,-0.41522811583243313,-0.19140013766785455,0.23347440343350168
-0.8865334987640381,-0.7217230796813965,120.76760864257812,-0.2957977758606688,-0.41143417869798016,-0.19433596196273956,0.22179805270085728
0.7144219279289246,-0.15737943351268768,120.79308319091797,-0.2990486607524669,-0.4077985932719377,-0.19577022505303218,0.21447219842423992
0.6716228127479553,0.45288532972335815,120.71305084228516,-0.30221524472969263,-0.40420353538874126,-0.18421985221405818,0.21693474755932884
1.2634971141815186,1.4805257320404053,120.60382080078125,-0.3051511922716679,-0.4004536916056855,-0.16809385282297923,0.23304650640736022
-0.9991885423660278,-0.24716618657112122,120.60535430908203,-0.3079344017234526,-0.3964839331971275,-0.16589128139118348,0.24332450261960425
0.274093359708786,0,120.67942810058594,-0.3107496102454346,-0.39244568913864597,-0.1719337412466605,0.24126478439817825
0.11701209098100662,0,120.76693725585938,-0.3135880124988033,-0.38842460939867635,-0.16867452915757888,0.24126478439817825
0,0,120.77657318115234,-0.31639112881177817,-0.3844035296587067,-0.16769942839940383,0.24126478439817825
0.5303100347518921,-0.07088344544172287,120.82843780517578,-0.3191492921993549,-0.3803873723802261,-0.16328017810980472,0.24067408901949722
-0.28910836577415466,0.5970109701156616,120.953857421875,-0.32185387838528373,-0.3763396009295765,-0.1612701642016569,0.2450584850584467
-0.2669932246208191,0.41860583424568176,120.95785522460938,-0.324580332621311,-0.37218476390052174,-0.16590434412161503,0.2535219584281246
-0.10873384028673172,0.08755926787853241,120.92510223388672,-0.32737149718062314,-0.3679242475724055,-0.16903540299584463,0.2577400009458264
0.4971945583820343,0.14571432769298553,120.93963623046875,-0.3301617774584639,-0.363612381334727,-0.16579823034505045,0.25968394757558905
-0.18396055698394775,0.5188573002815247,120.96084594726562,-0.3329033289363399,-0.3592381647343023,-0.1631879470000664,0.2652220444753766
0.3054656982421875,-0.9948878884315491,120.97337341308594,-0.33561469019597584,-0.354850855006112,-0.16217540415624773,0.2612551229074597
-0.2370157092809677,-0.33746030926704407,121.0475082397461,-0.3383128601271243,-0.35058912713805007,-0.1616049875815709,0.25015222125997144
-0.5983994603157043,1.504227876663208,121.17045593261719,-0.34106429152915024,-0.34633889792487027,-0.16856678066154318,0.2598752843216061
1.9061052799224854,-0.3902147114276886,121.20923614501953,-0.34378292496936996,-0.34193028116081325,-0.15766923216482,0.26915872736523544
1.0779635906219482,-0.2431713044643402,121.13422393798828,-0.34620351850055137,-0.33748828751138515,-0.13280199157694972,0.2638805105661352
-1.282749056816101,1.4872981309890747,121.12153625488281,-0.34843110623976403,-0.3330038813056631,-0.13450853712856767,0.27424823412050797
-0.991615891456604,0.2687450051307678,121.24188232421875,-0.3508308572022035,-0.3283111299636463,-0.15346157836417354,0.28888192692150666
-0.20465004444122314,-0.9498525261878967,121.43570709228516,-0.353471624198266,-0.3235437303150279,-0.1634304611633221,0.28320603091269725
0.5110123157501221,-0.18115946650505066,121.60253143310547,-0.3561741900599249,-0.31890217229930884,-0.16087744223574796,0.27378093097358935
0.5920697450637817,0.10630874335765839,121.63562774658203,-0.3587788778429642,-0.3143443547499676,-0.15168509172896544,0.2731571749473611
0.41855329275131226,0.3275584578514099,121.47920227050781,-0.3612367805497098,-0.30976160550076093,-0.1432632330805063,0.27677273495743665
0.6596729755401611,1.4917463064193726,121.29521179199219,-0.36354962427686466,-0.30502238597617376,-0.13427801417807736,0.2919336079930265
0,-0.46714645624160767,121.28456115722656,-0.3657417805565312,-0.3000856730755832,-0.12878073938190934,0.30047194007784117
0,-0.12477881461381912,121.39925384521484,-0.3678881262128964,-0.29511891332920637,-0.12878073938190934,0.29553922948737926
-0.8744842410087585,-0.23728956282138824,121.48432922363281,-0.3700951999415538,-0.2902184031417386,-0.13606810805698233,0.29252199300875253
0.39438381791114807,-0.5653185844421387,121.46464538574219,-0.3723963420496631,-0.285398773268486,-0.1400689449161291,0.2858335917815565
1.0907808542251587,0.7971161603927612,121.5638198852539,-0.3746276880293669,-0.2806187830182413,-0.12769257264832654,0.2877652382478117
-0.24188588559627533,-0.5545444488525391,121.57562255859375,-0.3766969465340176,-0.27580585045636524,-0.12061844790975251,0.28978666917731355
-0.0542556568980217,0.12065181881189346,121.46955108642578,-0.37872781938407557,-0.2710062040693851,-0.12308629409720499,0.28617089726030814
0.25335267186164856,0.8721404075622559,121.3901138305664,-0.3807654314374343,-0.2661677452104373,-0.12142715230584143,0.29444416581342603
0.11664949357509613,0.7103784680366516,121.41091918945312,-0.3827635227143763,-0.2611504453027414,-0.1183438009272019,0.3076318231100836
-0.8789627552032471,-0.6505914926528931,121.46158599853516,-0.3847888578174427,-0.2560190963776161,-0.12469641144076982,0.30813004790494825
0.42957553267478943,0.2812995910644531,121.51493072509766,-0.38689833878746444,-0.25090924085014393,-0.1284413049618403,0.30505261539171125
-0.07672865688800812,-0.5539254546165466,121.64359283447266,-0.38901452394823216,-0.245843962945251,-0.1255009143302838,0.3027807331954438
0.39956575632095337,0.2977455258369446,121.67725372314453,-0.39108378661072074,-0.2408154076648255,-0.12281060516834258,0.3006459004556138
2.4479477405548096,0.16802580654621124,121.56708526611328,-0.39293288603735455,-0.23577229742581646,-0.09908132602771122,0.3045273282254734
-1.246948003768921,0.6966988444328308,121.4390869140625,-0.3945008387116507,-0.23063679163240725,-0.08907299488782881,0.3117333669836321
-0.41104021668434143,1.0684802532196045,121.37324523925781,-0.3945008387116507,-0.23063679163240725,-0.08907299488782881,0.3117333669836321
-0.08771433681249619,-1.6521707773208618,121.51353454589844,-0.3945008387116507,-0.23063679163240725,-0.08907299488782881,0.3117333669836321
-0.32348886132240295,0.4904976189136505,121.77824401855469,-0.3945008387116507,-0.23063679163240725,-0.08907299488782881,0.3117333669836321
0.07419612258672714,0.6768621802330017,121.97362518310547,-0.3945008387116507,-0.23063679163240725,-0.08907299488782881,0.3117333669836321
1.3155173063278198,-0.6018075942993164,122.02779388427734,-0.3945008387116507,-0.23063679163240725,-0.08907299488782881,0.3117333669836321
0.42150643467903137,0.18330980837345123,121.8296890258789,-0.3945008387116507,-0.23063679163240725,-0.08907299488782881,0.3117333669836321
0.018664756789803505,0.9422314763069153,121.73841094970703,-0.3945008387116507,-0.23063679163240725,-0.08907299488782881,0.3117333669836321
0.09935270249843597,-0.028859181329607964,121.7671127319336,-0.3945008387116507,-0.23063679163240725,-0.08907299488782881,0.3117333669836321
0.0969327986240387,0.25940772891044617,121.8485107421875,-0.3945008387116507,-0.23063679163240725,-0.08907299488782881,0.3117333669836321
-0.4773440361022949,0.2857486605644226,121.92796325683594,-0.3945008387116507,-0.23063679163240725,-0.08907299488782881,0.3117333669836321
0.3925403356552124,-0.24251200258731842,122.07054901123047,-0.3945008387116507,-0.23063679163240725,-0.08907299488782881,0.3117333669836321
0.7731847167015076,-1.183943271636963,122.20331573486328,-0.3945008387116507,-0.23063679163240725,-0.08907299488782881,0.3117333669836321
1.4012264013290405,-1.4384279251098633,122.05428314208984,-0.3945008387116507,-0.23063679163240725,-0.08907299488782881,0.3117333669836321
0.9180416464805603,-1.282034993171692,121.5030288696289,-0.3945008387116507,-0.23063679163240725,-0.08907299488782881,0.3117333669836321
1.3833558559417725,-1.1769976615905762,120.73516845703125,-0.3945008387116507,-0.23063679163240725,-0.08907299488782881,0.3117333669836321
2.3157262802124023,-2.474196672439575,119.80940246582031,-0.3945008387116507,-0.23063679163240725,-0.08907299488782881,0.3117333669836321
0.9513037800788879,-1.3765724897384644,118.72135162353516,-0.3945008387116507,-0.23063679163240725,-0.08907299488782881,0.3117333669836321
0.9180717468261719,0.3449040949344635,117.46569061279297,-0.3945008387116507,-0.23063679163240725,-0.08907299488782881,0.3117333669836321
0.8284000754356384,-1.5144546031951904,115.94731140136719,-0.3945008387116507,-0.23063679163240725,-0.08907299488782881,0.3117333669836321
1.6477643251419067,-1.6562772989273071,114.26310729980469,-0.3945008387116507,-0.23063679163240725,-0.08907299488782881,0.3117333669836321
1.405993103981018,0.06331028044223785,112.45787048339844,-0.3945008387116507,-0.23063679163240725,-0.08907299488782881,0.3117333669836321
0.9732879400253296,-1.6777474880218506,110.54950714111328,-0.3945008387116507,-0.23063679163240725,-0.08907299488782881,0.3117333669836321
0.8632707595825195,-0.5864838361740112,108.49356079101562,-0.3945008387116507,-0.23063679163240725,-0.08907299488782881,0.3117333669836321
0.937495231628418,0.2868387699127197,106.29920196533203,-0.3945008387116507,-0.23063679163240725,-0.08907299488782881,0.3117333669836321
0.3206454813480377,-1.6222656965255737,103.99644470214844,-0.3945008387116507,-0.23063679163240725,-0.08907299488782881,0.3117333669836321
1.7925411462783813,-0.3090651333332062,101.60547637939453,-0.3945008387116507,-0.23063679163240725,-0.08907299488782881,0.3117333669836321
-0.0013018617173656821,-2.214108943939209,99.14759063720703,-0.3945008387116507,-0.23063679163240725,-0.08907299488782881,0.3117333669836321
1.3753215074539185,-0.20706622302532196,96.66629028320312,-0.3945008387116507,-0.23063679163240725,-0.08907299488782881,0.3117333669836321
1.2887860536575317,-1.358467698097229,94.15824127197266,-0.3945008387116507,-0.23063679163240725,-0.08907299488782881,0.3117333669836321
0.13405656814575195,-0.5509413480758667,91.59479522705078,-0.3945008387116507,-0.23063679163240725,-0.08907299488782881,0.3117333669836321
1.276903510093689,0.6149853467941284,88.95924377441406,-0.3945008387116507,-0.23063679163240725,-0.08907299488782881,0.3117333669836321
1.0288376808166504,-1.5878945589065552,86.2966537475586,-0.3945008387116507,-0.23063679163240725,-0.08907299488782881,0.3117333669836321
1.728576898574829,0.22871939837932587,83.6629638671875,-0.3945008387116507,-0.23063679163240725,-0.08907299488782881,0.3117333669836321
-0.03225712478160858,-1.3561718463897705,80.91372680664062,-0.3945008387116507,-0.23063679163240725,-0.08907299488782881,0.3117333669836321
0.9224593639373779,-0.44712284207344055,78.22975158691406,-0.3945008387116507,-0.23063679163240725,-0.08907299488782881,0.3117333669836321
0.34612536430358887,-0.3813837468624115,75.52641296386719,-0.3945008387116507,-0.23063679163240725,-0.08907299488782881,0.3117333669836321
0.8326345086097717,-0.7671995759010315,72.82904052734375,-0.3945008387116507,-0.23063679163240725,-0.08907299488782881,0.3117333669836321
-0.2195713222026825,-0.4386526048183441,70.08649444580078,-0.3945008387116507,-0.23063679163240725,-0.08907299488782881,0.3117333669836321
1.2640883922576904,-0.7834091186523438,67.26468658447266,-0.3945008387116507,-0.23063679163240725,-0.08907299488782881,0.3117333669836321
-0.7279066443443298,-0.4112681746482849,64.3668212890625,-0.3945008387116507,-0.23063679163240725,-0.08907299488782881,0.3117333669836321
1.0429039001464844,-0.45771992206573486,61.60678482055664,-0.3945008387116507,-0.23063679163240725,-0.08907299488782881,0.3117333669836321
-1.6034847497940063,0.09207435697317123,59.10586166381836,-0.3945008387116507,-0.23063679163240725,-0.08907299488782881,0.3117333669836321
1.956364393234253,-0.9152408838272095,56.993865966796875,-0.3945008387116507,-0.23063679163240725,-0.08907299488782881,0.3117333669836321
-0.28291696310043335,0.6757574081420898,55.36741256713867,-0.3945008387116507,-0.23063679163240725,-0.08907299488782881,0.3117333669836321
1.0356184244155884,0.2559906840324402,54.217533111572266,-0.3945008387116507,-0.23063679163240725,-0.08907299488782881,0.3117333669836321
-1.0521612167358398,0.903102457523346,53.42559814453125,-0.3945008387116507,-0.23063679163240725,-0.08907299488782881,0.3117333669836321
-0.930342435836792,1.1602168083190918,52.9127197265625,-0.3945008387116507,-0.23063679163240725,-0.08907299488782881,0.3117333669836321
-0.6351925730705261,0.2184590995311737,52.790584564208984,-0.3945008387116507,-0.23063679163240725,-0.08907299488782881,0.3117333669836321
-0.7870058417320251,-1.2444663047790527,52.828895568847656,-0.3945008387116507,-0.23063679163240725,-0.08907299488782881,0.3117333669836321
-0.6203427314758301,-1.4949945211410522,52.78791046142578,-0.3945008387116507,-0.23063679163240725,-0.08907299488782881,0.3117333669836321
-0.07611007988452911,-0.21148604154586792,52.82271957397461,-0.3945008387116507,-0.23063679163240725,-0.08907299488782881,0.3117333669836321
0.348894327878952,0.18011613190174103,52.86825942993164,-0.3945008387116507,-0.23063679163240725,-0.08907299488782881,0.3117333669836321
0.6649901866912842,0.6333047747612,52.862884521484375,-0.3945008387116507,-0.23063679163240725,-0.08907299488782881,0.3117333669836321
0.7208130955696106,0.7286688089370728,52.85306167602539,-0.3945008387116507,-0.23063679163240725,-0.08907299488782881,0.3117333669836321
0.39362597465515137,0.311519056558609,52.872249603271484,-0.3945008387116507,-0.23063679163240725,-0.08907299488782881,0.3117333669836321
0.02142404019832611,-0.22872155904769897,52.86695098876953,-0.3945008387116507,-0.23063679163240725,-0.08907299488782881,0.3117333669836321
-0.09700414538383484,-0.44317033886909485,52.85533142089844,-0.3945008387116507,-0.23063679163240725,-0.08907299488782881,0.3117333669836321
-0.023389676585793495,-0.33285364508628845,52.862796783447266,-0.3945008387116507,-0.23063679163240725,-0.08907299488782881,0.3117333669836321
0.1503581553697586,-0.005363074596971273,52.8650016784668,-0.3945008387116507,-0.23063679163240725,-0.08907299488782881,0.3117333669836321
0.3954593539237976,0.2626802325248718,52.866294860839844,-0.3945008387116507,-0.23063679163240725,-0.08907299488782881,0.3117333669836321
0.38949641585350037,0.31352856755256653,52.86691665649414,-0.3945008387116507,-0.23063679163240725,-0.08907299488782881,0.3117333669836321
0.24355655908584595,0.07302576303482056,52.869285583496094,-0.3945008387116507,-0.23063679163240725,-0.08907299488782881,0.3117333669836321
0.07511398196220398,-0.1771232932806015,52.8685302734375,-0.3945008387116507,-0.23063679163240725,-0.08907299488782881,0.3117333669836321
0.07475370168685913,-0.1850813329219818,52.8668098449707,-0.39597498114841667,-0.22546638861505522,-0.08782409752408663,0.30871499509861056
0.22508451342582703,0,52.86531448364258,-0.3974178940088797,-0.22033399156708686,-0.0853254457314809,0.307172650657594
0.5011171102523804,0.6350293755531311,52.857635498046875,-0.39878955410276007,-0.2151703481272691,-0.07927376553416252,0.3124645621205368
1.6459170579910278,2.2745254039764404,52.90801239013672,-0.39996168393331255,-0.20976055301001503,-0.061381814132134116,0.3367108519499499
1.60040283203125,2.2602908611297607,53.00440979003906,-0.4007592752875966,-0.20383378768132793,-0.03432914838194846,0.37450098749250155
1.409792423248291,0.49187707901000977,52.95359802246094,-0.4011223864234569,-0.19740098178283208,-0.009244187921285622,0.39743572032699964
0.7111765146255493,0.8876665830612183,52.846622467041016,-0.4011291667125704,-0.19068125146751602,0.008430553227663048,0.40893191751092656
1.1492807865142822,1.8979555368423462,52.86186218261719,-0.4008594590684191,-0.18367227352845172,0.023934364070494978,0.4321454351767896
0.5276463627815247,1.3979171514511108,52.8918342590332,-0.40034409972632085,-0.1762409695610404,0.03790875698129337,0.45961104091256844
1.0615450143814087,0.7045584321022034,52.934268951416016,-0.39960192659766297,-0.16843478029697306,0.05115201845765115,0.4771316707755127
0.9551753401756287,1.142473816871643,53.08518981933594,-0.3986093429320801,-0.1603543196556469,0.06795802141229312,0.4925236061836281
0.9515717625617981,0.6009677648544312,53.18658447265625,-0.39734429624862955,-0.15202452055385546,0.08384758060177168,0.5070522860313454
1.2784074544906616,0.5232604146003723,53.27632141113281,-0.39579197690408247,-0.14349557771864868,0.10243074074387551,0.5164208541934688
1.2398728132247925,1.020292043685913,53.324790954589844,-0.39390991731753766,-0.13478137233915433,0.1234164096415043,0.5292837913458546
0.4218154847621918,0.5539652109146118,53.3592414855957,-0.3917375821361524,-0.12585065239626506,0.13726381212472916,0.542402601800859
-0.054050132632255554,1.3410392999649048,53.26324462890625,-0.389424312673509,-0.11667901149743966,0.14032852339247862,0.5581943060581883
1.045436143875122,0.6611096262931824,53.23039245605469,-0.3870166576995203,-0.10723673494325749,0.14859007348616918,0.5748788804436724
0.8892196416854858,0.8045337200164795,53.17604064941406,-0.38440580537853136,-0.09755363948125811,0.16471220503250758,0.5870925749962529
0.6429253220558167,1.3545737266540527,53.241729736328125,-0.3815542030055075,-0.08761882521419068,0.17748007973035176,0.6050851370518406
0.3702772259712219,0.2666301131248474,53.38409423828125,-0.37852584038861087,-0.07742148933000868,0.18592343429724376,0.6185951690499981
0.09425470978021622,0.166311576962471,53.43262481689453,-0.37539485732145184,-0.06708150445069709,0.18979453376183908,0.6222030164673924
0.606116533279419,0.4104327857494354,53.521053314208984,-0.37218297820020874,-0.056671402484385555,0.19563096078733605,0.6270092194899917
1.1211479902267456,0.23151744902133942,53.560302734375,-0.368802513261843,-0.046176668948804386,0.2100248318165541,0.6323588047797482
1.2896186113357544,-0.0917043387889862,53.601585388183594,-0.365134685050903,-0.035627646292042445,0.2301145534962416,0.6335239140316844
-0.3197857439517975,1.0558921098709106,53.59486770629883,-0.3612320929879529,-0.02500195690741146,0.23819649405777457,0.6415588121240338
0.1888875514268875,0.712208092212677,53.59486389160156,-0.357271241572582,-0.01418652530242176,0.23710567578673367,0.6562929804747303
0.3767312467098236,-0.3680884540081024,53.65092849731445,-0.35328020122626586,-0.003224411764078717,0.24181916577120627,0.659160644126435
0.9818291664123535,0,53.70268249511719,-0.34915553732361226,0.00773603727316686,0.2531405025472244,0.6560932403430342
-1.6448125839233398,1.1139485836029053,53.69743728637695,-0.3449825694629301,0.01874828215274541,0.24761564073463288,0.6653761452063918
0.21114425361156464,0.2281990945339203,53.666046142578125,-0.340955202418069,0.029931089272722554,0.23566840464870142,0.6765607091908653
1.7604926824569702,1.3964552879333496,53.71147155761719,-0.3368904764422525,0.04131992431357498,0.25209871244927257,0.6900994957114259
0.42995497584342957,-0.05625608190894127,53.79617691040039,-0.33253671681404934,0.05291465196473933,0.27035244293510924,0.701267822428296
0.5307343006134033,-0.49910566210746765,53.78831100463867,-0.3279641282320436,0.064563882217432,0.27835818690558284,0.6966398078948259
0.8822996020317078,-0.8049279451370239,53.785377502441406,-0.32322669776260016,0.07608398779295379,0.2901334694276254,0.6857728611677885
-0.40155020356178284,0.8941479325294495,53.7877082824707,-0.31835775456391263,0.08751973131154141,0.2941397144148748,0.6865163610627253
0.6504892706871033,-0.1979740560054779,53.836334228515625,-0.3134381385551144,0.09901001607067877,0.29621420664091913,0.6923178100337584
0.45932304859161377,1.292130708694458,53.90904235839844,-0.30842416481114915,0.11062462933878926,0.30546264263490847,0.7014357821394999
-0.5645636916160583,0.7157816886901855,53.815208435058594,-0.3033404291452218,0.12245466406871042,0.30458563727637145,0.7181683854510386
0.43455585837364197,-0.44607242941856384,53.77637481689453,-0.2982730301790352,0.1344428669692327,0.303502238666018,0.7204159626116354
0.7826472520828247,0.2944179177284241,53.829551696777344,-0.2931301315408199,0.1464392681161148,0.3136455979198219,0.7191521750142176
0.28748196363449097,-0.9994525909423828,54.00430679321289,-0.2878283903799536,0.15837617695848968,0.32256334138413284,0.7132768860707679
0.834092378616333,-0.961275041103363,54.134361267089844,-0.2878283903799536,0.15837617695848968,0.32256334138413284,0.7132768860707679
-0.5527558922767639,0.8857976794242859,54.073787689208984,-0.2878283903799536,0.15837617695848968,0.32256334138413284,0.7132768860707679
-0.21720261871814728,1.4513823986053467,53.874881744384766,-0.2878283903799536,0.15837617695848968,0.32256334138413284,0.7132768860707679
-0.7093227505683899,-0.6602324843406677,53.818443298339844,-0.2878283903799536,0.15837617695848968,0.32256334138413284,0.7132768860707679
0.38401782512664795,-1.1653162240982056,53.677650451660156,-0.2878283903799536,0.15837617695848968,0.32256334138413284,0.7132768860707679
-2.035257339477539,-1.8892674446105957,53.23794937133789,-0.2878283903799536,0.15837617695848968,0.32256334138413284,0.7132768860707679
0.9119921326637268,-2.452388286590576,52.58797073364258,-0.2878283903799536,0.15837617695848968,0.32256334138413284,0.7132768860707679
-0.4339512288570404,-2.095815658569336,51.695648193359375,-0.2878283903799536,0.15837617695848968,0.32256334138413284,0.7132768860707679
-0.31315553188323975,-2.1514546871185303,50.617164611816406,-0.2878283903799536,0.15837617695848968,0.32256334138413284,0.7132768860707679
-0.4418874680995941,-1.2337331771850586,49.3489875793457,-0.2878283903799536,0.15837617695848968,0.32256334138413284,0.7132768860707679
-0.4690916836261749,-1.711337685585022,47.93364334106445,-0.2878283903799536,0.15837617695848968,0.32256334138413284,0.7132768860707679
0.16367582976818085,-1.2561081647872925,46.40589141845703,-0.2878283903799536,0.15837617695848968,0.32256334138413284,0.7132768860707679
-1.411019206047058,-1.3885732889175415,44.80126190185547,-0.2878283903799536,0.15837617695848968,0.32256334138413284,0.7132768860707679
-0.38432204723358154,-1.5010595321655273,43.04151916503906,-0.2878283903799536,0.15837617695848968,0.32256334138413284,0.7132768860707679
-0.412393182516098,-1.400499701499939,41.17620086669922,-0.2878283903799536,0.15837617695848968,0.32256334138413284,0.7132768860707679
-0.11607790738344193,-1.8975518941879272,39.21723556518555,-0.2878283903799536,0.15837617695848968,0.32256334138413284,0.7132768860707679
0.07152558863162994,0.0833452045917511,37.120849609375,-0.2878283903799536,0.15837617695848968,0.32256334138413284,0.7132768860707679
-0.24262213706970215,-1.356276273727417,34.982032775878906,-0.2878283903799536,0.15837617695848968,0.32256334138413284,0.7132768860707679
-1.1786901950836182,-1.5119043588638306,32.77739334106445,-0.2878283903799536,0.15837617695848968,0.32256334138413284,0.7132768860707679
0.10236983001232147,-1.578171730041504,30.52496337890625,-0.2878283903799536,0.15837617695848968,0.32256334138413284,0.7132768860707679
-0.8265880942344666,-0.07070079445838928,28.240041732788086,-0.2878283903799536,0.15837617695848968,0.32256334138413284,0.7132768860707679
0.06799416244029999,-0.5423890948295593,25.845367431640625,-0.2878283903799536,0.15837617695848968,0.32256334138413284,0.7132768860707679
-0.005923447664827108,-0.42657434940338135,23.4063663482666,-0.2878283903799536,0.15837617695848968,0.32256334138413284,0.7132768860707679
-1.053985357284546,-0.7076626420021057,20.892602920532227,-0.2878283903799536,0.15837617695848968,0.32256334138413284,0.7132768860707679
-1.2654814720153809,-0.864607036113739,18.334850311279297,-0.2878283903799536,0.15837617695848968,0.32256334138413284,0.7132768860707679
-0.6928200721740723,-1.4433085918426514,15.719168663024902,-0.2878283903799536,0.15837617695848968,0.32256334138413284,0.7132768860707679
-0.1622883677482605,-0.5660130977630615,13.009498596191406,-0.2878283903799536,0.15837617695848968,0.32256334138413284,0.7132768860707679
0.44352129101753235,-0.03956763818860054,10.236994743347168,-0.2878283903799536,0.15837617695848968,0.32256334138413284,0.7132768860707679
-0.29127901792526245,0.08656172454357147,7.378779888153076,-0.2878283903799536,0.15837617695848968,0.32256334138413284,0.7132768860707679
-0.9974010586738586,-1.5119280815124512,4.470146179199219,-0.2878283903799536,0.15837617695848968,0.32256334138413284,0.7132768860707679
-0.3961697220802307,-0.6228295564651489,1.633044958114624,-0.2878283903799536,0.15837617695848968,0.32256334138413284,0.7132768860707679
-0.7757781147956848,-0.036996882408857346,-1.1768261194229126,-0.2878283903799536,0.15837617695848968,0.32256334138413284,0.7132768860707679
0.10748562961816788,-0.7491867542266846,-3.9279401302337646,-0.2878283903799536,0.15837617695848968,0.32256334138413284,0.7132768860707679
-0.7238675355911255,0.25793376564979553,-6.716397285461426,-0.2878283903799536,0.15837617695848968,0.32256334138413284,0.7132768860707679
0.28359702229499817,-0.5256524682044983,-9.479790687561035,-0.2878283903799536,0.15837617695848968,0.32256334138413284,0.7132768860707679
-0.575012743473053,-0.4561484158039093,-12.25687026977539,-0.2878283903799536,0.15837617695848968,0.32256334138413284,0.7132768860707679
-1.5139435529708862,-0.4151798486709595,-15.072395324707031,-0.2878283903799536,0.15837617695848968,0.32256334138413284,0.7132768860707679
0.4651196599006653,-0.3057827949523926,-17.7041072845459,-0.2878283903799536,0.15837617695848968,0.32256334138413284,0.7132768860707679
0.22098352015018463,-0.33127129077911377,-20.025270462036133,-0.2878283903799536,0.15837617695848968,0.32256334138413284,0.7132768860707679
-0.6456965208053589,0.06555312126874924,-21.862581253051758,-0.2878283903799536,0.15837617695848968,0.32256334138413284,0.7132768860707679
0.4679379463195801,1.5552350282669067,-23.418001174926758,-0.2878283903799536,0.15837617695848968,0.32256334138413284,0.7132768860707679
1.7886407375335693,-0.3901287913322449,-24.703889846801758,-0.2878283903799536,0.15837617695848968,0.32256334138413284,0.7132768860707679
0.15553908050060272,1.140905737876892,-25.65752410888672,-0.2878283903799536,0.15837617695848968,0.32256334138413284,0.7132768860707679
1.1290779113769531,0.44632643461227417,-26.33190155029297,-0.2878283903799536,0.15837617695848968,0.32256334138413284,0.7132768860707679
1.1896286010742188,0.8086620569229126,-26.72623062133789,-0.2878283903799536,0.15837617695848968,0.32256334138413284,0.7132768860707679
0.6815798282623291,0.6801925897598267,-26.7625675201416,-0.2878283903799536,0.15837617695848968,0.32256334138413284,0.7132768860707679
-0.2727603614330292,-0.22774575650691986,-26.6114444732666,-0.2878283903799536,0.15837617695848968,0.32256334138413284,0.7132768860707679
-0.8281650543212891,0.049814242869615555,-26.61093521118164,-0.2878283903799536,0.15837617695848968,0.32256334138413284,0.7132768860707679
0.02691175416111946,0.028944997116923332,-26.669313430786133,-0.2878283903799536,0.15837617695848968,0.32256334138413284,0.7132768860707679
-0.1459597647190094,-0.17962057888507843,-26.646961212158203,-0.2878283903799536,0.15837617695848968,0.32256334138413284,0.7132768860707679
0.19415122270584106,-0.1481907069683075,-26.640769958496094,-0.2878283903799536,0.15837617695848968,0.32256334138413284,0.7132768860707679
0.2503160834312439,-0.2613346576690674,-26.648298263549805,-0.2878283903799536,0.15837617695848968,0.32256334138413284,0.7132768860707679
0.21890363097190857,-0.25278013944625854,-26.638914108276367,-0.2878283903799536,0.15837617695848968,0.32256334138413284,0.7132768860707679
0.19460563361644745,-0.18452386558055878,-26.63728904724121,-0.2878283903799536,0.15837617695848968,0.32256334138413284,0.7132768860707679
-0.0061449892818927765,-0.1567484587430954,-26.642406463623047,-0.2878283903799536,0.15837617695848968,0.32256334138413284,0.7132768860707679
-0.006267764139920473,-0.12163686752319336,-26.63812828063965,-0.2878283903799536,0.15837617695848968,0.32256334138413284,0.7132768860707679
0.05139030143618584,-0.1605030596256256,-26.6380672454834,-0.2878283903799536,0.15837617695848968,0.32256334138413284,0.7132768860707679
0.1365552842617035,-0.21553471684455872,-26.637903213500977,-0.2878283903799536,0.15837617695848968,0.32256334138413284,0.7132768860707679
0.12177955359220505,-0.16562628746032715,-26.637161254882812,-0.2878283903799536,0.15837617695848968,0.32256334138413284,0.7132768860707679
0.032081324607133865,-0.1433255821466446,-26.638933181762695,-0.2878283903799536,0.15837617695848968,0.32256334138413284,0.7132768860707679
0.03641984984278679,-0.16316108405590057,-26.639310836791992,-0.2878283903799536,0.15837617695848968,0.32256334138413284,0.7132768860707679
0.06926237046718597,-0.14607538282871246,-26.63874626159668,-0.2878283903799536,0.15837617695848968,0.32256334138413284,0.7132768860707679
0.10360527038574219,-0.19513410329818726,-26.63840675354004,-0.2878283903799536,0.15837617695848968,0.32256334138413284,0.7132768860707679
0.06385461986064911,-0.1696096807718277,-26.63665199279785,-0.2824407055311732,0.17023879563021985,0.32395884046951945,0.7102373545368511
0.051045943051576614,-0.15403398871421814,-26.636171340942383,-0.27703341231759004,0.18205360961767528,0.32491634516045464,0.7075403239578008
0.5748913884162903,-0.19401413202285767,-26.6219482421875,-0.27157467202800833,0.19382177834192077,0.33013248958935354,0.7046399229516584
1.7575212717056274,-1.0166374444961548,-26.475370407104492,-0.2659104907667884,0.2054817040316346,0.3495692617570362,0.6945511598140001
2.4948151111602783,-1.2106038331985474,-26.29176139831543,-0.2597890352664721,0.21690288716202802,0.38500539828091873,0.6759908158332109
1.7464096546173096,-1.3267525434494019,-26.334938049316406,-0.25307774913083336,0.22799319545531432,0.420348937995732,0.6548461793611446
1.6981428861618042,-0.8274297714233398,-26.33669662475586,-0.24583272846001705,0.23875770245057834,0.44905354250222457,0.6368946600705384
1.0202338695526123,0.07432915270328522,-26.267780303955078,-0.23815972658805537,0.2493203147976762,0.471706682133178,0.6306188215812046
1.1398863792419434,-1.0250358581542969,-26.147504806518555,-0.23014794020189167,0.25976460719170663,0.489707684206466,0.6226962657024462
1.586035966873169,-0.8934505581855774,-26.08747673034668,-0.22179684530219257,0.27000965006339045,0.5124237037574253,0.6067088788996139
1.792025089263916,-0.42342326045036316,-26.00725746154785,-0.21302186266622597,0.28003001514097875,0.5405742125585676,0.595734930410981
0.25609099864959717,-1.1852314472198486,-25.849531173706055,-0.20387006217303363,0.28984721851535133,0.5576418466245135,0.5823294745137293
1.0468040704727173,0,-25.7974796295166,-0.1944855525717138,0.2994704020178566,0.5684993055338662,0.5724525457868972
1.4943723678588867,-1.0748462677001953,-25.74612045288086,-0.18483409356015412,0.3089366356790479,0.5896757758532962,0.5634954935560622
1.6749463081359863,0.7338021993637085,-25.595090866088867,-0.17478607238787733,0.3183045436224589,0.6160867648199202,0.5606534596532582
-0.26314789056777954,-2.1516215801239014,-25.498708724975586,-0.16441991808410308,0.32755030827079373,0.6278517516329886,0.5488382981469232
1.0306799411773682,0,-25.417943954467773,-0.1539024213867054,0.33654819507462275,0.6342478520547351,0.5309081183125574
0.889462947845459,-0.4732833206653595,-25.331100463867188,-0.14319828059627768,0.34536379681589696,0.650249042796592,0.526964090640346
1.4418580532073975,-0.3590797185897827,-25.280546188354492,-0.13219889925792802,0.35408872867106556,0.6696767178053659,0.5200277319798865
0.5471239686012268,-0.5876673460006714,-25.34524154663086,-0.1208994968763241,0.3626901112134671,0.6862515679871044,0.5121381731082993
-0.39441099762916565,-1.0417934656143188,-25.53120994567871,-0.10945136567577708,0.37111259043113215,0.6875241760785382,0.49855933301150773
1.7516729831695557,0.12668365240097046,-25.536657333374023,-0.09789837510325003,0.37935836335540635,0.6988346926247081,0.4909334179013965
0.4767114520072937,-0.3275325298309326,-25.511396408081055,-0.08609638130706206,0.38752663914838587,0.7174045629178485,0.48925967725614683
1.4145582914352417,0.41638484597206116,-25.453611373901367,-0.07400830041513663,0.395687137402387,0.733165144113203,0.49000011322398956
0.7527813911437988,-1.4680784940719604,-25.35670280456543,-0.06163837164640415,0.4037807716750021,0.751226308134695,0.48123599948982376
0,-0.2903282940387726,-25.351415634155273,-0.049065656691996466,0.41167926008399147,0.7574994863942267,0.46658260958890097
-0.3990524411201477,0.08354520052671432,-25.374544143676758,-0.03646837722717047,0.4194412769734237,0.7541740493848922,0.46485941714296714
0.7906441688537598,-0.47549939155578613,-25.359874725341797,-0.02387161586744077,0.4271617148847628,0.7574373137826723,0.46159313221772486
0.37470337748527527,0.17607222497463226,-25.35410499572754,-0.011166733724789355,0.4348341402018234,0.7671485433354976,0.45909790582954857
0.7831306457519531,-0.5464529395103455,-25.461917877197266,0.0016994804713048577,0.44246005108269537,0.7767971601958079,0.45601139987508427
0.45870646834373474,-0.17002476751804352,-25.54761505126953,0.0016994804713048577,0.44246005108269537,0.7767971601958079,0.45601139987508427
-0.6600785255432129,-1.0702221393585205,-25.50741958618164,0.0016994804713048577,0.44246005108269537,0.7767971601958079,0.45601139987508427
-0.4822980463504791,-0.3196595311164856,-25.420494079589844,0.0016994804713048577,0.44246005108269537,0.7767971601958079,0.45601139987508427
0.5543172955513,0.5302278399467468,-25.339948654174805,0.0016994804713048577,0.44246005108269537,0.7767971601958079,0.45601139987508427
1.2653121948242188,-0.025149699300527573,-25.270009994506836,0.0016994804713048577,0.44246005108269537,0.7767971601958079,0.45601139987508427
0.5446459650993347,-0.7608929872512817,-25.17646598815918,0.0016994804713048577,0.44246005108269537,0.7767971601958079,0.45601139987508427
-1.0542446374893188,-1.1027742624282837,-25.182416915893555,0.0016994804713048577,0.44246005108269537,0.7767971601958079,0.45601139987508427
0.09042368829250336,0.8993383049964905,-25.247753143310547,0.0016994804713048577,0.44246005108269537,0.7767971601958079,0.45601139987508427
0.5513942837715149,-0.015517204999923706,-25.294233322143555,0.0016994804713048577,0.44246005108269537,0.7767971601958079,0.45601139987508427
-0.4981343150138855,-0.12998872995376587,-25.27452278137207,0.0016994804713048577,0.44246005108269537,0.7767971601958079,0.45601139987508427
-2.2585692405700684,0.7817724943161011,-25.48555564880371,0.0016994804713048577,0.44246005108269537,0.7767971601958079,0.45601139987508427
-2.487251043319702,-0.2347659319639206,-26.00494384765625,0.0016994804713048577,0.44246005108269537,0.7767971601958079,0.45601139987508427
-1.2613693475723267,0.2506940960884094,-26.86097526550293,0.0016994804713048577,0.44246005108269537,0.7767971601958079,0.45601139987508427
-1.4051895141601562,0.4966709315776825,-28.04329490661621,0.0016994804713048577,0.44246005108269537,0.7767971601958079,0.45601139987508427
-1.8934283256530762,0.23795035481452942,-29.4161434173584,0.0016994804713048577,0.44246005108269537,0.7767971601958079,0.45601139987508427
-1.8172962665557861,0.35263580083847046,-30.845251083374023,0.0016994804713048577,0.44246005108269537,0.7767971601958079,0.45601139987508427
-2.031592845916748,0.8796517848968506,-32.37662887573242,0.0016994804713048577,0.44246005108269537,0.7767971601958079,0.45601139987508427
-1.4431430101394653,-2.0450189113616943,-34.085594177246094,0.0016994804713048577,0.44246005108269537,0.7767971601958079,0.45601139987508427
0.10450666397809982,0.9533942937850952,-35.876182556152344,0.0016994804713048577,0.44246005108269537,0.7767971601958079,0.45601139987508427
-1.2791944742202759,-0.6838071346282959,-37.80036926269531,0.0016994804713048577,0.44246005108269537,0.7767971601958079,0.45601139987508427
-1.8937228918075562,1.0853641033172607,-39.74250030517578,0.0016994804713048577,0.44246005108269537,0.7767971601958079,0.45601139987508427
-1.1490811109542847,-0.22330988943576813,-41.80784225463867,0.0016994804713048577,0.44246005108269537,0.7767971601958079,0.45601139987508427
-1.2916795015335083,0.32714149355888367,-43.86824417114258,0.0016994804713048577,0.44246005108269537,0.7767971601958079,0.45601139987508427
-1.5227599143981934,0.011850649490952492,-46.00938415527344,0.0016994804713048577,0.44246005108269537,0.7767971601958079,0.45601139987508427
-0.3867616355419159,0.5261266827583313,-48.24883270263672,0.0016994804713048577,0.44246005108269537,0.7767971601958079,0.45601139987508427
-0.4744934141635895,-0.3193924129009247,-50.554298400878906,0.0016994804713048577,0.44246005108269537,0.7767971601958079,0.45601139987508427
-0.33165958523750305,1.414536476135254,-52.94625473022461,0.0016994804713048577,0.44246005108269537,0.7767971601958079,0.45601139987508427
-1.3026933670043945,-0.1389608234167099,-55.361839294433594,0.0016994804713048577,0.44246005108269537,0.7767971601958079,0.45601139987508427
-1.5389974117279053,0.8430103063583374,-57.85981750488281,0.0016994804713048577,0.44246005108269537,0.7767971601958079,0.45601139987508427
0.05019116774201393,0.05479721352458,-60.43324661254883,0.0016994804713048577,0.44246005108269537,0.7767971601958079,0.45601139987508427
-1.421377182006836,-1.5563290119171143,-63.03095245361328,0.0016994804713048577,0.44246005108269537,0.7767971601958079,0.45601139987508427
0.36524859070777893,1.5619480609893799,-65.64371490478516,0.0016994804713048577,0.44246005108269537,0.7767971601958079,0.45601139987508427
-1.1818920373916626,-0.7950578927993774,-68.29596710205078,0.0016994804713048577,0.44246005108269537,0.7767971601958079,0.45601139987508427
-0.1944466084241867,0.9272980690002441,-71.03466033935547,0.0016994804713048577,0.44246005108269537,0.7767971601958079,0.45601139987508427
-1.5372238159179688,0.9022964239120483,-73.78496551513672,0.0016994804713048577,0.44246005108269537,0.7767971601958079,0.45601139987508427
-0.31086647510528564,-0.11834468692541122,-76.63333129882812,0.0016994804713048577,0.44246005108269537,0.7767971601958079,0.45601139987508427
-0.4108833968639374,0.08150769025087357,-79.49993896484375,0.0016994804713048577,0.44246005108269537,0.7767971601958079,0.45601139987508427
-0.1457364559173584,0.7804017663002014,-82.40670013427734,0.0016994804713048577,0.44246005108269537,0.7767971601958079,0.45601139987508427
-1.0242613554000854,-0.4134674072265625,-85.32466888427734,0.0016994804713048577,0.44246005108269537,0.7767971601958079,0.45601139987508427
0.04706496000289917,0.9076469540596008,-88.25714111328125,0.0016994804713048577,0.44246005108269537,0.7767971601958079,0.45601139987508427
-0.8004621863365173,-0.11802368611097336,-91.2123794555664,0.0016994804713048577,0.44246005108269537,0.7767971601958079,0.45601139987508427
0.6508421301841736,0.9169765710830688,-94.17034912109375,0.0016994804713048577,0.44246005108269537,0.7767971601958079,0.45601139987508427
-0.4915936589241028,-0.6598566174507141,-97.09977722167969,0.0016994804713048577,0.44246005108269537,0.7767971601958079,0.45601139987508427
-1.0040186643600464,-0.3802948296070099,-100.09856414794922,0.0016994804713048577,0.44246005108269537,0.7767971601958079,0.45601139987508427
-0.8084691762924194,0.6660386323928833,-103.15708923339844,0.0016994804713048577,0.44246005108269537,0.7767971601958079,0.45601139987508427
-0.5797670483589172,0.9596801400184631,-106.15901947021484,0.0016994804713048577,0.44246005108269537,0.7767971601958079,0.45601139987508427
1.167822003364563,0.7108293771743774,-109.24337005615234,0.0016994804713048577,0.44246005108269537,0.7767971601958079,0.45601139987508427
-1.0513150691986084,0.8545811772346497,-112.30274963378906,0.0016994804713048577,0.44246005108269537,0.7767971601958079,0.45601139987508427
0.31543657183647156,0.38259032368659973,-115.44780731201172,0.0016994804713048577,0.44246005108269537,0.7767971601958079,0.45601139987508427
0.0447663739323616,0.31068840622901917,-118.60939025878906,0.0016994804713048577,0.44246005108269537,0.7767971601958079,0.45601139987508427
0.431315153837204,0.10105441510677338,-121.79564666748047,0.0016994804713048577,0.44246005108269537,0.7767971601958079,0.45601139987508427
-0.2362414002418518,0.31907135248184204,-124.94432067871094,0.0016994804713048577,0.44246005108269537,0.7767971601958079,0.45601139987508427
-1.8956942558288574,0.6085789203643799,-128.01327514648438,0.0016994804713048577,0.44246005108269537,0.7767971601958079,0.45601139987508427
1.1940196752548218,-0.6783360242843628,-130.59291076660156,0.0016994804713048577,0.44246005108269537,0.7767971601958079,0.45601139987508427
-0.5296764373779297,-1.5126205682754517,-132.93881225585938,0.0016994804713048577,0.44246005108269537,0.7767971601958079,0.45601139987508427
0.7764433026313782,-1.3738062381744385,-134.91751098632812,0.0016994804713048577,0.44246005108269537,0.7767971601958079,0.45601139987508427
1.6690160036087036,-0.9537137150764465,-136.55972290039062,0.0016994804713048577,0.44246005108269537,0.7767971601958079,0.45601139987508427
0.3506169319152832,-0.34894832968711853,-137.6769561767578,0.0016994804713048577,0.44246005108269537,0.7767971601958079,0.45601139987508427
1.1459046602249146,-1.6020853519439697,-138.35006713867188,0.0016994804713048577,0.44246005108269537,0.7767971601958079,0.45601139987508427
0.7629390358924866,-1.2313224077224731,-138.72084045410156,0.0016994804713048577,0.44246005108269537,0.7767971601958079,0.45601139987508427
0.6256113052368164,0.058478713035583496,-138.72406005859375,0.0016994804713048577,0.44246005108269537,0.7767971601958079,0.45601139987508427
0.3141876459121704,0.6902053952217102,-138.6326446533203,0.0016994804713048577,0.44246005108269537,0.7767971601958079,0.45601139987508427
0.6727185845375061,0.12635837495326996,-138.6886749267578,0.0016994804713048577,0.44246005108269537,0.7767971601958079,0.45601139987508427
-0.364226371049881,0.4201637804508209,-138.66871643066406,0.0016994804713048577,0.44246005108269537,0.7767971601958079,0.45601139987508427
-0.24582239985466003,-0.6067941188812256,-138.64846801757812,0.0016994804713048577,0.44246005108269537,0.7767971601958079,0.45601139987508427
-0.6115441918373108,-0.4245934784412384,-138.6675567626953,0.0016994804713048577,0.44246005108269537,0.7767971601958079,0.45601139987508427
-0.17313651740550995,0.08616958558559418,-138.65936279296875,0.0016994804713048577,0.44246005108269537,0.7767971601958079,0.45601139987508427
0.18942934274673462,0.10811343044042587,-138.65708923339844,0.0016994804713048577,0.44246005108269537,0.7767971601958079,0.45601139987508427
-0.02599060721695423,0.14848913252353668,-138.66615295410156,0.0016994804713048577,0.44246005108269537,0.7767971601958079,0.45601139987508427
-0.2489756941795349,-0.1451348215341568,-138.65283203125,0.0016994804713048577,0.44246005108269537,0.7767971601958079,0.45601139987508427
-0.25764045119285583,-0.23289433121681213,-138.65953063964844,0.0016994804713048577,0.44246005108269537,0.7767971601958079,0.45601139987508427
-0.15287859737873077,0.062160540372133255,-138.65939331054688,0.01461759154063974,0.45004838456736035,0.773376168124378,0.4545886182847119
0,0,-138.65773010253906,0.027496577773450298,0.45762917824296473,0.7721021798128886,0.45510662278781305
-0.43275365233421326,-0.49021756649017334,-138.66090393066406,0.04033489510003079,0.4651802457361998,0.7684958993767702,0.4510214764003949
-1.9111984968185425,-1.4179153442382812,-138.56654357910156,0.05298038563484135,0.47256476111296136,0.7489629648004973,0.43512036881099114
-1.2196156978607178,-1.29769766330719,-138.41603088378906,0.06524568406244136,0.4796281830231761,0.7228728465115034,0.4124902604147789
-0.747277557849884,-1.3615427017211914,-138.37278747558594,0.07715697502820873,0.4863183512269621,0.7064820693805818,0.39032992403954236
-1.4180052280426025,-0.582972526550293,-138.28758239746094,0.08878130932442034,0.4926888141812134,0.6884380461648111,0.3741256304706133
-1.076813817024231,-1.1543277502059937,-138.15501403808594,0.10008202543792644,0.4988035955031711,0.6676478874559209,0.3596481281643109
-0.5378028154373169,-0.6516448855400085,-138.02175903320312,0.1110973640738264,0.504672316206205,0.6541927488520746,0.34459835619976087
-2.2026631832122803,-1.2367298603057861,-138.0908966064453,0.12181026641589919,0.5102844850077395,0.6313555321966613,0.32886189998437926
-1.5179047584533691,-0.8454522490501404,-138.1991424560547,0.1320744858454501,0.5156209206943294,0.6003507993494476,0.3115103824064132
0,-1.1164077520370483,-138.28457641601562,0.14197492244860385,0.5206765201232497,0.5877015930290028,0.29516154906402
-1.4468979835510254,-0.7314114570617676,-138.3369903564453,0.15166946997245173,0.5254675584959071,0.5756441098327443,0.2797630556548632
-0.8434804677963257,-0.9561080932617188,-138.29933166503906,0.1611044844105428,0.5300130872324934,0.556557622738183,0.26570039273550083
-1.3635715246200562,-0.5999179482460022,-138.3404541015625,0.17022717729003914,0.5343333697474248,0.5381655228013799,0.25273350905626984
-0.2669715881347656,-0.37682148814201355,-138.48300170898438,0.17908337050945417,0.5384777657708357,0.524577663528423,0.24459401375303638
-1.038887619972229,-0.8081048727035522,-138.64137268066406,0.18773564690103156,0.5424720461138832,0.5136955034608648,0.23471962741265667
-0.34779617190361023,-0.1625891923904419,-138.70065307617188,0.19620094113983239,0.5463166305940182,0.5021398051952328,0.22663051020354005
-0.6381921768188477,-0.8589901924133301,-138.62440490722656,0.20450146647998055,0.5500228627512437,0.4939232356225457,0.21811734866350863
-1.1090143918991089,-0.9752308130264282,-138.620361328125,0.21261218661752868,0.5535307754369244,0.4793631808832294,0.20283217361817732
-0.4419248402118683,-0.27367258071899414,-138.562744140625,0.22049386885224145,0.5568245822615506,0.4664386872823046,0.19242464533696546
-1.199968934059143,-0.05522819608449936,-138.4353485107422,0.22815382657262215,0.5600088193521109,0.4527562391633795,0.18968380553026967
-0.12501375377178192,0,-138.2539825439453,0.23560775120535687,0.563166380819554,0.44171471676478846,0.18922357056289885
-0.12960872054100037,-0.36468958854675293,-138.0935516357422,0.24295198103516497,0.566294781329731,0.43959286281218196,0.18618449065834258
-0.9917259812355042,-1.021844506263733,-138.0752410888672,0.2502006582833002,0.5693015690841193,0.4302484069640444,0.1746300398682552
-0.8393535614013672,-0.994268000125885,-138.08828735351562,0.25724430676446225,0.5720720619356465,0.41498941077540386,0.15782910231500838
0,-1.6972421407699585,-138.11083984375,0.26410250850228834,0.5745156365477789,0.40799479776372577,0.13539985114087635
-0.3405420780181885,0.17712081968784332,-138.02076721191406,0.2708787730429325,0.5766667367528295,0.4051569471135742,0.12273217346519207
-0.8804634809494019,-0.42819109559059143,-137.89768981933594,0.2775465967754527,0.5786948375414228,0.39498190078884426,0.1206399211660025
-0.38267651200294495,-0.4212544560432434,-137.77020263671875,0.2840419104002006,0.5806465136197705,0.38445573418090806,0.11356120823572055
-0.21512602269649506,0.682741641998291,-137.6356658935547,0.29040799190497274,0.5825573592560571,0.37947404639174603,0.11574026811867928
-0.9584057927131653,-0.35247835516929626,-137.43898010253906,0.2966510640798762,0.584509298675176,0.3696946145966655,0.11849246217558757
-0.2011643946170807,-1.4406293630599976,-137.3945770263672,0.3027321152823671,0.5863596516754477,0.36003152970224683,0.10354989785701012
0.5561969876289368,-0.6355064511299133,-137.39158630371094,0.3087572958185859,0.5879413072081903,0.3629901346440123,0.0862487660720942
-1.3655070066452026,0.9585981369018555,-137.36251831054688,0.3147509293113322,0.5894012235653482,0.35624588448554345,0.08894119678686038
0.4907822608947754,-0.8422273993492126,-137.2700653076172,0.3206276159454141,0.5908916581463481,0.34895651160428987,0.08991095293313241
-0.5974934101104736,0.3132071793079376,-137.25039672851562,0.32643614730901227,0.5923534365132864,0.3480672520274924,0.08550245109945512
0,-0.1442946195602417,-137.23109436035156,0.3321957755782128,0.5937902074038154,0.34308814027657175,0.08691005576401925
-0.3268841505050659,-1.326834797859192,-137.29049682617188,0.33789121096125946,0.5951365465681171,0.34036410568902953,0.07465064395219063
-1.8842374086380005,1.1497787237167358,-137.27879333496094,0.3434103959478028,0.596368428406616,0.32193809269617063,0.07317517666767016
0.6001783609390259,-0.6685787439346313,-137.24269104003906,0.348686860058871,0.5976214313496732,0.3112376006320125,0.0771851764991877
-0.16218742728233337,-0.6648299694061279,-137.3851776123047,0.35390456943979737,0.5988152531306776,0.31488752507915163,0.06607343722134804
0.254878431558609,0.19783715903759003,-137.4564971923828,0.3591591317330802,0.5998840470280912,0.31565995011478726,0.06218183046827689
-0.29889363050460815,0,-137.45567321777344,0.36441707429062203,0.6009341495608289,0.3152931567902373,0.0638304734602568
-0.7091842293739319,0.13783112168312073,-137.4247589111328,0.36960195483019,0.602007562390839,0.3068925079579161,0.06497906614094948
-0.046157125383615494,-0.23202399909496307,-137.40672302246094,0.36960195483019,0.602007562390839,0.3068925079579161,0.06497906614094948
-0.05651360750198364,-0.20751087367534637,-137.46714782714844,0.36960195483019,0.602007562390839,0.3068925079579161,0.06497906614094948
-1.0002532005310059,0.29890066385269165,-137.38587951660156,0.36960195483019,0.602007562390839,0.3068925079579161,0.06497906614094948
0.13773328065872192,0.6499597430229187,-137.37399291992188,0.36960195483019,0.602007562390839,0.3068925079579161,0.06497906614094948
0.36434271931648254,-1.9830695390701294,-137.4274444580078,0.36960195483019,0.602007562390839,0.3068925079579161,0.06497906614094948
-0.4928993880748749,-1.0764576196670532,-137.51361083984375,0.36960195483019,0.602007562390839,0.3068925079579161,0.06497906614094948
-0.056196071207523346,0.7783634662628174,-137.44735717773438,0.36960195483019,0.602007562390839,0.3068925079579161,0.06497906614094948
1.4631885290145874,1.1531578302383423,-137.43594360351562,0.36960195483019,0.602007562390839,0.3068925079579161,0.06497906614094948
2.192800283432007,2.512355327606201,-137.71951293945312,0.36960195483019,0.602007562390839,0.3068925079579161,0.06497906614094948
0.20742885768413544,2.088020086288452,-138.3002166748047,0.36960195483019,0.602007562390839,0.3068925079579161,0.06497906614094948
1.0394080877304077,1.4945539236068726,-139.0937957763672,0.36960195483019,0.602007562390839,0.3068925079579161,0.06497906614094948
-0.22017082571983337,1.4139410257339478,-140.20803833007812,0.36960195483019,0.602007562390839,0.3068925079579161,0.06497906614094948
0.7617092728614807,1.4630181789398193,-141.5563507080078,0.36960195483019,0.602007562390839,0.3068925079579161,0.06497906614094948
1.3485615253448486,1.7736811637878418,-143.01820373535156,0.36960195483019,0.602007562390839,0.3068925079579161,0.06497906614094948
1.7941124439239502,0.9986826181411743,-144.60772705078125,0.36960195483019,0.602007562390839,0.3068925079579161,0.06497906614094948
0.12845753133296967,1.4155073165893555,-146.26719665527344,0.36960195483019,0.602007562390839,0.3068925079579161,0.06497906614094948
-0.0076033868826925755,0.6251287460327148,-147.9498748779297,0.36960195483019,0.602007562390839,0.3068925079579161,0.06497906614094948
-0.2418764978647232,1.0475149154663086,-149.72659301757812,0.36960195483019,0.602007562390839,0.3068925079579161,0.06497906614094948
-0.06102156639099121,0.7510569095611572,-151.5797576904297,0.36960195483019,0.602007562390839,0.3068925079579161,0.06497906614094948
0.055267997086048126,1.157141089439392,-153.51541137695312,0.36960195483019,0.602007562390839,0.3068925079579161,0.06497906614094948
1.570550560951233,1.059154748916626,-155.5804443359375,0.36960195483019,0.602007562390839,0.3068925079579161,0.06497906614094948
0.24828223884105682,1.1904689073562622,-157.7598114013672,0.36960195483019,0.602007562390839,0.3068925079579161,0.06497906614094948
0.7575257420539856,0.6880155801773071,-160.02284240722656,0.36960195483019,0.602007562390839,0.3068925079579161,0.06497906614094948
0.19001588225364685,0.18907448649406433,-162.36898803710938,0.36960195483019,0.602007562390839,0.3068925079579161,0.06497906614094948
0.498897522687912,0.7037979364395142,-164.805908203125,0.36960195483019,0.602007562390839,0.3068925079579161,0.06497906614094948
2.3747456073760986,0.8191674947738647,-167.30287170410156,0.36960195483019,0.602007562390839,0.3068925079579161,0.06497906614094948
0.7829533815383911,1.0670690536499023,-169.89443969726562,0.36960195483019,0.602007562390839,0.3068925079579161,0.06497906614094948
0.8947251439094543,0.030645109713077545,-172.5619659423828,0.36960195483019,0.602007562390839,0.3068925079579161,0.06497906614094948
-0.5651450157165527,0.8387301564216614,-175.26583862304688,0.36960195483019,0.602007562390839,0.3068925079579161,0.06497906614094948
0.5561313033103943,-0.14680401980876923,-177.99620056152344,0.36960195483019,0.602007562390839,0.3068925079579161,0.06497906614094948
0.18036842346191406,1.6689993143081665,179.24026489257812,0.36960195483019,0.602007562390839,0.3068925079579161,0.06497906614094948
1.2811483144760132,-0.47123315930366516,176.44241333007812,0.36960195483019,0.602007562390839,0.3068925079579161,0.06497906614094948
0.4934734106063843,0.8487054705619812,173.6285400390625,0.36960195483019,0.602007562390839,0.3068925079579161,0.06497906614094948
0.43350180983543396,0.7728826403617859,170.87734985351562,0.36960195483019,0.602007562390839,0.3068925079579161,0.06497906614094948
0.4511321485042572,-1.0793788433074951,168.0732879638672,0.36960195483019,0.602007562390839,0.3068925079579161,0.06497906614094948
0.36835676431655884,1.4784483909606934,165.2108154296875,0.36960195483019,0.602007562390839,0.3068925079579161,0.06497906614094948
0.5943887829780579,0.3327251076698303,162.28892517089844,0.36960195483019,0.602007562390839,0.3068925079579161,0.06497906614094948
0.4389023780822754,0.9207071661949158,159.3699951171875,0.36960195483019,0.602007562390839,0.3068925079579161,0.06497906614094948
1.352317214012146,-0.731408953666687,156.3603515625,0.36960195483019,0.602007562390839,0.3068925079579161,0.06497906614094948
0.4483695924282074,0.688554584980011,153.3767852783203,0.36960195483019,0.602007562390839,0.3068925079579161,0.06497906614094948
-0.20209594070911407,-1.11074697971344,150.394287109375,0.36960195483019,0.602007562390839,0.3068925079579161,0.06497906614094948
0.4270164370536804,0.4705618917942047,147.38084411621094,0.36960195483019,0.602007562390839,0.3068925079579161,0.06497906614094948
0.8578197360038757,0.39698538184165955,144.411376953125,0.36960195483019,0.602007562390839,0.3068925079579161,0.06497906614094948
0.7505547404289246,-0.42544835805892944,141.48117065429688,0.36960195483019,0.602007562390839,0.3068925079579161,0.06497906614094948
0.5901753306388855,0.4925720989704132,138.49981689453125,0.36960195483019,0.602007562390839,0.3068925079579161,0.06497906614094948
-0.10729712247848511,-1.5323036909103394,135.4589080810547,0.36960195483019,0.602007562390839,0.3068925079579161,0.06497906614094948
0.11473768949508667,0.7618294954299927,132.5244903564453,0.36960195483019,0.602007562390839,0.3068925079579161,0.06497906614094948
0.6274318099021912,1.9523742198944092,129.5716552734375,0.36960195483019,0.602007562390839,0.3068925079579161,0.06497906614094948
-0.6911944150924683,-3.239100217819214,126.5704116821289,0.36960195483019,0.602007562390839,0.3068925079579161,0.06497906614094948
1.977878451347351,0.655724048614502,123.60518646240234,0.36960195483019,0.602007562390839,0.3068925079579161,0.06497906614094948
-0.701184093952179,-0.2438521385192871,120.5743408203125,0.36960195483019,0.602007562390839,0.3068925079579161,0.06497906614094948
1.5189313888549805,1.2088539600372314,117.50989532470703,0.36960195483019,0.602007562390839,0.3068925079579161,0.06497906614094948
-1.033172845840454,-1.9606330394744873,114.35895538330078,0.36960195483019,0.602007562390839,0.3068925079579161,0.06497906614094948
0.7539543509483337,0.9598973989486694,111.2100601196289,0.36960195483019,0.602007562390839,0.3068925079579161,0.06497906614094948
0.5757709741592407,0.9109776616096497,107.99980926513672,0.36960195483019,0.602007562390839,0.3068925079579161,0.06497906614094948
0.5967084169387817,-0.5068113803863525,104.74739837646484,0.36960195483019,0.602007562390839,0.3068925079579161,0.06497906614094948
0.4011004567146301,-0.057454176247119904,101.60321044921875,0.36960195483019,0.602007562390839,0.3068925079579161,0.06497906614094948
0.5674183368682861,-0.1888788640499115,98.4457015991211,0.36960195483019,0.602007562390839,0.3068925079579161,0.06497906614094948
0.17561651766300201,-0.6207273602485657,95.31314849853516,0.36960195483019,0.602007562390839,0.3068925079579161,0.06497906614094948
-0.05978317931294441,-0.5013445615768433,92.14391326904297,0.36960195483019,0.602007562390839,0.3068925079579161,0.06497906614094948
0.42730438709259033,-0.8893992900848389,88.93610382080078,0.36960195483019,0.602007562390839,0.3068925079579161,0.06497906614094948
-0.6216011047363281,-0.0990816056728363,85.73605346679688,0.36960195483019,0.602007562390839,0.3068925079579161,0.06497906614094948
0.043325405567884445,-1.126278042793274,82.48593139648438,0.36960195483019,0.602007562390839,0.3068925079579161,0.06497906614094948
1.0017260313034058,0.284654825925827,79.23005676269531,0.36960195483019,0.602007562390839,0.3068925079579161,0.06497906614094948
-0.5925188064575195,-0.4459336996078491,75.94730377197266,0.36960195483019,0.602007562390839,0.3068925079579161,0.06497906614094948
-1.6467498540878296,-0.7645979523658752,72.69812774658203,0.36960195483019,0.602007562390839,0.3068925079579161,0.06497906614094948
0.2894778251647949,-0.5398340225219727,69.33297729492188,0.36960195483019,0.602007562390839,0.3068925079579161,0.06497906614094948
-1.1094802618026733,-0.7506709694862366,66.01950073242188,0.36960195483019,0.602007562390839,0.3068925079579161,0.06497906614094948
0.9491958022117615,-1.059605360031128,62.68223190307617,0.36960195483019,0.602007562390839,0.3068925079579161,0.06497906614094948
-0.294677734375,-0.06471371650695801,59.335227966308594,0.36960195483019,0.602007562390839,0.3068925079579161,0.06497906614094948
0.5979027152061462,-0.20163153111934662,56.0302734375,0.36960195483019,0.602007562390839,0.3068925079579161,0.06497906614094948
-0.46954065561294556,-0.9788195490837097,52.640342712402344,0.36960195483019,0.602007562390839,0.3068925079579161,0.06497906614094948
-0.08217792212963104,-0.3183484971523285,49.355079650878906,0.36960195483019,0.602007562390839,0.3068925079579161,0.06497906614094948
-1.239452600479126,-0.6213774085044861,46.00236892700195,0.36960195483019,0.602007562390839,0.3068925079579161,0.06497906614094948
0.5580994486808777,0.2287205308675766,42.66694259643555,0.36960195483019,0.602007562390839,0.3068925079579161,0.06497906614094948
-1.0918331146240234,-0.1418921947479248,39.444175720214844,0.36960195483019,0.602007562390839,0.3068925079579161,0.06497906614094948
-1.6379019021987915,-0.4497881233692169,36.19992446899414,0.36960195483019,0.602007562390839,0.3068925079579161,0.06497906614094948
0.4964592158794403,-0.6786553859710693,32.96036148071289,0.36960195483019,0.602007562390839,0.3068925079579161,0.06497906614094948
-0.7651218771934509,0.9831129312515259,29.67096710205078,0.36960195483019,0.602007562390839,0.3068925079579161,0.06497906614094948
1.0476875305175781,-1.4270005226135254,26.346940994262695,0.36960195483019,0.602007562390839,0.3068925079579161,0.06497906614094948
-1.116098403930664,0.2782209813594818,23.002288818359375,0.36960195483019,0.602007562390839,0.3068925079579161,0.06497906614094948
-0.7407263517379761,-0.8882206678390503,19.793020248413086,0.36960195483019,0.602007562390839,0.3068925079579161,0.06497906614094948
-0.2848224639892578,-0.39023256301879883,16.666671752929688,0.36960195483019,0.602007562390839,0.3068925079579161,0.06497906614094948
0.560486376285553,0.0022911615669727325,13.457733154296875,0.36960195483019,0.602007562390839,0.3068925079579161,0.06497906614094948
-1.1417744159698486,0.20487913489341736,10.219799995422363,0.36960195483019,0.602007562390839,0.3068925079579161,0.06497906614094948
0.342191606760025,-0.24544966220855713,6.996356964111328,0.36960195483019,0.602007562390839,0.3068925079579161,0.06497906614094948
-0.9887722730636597,0.006266417913138866,3.662907600402832,0.36960195483019,0.602007562390839,0.3068925079579161,0.06497906614094948
-0.6043219566345215,-0.3829119801521301,0.41246217489242554,0.36960195483019,0.602007562390839,0.3068925079579161,0.06497906614094948
-0.9962242841720581,0.2459910362958908,-2.7944512367248535,0.36960195483019,0.602007562390839,0.3068925079579161,0.06497906614094948
0.34781065583229065,-0.5994575023651123,-6.039680480957031,0.36960195483019,0.602007562390839,0.3068925079579161,0.06497906614094948
-0.6911476850509644,0.2631707191467285,-9.327635765075684,0.36960195483019,0.602007562390839,0.3068925079579161,0.06497906614094948
-0.7070487141609192,-0.12048786878585815,-12.628198623657227,0.36960195483019,0.602007562390839,0.3068925079579161,0.06497906614094948
-0.8242776989936829,0.6881349682807922,-15.93967056274414,0.36960195483019,0.602007562390839,0.3068925079579161,0.06497906614094948
-0.8038353323936462,-0.41913843154907227,-19.305686950683594,0.36960195483019,0.602007562390839,0.3068925079579161,0.06497906614094948
0.019063744693994522,0.311151385307312,-22.684906005859375,0.36960195483019,0.602007562390839,0.3068925079579161,0.06497906614094948
-0.22183574736118317,-0.2844519019126892,-26.141212463378906,0.36960195483019,0.602007562390839,0.3068925079579161,0.06497906614094948
-0.2608160078525543,0.13836835324764252,-29.546302795410156,0.36960195483019,0.602007562390839,0.3068925079579161,0.06497906614094948
-0.37099748849868774,-0.1583050638437271,-33.062225341796875,0.36960195483019,0.602007562390839,0.3068925079579161,0.06497906614094948
-1.7706623077392578,0.5751879811286926,-36.55888748168945,0.36960195483019,0.602007562390839,0.3068925079579161,0.06497906614094948
0.5515825748443604,1.349647045135498,-40.06352233886719,0.36960195483019,0.602007562390839,0.3068925079579161,0.06497906614094948
-0.33628106117248535,-1.018329381942749,-43.615684509277344,0.36960195483019,0.602007562390839,0.3068925079579161,0.06497906614094948
0.9223517775535583,2.583233118057251,-47.19117736816406,0.36960195483019,0.602007562390839,0.3068925079579161,0.06497906614094948
-2.1827187538146973,-1.2412489652633667,-50.685638427734375,0.36960195483019,0.602007562390839,0.3068925079579161,0.06497906614094948
0.6139561533927917,0.3956263065338135,-54.21474838256836,0.36960195483019,0.602007562390839,0.3068925079579161,0.06497906614094948
-0.5584002137184143,0.9564210176467896,-57.749290466308594,0.36960195483019,0.602007562390839,0.3068925079579161,0.06497906614094948
-0.8996362090110779,0.061297457665205,-61.181217193603516,0.36960195483019,0.602007562390839,0.3068925079579161,0.06497906614094948
1.206629991531372,0.9880613684654236,-64.61697387695312,0.36960195483019,0.602007562390839,0.3068925079579161,0.06497906614094948
-0.5992245078086853,-0.441280722618103,-68.13790130615234,0.36960195483019,0.602007562390839,0.3068925079579161,0.06497906614094948
-0.7049543261528015,1.037453293800354,-71.64781188964844,0.36960195483019,0.602007562390839,0.3068925079579161,0.06497906614094948
                                                                                                                                                                                                                                                                                                                                                                                                                                                                                                                                                                                                                                                                                                                                                                                                                                                                                                                                                                                                                                                                                                                                                                                                                                                                                                                                                                                                                                                                                                                                                                                                                                                                                                                                                                                                                                                                                                                                                                                                                                                                                                                                                                                                             