faccX,faccY,yaw,posX,posY,velX,velY
0,0,-151.0571746826172,0.0,0.0,0.0,0.0
0,0,-151.05743408203125,0.0,0.0,0.0,0.0
0,0,-151.06549072265625,0.0,0.0,0.0,0.0
0,0,-151.0756072998047,0.0,0.0,0.0,0.0
-0.5900037288665771,-0.7359811067581177,-151.05743408203125,-4.097248117129008e-05,-5.110979908042484e-05,-0.00491669774055481,-0.006133175889650981
-2.9685325622558594,-1.648736596107483,-150.9402313232422,-0.00037003801928626166,-0.00031893479327360793,-0.03457116683324178,-0.026005823413530985
-2.530149221420288,-1.7968844175338745,-150.87855529785156,-0.0013280770348178016,-0.000991644420557552,-0.08039351503054301,-0.0547193318605423
-1.5051213502883911,-0.08785279095172882,-150.97589111328125,-0.0029481960750288435,-0.0020345178132669794,-0.11402076979478201,-0.07042547526458899
-0.8401590585708618,-0.6108993887901306,-151.02374267578125,-0.005011408933334881,-0.0032568001912699806,-0.13356477320194246,-0.07624841009577116
-0.475404292345047,-0.8946323990821838,-151.08425903320312,-0.007328847052736415,-0.004632157844801744,-0.1445278011262417,-0.08879450832804045
-1.6130536794662476,-0.7865746021270752,-151.1241455078125,-0.009882675541771784,-0.006228816803130839,-0.16193161755800248,-0.10280456667145094
-1.4246406555175781,-0.6007986068725586,-151.14419555664062,-0.012792486829890147,-0.008038571609391107,-0.18724573701620104,-0.11436601007978121
-1.5673836469650269,-0.7994213104248047,-151.02906799316406,-0.01612102857894368,-0.010041909271644221,-0.21217927287022276,-0.12603450939059258
-0.2057078778743744,-0.6145361065864563,-150.98985290527344,-0.019780481149339016,-0.012240675915446546,-0.22695503557721777,-0.13781748786568643
-0.9273427128791809,0.4838272035121918,-150.98504638671875,-0.02364174914442831,-0.014546711053699255,-0.2363971238334974,-0.13890672872463863
-1.6121019124984741,-0.8053585886955261,-150.9327392578125,-0.027758051529526713,-0.016884151767525408,-0.25755916237831117,-0.14158615693449975
-0.28466105461120605,-0.7509095668792725,-150.86776733398438,-0.032182423886325626,-0.01935199522723754,-0.2733655204375585,-0.1545550582309564
-1.1723028421401978,-1.0183066129684448,-150.96090698242188,-0.03683969394200378,-0.022050775099131795,-0.2855068862438202,-0.16929852639635404
-1.1120160818099976,-0.25890281796455383,-150.9204864501953,-0.0417567753046751,-0.024961112305108044,-0.3045428772767385,-0.1799419383207957
0,0.2951245903968811,-150.96002197265625,-0.04690971326496866,-0.027957629209591283,-0.31380967795848846,-0.17964009021719296
-1.0461822748184204,0.7776936292648315,-151.11785888671875,-0.05221252611113919,-0.03087712944795688,-0.3225278635819753,-0.17069993838667868
0.4078768789768219,-1.4748616218566895,-151.24620056152344,-0.05763231726777222,-0.033770542864998185,-0.32784707521398865,-0.1765096716582775
-0.5881118774414062,-0.1436518281698227,-151.35675048828125,-0.06310895150734319,-0.036824767493332425,-0.3293490335345268,-0.18999728374183175
-0.5418987274169922,-0.5093441009521484,-151.4258270263672,-0.06867657502492269,-0.04003673582855198,-0.3387657885750135,-0.19543891648451484
0.21603576838970184,-0.48803114891052246,-151.463134765625,-0.0743453008733276,-0.04336331327342324,-0.3414813132335742,-0.20375037690003708
-0.8143792152404785,0.7200071215629578,-151.4281768798828,-0.08007820772214069,-0.046743043445878554,-0.3464675086239974,-0.20181724379460012
-0.2568426728248596,-0.35207924246788025,-151.3537139892578,-0.08592705660810074,-0.05008111362862917,-0.35539435769120853,-0.19875117813547447
-0.6111274361610413,0.12287092208862305,-151.31263732910156,-0.09191057160496713,-0.05340955050869119,-0.3626274419327577,-0.20066124747196828
-1.4614523649215698,-1.2647711038589478,-151.24058532714844,-0.09809829145669938,-0.05683320325695805,-0.3798989402751128,-0.21017708232005433
0.14832434058189392,0.1432429552078247,-151.1096954345703,-0.10452112990741928,-0.06041403852817084,-0.39084167381127677,-0.21952315022548036
-0.3255031108856201,-0.9797013998031616,-151.10067749023438,-0.11104746188554498,-0.0641308450905813,-0.39231816356380783,-0.22649363726377483
0.3510998487472534,0.6957159638404846,-151.20181274414062,-0.1175843203937014,-0.06792546025580828,-0.3921048574149609,-0.2288601825634638
0.3860695958137512,-0.34406906366348267,-151.33338928222656,-0.12406820902807845,-0.07171537670824261,-0.3859617787102858,-0.22592979172865546
-0.5757067799568176,-0.7515361905097961,-151.48570251464844,-0.13051407458881537,-0.07555695693526002,-0.3875420885781447,-0.2350598355134328
-1.341389775276184,-0.6195135116577148,-151.5924835205078,-0.1371062411036756,-0.07956983264535664,-0.4035178932050864,-0.24648524969816205
-1.7190778255462646,0.7832641005516052,-151.4824981689453,-0.14404407179603973,-0.08366654857165282,-0.42902178987860684,-0.24512066145737962
0.2074783891439438,0.8204905390739441,-151.3275146484375,-0.15129940714376666,-0.08764052107930181,-0.4416184518486262,-0.23175603946050005
0.53645259141922,-0.9467909336090088,-151.32147216796875,-0.15860805280092688,-0.09151189259770842,-0.4354190270105998,-0.23280854274829227
0.22618459165096283,-0.26561275124549866,-151.46002197265625,-0.1658120756689459,-0.09547622967718375,-0.4290637171516816,-0.2429119067887465
1.2315796613693237,0.2760382890701294,-151.68386840820312,-0.17286190399279197,-0.09952403746131393,-0.4169156817098459,-0.24282502730687458
-0.48407697677612305,-0.1804657280445099,-151.8313751220703,-0.17975858877930376,-0.10356448426635728,-0.4106864926715692,-0.24202858929832774
-1.0116881132125854,0.07529504597187042,-151.83901977539062,-0.1867072362328569,-0.10760559760758445,-0.4231512017548084,-0.24290501164893308
0.21578170359134674,0.5115705728530884,-151.7850799560547,-0.19381502754054963,-0.11161325991153716,-0.42978375516831874,-0.23801446482539176
-0.8507250547409058,0.6965165138244629,-151.7959747314453,-0.20102218341496256,-0.11549627272205219,-0.43507494976123173,-0.22794707243641216
0.30109158158302307,-0.5104747414588928,-151.87059020996094,-0.20831160156884126,-0.11928247102846701,-0.4396552287042141,-0.22639672433336575
-0.13168199360370636,-0.37027880549430847,-151.9276885986328,-0.2156274241591907,-0.12311691320811707,-0.4382434821377198,-0.23373633722464243
0.469801664352417,0.8534919619560242,-152.10238647460938,-0.22290800166212849,-0.12697896235932904,-0.43542581821481385,-0.2297095609207948
-0.7570518255233765,-0.31041207909584045,-152.25125122070312,-0.23018504656023447,-0.1307697411605881,-0.4378195695579052,-0.22518389523029328
0.7128344178199768,-0.4640721082687378,-152.38487243652344,-0.2374851100395123,-0.13457658970521552,-0.43818804795543354,-0.2316379301249981
-0.12465132772922516,-0.2823399305343628,-152.45236206054688,-0.2447473981241799,-0.1384890560433268,-0.4332865222046773,-0.23785803044835727
-0.3154779076576233,0.2769838571548462,-152.4977569580078,-0.2519994046911597,-0.1424537285003397,-0.43695426583290103,-0.23790266439318658
-0.21673037111759186,-0.17543037235736847,-152.51820373535156,-0.25931893469662304,-0.14641172058155963,-0.4413893348226945,-0.2370563853532076
-0.547431230545044,0.34104132652282715,-152.54464721679688,-0.2667284903882279,-0.1503511595767405,-0.4477573481698831,-0.23567629406849547
-0.07878736406564713,0,-152.55686950683594,-0.27423460026012947,-0.15425541438576246,-0.4529758364583055,-0.23283428301413858
0,-0.05867110937833786,-152.5900115966797,-0.28178966887916135,-0.15814006015192716,-0.45363239782551923,-0.23332320892562472
0.22526921331882477,0.4284369647502899,-152.7273712158203,-0.2893345651475506,-0.16200310211628674,-0.4517551543811957,-0.2302418267975251
0.7052978873252869,-0.637182354927063,-152.97532653808594,-0.29679919500524804,-0.16585496210389666,-0.4440004285424948,-0.23198137171566488
-0.2804184854030609,-0.5313211679458618,-153.1857452392578,-0.30416969663360055,-0.16980246437713503,-0.44045976685980953,-0.24171890107293925
-1.5172243118286133,-0.5992445349693298,-153.30372619628906,-0.311635529053294,-0.17390962423549758,-0.4554401235034068,-0.25114028193056587
0.27778738737106323,0.5105734467506409,-153.2657928466797,-0.3193122697869937,-0.17810145331546665,-0.46576876454055305,-0.2518792076657216
0,0.4022236764431,-153.2769775390625,-0.32705579173854654,-0.18223605142078467,-0.4634538696457942,-0.2442725649724404
0.0760115310549736,0,-153.3873291015625,-0.3347747443207643,-0.186279328637239,-0.4628204402203361,-0.24092070100208124
1.6551191806793213,0,-153.5795135498047,-0.34236820091389947,-0.19029467365394037,-0.44839435095588365,-0.24092070100208124
0.2979894280433655,0.5656902194023132,-153.68524169921875,-0.34970580755422515,-0.19427073462762767,-0.4321184458831946,-0.2362066158403953
-0.8311939835548401,-0.43671101331710815,-153.72711181640625,-0.34970580755422515,-0.19427073462762767,-0.4321184458831946,-0.2362066158403953
-0.07841288298368454,0.4605969190597534,-153.76329040527344,-0.34970580755422515,-0.19427073462762767,-0.4321184458831946,-0.2362066158403953
-1.1110073328018188,0.9445533752441406,-153.8036651611328,-0.34970580755422515,-0.19427073462762767,-0.4321184458831946,-0.2362066158403953
0.7936937808990479,0.17209137976169586,-153.89927673339844,-0.34970580755422515,-0.19427073462762767,-0.4321184458831946,-0.2362066158403953
2.6227543354034424,1.288898229598999,-154.3253173828125,-0.34970580755422515,-0.19427073462762767,-0.4321184458831946,-0.2362066158403953
2.430840015411377,1.2363708019256592,-155.12420654296875,-0.34970580755422515,-0.19427073462762767,-0.4321184458831946,-0.2362066158403953
2.045182943344116,2.274332046508789,-156.1671600341797,-0.34970580755422515,-0.19427073462762767,-0.4321184458831946,-0.2362066158403953
1.4390783309936523,0.7355634570121765,-157.40257263183594,-0.34970580755422515,-0.19427073462762767,-0.4321184458831946,-0.2362066158403953
1.1107630729675293,1.4933263063430786,-158.8788604736328,-0.34970580755422515,-0.19427073462762767,-0.4321184458831946,-0.2362066158403953
2.8810739517211914,0.37335872650146484,-160.59225463867188,-0.34970580755422515,-0.19427073462762767,-0.4321184458831946,-0.2362066158403953
1.1427088975906372,0.20570744574069977,-162.4333038330078,-0.34970580755422515,-0.19427073462762767,-0.4321184458831946,-0.2362066158403953
0.8754540085792542,1.134261965751648,-164.31951904296875,-0.34970580755422515,-0.19427073462762767,-0.4321184458831946,-0.2362066158403953
1.8854446411132812,-0.36750438809394836,-166.3021240234375,-0.34970580755422515,-0.19427073462762767,-0.4321184458831946,-0.2362066158403953
0.9066966772079468,1.5449830293655396,-168.42733764648438,-0.34970580755422515,-0.19427073462762767,-0.4321184458831946,-0.2362066158403953
1.9615769386291504,0.35128164291381836,-170.5568084716797,-0.34970580755422515,-0.19427073462762767,-0.4321184458831946,-0.2362066158403953
0.28227755427360535,1.710353136062622,-172.70008850097656,-0.34970580755422515,-0.19427073462762767,-0.4321184458831946,-0.2362066158403953
1.0309523344039917,-0.1678190529346466,-174.9385528564453,-0.34970580755422515,-0.19427073462762767,-0.4321184458831946,-0.2362066158403953
0.13066665828227997,0.5790325999259949,-177.185302734375,-0.34970580755422515,-0.19427073462762767,-0.4321184458831946,-0.2362066158403953
0.38181623816490173,0.1457832306623459,-179.5043182373047,-0.34970580755422515,-0.19427073462762767,-0.4321184458831946,-0.2362066158403953
1.9458352327346802,0.0390181764960289,178.15794372558594,-0.34970580755422515,-0.19427073462762767,-0.4321184458831946,-0.2362066158403953
0.4692337214946747,1.507603406906128,175.86585998535156,-0.34970580755422515,-0.19427073462762767,-0.4321184458831946,-0.2362066158403953
0.269534707069397,0.7702535390853882,173.6168975830078,-0.34970580755422515,-0.19427073462762767,-0.4321184458831946,-0.2362066158403953
0.4691044092178345,-0.5021672248840332,171.3606719970703,-0.34970580755422515,-0.19427073462762767,-0.4321184458831946,-0.2362066158403953
0.3073129653930664,1.287354588508606,169.0859375,-0.34970580755422515,-0.19427073462762767,-0.4321184458831946,-0.2362066158403953
2.0531845092773438,-0.9242328405380249,166.86062622070312,-0.34970580755422515,-0.19427073462762767,-0.4321184458831946,-0.2362066158403953
0.319195955991745,1.0777931213378906,164.58575439453125,-0.34970580755422515,-0.19427073462762767,-0.4321184458831946,-0.2362066158403953
0.7458902597427368,0.4902588427066803,162.3011474609375,-0.34970580755422515,-0.19427073462762767,-0.4321184458831946,-0.2362066158403953
0.7557235956192017,0.9620438814163208,159.99118041992188,-0.34970580755422515,-0.19427073462762767,-0.4321184458831946,-0.2362066158403953
0.2234584391117096,-0.5214028358459473,157.66920471191406,-0.34970580755422515,-0.19427073462762767,-0.4321184458831946,-0.2362066158403953
0.15482090413570404,0.2771558165550232,155.30291748046875,-0.34970580755422515,-0.19427073462762767,-0.4321184458831946,-0.2362066158403953
0.590343177318573,0.623104989528656,152.88128662109375,-0.34970580755422515,-0.19427073462762767,-0.4321184458831946,-0.2362066158403953
1.1370924711227417,-0.3517652153968811,150.41390991210938,-0.34970580755422515,-0.19427073462762767,-0.4321184458831946,-0.2362066158403953
1.2279551029205322,0.015200273133814335,147.93116760253906,-0.34970580755422515,-0.19427073462762767,-0.4321184458831946,-0.2362066158403953
0.5243648290634155,0.6595832109451294,145.38429260253906,-0.34970580755422515,-0.19427073462762767,-0.4321184458831946,-0.2362066158403953
0.12473601847887039,0.37203797698020935,142.85328674316406,-0.34970580755422515,-0.19427073462762767,-0.4321184458831946,-0.2362066158403953
0.7038610577583313,0.5040624141693115,140.2401123046875,-0.34970580755422515,-0.19427073462762767,-0.4321184458831946,-0.2362066158403953
0.15030845999717712,-1.6486653089523315,137.63583374023438,-0.34970580755422515,-0.19427073462762767,-0.4321184458831946,-0.2362066158403953
1.754529356956482,1.7600034475326538,135.08921813964844,-0.34970580755422515,-0.19427073462762767,-0.4321184458831946,-0.2362066158403953
-0.6099252700805664,-0.9204568266868591,132.5535430908203,-0.34970580755422515,-0.19427073462762767,-0.4321184458831946,-0.2362066158403953
0.5209677815437317,0.30100008845329285,130.00230407714844,-0.34970580755422515,-0.19427073462762767,-0.4321184458831946,-0.2362066158403953
1.2883632183074951,0.9039903879165649,127.45999145507812,-0.34970580755422515,-0.19427073462762767,-0.4321184458831946,-0.2362066158403953
-0.14785991609096527,-2.1732988357543945,124.94581604003906,-0.34970580755422515,-0.19427073462762767,-0.4321184458831946,-0.2362066158403953
1.4545594453811646,2.3288702964782715,122.40585327148438,-0.34970580755422515,-0.19427073462762767,-0.4321184458831946,-0.2362066158403953
-0.27563583850860596,-2.2408571243286133,119.80904388427734,-0.34970580755422515,-0.19427073462762767,-0.4321184458831946,-0.2362066158403953
1.39107346534729,0.28388074040412903,117.19281005859375,-0.34970580755422515,-0.19427073462762767,-0.4321184458831946,-0.2362066158403953
0.029658185318112373,-0.22354379296302795,114.60635375976562,-0.34970580755422515,-0.19427073462762767,-0.4321184458831946,-0.2362066158403953
0.7077133655548096,-0.04024307802319527,112.06095886230469,-0.34970580755422515,-0.19427073462762767,-0.4321184458831946,-0.2362066158403953
-1.4750200510025024,0.17283862829208374,110.03933715820312,-0.34970580755422515,-0.19427073462762767,-0.4321184458831946,-0.2362066158403953
0.17023789882659912,1.388534426689148,108.61225891113281,-0.34970580755422515,-0.19427073462762767,-0.4321184458831946,-0.2362066158403953
-3.1576578617095947,-1.0590368509292603,107.4613265991211,-0.34970580755422515,-0.19427073462762767,-0.4321184458831946,-0.2362066158403953
-0.6881835460662842,0.2119622528553009,106.75543975830078,-0.34970580755422515,-0.19427073462762767,-0.4321184458831946,-0.2362066158403953
-1.113290548324585,-0.6519041657447815,106.48099517822266,-0.34970580755422515,-0.19427073462762767,-0.4321184458831946,-0.2362066158403953
-0.6335410475730896,-0.5161911845207214,106.48887634277344,-0.34970580755422515,-0.19427073462762767,-0.4321184458831946,-0.2362066158403953
0.45068737864494324,0.5287466049194336,106.56574249267578,-0.34970580755422515,-0.19427073462762767,-0.4321184458831946,-0.2362066158403953
0.1972249448299408,0.30378958582878113,106.57533264160156,-0.34970580755422515,-0.19427073462762767,-0.4321184458831946,-0.2362066158403953
-0.07201449573040009,0.37657150626182556,106.55543518066406,-0.34970580755422515,-0.19427073462762767,-0.4321184458831946,-0.2362066158403953
0.3837043046951294,-0.030031543225049973,106.57002258300781,-0.34970580755422515,-0.19427073462762767,-0.4321184458831946,-0.2362066158403953
0.11116701364517212,-0.18154099583625793,106.56633758544922,-0.34970580755422515,-0.19427073462762767,-0.4321184458831946,-0.2362066158403953
0.2984888255596161,0.09223400056362152,106.56404876708984,-0.34970580755422515,-0.19427073462762767,-0.4321184458831946,-0.2362066158403953
0.05343898758292198,0.24141435325145721,106.5707015991211,-0.34970580755422515,-0.19427073462762767,-0.4321184458831946,-0.2362066158403953
0.1695423424243927,0.1961633861064911,106.56568145751953,-0.34970580755422515,-0.19427073462762767,-0.4321184458831946,-0.2362066158403953
0.23489943146705627,-0.0016311660874634981,106.56793975830078,-0.34970580755422515,-0.19427073462762767,-0.4321184458831946,-0.2362066158403953
0.1896609365940094,-0.04367153346538544,106.56865692138672,-0.34970580755422515,-0.19427073462762767,-0.4321184458831946,-0.2362066158403953
0.18927812576293945,0.13818934559822083,106.5663833618164,-0.34970580755422515,-0.19427073462762767,-0.4321184458831946,-0.2362066158403953
0.17514699697494507,0.20248763263225555,106.56885528564453,-0.34970580755422515,-0.19427073462762767,-0.4321184458831946,-0.2362066158403953
0.1752244383096695,0.08887484669685364,106.56761169433594,-0.34970580755422515,-0.19427073462762767,-0.4321184458831946,-0.2362066158403953
0.21394136548042297,0.006008951924741268,106.56761932373047,-0.34970580755422515,-0.19427073462762767,-0.4321184458831946,-0.2362066158403953
0.17438162863254547,0.044919341802597046,106.56930541992188,-0.34970580755422515,-0.19427073462762767,-0.4321184458831946,-0.2362066158403953
0.1680329144001007,0.1452176570892334,106.56839752197266,-0.34970580755422515,-0.19427073462762767,-0.4321184458831946,-0.2362066158403953
0.16690225899219513,0.10609045624732971,106.5695571899414,-0.34970580755422515,-0.19427073462762767,-0.4321184458831946,-0.2362066158403953
0.18494705855846405,0.038344889879226685,106.5698471069336,-0.34970580755422515,-0.19427073462762767,-0.4321184458831946,-0.2362066158403953
0.19164571166038513,0.06776218861341476,106.56961059570312,-0.34970580755422515,-0.19427073462762767,-0.4321184458831946,-0.2362066158403953
0.1694684624671936,0.12586914002895355,106.56886291503906,-0.34970580755422515,-0.19427073462762767,-0.4321184458831946,-0.2362066158403953
0.18238307535648346,0.11715571582317352,106.56843566894531,-0.34970580755422515,-0.19427073462762767,-0.4321184458831946,-0.2362066158403953
0.17690016329288483,0.06876610964536667,106.5686264038086,-0.34970580755422515,-0.19427073462762767,-0.4321184458831946,-0.2362066158403953
0.17338687181472778,0.06950409710407257,106.5692367553711,-0.34970580755422515,-0.19427073462762767,-0.4321184458831946,-0.2362066158403953
0.17060798406600952,0.09005393832921982,106.56964111328125,-0.34970580755422515,-0.19427073462762767,-0.4321184458831946,-0.2362066158403953
0.17467626929283142,0.12022027373313904,106.56920623779297,-0.34970580755422515,-0.19427073462762767,-0.4321184458831946,-0.2362066158403953
0.17432206869125366,0.0917438343167305,106.56968688964844,-0.34970580755422515,-0.19427073462762767,-0.4321184458831946,-0.2362066158403953
0.17140457034111023,0.07360171526670456,106.57192993164062,-0.34970580755422515,-0.19427073462762767,-0.4321184458831946,-0.2362066158403953
0.16904543340206146,0.08074257522821426,106.57298278808594,-0.34970580755422515,-0.19427073462762767,-0.4321184458831946,-0.2362066158403953
0.16853542625904083,0.09911345690488815,106.5733871459961,-0.34970580755422515,-0.19427073462762767,-0.4321184458831946,-0.2362066158403953
0.17475049197673798,0.10259044170379639,106.57353973388672,-0.34970580755422515,-0.19427073462762767,-0.4321184458831946,-0.2362066158403953
0.17494232952594757,0.0760013610124588,106.5726318359375,-0.34970580755422515,-0.19427073462762767,-0.4321184458831946,-0.2362066158403953
0.16229429841041565,0.09063002467155457,106.57292175292969,-0.34970580755422515,-0.19427073462762767,-0.4321184458831946,-0.2362066158403953
0.16902552545070648,0.10058026015758514,106.57124328613281,-0.34970580755422515,-0.19427073462762767,-0.4321184458831946,-0.2362066158403953
0.17157427966594696,0.09436895698308945,106.572021484375,-0.34970580755422515,-0.19427073462762767,-0.4321184458831946,-0.2362066158403953
0.18701417744159698,0.08040379732847214,106.57221221923828,-0.34970580755422515,-0.19427073462762767,-0.4321184458831946,-0.2362066158403953
0.17676764726638794,0.07532364875078201,106.57170104980469,-0.34970580755422515,-0.19427073462762767,-0.4321184458831946,-0.2362066158403953
0.17630746960639954,0.08789638429880142,106.5721435546875,-0.34970580755422515,-0.19427073462762767,-0.4321184458831946,-0.2362066158403953
0.18713080883026123,0.09557283669710159,106.57221221923828,-0.34970580755422515,-0.19427073462762767,-0.4321184458831946,-0.2362066158403953
0.18747089803218842,0.08090835809707642,106.57233428955078,-0.34970580755422515,-0.19427073462762767,-0.4321184458831946,-0.2362066158403953
0.17882181704044342,0.08253506571054459,106.5711669921875,-0.34970580755422515,-0.19427073462762767,-0.4321184458831946,-0.2362066158403953
0.17010444402694702,0.09844423830509186,106.5709228515625,-0.34970580755422515,-0.19427073462762767,-0.4321184458831946,-0.2362066158403953
0.17076556384563446,0.0755554810166359,106.57141876220703,-0.34970580755422515,-0.19427073462762767,-0.4321184458831946,-0.2362066158403953
0.1835038810968399,0.08059604465961456,106.57122802734375,-0.34970580755422515,-0.19427073462762767,-0.4321184458831946,-0.2362066158403953
0.18862394988536835,0.08784099668264389,106.57176971435547,-0.34970580755422515,-0.19427073462762767,-0.4321184458831946,-0.2362066158403953
0.17088554799556732,0.07875470817089081,106.57160949707031,-0.34970580755422515,-0.19427073462762767,-0.4321184458831946,-0.2362066158403953
0.1699051409959793,0.09885746985673904,106.57110595703125,-0.34970580755422515,-0.19427073462762767,-0.4321184458831946,-0.2362066158403953
0.18172325193881989,0.08962921053171158,106.57083892822266,-0.34970580755422515,-0.19427073462762767,-0.4321184458831946,-0.2362066158403953
0.16787418723106384,0.0906863808631897,106.56982421875,-0.34970580755422515,-0.19427073462762767,-0.4321184458831946,-0.2362066158403953
0.16753491759300232,0.08066531270742416,106.57017517089844,-0.34970580755422515,-0.19427073462762767,-0.4321184458831946,-0.2362066158403953
0.18082381784915924,0.08799795806407928,106.56986236572266,-0.34970580755422515,-0.19427073462762767,-0.4321184458831946,-0.2362066158403953
0.18484468758106232,0.09048939496278763,106.57112884521484,-0.34970580755422515,-0.19427073462762767,-0.4321184458831946,-0.2362066158403953
0.17639842629432678,0.09057392179965973,106.57208251953125,-0.34970580755422515,-0.19427073462762767,-0.4321184458831946,-0.2362066158403953
0.1785140037536621,0.09231875836849213,106.57249450683594,-0.34970580755422515,-0.19427073462762767,-0.4321184458831946,-0.2362066158403953
0.1757189929485321,0.08683636784553528,106.57328033447266,-0.34970580755422515,-0.19427073462762767,-0.4321184458831946,-0.2362066158403953
0.15359289944171906,0.07807289063930511,106.57471466064453,-0.34970580755422515,-0.19427073462762767,-0.4321184458831946,-0.2362066158403953
0.1744064837694168,0.06907506287097931,106.57461547851562,-0.34970580755422515,-0.19427073462762767,-0.4321184458831946,-0.2362066158403953
0.15819691121578217,0.09421256184577942,106.5745620727539,-0.34970580755422515,-0.19427073462762767,-0.4321184458831946,-0.2362066158403953
0.19852322340011597,0.08691540360450745,106.574462890625,-0.34970580755422515,-0.19427073462762767,-0.4321184458831946,-0.2362066158403953
0.17684052884578705,0.07757331430912018,106.5735092163086,-0.34970580755422515,-0.19427073462762767,-0.4321184458831946,-0.2362066158403953
0.17629475891590118,0.06657544523477554,106.57270812988281,-0.34970580755422515,-0.19427073462762767,-0.4321184458831946,-0.2362066158403953
0.16265122592449188,0.07794495671987534,106.57228088378906,-0.34970580755422515,-0.19427073462762767,-0.4321184458831946,-0.2362066158403953
0.16846659779548645,0.07205983996391296,106.57205963134766,-0.34970580755422515,-0.19427073462762767,-0.4321184458831946,-0.2362066158403953
0.1807803362607956,0.06811269372701645,106.57266998291016,-0.34970580755422515,-0.19427073462762767,-0.4321184458831946,-0.2362066158403953
0.17332503199577332,0.07558614015579224,106.5737533569336,-0.34970580755422515,-0.19427073462762767,-0.4321184458831946,-0.2362066158403953
0.1659075915813446,0.07815728336572647,106.57379913330078,-0.34970580755422515,-0.19427073462762767,-0.4321184458831946,-0.2362066158403953
0.174068421125412,0.08148421347141266,106.57526397705078,-0.34970580755422515,-0.19427073462762767,-0.4321184458831946,-0.2362066158403953
0.1651509702205658,0.0888398215174675,106.5758285522461,-0.34970580755422515,-0.19427073462762767,-0.4321184458831946,-0.2362066158403953
0.17196281254291534,0.0708007663488388,106.5760498046875,-0.34970580755422515,-0.19427073462762767,-0.4321184458831946,-0.2362066158403953
0.17600755393505096,0.08266562223434448,106.57588195800781,-0.34970580755422515,-0.19427073462762767,-0.4321184458831946,-0.2362066158403953
0.17033880949020386,0.07973647862672806,106.57582092285156,-0.34970580755422515,-0.19427073462762767,-0.4321184458831946,-0.2362066158403953
0.17156726121902466,0.07974475622177124,106.57556915283203,-0.34970580755422515,-0.19427073462762767,-0.4321184458831946,-0.2362066158403953
0.16130466759204865,0.08251432329416275,106.57559204101562,-0.34970580755422515,-0.19427073462762767,-0.4321184458831946,-0.2362066158403953
0.17970404028892517,0.06721541285514832,106.5754165649414,-0.34970580755422515,-0.19427073462762767,-0.4321184458831946,-0.2362066158403953
0.17641030251979828,0.07203280925750732,106.57413482666016,-0.34970580755422515,-0.19427073462762767,-0.4321184458831946,-0.2362066158403953
0.1595766544342041,0.06818442791700363,106.5750732421875,-0.34970580755422515,-0.19427073462762767,-0.4321184458831946,-0.2362066158403953
0.1615150272846222,0.06724588572978973,106.57545471191406,-0.34970580755422515,-0.19427073462762767,-0.4321184458831946,-0.2362066158403953
0.17356109619140625,0.057227879762649536,106.5765151977539,-0.34970580755422515,-0.19427073462762767,-0.4321184458831946,-0.2362066158403953
0.17148981988430023,0.08523285388946533,106.57740783691406,-0.34970580755422515,-0.19427073462762767,-0.4321184458831946,-0.2362066158403953
0.16519932448863983,0.08157721161842346,106.57723999023438,-0.34970580755422515,-0.19427073462762767,-0.4321184458831946,-0.2362066158403953
0.16775475442409515,0.07731997966766357,106.57701110839844,-0.34970580755422515,-0.19427073462762767,-0.4321184458831946,-0.2362066158403953
0.18077600002288818,0.08713193237781525,106.5770263671875,-0.34970580755422515,-0.19427073462762767,-0.4321184458831946,-0.2362066158403953
0.16191990673542023,0.09031672030687332,106.57696533203125,-0.35688398332542015,-0.1981951887351978,-0.4292626466602087,-0.2347278770680229
0.11364742368459702,0.21658067405223846,106.5716552734375,-0.3640192241495889,-0.20208600770061214,-0.42696625224004187,-0.23217039878169696
-0.32409539818763733,0.9952092170715332,106.6075439453125,-0.37114994279626345,-0.20587136227120126,-0.42871998536090056,-0.22207214968899885
-1.2077027559280396,1.2618677616119385,106.85902404785156,-0.3784016507574254,-0.2094158233091649,-0.4414849699785312,-0.2032631748666366
0.21819840371608734,1.9347639083862305,107.08234405517578,-0.38582844917041564,-0.21258155457985897,-0.44973083958029747,-0.17662457761665185
0.770212709903717,1.9340568780899048,107.0508804321289,-0.39325532350275255,-0.21525662942996454,-0.44149408030013243,-0.14438440439601738
-1.144075632095337,2.0420680046081543,107.07936096191406,-0.4006395208773514,-0.21738691638637747,-0.4446096046517293,-0.11125003037353355
-0.6500886678695679,1.4639192819595337,107.11299133300781,-0.4081742756979333,-0.21899761221992473,-0.45956097381810346,-0.08203346965213615
-0.13552767038345337,1.6683906316757202,107.21292877197266,-0.41588818195172483,-0.22014731519234676,-0.46610777663687863,-0.05593088703850903
-0.21024158596992493,1.071010708808899,107.2557601928711,-0.42368065664958626,-0.22088926043878826,-0.4689891871064901,-0.033102542534470536
-0.4563729763031006,1.5814290046691895,107.22716522216797,-0.4315434357792967,-0.22125677227870458,-0.47454430845876533,-0.010998878255486465
-0.07446756213903427,1.2682245969772339,107.30819702148438,-0.4394893715132235,-0.22124219430507058,-0.4789679796124498,0.012748235091567063
-0.4090726971626282,1.4366884231567383,107.3974838256836,-0.4475057503581047,-0.22084188253825737,-0.482997481773297,0.03528917692601683
0.5180165767669678,0.48882177472114563,107.40321350097656,-0.4555481428404649,-0.22012001360352668,-0.4820896161099275,0.051335095241665865
-0.9386731386184692,1.5738886594772339,107.3829116821289,-0.46361218203687005,-0.21912118490267957,-0.48559508745869,0.06852434885998569
-0.2678581476211548,1.0231988430023193,107.40365600585938,-0.47178922038939264,-0.2177987591228965,-0.4956495148440202,0.09016674471398198
0.5764873027801514,0.7955590486526489,107.31609344482422,-0.4800286130565736,-0.21616967741296522,-0.4930776052176952,0.10532306047777337
-0.08652655780315399,0.412718802690506,107.194091796875,-0.4882125480918007,-0.21433038488754794,-0.48899459900955355,0.11539204257229967
-0.522506833076477,0.6004101037979126,107.12810516357422,-0.496404752060771,-0.2123368280039479,-0.49406987726688384,0.12383478345970315
0,0.6768821477890015,107.06694030761719,-0.5046755352119605,-0.21018421409548155,-0.4984241008758545,0.13447888555626078
-0.2094159722328186,0.6048794388771057,107.03248596191406,-0.5129971463357409,-0.2078538881149143,-0.5001692339777947,0.14516023211181167
0.8773572444915771,0.9233510494232178,107.06848907470703,-0.5212869154247973,-0.20532842379580768,-0.4946030567089717,0.15789548618098104
-0.3997107148170471,1.187094807624817,107.11751556396484,-0.5294971298053861,-0.2025502736193852,-0.49062266896168394,0.17548253498971467
-0.202623650431633,0.35487881302833557,107.144287109375,-0.5377160030634454,-0.1995184832014557,-0.49564212200542296,0.18833231516182428
1.280269742012024,1.4284539222717285,107.16252899169922,-0.5459018685627316,-0.19625576873102946,-0.4866617379089197,0.2031934212893248
-0.9263332486152649,-1.2035683393478394,107.19390106201172,-0.5539883186047277,-0.192853594655171,-0.4837122671306134,0.20506746781369053
0.33492088317871094,-0.14940734207630157,107.1349105834961,-0.5620912600267266,-0.18952976016948617,-0.4886407035092513,0.19379267046848936
-0.6683187484741211,1.1311376094818115,107.02871704101562,-0.5702584243814152,-0.1862317066153304,-0.49141901905337976,0.20197375603020193
-0.6628321409225464,0.667792797088623,106.9524154663086,-0.578541182399624,-0.18274055162548186,-0.5025119431316853,0.21696484275162223
0.22012394666671753,0.4656774699687958,106.83653259277344,-0.5869471250764199,-0.17904575769996472,-0.5062011780838173,0.22641042831043406
0.8066699504852295,0.4760623574256897,106.70539855957031,-0.5953125062460701,-0.17520685196233288,-0.4976445622742177,0.23425826020538812
0.4392964839935303,0.45538315176963806,106.60808563232422,-0.6035200568371349,-0.17123786390966006,-0.4872615086535614,0.2420203061153492
0.4443775415420532,0.06972478330135345,106.51526641845703,-0.6115797157295877,-0.16716772631224652,-0.47989755844076487,0.24639620557427414
-0.17853787541389465,0.2613702118396759,106.5088882446289,-0.6195595472823415,-0.16303813017801272,-0.4776822278896969,0.24915533053378272
-0.177577942609787,0.09118156135082245,106.39643859863281,-0.6275456480123104,-0.15886105857375588,-0.4806498597065609,0.25209326197703685
-0.23927351832389832,0.37505343556404114,106.2739028930664,-0.6355854270255401,-0.1546271267771306,-0.48412362188100827,0.25597855361799404
0.8630207777023315,-0.3305479884147644,106.16114044189453,-0.643610838274989,-0.150357726894112,-0.47892572805285466,0.256349432344238
0.26033446192741394,0.4131299555301666,106.07120513916016,-0.6515149229620067,-0.1460795014962139,-0.4695644343892734,0.25703761540353304
0.09674961864948273,0.7122219204902649,105.98471069335938,-0.659316199362899,-0.14171739180365361,-0.4665887337177993,0.2664155477037033
0.5487461090087891,0.9611591100692749,106.00062561035156,-0.6670478521659972,-0.13716092565924748,-0.46120960265398037,0.2803603896250328
-0.5010994076728821,-0.11335507035255432,106.04325866699219,-0.674731370078193,-0.13242937721829437,-0.4608125468095145,0.2874254232893388
0.39016786217689514,-0.10664834082126617,105.96353912353516,-0.6824192827712332,-0.12765423151147023,-0.4617369763553144,0.28559206152955696
0.2043023705482483,0.07260340452194214,105.86682891845703,-0.6900736163887714,-0.12289672805099841,-0.4567830577492715,0.2853083537270626
0.45095258951187134,0.15659742057323456,105.71166229248047,-0.6976411635345884,-0.11812567209824909,-0.45132259974877054,0.2872183606028557
-0.35392993688583374,-0.12945543229579926,105.47021484375,-0.7051564691795245,-0.11333681456123779,-0.45051407764355356,0.287444543838501
-0.08658779412508011,0.7448205351829529,105.26146697998047,-0.7126956286493483,-0.10850333847622894,-0.4541850587353112,0.2925725863625606
0.18527007102966309,-0.46957260370254517,105.02120971679688,-0.720258526692374,-0.10360801426383345,-0.453362706427773,0.29486631912489736
1.531591534614563,0.7047015428543091,104.91106414794922,-0.7276953452991116,-0.09867724721319962,-0.43905552638073775,0.29682572695116205
-0.5919313430786133,0.28807398676872253,104.8844985961914,-0.7349476832254894,-0.09366120901890088,-0.43122502478460484,0.3050988563646873
0.1814144104719162,0.49151846766471863,104.8586196899414,-0.7421632750922195,-0.08852208971459821,-0.43464599922299396,0.31159546015163264
1.0756162405014038,-0.8473323583602905,104.76651763916016,-0.7421632750922195,-0.08852208971459821,-0.43464599922299396,0.31159546015163264
-0.33864590525627136,-1.0106309652328491,104.61408233642578,-0.7421632750922195,-0.08852208971459821,-0.43464599922299396,0.31159546015163264
-0.5812817215919495,0.7321666479110718,104.42265319824219,-0.7421632750922195,-0.08852208971459821,-0.43464599922299396,0.31159546015163264
0.8579844236373901,-1.5285820960998535,104.1670913696289,-0.7421632750922195,-0.08852208971459821,-0.43464599922299396,0.31159546015163264
0.8965270519256592,-3.112511157989502,103.6085205078125,-0.7421632750922195,-0.08852208971459821,-0.43464599922299396,0.31159546015163264
1.990950107574463,-0.4827580749988556,102.8166732788086,-0.7421632750922195,-0.08852208971459821,-0.43464599922299396,0.31159546015163264
0.5874277949333191,-2.7637996673583984,101.75174713134766,-0.7421632750922195,-0.08852208971459821,-0.43464599922299396,0.31159546015163264
1.3820339441299438,-0.9255253672599792,100.43245697021484,-0.7421632750922195,-0.08852208971459821,-0.43464599922299396,0.31159546015163264
0.9314907193183899,-0.839120090007782,98.98441314697266,-0.7421632750922195,-0.08852208971459821,-0.43464599922299396,0.31159546015163264
0.6585907340049744,-2.557568073272705,97.44001007080078,-0.7421632750922195,-0.08852208971459821,-0.43464599922299396,0.31159546015163264
1.200128197669983,-1.1943084001541138,95.85368347167969,-0.7421632750922195,-0.08852208971459821,-0.43464599922299396,0.31159546015163264
0.631666898727417,-1.9450548887252808,94.1123275756836,-0.7421632750922195,-0.08852208971459821,-0.43464599922299396,0.31159546015163264
0.6108217239379883,0.4193594455718994,92.24441528320312,-0.7421632750922195,-0.08852208971459821,-0.43464599922299396,0.31159546015163264
0.12720611691474915,-1.0642458200454712,90.2989501953125,-0.7421632750922195,-0.08852208971459821,-0.43464599922299396,0.31159546015163264
0.5403390526771545,-2.0566952228546143,88.24994659423828,-0.7421632750922195,-0.08852208971459821,-0.43464599922299396,0.31159546015163264
1.414133906364441,0.24188795685768127,86.21598815917969,-0.7421632750922195,-0.08852208971459821,-0.43464599922299396,0.31159546015163264
-0.5458099246025085,-2.7504382133483887,84.15845489501953,-0.7421632750922195,-0.08852208971459821,-0.43464599922299396,0.31159546015163264
1.5071702003479004,-0.413374125957489,82.02906036376953,-0.7421632750922195,-0.08852208971459821,-0.43464599922299396,0.31159546015163264
-1.1423053741455078,-1.0923928022384644,79.91421508789062,-0.7421632750922195,-0.08852208971459821,-0.43464599922299396,0.31159546015163264
1.6368401050567627,-0.02613004855811596,77.79017639160156,-0.7421632750922195,-0.08852208971459821,-0.43464599922299396,0.31159546015163264
-0.8653366565704346,-2.1863505840301514,75.5773696899414,-0.7421632750922195,-0.08852208971459821,-0.43464599922299396,0.31159546015163264
0.9495357871055603,-0.44619306921958923,73.380615234375,-0.7421632750922195,-0.08852208971459821,-0.43464599922299396,0.31159546015163264
1.5213688611984253,-0.9085922837257385,71.13911437988281,-0.7421632750922195,-0.08852208971459821,-0.43464599922299396,0.31159546015163264
-1.9431555271148682,-0.9776861071586609,68.86603546142578,-0.7421632750922195,-0.08852208971459821,-0.43464599922299396,0.31159546015163264
2.4521915912628174,-0.7037167549133301,66.52202606201172,-0.7421632750922195,-0.08852208971459821,-0.43464599922299396,0.31159546015163264
-0.4713766872882843,0.09968894720077515,64.14549255371094,-0.7421632750922195,-0.08852208971459821,-0.43464599922299396,0.31159546015163264
0.9804753661155701,-1.0539884567260742,61.74287414550781,-0.7421632750922195,-0.08852208971459821,-0.43464599922299396,0.31159546015163264
0.684874951839447,-0.5621317625045776,59.28782653808594,-0.7421632750922195,-0.08852208971459821,-0.43464599922299396,0.31159546015163264
-0.24887938797473907,-0.9607764482498169,56.796836853027344,-0.7421632750922195,-0.08852208971459821,-0.43464599922299396,0.31159546015163264
0.8824849128723145,-0.7240416407585144,54.23105239868164,-0.7421632750922195,-0.08852208971459821,-0.43464599922299396,0.31159546015163264
-0.4515592157840729,-0.6109927892684937,51.647239685058594,-0.7421632750922195,-0.08852208971459821,-0.43464599922299396,0.31159546015163264
0.47286921739578247,-0.23741202056407928,49.0459098815918,-0.7421632750922195,-0.08852208971459821,-0.43464599922299396,0.31159546015163264
-0.054236892610788345,-0.4778905212879181,46.43844223022461,-0.7421632750922195,-0.08852208971459821,-0.43464599922299396,0.31159546015163264
-0.3243945240974426,-0.866308867931366,43.859737396240234,-0.7421632750922195,-0.08852208971459821,-0.43464599922299396,0.31159546015163264
-0.5758832693099976,-0.2948484420776367,41.265357971191406,-0.7421632750922195,-0.08852208971459821,-0.43464599922299396,0.31159546015163264
1.6945661306381226,-0.9212728142738342,38.642127990722656,-0.7421632750922195,-0.08852208971459821,-0.43464599922299396,0.31159546015163264
-0.5930619835853577,0.7057740092277527,36.02425003051758,-0.7421632750922195,-0.08852208971459821,-0.43464599922299396,0.31159546015163264
-0.5859532356262207,-1.1999013423919678,33.41596221923828,-0.7421632750922195,-0.08852208971459821,-0.43464599922299396,0.31159546015163264
0.5736472010612488,-0.23168450593948364,30.788284301757812,-0.7421632750922195,-0.08852208971459821,-0.43464599922299396,0.31159546015163264
-0.7630484700202942,-0.6961178779602051,28.179365158081055,-0.7421632750922195,-0.08852208971459821,-0.43464599922299396,0.31159546015163264
0.2821199893951416,-0.7835728526115417,25.486732482910156,-0.7421632750922195,-0.08852208971459821,-0.43464599922299396,0.31159546015163264
-0.36984115839004517,0.45300641655921936,22.75415802001953,-0.7421632750922195,-0.08852208971459821,-0.43464599922299396,0.31159546015163264
-0.8858864903450012,-0.47460103034973145,20.130474090576172,-0.7421632750922195,-0.08852208971459821,-0.43464599922299396,0.31159546015163264
1.2716823816299438,-0.2978324890136719,17.9163818359375,-0.7421632750922195,-0.08852208971459821,-0.43464599922299396,0.31159546015163264
-0.820808470249176,0.8662393689155579,16.197391510009766,-0.7421632750922195,-0.08852208971459821,-0.43464599922299396,0.31159546015163264
-0.21011775732040405,1.7634568214416504,14.85068416595459,-0.7421632750922195,-0.08852208971459821,-0.43464599922299396,0.31159546015163264
-0.09960813075304031,1.5109041929244995,13.832138061523438,-0.7421632750922195,-0.08852208971459821,-0.43464599922299396,0.31159546015163264
0.2506028413772583,1.6502346992492676,13.285689353942871,-0.7421632750922195,-0.08852208971459821,-0.43464599922299396,0.31159546015163264
0.5896310210227966,1.6935691833496094,13.100872993469238,-0.7421632750922195,-0.08852208971459821,-0.43464599922299396,0.31159546015163264
0.7612242102622986,0.0833313837647438,13.21486759185791,-0.7421632750922195,-0.08852208971459821,-0.43464599922299396,0.31159546015163264
0.4808027446269989,-0.38746190071105957,13.336833953857422,-0.7421632750922195,-0.08852208971459821,-0.43464599922299396,0.31159546015163264
0.4447418749332428,0.04330214858055115,13.283634185791016,-0.7421632750922195,-0.08852208971459821,-0.43464599922299396,0.31159546015163264
0.14888110756874084,-0.2547694444656372,13.266448020935059,-0.7421632750922195,-0.08852208971459821,-0.43464599922299396,0.31159546015163264
0.04058937355875969,-0.1415780931711197,13.310734748840332,-0.7421632750922195,-0.08852208971459821,-0.43464599922299396,0.31159546015163264
-0.12720392644405365,-0.024836275726556778,13.297269821166992,-0.7421632750922195,-0.08852208971459821,-0.43464599922299396,0.31159546015163264
0.01327416580170393,-0.2672426104545593,13.282371520996094,-0.7421632750922195,-0.08852208971459821,-0.43464599922299396,0.31159546015163264
0.15043576061725616,-0.0920601636171341,13.303130149841309,-0.7421632750922195,-0.08852208971459821,-0.43464599922299396,0.31159546015163264
0.23061886429786682,-0.021858077496290207,13.294191360473633,-0.7421632750922195,-0.08852208971459821,-0.43464599922299396,0.31159546015163264
0.3293640911579132,-0.14687296748161316,13.293644905090332,-0.7421632750922195,-0.08852208971459821,-0.43464599922299396,0.31159546015163264
0.205101877450943,-0.0685623362660408,13.301653861999512,-0.7421632750922195,-0.08852208971459821,-0.43464599922299396,0.31159546015163264
0.1338217407464981,-0.12391717731952667,13.294281005859375,-0.7421632750922195,-0.08852208971459821,-0.43464599922299396,0.31159546015163264
0.09508632123470306,-0.16611965000629425,13.296735763549805,-0.7421632750922195,-0.08852208971459821,-0.43464599922299396,0.31159546015163264
0.167006716132164,-0.07490873336791992,13.29828929901123,-0.7421632750922195,-0.08852208971459821,-0.43464599922299396,0.31159546015163264
0.2332553118467331,-0.11101346462965012,13.295559883117676,-0.7421632750922195,-0.08852208971459821,-0.43464599922299396,0.31159546015163264
0.20860692858695984,-0.10904966294765472,13.297164916992188,-0.7421632750922195,-0.08852208971459821,-0.43464599922299396,0.31159546015163264
0.13141146302223206,-0.08408670872449875,13.296120643615723,-0.7421632750922195,-0.08852208971459821,-0.43464599922299396,0.31159546015163264
0.14581727981567383,-0.14762453734874725,13.293838500976562,-0.7421632750922195,-0.08852208971459821,-0.43464599922299396,0.31159546015163264
0.19226348400115967,-0.0914146900177002,13.29515552520752,-0.7421632750922195,-0.08852208971459821,-0.43464599922299396,0.31159546015163264
0.19533053040504456,-0.10231579095125198,13.294360160827637,-0.7421632750922195,-0.08852208971459821,-0.43464599922299396,0.31159546015163264
0.19530707597732544,-0.12048070877790451,13.294472694396973,-0.7421632750922195,-0.08852208971459821,-0.43464599922299396,0.31159546015163264
0.16143473982810974,-0.09363635629415512,13.294672012329102,-0.7421632750922195,-0.08852208971459821,-0.43464599922299396,0.31159546015163264
0.16691794991493225,-0.11400008946657181,13.294397354125977,-0.7421632750922195,-0.08852208971459821,-0.43464599922299396,0.31159546015163264
0.19689281284809113,-0.10374310612678528,13.295231819152832,-0.7421632750922195,-0.08852208971459821,-0.43464599922299396,0.31159546015163264
0.17913688719272614,-0.10395464301109314,13.295063018798828,-0.7421632750922195,-0.08852208971459821,-0.43464599922299396,0.31159546015163264
0.17328546941280365,-0.12265533208847046,13.294637680053711,-0.7421632750922195,-0.08852208971459821,-0.43464599922299396,0.31159546015163264
0.16920314729213715,-0.11054316908121109,13.296463012695312,-0.7421632750922195,-0.08852208971459821,-0.43464599922299396,0.31159546015163264
0.18317045271396637,-0.10676997154951096,13.295412063598633,-0.7421632750922195,-0.08852208971459821,-0.43464599922299396,0.31159546015163264
0.18321573734283447,-0.11366114020347595,13.294001579284668,-0.7421632750922195,-0.08852208971459821,-0.43464599922299396,0.31159546015163264
0.18260379135608673,-0.09023645520210266,13.294336318969727,-0.7421632750922195,-0.08852208971459821,-0.43464599922299396,0.31159546015163264
0.16416247189044952,-0.11549124866724014,13.294230461120605,-0.7421632750922195,-0.08852208971459821,-0.43464599922299396,0.31159546015163264
0.1600574254989624,-0.10557053238153458,13.29403305053711,-0.7421632750922195,-0.08852208971459821,-0.43464599922299396,0.31159546015163264
0.16710296273231506,-0.10615699738264084,13.295004844665527,-0.7421632750922195,-0.08852208971459821,-0.43464599922299396,0.31159546015163264
0.17348071932792664,-0.10734972357749939,13.294951438903809,-0.7421632750922195,-0.08852208971459821,-0.43464599922299396,0.31159546015163264
0.1760304719209671,-0.1120062842965126,13.295185089111328,-0.7421632750922195,-0.08852208971459821,-0.43464599922299396,0.31159546015163264
0.14925742149353027,-0.10426553338766098,13.294280052185059,-0.7421632750922195,-0.08852208971459821,-0.43464599922299396,0.31159546015163264
0.1588931828737259,-0.09456000477075577,13.2929105758667,-0.7421632750922195,-0.08852208971459821,-0.43464599922299396,0.31159546015163264
0.17377464473247528,-0.10330458730459213,13.292678833007812,-0.7421632750922195,-0.08852208971459821,-0.43464599922299396,0.31159546015163264
0.16518765687942505,-0.09946989268064499,13.29223346710205,-0.7421632750922195,-0.08852208971459821,-0.43464599922299396,0.31159546015163264
0.17071017622947693,-0.101020447909832,13.293159484863281,-0.7421632750922195,-0.08852208971459821,-0.43464599922299396,0.31159546015163264
0.16244752705097198,-0.10485762357711792,13.293540954589844,-0.7421632750922195,-0.08852208971459821,-0.43464599922299396,0.31159546015163264
0.17590799927711487,-0.09791500866413116,13.293829917907715,-0.7421632750922195,-0.08852208971459821,-0.43464599922299396,0.31159546015163264
0.16463664174079895,-0.08907339721918106,13.294189453125,-0.7421632750922195,-0.08852208971459821,-0.43464599922299396,0.31159546015163264
0.14817757904529572,-0.09680058062076569,13.293248176574707,-0.7421632750922195,-0.08852208971459821,-0.43464599922299396,0.31159546015163264
0.15825925767421722,-0.11510158330202103,13.294621467590332,-0.7421632750922195,-0.08852208971459821,-0.43464599922299396,0.31159546015163264
0.15623776614665985,-0.11530826985836029,13.29407787322998,-0.7421632750922195,-0.08852208971459821,-0.43464599922299396,0.31159546015163264
0.17486217617988586,-0.10357517749071121,13.294026374816895,-0.7421632750922195,-0.08852208971459821,-0.43464599922299396,0.31159546015163264
0.16775114834308624,-0.11059736460447311,13.294713020324707,-0.7421632750922195,-0.08852208971459821,-0.43464599922299396,0.31159546015163264
0.16963189840316772,-0.08977661281824112,13.294523239135742,-0.7421632750922195,-0.08852208971459821,-0.43464599922299396,0.31159546015163264
0.1508333384990692,-0.11434521526098251,13.294561386108398,-0.7421632750922195,-0.08852208971459821,-0.43464599922299396,0.31159546015163264
0.1619216799736023,-0.0946844220161438,13.294132232666016,-0.7421632750922195,-0.08852208971459821,-0.43464599922299396,0.31159546015163264
0.15723563730716705,-0.10820914059877396,13.29381275177002,-0.7421632750922195,-0.08852208971459821,-0.43464599922299396,0.31159546015163264
0.14827187359333038,-0.09916258603334427,13.293147087097168,-0.7421632750922195,-0.08852208971459821,-0.43464599922299396,0.31159546015163264
0.1665751039981842,-0.11628532409667969,13.292630195617676,-0.7421632750922195,-0.08852208971459821,-0.43464599922299396,0.31159546015163264
0.15734411776065826,-0.1152421310544014,13.292899131774902,-0.7421632750922195,-0.08852208971459821,-0.43464599922299396,0.31159546015163264
0.1622120440006256,-0.10332734137773514,13.292832374572754,-0.7421632750922195,-0.08852208971459821,-0.43464599922299396,0.31159546015163264
0.16038642823696136,-0.09463994204998016,13.292132377624512,-0.7421632750922195,-0.08852208971459821,-0.43464599922299396,0.31159546015163264
0.15015870332717896,-0.09738489985466003,13.290908813476562,-0.7421632750922195,-0.08852208971459821,-0.43464599922299396,0.31159546015163264
0.15503589808940887,-0.10491243004798889,13.290124893188477,-0.7421632750922195,-0.08852208971459821,-0.43464599922299396,0.31159546015163264
0.1620391607284546,-0.10748327523469925,13.289234161376953,-0.7421632750922195,-0.08852208971459821,-0.43464599922299396,0.31159546015163264
0.16417571902275085,-0.11220862716436386,13.289253234863281,-0.7421632750922195,-0.08852208971459821,-0.43464599922299396,0.31159546015163264
0.1601121574640274,-0.10121510177850723,13.289587020874023,-0.7421632750922195,-0.08852208971459821,-0.43464599922299396,0.31159546015163264
0.17018410563468933,-0.10095694661140442,13.288166046142578,-0.7421632750922195,-0.08852208971459821,-0.43464599922299396,0.31159546015163264
0.15312205255031586,-0.11601036041975021,13.28785228729248,-0.7421632750922195,-0.08852208971459821,-0.43464599922299396,0.31159546015163264
0.15063558518886566,-0.106976218521595,13.287725448608398,-0.7421632750922195,-0.08852208971459821,-0.43464599922299396,0.31159546015163264
0.16365601122379303,-0.10571286827325821,13.28687572479248,-0.7421632750922195,-0.08852208971459821,-0.43464599922299396,0.31159546015163264
0.15820911526679993,-0.10291993618011475,13.288082122802734,-0.7421632750922195,-0.08852208971459821,-0.43464599922299396,0.31159546015163264
0.15330566465854645,-0.12230577319860458,13.287652015686035,-0.7421632750922195,-0.08852208971459821,-0.43464599922299396,0.31159546015163264
0.14850571751594543,-0.1149628683924675,13.28827953338623,-0.7421632750922195,-0.08852208971459821,-0.43464599922299396,0.31159546015163264
0.1558273732662201,-0.10399682074785233,13.287627220153809,-0.7421632750922195,-0.08852208971459821,-0.43464599922299396,0.31159546015163264
0.15360455214977264,-0.10596141219139099,13.287758827209473,-0.7421632750922195,-0.08852208971459821,-0.43464599922299396,0.31159546015163264
0.1514323204755783,-0.10238485038280487,13.287067413330078,-0.7421632750922195,-0.08852208971459821,-0.43464599922299396,0.31159546015163264
0.15419350564479828,-0.08432115614414215,13.28551197052002,-0.7421632750922195,-0.08852208971459821,-0.43464599922299396,0.31159546015163264
0.15898361802101135,-0.12036048620939255,13.286242485046387,-0.7421632750922195,-0.08852208971459821,-0.43464599922299396,0.31159546015163264
0.15300267934799194,-0.11175225675106049,13.286405563354492,-0.7421632750922195,-0.08852208971459821,-0.43464599922299396,0.31159546015163264
0.15259641408920288,-0.11708497256040573,13.285361289978027,-0.7421632750922195,-0.08852208971459821,-0.43464599922299396,0.31159546015163264
0.1689169853925705,-0.11152403801679611,13.286283493041992,-0.7421632750922195,-0.08852208971459821,-0.43464599922299396,0.31159546015163264
0.16388577222824097,-0.10692451894283295,13.285805702209473,-0.7421632750922195,-0.08852208971459821,-0.43464599922299396,0.31159546015163264
0.1431661993265152,-0.1084597036242485,13.284767150878906,-0.7421632750922195,-0.08852208971459821,-0.43464599922299396,0.31159546015163264
0.143955260515213,-0.10195881873369217,13.285279273986816,-0.7421632750922195,-0.08852208971459821,-0.43464599922299396,0.31159546015163264
0.15516746044158936,-0.11685656011104584,13.286177635192871,-0.7493866026680918,-0.08334402755782411,-0.43215330988168726,0.3097719986612598
0.148089200258255,-0.1174653023481369,13.287546157836914,-0.7565680983424602,-0.07819743326502944,-0.4296261710425219,0.30781931647409994
0.2191399782896042,-0.09935127198696136,13.284454345703125,-0.7637030325002142,-0.07308216803034549,-0.4265659278879564,0.3060125116879741
1.2566373348236084,0.10943445563316345,13.26732349395752,-0.7707099800960473,-0.06798125928112606,-0.41426778361201294,0.30609653821835914
3.5076515674591064,0.8815333843231201,13.359158515930176,-0.7772835897602557,-0.062810833099712,-0.37456537609299034,0.31435460355132816
2.242598533630371,1.4581185579299927,13.49845027923584,-0.7831270231047854,-0.05740911387786673,-0.326646625250578,0.3338517030701041
1.6146961450576782,-0.4618556797504425,13.537933349609375,-0.7883032658396084,-0.05177573390460252,-0.2945025029281776,0.3421538937216003
1.1965667009353638,0,13.622502326965332,-0.7930164143018841,-0.0461052423203363,-0.27107531254490225,0.3383050963903466
1.7417794466018677,0.8507688045501709,13.669636726379395,-0.7973302843618313,-0.0404077428801812,-0.24658909464875867,0.3453948364282647
1.805070161819458,0,13.755090713500977,-0.8011937936053924,-0.03459208110606081,-0.21703201457858096,0.35248457646618275
0.8219088315963745,0.5024101138114929,13.787630081176758,-0.8046285647516038,-0.028682448573720855,-0.19514052296678236,0.3566713274146119
1.0105116367340088,-0.4507175087928772,13.69937515258789,-0.8077536553796384,-0.022734336685906586,-0.1798703523973625,0.35710209912310037
1.804132103919983,-0.14989322423934937,13.760908126831055,-0.8105560332153824,-0.016824344112537706,-0.15641498789191255,0.35209700968116514
1.5404402017593384,0.3690478801727295,13.747846603393555,-0.8129306877145754,-0.010940841544522914,-0.12854355201125153,0.35392329848061
0.12200622260570526,0.13955198228359222,13.605304718017578,-0.8149576325797376,-0.005006800468286615,-0.1146898318082095,0.35816163066774603
2.1193270683288574,-0.5618046522140503,13.55764389038086,-0.8167134816313374,0.000933236940763982,-0.09601205438375482,0.35464285841832555
-0.3734687566757202,0.6774612665176392,13.583349227905273,-0.8181924423772018,0.0068519829570627125,-0.08146323511997867,0.3556066635375221
1.2546361684799194,0,13.479574203491211,-0.8194889707811595,0.01282580660397403,-0.07412017335494368,0.3612521740918358
1.2423045635223389,0.4255954623222351,13.400662422180176,-0.8205509083417972,0.018876231412610335,-0.05331233392159153,0.3647988029445211
0.41766485571861267,0.5399655699729919,13.321881294250488,-0.8213241715863765,0.025023264311150633,-0.03947925542791693,0.37284514488031467
1.4846173524856567,-0.45640847086906433,13.239217758178711,-0.8218500562457165,0.031243152635482538,-0.02362690369288135,0.37354145403951405
0.16463470458984375,-0.7128605842590332,13.243281364440918,-0.8221293065810787,0.03738764429620166,-0.009883136550585514,0.36379754524677993
0.1523577719926834,-0.3168330490589142,13.209287643432617,-0.8222720121571592,0.04337943021466758,-0.0072415325790644546,0.35521676496913035
1.3749642372131348,0.07077540457248688,13.232258796691895,-0.8222866403383932,0.04928262229439708,0.00548615083098403,0.3531662845984101
0.05874015390872955,-0.0912695899605751,13.149016380310059,-0.822095641686271,0.055167303830385296,0.01743368742366623,0.352995499720176
0.9968428611755371,0.7101467251777649,13.042208671569824,-0.8217317758531624,0.061093539737889425,0.026230212549368453,0.3581528091803193
-0.1558361053466797,0.35648810863494873,12.9364595413208,-0.8212362023970736,0.0671368250876873,0.0332386021812756,0.3670414327954252
0.7971725463867188,-0.5914245843887329,12.880107879638672,-0.8206376884412023,0.07323786726790593,0.038583072523275926,0.36508362883081036
0.4750715494155884,0.3616296648979187,12.694784164428711,-0.8199062869480503,0.07930663643456591,0.04918510665496182,0.3631686711683869
0.060541290789842606,0.06720668822526932,12.523784637451172,-0.8190493398343422,0.08538922792300592,0.05364854699000708,0.3667423074444135
0.8339905142784119,-0.45223715901374817,12.536977767944336,-0.8180930771202679,0.09147486148660805,0.061102978698909204,0.36353372018784286
0.2883712351322174,0.09901964664459229,12.571385383605957,-0.8169967523537992,0.09750922782915757,0.07045599327733111,0.3605902409180999
0.5439275503158569,0,12.50400447845459,-0.8157646872724098,0.10352594154214288,0.0773918164893984,0.36141540464013816
0.23729993402957916,-0.7058106660842896,12.437573432922363,-0.8144205717556181,0.10950051698988933,0.08390204552561037,0.35553364908943574
0.2076481431722641,0.4594113528728485,12.335204124450684,-0.8129913051581633,0.11540896674462912,0.08760994616895906,0.3534803214793404
0.940758228302002,-0.7965420484542847,12.216388702392578,-0.8114513889462172,0.12127689358209164,0.09717999926457795,0.3506708990161618
0.4888981580734253,0.29848581552505493,12.199261665344238,-0.8097324405983092,0.12708682132729646,0.10909380248437317,0.3465204304084182
0.7314050793647766,0.492954820394516,12.201631546020508,-0.8078294672765253,0.1329171229893756,0.11926299612969152,0.3531157690410813
0.09321130812168121,-0.6699298024177551,12.14057731628418,-0.805784485647455,0.1387900958774198,0.12613479935874533,0.35164097752422097
0.2904997766017914,0.3268682658672333,12.050711631774902,-0.8036555923883701,0.1446269551183408,0.12933239173144093,0.34878213138629993
-0.29808446764945984,-0.703510046005249,11.886449813842773,-0.8015005792408355,0.15041383496226957,0.12926918597271037,0.3456434498851498
0.7237064838409424,0.39241188764572144,11.790935516357422,-0.7993165357234993,0.1561529550882471,0.1328160361076394,0.3430509652321537
0.29578912258148193,-0.16281625628471375,11.616026878356934,-0.7970321368157037,0.16188641531651637,0.14131183282782628,0.3449642621601621
0.32862091064453125,-0.8520300388336182,11.517072677612305,-0.7946335777940438,0.1675653442486914,0.1465152497713764,0.3365072097008427
0,-0.5367493629455566,11.399435997009277,-0.7921688360679483,0.17307735472969302,0.1492537573600808,0.32493404801934955
-0.06441521644592285,0.16917261481285095,11.250452041625977,-0.7896857467242001,0.17846739603361741,0.14871696388969813,0.321870908451577
0.14730198681354523,1.0551483631134033,11.095759391784668,-0.7872013746336518,0.1839169334646108,0.149407686976095,0.33207358326762915
1.034775972366333,-0.48505866527557373,10.930902481079102,-0.7846291577702182,0.1894910827480878,0.1592583366359273,0.33682433074961105
-0.07824528217315674,-1.4086127281188965,10.867375373840332,-0.7819084264172449,0.19497331663604003,0.16722942572087043,0.3210437358046571
-0.2688276767730713,-0.20184540748596191,10.828256607055664,-0.7791453716107127,0.20021220819558955,0.1643371510629852,0.3076232513412833
-0.12256930768489838,0.5487044453620911,10.808562278747559,-0.7764335994391393,0.20536334981779678,0.16107550952583544,0.3105137433235844
0,0.3367372155189514,10.790205955505371,-0.7737575193711868,0.2106000678774177,0.1600540986284613,0.3178924238309264
0,0.30860278010368347,10.716960906982422,-0.7710899510607124,0.21594309021874025,0.1600540986284613,0.32327025712778173
0.3897378742694855,-0.3085934519767761,10.642549514770508,-0.7683953176200805,0.2213309284853232,0.16330191424737367,0.3232703348621726
0.3211459815502167,-0.24171479046344757,10.622909545898438,-0.7656242521148591,0.2266805515495233,0.16922594637920452,0.3186844328418374
0.7811760306358337,-0.4896281063556671,10.706222534179688,-0.7627272695354705,0.23194117106238593,0.1784119631474216,0.31258990870167813
0.3319154381752014,0.13130632042884827,10.790671348571777,-0.7596764387976794,0.23712611941672454,0.18768772538751358,0.30960389381895465
-0.28797677159309387,-0.5704218745231628,10.772175788879395,-0.7565452587449304,0.24225569017800613,0.18805388094236447,0.3059445975348354
-0.35893911123275757,-0.9064176082611084,10.732975959777832,-0.7534559521099761,0.24725220850617116,0.18266291525214903,0.29363760184496646
0.3187616467475891,0.889867901802063,10.683357238769531,-0.7504143602908073,0.2521450192517498,0.18232810304810596,0.2934996876244744
1.386627435684204,0.37272414565086365,10.64098834991455,-0.7472571287759477,0.2571243607154531,0.19653967873503755,0.30402128801991546
0.4287377893924713,-0.9218428730964661,10.679401397705078,-0.7438554004341779,0.26215324893749015,0.21166772227734318,0.29944529862453545
-0.2967883050441742,0.7993903756141663,10.655402183532715,-0.7403184419042536,0.26713550026890726,0.212767301313579,0.2984248611455163
-0.5571005940437317,-0.5145454406738281,10.584988594055176,-0.7368316180559084,0.2721290288529256,0.20565156048784644,0.3007985689366858
0.06856011599302292,0.10180928558111191,10.46936321258545,-0.7334380184698645,0.27711367610221116,0.20158038983742388,0.2973591009775798
0.5210285186767578,0,10.399234771728516,-0.730037401650722,0.2820767312077806,0.20649362845967206,0.2982075116907557
-0.2512924373149872,-0.1277531385421753,10.265440940856934,-0.7265771095040773,0.28703798465689445,0.2087414291376868,0.29714290220290424
0.9121984243392944,-0.7433983087539673,10.134512901306152,-0.7230521894360169,0.29192986973199175,0.21424897902955603,0.2898833068087697
-1.1197514533996582,-0.8027068972587585,10.006319046020508,-0.7194957865236535,0.29665388976172036,0.212519370454053,0.2769990967586637
0.7270296216011047,0.37050458788871765,9.912734031677246,-0.7159810693655164,0.3012405273251029,0.2092466885223984,0.27339741084724667
0.26638519763946533,0.6863771677017212,9.747374534606934,-0.7124246374165848,0.30587054540558417,0.21752514534940315,0.28220475881050033
0.22778286039829254,-0.5480841994285583,9.575559616088867,-0.7087649011011754,0.31058356173077817,0.2216432124997178,0.2833572002127767
0.6245453357696533,-1.1389331817626953,9.526606559753418,-0.7087649011011754,0.31058356173077817,0.2216432124997178,0.2833572002127767
-0.8830955028533936,-0.8035736083984375,9.47779369354248,-0.7087649011011754,0.31058356173077817,0.2216432124997178,0.2833572002127767
0.25723642110824585,0.6639844179153442,9.39983081817627,-0.7087649011011754,0.31058356173077817,0.2216432124997178,0.2833572002127767
-0.6993816494941711,0.2880045473575592,9.33126449584961,-0.7087649011011754,0.31058356173077817,0.2216432124997178,0.2833572002127767
-1.6475353240966797,-0.3819230794906616,8.983573913574219,-0.7087649011011754,0.31058356173077817,0.2216432124997178,0.2833572002127767
-3.3905556201934814,0.43041741847991943,8.228949546813965,-0.7087649011011754,0.31058356173077817,0.2216432124997178,0.2833572002127767
-2.4425454139709473,-1.6848393678665161,7.245745658874512,-0.7087649011011754,0.31058356173077817,0.2216432124997178,0.2833572002127767
-1.0398331880569458,-1.8248560428619385,6.040251731872559,-0.7087649011011754,0.31058356173077817,0.2216432124997178,0.2833572002127767
-2.9758410453796387,0.3118927776813507,4.610047340393066,-0.7087649011011754,0.31058356173077817,0.2216432124997178,0.2833572002127767
-1.093144416809082,-1.4909517765045166,2.9891300201416016,-0.7087649011011754,0.31058356173077817,0.2216432124997178,0.2833572002127767
-1.7609648704528809,0.010589317418634892,1.2563673257827759,-0.7087649011011754,0.31058356173077817,0.2216432124997178,0.2833572002127767
-0.6816481351852417,-0.08722208440303802,-0.6073569655418396,-0.7087649011011754,0.31058356173077817,0.2216432124997178,0.2833572002127767
-0.6904890537261963,-1.2072551250457764,-2.602797031402588,-0.7087649011011754,0.31058356173077817,0.2216432124997178,0.2833572002127767
-1.1202406883239746,-0.08505422621965408,-4.64263916015625,-0.7087649011011754,0.31058356173077817,0.2216432124997178,0.2833572002127767
-1.9672216176986694,-0.19839057326316833,-6.8127288818359375,-0.7087649011011754,0.31058356173077817,0.2216432124997178,0.2833572002127767
-1.3191280364990234,-1.1520024538040161,-9.06025505065918,-0.7087649011011754,0.31058356173077817,0.2216432124997178,0.2833572002127767
-0.7276905179023743,0.3056657016277313,-11.326803207397461,-0.7087649011011754,0.31058356173077817,0.2216432124997178,0.2833572002127767
-1.2515844106674194,0.3426111042499542,-13.667654037475586,-0.7087649011011754,0.31058356173077817,0.2216432124997178,0.2833572002127767
-1.164039134979248,-1.3334060907363892,-15.993035316467285,-0.7087649011011754,0.31058356173077817,0.2216432124997178,0.2833572002127767
-0.9067195653915405,0.061967093497514725,-18.3717098236084,-0.7087649011011754,0.31058356173077817,0.2216432124997178,0.2833572002127767
-0.6845738291740417,-1.0490291118621826,-20.801424026489258,-0.7087649011011754,0.31058356173077817,0.2216432124997178,0.2833572002127767
-0.8831655979156494,-0.24337981641292572,-23.23539161682129,-0.7087649011011754,0.31058356173077817,0.2216432124997178,0.2833572002127767
-0.6106265783309937,-0.34786471724510193,-25.661455154418945,-0.7087649011011754,0.31058356173077817,0.2216432124997178,0.2833572002127767
-0.7248204350471497,0.14737334847450256,-28.138381958007812,-0.7087649011011754,0.31058356173077817,0.2216432124997178,0.2833572002127767
-1.2725898027420044,-0.1598607748746872,-30.60670280456543,-0.7087649011011754,0.31058356173077817,0.2216432124997178,0.2833572002127767
-0.6107380390167236,-0.6815493106842041,-33.07707214355469,-0.7087649011011754,0.31058356173077817,0.2216432124997178,0.2833572002127767
-0.21546560525894165,-1.2349750995635986,-35.47591018676758,-0.7087649011011754,0.31058356173077817,0.2216432124997178,0.2833572002127767
-0.1400323212146759,1.8767482042312622,-37.87613296508789,-0.7087649011011754,0.31058356173077817,0.2216432124997178,0.2833572002127767
-1.1345303058624268,-2.238107681274414,-40.24712371826172,-0.7087649011011754,0.31058356173077817,0.2216432124997178,0.2833572002127767
-0.011510194279253483,1.9345160722732544,-42.656280517578125,-0.7087649011011754,0.31058356173077817,0.2216432124997178,0.2833572002127767
-0.7013198733329773,-3.1383016109466553,-44.95438766479492,-0.7087649011011754,0.31058356173077817,0.2216432124997178,0.2833572002127767
-0.652167797088623,2.6002249717712402,-47.368919372558594,-0.7087649011011754,0.31058356173077817,0.2216432124997178,0.2833572002127767
-0.4272576570510864,-2.9280858039855957,-49.71036148071289,-0.7087649011011754,0.31058356173077817,0.2216432124997178,0.2833572002127767
0.09275708347558975,0.5508375763893127,-52.05863571166992,-0.7087649011011754,0.31058356173077817,0.2216432124997178,0.2833572002127767
-0.6340243816375732,0.19294175505638123,-54.46620178222656,-0.7087649011011754,0.31058356173077817,0.2216432124997178,0.2833572002127767
-0.8998181223869324,0.31597235798835754,-56.962162017822266,-0.7087649011011754,0.31058356173077817,0.2216432124997178,0.2833572002127767
-0.19765157997608185,0.007650736719369888,-59.41905975341797,-0.7087649011011754,0.31058356173077817,0.2216432124997178,0.2833572002127767
-0.5680901408195496,0.811561644077301,-61.894588470458984,-0.7087649011011754,0.31058356173077817,0.2216432124997178,0.2833572002127767
-0.867641806602478,-0.013919367454946041,-64.36258697509766,-0.7087649011011754,0.31058356173077817,0.2216432124997178,0.2833572002127767
0.8941547870635986,0.7392798066139221,-66.61042022705078,-0.7087649011011754,0.31058356173077817,0.2216432124997178,0.2833572002127767
-0.41470515727996826,0.003015189664438367,-68.51094055175781,-0.7087649011011754,0.31058356173077817,0.2216432124997178,0.2833572002127767
0.9111835956573486,-0.5398282408714294,-70.02596282958984,-0.7087649011011754,0.31058356173077817,0.2216432124997178,0.2833572002127767
1.7219069004058838,0.15117508172988892,-71.27781677246094,-0.7087649011011754,0.31058356173077817,0.2216432124997178,0.2833572002127767
1.7822606563568115,-0.23571902513504028,-72.12560272216797,-0.7087649011011754,0.31058356173077817,0.2216432124997178,0.2833572002127767
1.4750643968582153,-0.48355698585510254,-72.59041595458984,-0.7087649011011754,0.31058356173077817,0.2216432124997178,0.2833572002127767
1.8196775913238525,0.19924499094486237,-72.6701431274414,-0.7087649011011754,0.31058356173077817,0.2216432124997178,0.2833572002127767
-0.5652371644973755,-0.5718318819999695,-72.51527404785156,-0.7087649011011754,0.31058356173077817,0.2216432124997178,0.2833572002127767
-0.3507581949234009,0.29301008582115173,-72.45354461669922,-0.7087649011011754,0.31058356173077817,0.2216432124997178,0.2833572002127767
-0.030064057558774948,0.22865228354930878,-72.51620483398438,-0.7087649011011754,0.31058356173077817,0.2216432124997178,0.2833572002127767
-0.3529185652732849,0.1153571605682373,-72.50193786621094,-0.7087649011011754,0.31058356173077817,0.2216432124997178,0.2833572002127767
-0.013396058231592178,0.06656476110219955,-72.48277282714844,-0.7087649011011754,0.31058356173077817,0.2216432124997178,0.2833572002127767
-0.025967666879296303,-0.26308000087738037,-72.49761962890625,-0.7087649011011754,0.31058356173077817,0.2216432124997178,0.2833572002127767
-0.050411783158779144,-0.3948076665401459,-72.48491668701172,-0.7087649011011754,0.31058356173077817,0.2216432124997178,0.2833572002127767
0.0872492641210556,-0.2763723134994507,-72.48245239257812,-0.7087649011011754,0.31058356173077817,0.2216432124997178,0.2833572002127767
-0.12285083532333374,-0.14499983191490173,-72.48509216308594,-0.7087649011011754,0.31058356173077817,0.2216432124997178,0.2833572002127767
-0.09190906584262848,0.016168899834156036,-72.476806640625,-0.7087649011011754,0.31058356173077817,0.2216432124997178,0.2833572002127767
-0.05677720904350281,-0.03441718965768814,-72.47999572753906,-0.7087649011011754,0.31058356173077817,0.2216432124997178,0.2833572002127767
-0.08051291853189468,-0.16964253783226013,-72.4795913696289,-0.7087649011011754,0.31058356173077817,0.2216432124997178,0.2833572002127767
-0.00525257270783186,-0.22997604310512543,-72.47745513916016,-0.7087649011011754,0.31058356173077817,0.2216432124997178,0.2833572002127767
-0.042440272867679596,-0.1986280381679535,-72.47747039794922,-0.7087649011011754,0.31058356173077817,0.2216432124997178,0.2833572002127767
-0.08154071122407913,-0.08503969758749008,-72.47470092773438,-0.7087649011011754,0.31058356173077817,0.2216432124997178,0.2833572002127767
-0.07681284099817276,-0.07893568277359009,-72.47530364990234,-0.7087649011011754,0.31058356173077817,0.2216432124997178,0.2833572002127767
-0.07010309398174286,-0.12736749649047852,-72.47682189941406,-0.7087649011011754,0.31058356173077817,0.2216432124997178,0.2833572002127767
-0.050945740193128586,-0.18324388563632965,-72.4764633178711,-0.7087649011011754,0.31058356173077817,0.2216432124997178,0.2833572002127767
-0.06298097968101501,-0.162802055478096,-72.47637939453125,-0.7087649011011754,0.31058356173077817,0.2216432124997178,0.2833572002127767
-0.07043879479169846,-0.11187639832496643,-72.4760513305664,-0.7087649011011754,0.31058356173077817,0.2216432124997178,0.2833572002127767
-0.06309866905212402,-0.0932527482509613,-72.47606658935547,-0.7087649011011754,0.31058356173077817,0.2216432124997178,0.2833572002127767
-0.06164618581533432,-0.1242789551615715,-72.47594451904297,-0.7087649011011754,0.31058356173077817,0.2216432124997178,0.2833572002127767
-0.0694684162735939,-0.16029664874076843,-72.4769515991211,-0.7087649011011754,0.31058356173077817,0.2216432124997178,0.2833572002127767
-0.05285153537988663,-0.14819900691509247,-72.4759750366211,-0.7087649011011754,0.31058356173077817,0.2216432124997178,0.2833572002127767
-0.0691986083984375,-0.11583799868822098,-72.475830078125,-0.7087649011011754,0.31058356173077817,0.2216432124997178,0.2833572002127767
-0.06833667308092117,-0.11473605036735535,-72.47489166259766,-0.7087649011011754,0.31058356173077817,0.2216432124997178,0.2833572002127767
-0.06456766277551651,-0.13464392721652985,-72.47382354736328,-0.7087649011011754,0.31058356173077817,0.2216432124997178,0.2833572002127767
-0.06345929950475693,-0.1504838764667511,-72.47376251220703,-0.7087649011011754,0.31058356173077817,0.2216432124997178,0.2833572002127767
-0.06959640234708786,-0.13906380534172058,-72.47416687011719,-0.7087649011011754,0.31058356173077817,0.2216432124997178,0.2833572002127767
-0.08504936099052429,-0.127517968416214,-72.4753189086914,-0.7087649011011754,0.31058356173077817,0.2216432124997178,0.2833572002127767
-0.0702202245593071,-0.12835043668746948,-72.47577667236328,-0.7087649011011754,0.31058356173077817,0.2216432124997178,0.2833572002127767
-0.06016478314995766,-0.1394844949245453,-72.47447204589844,-0.7087649011011754,0.31058356173077817,0.2216432124997178,0.2833572002127767
-0.06840655207633972,-0.15402968227863312,-72.47312927246094,-0.7087649011011754,0.31058356173077817,0.2216432124997178,0.2833572002127767
-0.061026014387607574,-0.14062124490737915,-72.47307586669922,-0.7087649011011754,0.31058356173077817,0.2216432124997178,0.2833572002127767
-0.0603218637406826,-0.13202780485153198,-72.47378540039062,-0.7087649011011754,0.31058356173077817,0.2216432124997178,0.2833572002127767
-0.0759630799293518,-0.12001712620258331,-72.47439575195312,-0.7087649011011754,0.31058356173077817,0.2216432124997178,0.2833572002127767
-0.06478168070316315,-0.13329742848873138,-72.47345733642578,-0.7087649011011754,0.31058356173077817,0.2216432124997178,0.2833572002127767
-0.056931525468826294,-0.14977005124092102,-72.47147369384766,-0.7087649011011754,0.31058356173077817,0.2216432124997178,0.2833572002127767
-0.05850977078080177,-0.14412885904312134,-72.47135925292969,-0.7087649011011754,0.31058356173077817,0.2216432124997178,0.2833572002127767
-0.07081793248653412,-0.14241290092468262,-72.47147369384766,-0.7087649011011754,0.31058356173077817,0.2216432124997178,0.2833572002127767
-0.06491687148809433,-0.13766871392726898,-72.47126770019531,-0.7087649011011754,0.31058356173077817,0.2216432124997178,0.2833572002127767
-0.05424454063177109,-0.14179132878780365,-72.47083282470703,-0.7087649011011754,0.31058356173077817,0.2216432124997178,0.2833572002127767
-0.07045543938875198,-0.1257220357656479,-72.47101593017578,-0.7087649011011754,0.31058356173077817,0.2216432124997178,0.2833572002127767
-0.05632136017084122,-0.12301239371299744,-72.47087860107422,-0.7087649011011754,0.31058356173077817,0.2216432124997178,0.2833572002127767
-0.07013018429279327,-0.1354065239429474,-72.46988677978516,-0.7087649011011754,0.31058356173077817,0.2216432124997178,0.2833572002127767
-0.059974852949380875,-0.1331796646118164,-72.46871948242188,-0.7087649011011754,0.31058356173077817,0.2216432124997178,0.2833572002127767
-0.0803164392709732,-0.1305571347475052,-72.46749114990234,-0.7087649011011754,0.31058356173077817,0.2216432124997178,0.2833572002127767
-0.06620606780052185,-0.14826561510562897,-72.46691131591797,-0.7087649011011754,0.31058356173077817,0.2216432124997178,0.2833572002127767
-0.07634375244379044,-0.1367831975221634,-72.466796875,-0.7087649011011754,0.31058356173077817,0.2216432124997178,0.2833572002127767
-0.07321054488420486,-0.13216161727905273,-72.4664306640625,-0.7087649011011754,0.31058356173077817,0.2216432124997178,0.2833572002127767
-0.0704006776213646,-0.14473436772823334,-72.4670639038086,-0.7087649011011754,0.31058356173077817,0.2216432124997178,0.2833572002127767
-0.07081884890794754,-0.12940561771392822,-72.46721649169922,-0.7087649011011754,0.31058356173077817,0.2216432124997178,0.2833572002127767
-0.06452072411775589,-0.12431958317756653,-72.4665298461914,-0.7087649011011754,0.31058356173077817,0.2216432124997178,0.2833572002127767
-0.06748083233833313,-0.13678447902202606,-72.46701049804688,-0.7087649011011754,0.31058356173077817,0.2216432124997178,0.2833572002127767
-0.058396052569150925,-0.13405701518058777,-72.46797180175781,-0.7087649011011754,0.31058356173077817,0.2216432124997178,0.2833572002127767
-0.08656367659568787,-0.12705937027931213,-72.46906280517578,-0.7087649011011754,0.31058356173077817,0.2216432124997178,0.2833572002127767
-0.06486755609512329,-0.13509751856327057,-72.4686050415039,-0.7087649011011754,0.31058356173077817,0.2216432124997178,0.2833572002127767
-0.09187600761651993,-0.12200315296649933,-72.46809387207031,-0.7087649011011754,0.31058356173077817,0.2216432124997178,0.2833572002127767
-0.0693691223859787,-0.11980288475751877,-72.46786499023438,-0.7087649011011754,0.31058356173077817,0.2216432124997178,0.2833572002127767
-0.0788612812757492,-0.1356007605791092,-72.46733093261719,-0.7087649011011754,0.31058356173077817,0.2216432124997178,0.2833572002127767
-0.06542814522981644,-0.1319083571434021,-72.46768951416016,-0.7087649011011754,0.31058356173077817,0.2216432124997178,0.2833572002127767
-0.06478698551654816,-0.13077138364315033,-72.4681167602539,-0.7087649011011754,0.31058356173077817,0.2216432124997178,0.2833572002127767
-0.07013653218746185,-0.12164973467588425,-72.46796417236328,-0.7087649011011754,0.31058356173077817,0.2216432124997178,0.2833572002127767
-0.07458241283893585,-0.13006223738193512,-72.46786499023438,-0.7087649011011754,0.31058356173077817,0.2216432124997178,0.2833572002127767
-0.07419036328792572,-0.13118095695972443,-72.46882629394531,-0.7087649011011754,0.31058356173077817,0.2216432124997178,0.2833572002127767
-0.06490332633256912,-0.1336028277873993,-72.46847534179688,-0.7087649011011754,0.31058356173077817,0.2216432124997178,0.2833572002127767
-0.07730206102132797,-0.1320798248052597,-72.46810150146484,-0.7087649011011754,0.31058356173077817,0.2216432124997178,0.2833572002127767
-0.07074296474456787,-0.12981925904750824,-72.46897888183594,-0.7087649011011754,0.31058356173077817,0.2216432124997178,0.2833572002127767
-0.06833153963088989,-0.14064723253250122,-72.46939849853516,-0.7087649011011754,0.31058356173077817,0.2216432124997178,0.2833572002127767
-0.0687728077173233,-0.12523941695690155,-72.46794128417969,-0.7087649011011754,0.31058356173077817,0.2216432124997178,0.2833572002127767
-0.07578900456428528,-0.11718538403511047,-72.46707916259766,-0.7087649011011754,0.31058356173077817,0.2216432124997178,0.2833572002127767
-0.07316811382770538,-0.13431796431541443,-72.4666748046875,-0.7087649011011754,0.31058356173077817,0.2216432124997178,0.2833572002127767
-0.08032462745904922,-0.11647646874189377,-72.46852111816406,-0.7087649011011754,0.31058356173077817,0.2216432124997178,0.2833572002127767
-0.0686015710234642,-0.12776009738445282,-72.46675872802734,-0.7087649011011754,0.31058356173077817,0.2216432124997178,0.2833572002127767
-0.07309284806251526,-0.13180240988731384,-72.46593475341797,-0.7087649011011754,0.31058356173077817,0.2216432124997178,0.2833572002127767
-0.07054511457681656,-0.1348235160112381,-72.46593475341797,-0.7087649011011754,0.31058356173077817,0.2216432124997178,0.2833572002127767
-0.07752957940101624,-0.13347092270851135,-72.4664306640625,-0.7087649011011754,0.31058356173077817,0.2216432124997178,0.2833572002127767
-0.05219833552837372,-0.12289755046367645,-72.46697235107422,-0.7087649011011754,0.31058356173077817,0.2216432124997178,0.2833572002127767
-0.07222174108028412,-0.1278160959482193,-72.46614837646484,-0.7087649011011754,0.31058356173077817,0.2216432124997178,0.2833572002127767
-0.07819581031799316,-0.13441625237464905,-72.46527862548828,-0.7087649011011754,0.31058356173077817,0.2216432124997178,0.2833572002127767
-0.08700732886791229,-0.1310661882162094,-72.46630859375,-0.7050823199997347,0.31528774545372784,0.2202665196731686,0.2811448465411862
-0.0682801678776741,-0.1289714276790619,-72.46650695800781,-0.7014219951924558,0.31995543472831045,0.2189724572002887,0.2789778664087256
0,-0.2698979079723358,-72.4690933227539,-0.6977771959174426,0.3245773665757023,0.2184034558013081,0.27565395527829734
0.08761212229728699,-1.1445101499557495,-72.4477310180664,-0.6941310541455946,0.32907337638187334,0.21913355682045216,0.26386722146222996
0.9119922518730164,-2.382833957672119,-72.30650329589844,-0.6904094112281586,0.33322620895432525,0.22746359327187135,0.2344726872319977
1.6476496458053589,-2.210428237915039,-72.07610321044922,-0.686440598430733,0.33681511053349833,0.24879394241919114,0.1961955022687714
0.6791797876358032,-3.218449831008911,-72.15593719482422,-0.6821324473464242,0.3397080301498581,0.2681841876978675,0.15095485169440515
-0.8008735775947571,-1.7477209568023682,-72.21348571777344,-0.6776711618424291,0.3418790713733891,0.26717007278154287,0.10957009512931115
1.3717023134231567,-1.0033267736434937,-72.19145202636719,-0.6731786864116376,0.3435141946442633,0.2719269789134462,0.08664469737559563
0,-0.8673672080039978,-72.24866485595703,-0.6685513129913147,0.3448283636295755,0.28335783152530586,0.07105558086186653
0.6395071148872375,-2.4059743881225586,-72.3004379272461,-0.6637842722495813,0.3457853079219867,0.2886870574826995,0.04377773422747856
-0.9403529763221741,-1.182700753211975,-72.19342041015625,-0.658993713365247,0.34626572327429644,0.2861800086374084,0.013872108049690784
0.9001889228820801,-0.8677077889442444,-72.11200714111328,-0.6542268357250014,0.3463545355930304,0.28584530819207427,-0.003214629801611045
-0.16670134663581848,-1.1965045928955078,-72.1762924194336,-0.6494118106178942,0.346157610347598,0.2919577046607931,-0.020416399650275648
0.5693644881248474,-1.498397946357727,-72.22417449951172,-0.6445178861553887,0.345630191010423,0.2953132308398684,-0.04287392081071927
0.06613852828741074,-0.4922315180301666,-72.27802276611328,-0.6395518668208068,0.3447773875063285,0.30060908930997055,-0.05946249968061838
-0.16872690618038177,-0.7339968085289001,-72.34700775146484,-0.6345488395252165,0.34370119110008496,0.29975418616086247,-0.0696810690686106
-0.17808058857917786,-0.40772292017936707,-72.42242431640625,-0.6295770202763382,0.34246055385667,0.2968641237045328,-0.0791954001411795
0.4614117741584778,-1.3887559175491333,-72.59870147705078,-0.6246096091044864,0.34101587504614145,0.29922521691769366,-0.09416605712225033
0.17440558969974518,-0.4870821237564087,-72.68803405761719,-0.6195783681722569,0.3393161742301244,0.3045236949498455,-0.10979804079979652
0.43066880106925964,-0.44034188985824585,-72.7725830078125,-0.6144609542015116,0.3374218024380712,0.3095659815395872,-0.1175265742465853
1.0126529932022095,-0.08558551967144012,-72.93070983886719,-0.609201290495694,0.3354265034638552,0.3215936631585161,-0.12190930265933268
-0.26237252354621887,-1.2212345600128174,-73.09620666503906,-0.603789293299326,0.3333039303584438,0.3278460004056494,-0.13279946999003484
0.1507701277732849,-1.8434948921203613,-73.14374542236328,-0.5983329434589383,0.33087777742443397,0.32691598044087494,-0.15833888209114466
-0.8276740908622742,0.3724709749221802,-73.16138458251953,-0.5929313510045826,0.3281366416175539,0.32127511408180004,-0.17059741473446283
-0.5325031876564026,-0.813105583190918,-73.28736877441406,-0.5876712225253387,0.3252627517464053,0.30994030342747775,-0.17426936980336896
0,0.3023630678653717,-73.41487884521484,-0.582542530189579,0.3223227940194515,0.3055027768636744,-0.17852555743108184
0.5297593474388123,-0.40471822023391724,-73.47722625732422,-0.5774140283982789,0.3193402600655746,0.30991743809233113,-0.17937851703415306
0.5683962106704712,-0.34388673305511475,-73.51160430908203,-0.5721724769607602,0.31629863165991584,0.3190687344099085,-0.18561689164489498
0.08405964076519012,-0.8040762543678284,-73.58982849121094,-0.5668093552864676,0.3131252971472632,0.3245058665052057,-0.1951832498734195
-0.1073615700006485,-1.0411182641983032,-73.65782165527344,-0.5614025423675777,0.3097441044744725,0.3243116837615769,-0.2105598708614706
0.21798548102378845,0.11126267910003662,-73.65447998046875,-0.5559896654221748,0.30617019998892725,0.3252335496867697,-0.21830866740395616
-0.4927823543548584,-0.1560356169939041,-73.609130859375,-0.5505881893769321,0.3025286129670631,0.3229435757423441,-0.2186817752197384
-1.3241496086120605,-0.8610300421714783,-73.4974136352539,-0.5453319722786546,0.29881328715373656,0.3078024760509531,-0.2271573223794499
0.07269331812858582,0.6007966995239258,-73.4746322631836,-0.5402888376979779,0.29500926002083966,0.2973736736302575,-0.2293259335681795
0.45046645402908325,-0.5375178456306458,-73.65494537353516,-0.535296279264407,0.2911915554928904,0.30173333839823807,-0.22879860978573552
-0.32223984599113464,-0.945107638835907,-73.7888412475586,-0.5302584856655449,0.28727528522670687,0.30280189346522096,-0.2411538221562901
2.416685104370117,-1.1940408945083618,-73.93103790283203,-0.5250663398537371,0.2831075028759531,0.3202556039517125,-0.258980059934159
-1.3718616962432861,0.23261107504367828,-74.16436767578125,-0.5196561892734219,0.2787244025840321,0.32896246568610277,-0.2669919750963647
-0.36175060272216797,0,-74.35009765625,-0.5142938712549706,0.27429068987930405,0.31451569652805733,-0.2650535494710007
-0.38194817304611206,-0.46969929337501526,-74.57792663574219,-0.5091035887278202,0.26984051271496967,0.30831820672998833,-0.2689677102491258
-0.5121771693229675,0.2925508916378021,-74.63179016113281,-0.5040270439866517,0.265345415571808,0.300867162210246,-0.27044394693026924
-0.48321691155433655,-0.08582133054733276,-74.6513900756836,-0.4990817158720974,0.26085237267582373,0.2925722115362685,-0.26872120058784865
0.9608277678489685,-0.3039554953575134,-74.81513214111328,-0.4941723449259169,0.2563466181642273,0.29655230200539046,-0.27196934080372237
-1.9182690382003784,-1.2762296199798584,-74.97530364990234,-0.48929629553626813,0.25170406074004464,0.28857362475246207,-0.28513755009820047
1.149623155593872,0.912556529045105,-75.11646270751953,-0.4845401133100192,0.2469265131626486,0.28216824239740784,-0.2881681591893234
-0.3908946216106415,-0.4210052490234375,-75.35527038574219,-0.4797846197885358,0.24215784601505028,0.28849098018060143,-0.2840718985224762
0.3102242052555084,-0.2790704667568207,-75.59676361083984,-0.4749820388977727,0.2373746980038576,0.2878187267109753,-0.289905862820645
0.11480799317359924,-0.8179399967193604,-75.84772491455078,-0.47015554399436554,0.2324667523413277,0.29136066169788455,-0.2990476166829465
-0.46098792552948,-0.17263874411582947,-75.97273254394531,-0.46532357323914775,0.22741383520627614,0.2884758289282522,-0.30730243952323977
-0.09534566104412079,-0.32566672563552856,-76.07720947265625,-0.4605542770338556,0.22225752333437832,0.2838397157068055,-0.3114549851045011
0,0.33703550696372986,-76.21293640136719,-0.45583023633187025,0.21706739641467332,0.2830451685314378,-0.3113602452600994
-0.9207785129547119,0,-76.28264617919922,-0.4511767598086348,0.21190146423721082,0.2753720142568152,-0.30855161603540165
0.7856321334838867,0,-76.29612731933594,-0.44659661140292894,0.20675893730328745,0.27424579442789165,-0.30855161603540165
0.26491838693618774,-0.058106955140829086,-76.45987701416016,-0.4419528932652127,0.20161237516414598,0.28300038209805894,-0.30903584066157525
0.45941320061683655,-0.4479794204235077,-76.50872802734375,-0.43718591942555385,0.19642663293259444,0.2890364786610008,-0.3132532271246114
-1.5828872919082642,-0.6997963190078735,-76.44397735595703,-0.4324466638153213,0.1911260391652793,0.27967419456690557,-0.3228180249532062
-0.3713800609111786,1.0928540229797363,-76.37980651855469,-0.4279211402498187,0.18577303442327944,0.2633886332934102,-0.319542544086774
-0.3648393452167511,-0.27905765175819397,-76.35052490234375,-0.4235824560425763,0.18050383899205694,0.25725347157567746,-0.3127609076599278
0.5371069312095642,-0.29364848136901855,-76.40099334716797,-0.41928293515617665,0.17525138593847986,0.2586890347922842,-0.31753345876932126
0.371958464384079,-0.5309234261512756,-76.53902435302734,-0.41490832170161124,0.16990189968763558,0.26626457975556456,-0.3244048913319904
0.16542230546474457,-0.8595609664916992,-76.64790344238281,-0.4104332605966679,0.16439859008261332,0.2707427528376381,-0.3359922612706819
0.06295967102050781,0.05166879668831825,-76.74868774414062,-0.4059050215232291,0.15874261543853227,0.2726459359750152,-0.3427246960190434
0.23124255239963531,0.09007357805967331,-76.93930053710938,-0.4013404918803525,0.1530403803920168,0.27509762117018305,-0.3415435095628101
-1.630428671836853,-0.5035092830657959,-77.06002044677734,-0.3968526972302548,0.14731927775312234,0.2634377368415396,-0.3449888071045278
-0.6323214173316956,0.6049032807350159,-77.07667541503906,-0.3926192037057547,0.14157650555121834,0.24458148609846836,-0.34414385712395096
0.7172942161560059,-0.5537639260292053,-77.10806274414062,-0.3885369447153063,0.1358443259432293,0.2452895927553376,-0.3437176958347359
-0.8381653428077698,0.900044322013855,-77.25469970703125,-0.3844571786642904,0.13013974492903818,0.2442823333665729,-0.3408320258681971
0.5302215814590454,-0.9133223295211792,-77.39800262451172,-0.38040719142494117,0.12445828908071356,0.24171613535533354,-0.34094267593075817
-0.47737666964530945,-0.18955516815185547,-77.58216857910156,-0.37637491938347634,0.11869932243341808,0.24215650962044802,-0.35013332174470013
0.6437669992446899,-0.0695737898349762,-77.76350402832031,-0.37232742267246893,0.11284577200447954,0.24354309570044286,-0.35229272972792375
-0.29045844078063965,-0.4543936550617218,-77.99278259277344,-0.36824383576090153,0.10693783988089632,0.24648733368764328,-0.3566591251020629
-0.6973649263381958,0.12977047264575958,-78.13185119628906,-0.36420431237771295,0.10097097785263862,0.2382554722949863,-0.35936431828886256
0.11634064465761185,-0.14183206856250763,-78.17388153076172,-0.36420431237771295,0.10097097785263862,0.2382554722949863,-0.35936431828886256
0.0028620415832847357,0.6039984822273254,-78.2071762084961,-0.36420431237771295,0.10097097785263862,0.2382554722949863,-0.35936431828886256
-0.6993952393531799,-0.06273405253887177,-78.19324493408203,-0.36420431237771295,0.10097097785263862,0.2382554722949863,-0.35936431828886256
0.5789923071861267,-0.12695063650608063,-78.1541519165039,-0.36420431237771295,0.10097097785263862,0.2382554722949863,-0.35936431828886256
-0.27666181325912476,1.1311794519424438,-78.35073852539062,-0.36420431237771295,0.10097097785263862,0.2382554722949863,-0.35936431828886256
-0.674485981464386,1.646803855895996,-78.7447509765625,-0.36420431237771295,0.10097097785263862,0.2382554722949863,-0.35936431828886256
-0.35505974292755127,3.0853824615478516,-79.37332916259766,-0.36420431237771295,0.10097097785263862,0.2382554722949863,-0.35936431828886256
-1.4800480604171753,1.904188871383667,-80.17710876464844,-0.36420431237771295,0.10097097785263862,0.2382554722949863,-0.35936431828886256
-1.015584945678711,1.2238011360168457,-81.19863891601562,-0.36420431237771295,0.10097097785263862,0.2382554722949863,-0.35936431828886256
-0.567264974117279,0.895686686038971,-82.41880798339844,-0.36420431237771295,0.10097097785263862,0.2382554722949863,-0.35936431828886256
-1.4474937915802002,1.1663662195205688,-83.90208435058594,-0.36420431237771295,0.10097097785263862,0.2382554722949863,-0.35936431828886256
-0.6457516551017761,2.038526773452759,-85.56034088134766,-0.36420431237771295,0.10097097785263862,0.2382554722949863,-0.35936431828886256
-0.9031604528427124,2.1129767894744873,-87.33645629882812,-0.36420431237771295,0.10097097785263862,0.2382554722949863,-0.35936431828886256
-0.723167896270752,0.8485210537910461,-89.21366882324219,-0.36420431237771295,0.10097097785263862,0.2382554722949863,-0.35936431828886256
-0.5879791378974915,0.9281278252601624,-91.0725326538086,-0.36420431237771295,0.10097097785263862,0.2382554722949863,-0.35936431828886256
-1.1142770051956177,1.3960236310958862,-92.88614654541016,-0.36420431237771295,0.10097097785263862,0.2382554722949863,-0.35936431828886256
-0.7841548919677734,-0.2745642066001892,-94.70904541015625,-0.36420431237771295,0.10097097785263862,0.2382554722949863,-0.35936431828886256
0.9626146554946899,2.247865676879883,-96.56319427490234,-0.36420431237771295,0.10097097785263862,0.2382554722949863,-0.35936431828886256
-1.9342641830444336,0.17789892852306366,-98.26022338867188,-0.36420431237771295,0.10097097785263862,0.2382554722949863,-0.35936431828886256
0.13386833667755127,1.7790086269378662,-100.0346450805664,-0.36420431237771295,0.10097097785263862,0.2382554722949863,-0.35936431828886256
-0.5755031108856201,0.545668363571167,-101.75340270996094,-0.36420431237771295,0.10097097785263862,0.2382554722949863,-0.35936431828886256
-0.6201910376548767,-0.20333482325077057,-103.43048095703125,-0.36420431237771295,0.10097097785263862,0.2382554722949863,-0.35936431828886256
-0.27566587924957275,0.23556667566299438,-105.1059799194336,-0.36420431237771295,0.10097097785263862,0.2382554722949863,-0.35936431828886256
-0.9811843037605286,1.1814016103744507,-106.8341064453125,-0.36420431237771295,0.10097097785263862,0.2382554722949863,-0.35936431828886256
0.4035787880420685,1.9808216094970703,-108.67138671875,-0.36420431237771295,0.10097097785263862,0.2382554722949863,-0.35936431828886256
-1.7829035520553589,-0.6452900767326355,-110.5952377319336,-0.36420431237771295,0.10097097785263862,0.2382554722949863,-0.35936431828886256
1.5963623523712158,1.669661521911621,-112.68670654296875,-0.36420431237771295,0.10097097785263862,0.2382554722949863,-0.35936431828886256
-0.8958290815353394,-0.3058304488658905,-114.865966796875,-0.36420431237771295,0.10097097785263862,0.2382554722949863,-0.35936431828886256
0.3036484718322754,0.7472773790359497,-117.21292114257812,-0.36420431237771295,0.10097097785263862,0.2382554722949863,-0.35936431828886256
0.6358040571212769,0.7897464632987976,-119.60030364990234,-0.36420431237771295,0.10097097785263862,0.2382554722949863,-0.35936431828886256
-1.7558088302612305,1.0605614185333252,-122.04348754882812,-0.36420431237771295,0.10097097785263862,0.2382554722949863,-0.35936431828886256
1.499931812286377,0.4013647735118866,-124.49130249023438,-0.36420431237771295,0.10097097785263862,0.2382554722949863,-0.35936431828886256
-1.7762646675109863,0.7647680640220642,-126.94144439697266,-0.36420431237771295,0.10097097785263862,0.2382554722949863,-0.35936431828886256
1.2562333345413208,0.5414682030677795,-129.42526245117188,-0.36420431237771295,0.10097097785263862,0.2382554722949863,-0.35936431828886256
-0.543943464756012,1.0411977767944336,-131.8942108154297,-0.36420431237771295,0.10097097785263862,0.2382554722949863,-0.35936431828886256
-0.26658689975738525,0.37759947776794434,-134.3909912109375,-0.36420431237771295,0.10097097785263862,0.2382554722949863,-0.35936431828886256
-0.1206880435347557,0.6940211653709412,-136.98658752441406,-0.36420431237771295,0.10097097785263862,0.2382554722949863,-0.35936431828886256
-0.5495728850364685,0.21485204994678497,-139.60679626464844,-0.36420431237771295,0.10097097785263862,0.2382554722949863,-0.35936431828886256
0.3371991813182831,0.03330545872449875,-142.20602416992188,-0.36420431237771295,0.10097097785263862,0.2382554722949863,-0.35936431828886256
-0.5077061653137207,0.883152425289154,-144.84457397460938,-0.36420431237771295,0.10097097785263862,0.2382554722949863,-0.35936431828886256
0.7674034833908081,-0.055705178529024124,-147.4220733642578,-0.36420431237771295,0.10097097785263862,0.2382554722949863,-0.35936431828886256
0.017071936279535294,0.6423413753509521,-150.07174682617188,-0.36420431237771295,0.10097097785263862,0.2382554722949863,-0.35936431828886256
0.6045905947685242,-0.006783433258533478,-152.49624633789062,-0.36420431237771295,0.10097097785263862,0.2382554722949863,-0.35936431828886256
0.7060348987579346,0.3390514552593231,-154.50933837890625,-0.36420431237771295,0.10097097785263862,0.2382554722949863,-0.35936431828886256
-0.6631917953491211,-0.14219824969768524,-156.08242797851562,-0.36420431237771295,0.10097097785263862,0.2382554722949863,-0.35936431828886256
0.4565563499927521,-1.503674864768982,-157.23843383789062,-0.36420431237771295,0.10097097785263862,0.2382554722949863,-0.35936431828886256
0.4692898094654083,-2.1668572425842285,-158.07630920410156,-0.36420431237771295,0.10097097785263862,0.2382554722949863,-0.35936431828886256
-0.4086472988128662,-1.0891940593719482,-158.52024841308594,-0.36420431237771295,0.10097097785263862,0.2382554722949863,-0.35936431828886256
0.12588253617286682,-1.3909209966659546,-158.53094482421875,-0.36420431237771295,0.10097097785263862,0.2382554722949863,-0.35936431828886256
0.19932645559310913,0.7113235592842102,-158.48216247558594,-0.36420431237771295,0.10097097785263862,0.2382554722949863,-0.35936431828886256
0.6205854415893555,0.3169300854206085,-158.542236328125,-0.36420431237771295,0.10097097785263862,0.2382554722949863,-0.35936431828886256
0.35968223214149475,0.2241387963294983,-158.52684020996094,-0.36420431237771295,0.10097097785263862,0.2382554722949863,-0.35936431828886256
0.18445689976215363,0.3000326454639435,-158.50762939453125,-0.36420431237771295,0.10097097785263862,0.2382554722949863,-0.35936431828886256
-0.206343874335289,-0.1622559279203415,-158.49725341796875,-0.36420431237771295,0.10097097785263862,0.2382554722949863,-0.35936431828886256
-0.4493148624897003,0.14265945553779602,-158.48611450195312,-0.36420431237771295,0.10097097785263862,0.2382554722949863,-0.35936431828886256
-0.44663283228874207,-0.21735432744026184,-158.4861602783203,-0.36420431237771295,0.10097097785263862,0.2382554722949863,-0.35936431828886256
-0.41284987330436707,0.07442722469568253,-158.48797607421875,-0.36420431237771295,0.10097097785263862,0.2382554722949863,-0.35936431828886256
-0.18144290149211884,-0.03892572596669197,-158.48443603515625,-0.36420431237771295,0.10097097785263862,0.2382554722949863,-0.35936431828886256
-0.04870544746518135,0.12743104994297028,-158.4904022216797,-0.36420431237771295,0.10097097785263862,0.2382554722949863,-0.35936431828886256
0.044009458273649216,0.12975996732711792,-158.4932098388672,-0.36420431237771295,0.10097097785263862,0.2382554722949863,-0.35936431828886256
0.026866260915994644,0.13554537296295166,-158.4932861328125,-0.36420431237771295,0.10097097785263862,0.2382554722949863,-0.35936431828886256
-0.10799477994441986,0.06992310285568237,-158.4918975830078,-0.36420431237771295,0.10097097785263862,0.2382554722949863,-0.35936431828886256
-0.2136310338973999,0.03616452217102051,-158.48959350585938,-0.36420431237771295,0.10097097785263862,0.2382554722949863,-0.35936431828886256
-0.22794459760189056,0.009951639920473099,-158.4904022216797,-0.36420431237771295,0.10097097785263862,0.2382554722949863,-0.35936431828886256
-0.16049107909202576,0.07850722223520279,-158.49053955078125,-0.36420431237771295,0.10097097785263862,0.2382554722949863,-0.35936431828886256
-0.06573402881622314,0.07925870269536972,-158.49200439453125,-0.36420431237771295,0.10097097785263862,0.2382554722949863,-0.35936431828886256
-0.0858977884054184,0.09879548847675323,-158.4940643310547,-0.36420431237771295,0.10097097785263862,0.2382554722949863,-0.35936431828886256
-0.13644716143608093,0.06292019039392471,-158.49302673339844,-0.36420431237771295,0.10097097785263862,0.2382554722949863,-0.35936431828886256
-0.18424955010414124,0.0572432316839695,-158.49368286132812,-0.36420431237771295,0.10097097785263862,0.2382554722949863,-0.35936431828886256
-0.1536082625389099,0.06741688400506973,-158.49366760253906,-0.36420431237771295,0.10097097785263862,0.2382554722949863,-0.35936431828886256
-0.09607790410518646,0.07752247154712677,-158.49386596679688,-0.36420431237771295,0.10097097785263862,0.2382554722949863,-0.35936431828886256
-0.09878209233283997,0.07863905280828476,-158.49435424804688,-0.36420431237771295,0.10097097785263862,0.2382554722949863,-0.35936431828886256
-0.13783550262451172,0.0688694640994072,-158.4939422607422,-0.36420431237771295,0.10097097785263862,0.2382554722949863,-0.35936431828886256
-0.1578374207019806,0.0468580424785614,-158.49440002441406,-0.36420431237771295,0.10097097785263862,0.2382554722949863,-0.35936431828886256
-0.14489026367664337,0.08370257169008255,-158.4946746826172,-0.36420431237771295,0.10097097785263862,0.2382554722949863,-0.35936431828886256
-0.12022369354963303,0.07664410769939423,-158.4955596923828,-0.36420431237771295,0.10097097785263862,0.2382554722949863,-0.35936431828886256
-0.11016257107257843,0.0653001070022583,-158.49581909179688,-0.36420431237771295,0.10097097785263862,0.2382554722949863,-0.35936431828886256
-0.13392585515975952,0.069941446185112,-158.496826171875,-0.36420431237771295,0.10097097785263862,0.2382554722949863,-0.35936431828886256
-0.13677142560482025,0.058653250336647034,-158.49609375,-0.36420431237771295,0.10097097785263862,0.2382554722949863,-0.35936431828886256
-0.1211373433470726,0.07566715776920319,-158.4965362548828,-0.36420431237771295,0.10097097785263862,0.2382554722949863,-0.35936431828886256
-0.09872603416442871,0.05653214454650879,-158.4962615966797,-0.36420431237771295,0.10097097785263862,0.2382554722949863,-0.35936431828886256
-0.12573854625225067,0.07643674314022064,-158.49630737304688,-0.36420431237771295,0.10097097785263862,0.2382554722949863,-0.35936431828886256
-0.14008952677249908,0.07263447344303131,-158.49752807617188,-0.36420431237771295,0.10097097785263862,0.2382554722949863,-0.35936431828886256
-0.13865628838539124,0.05735766515135765,-158.4974822998047,-0.36420431237771295,0.10097097785263862,0.2382554722949863,-0.35936431828886256
-0.11846859753131866,0.06683484464883804,-158.4971923828125,-0.36420431237771295,0.10097097785263862,0.2382554722949863,-0.35936431828886256
-0.12451045960187912,0.07413174957036972,-158.49725341796875,-0.36420431237771295,0.10097097785263862,0.2382554722949863,-0.35936431828886256
-0.13029800355434418,0.07017870992422104,-158.49725341796875,-0.36420431237771295,0.10097097785263862,0.2382554722949863,-0.35936431828886256
-0.13035091757774353,0.07166007161140442,-158.49697875976562,-0.36420431237771295,0.10097097785263862,0.2382554722949863,-0.35936431828886256
-0.12702852487564087,0.07256071269512177,-158.49696350097656,-0.36420431237771295,0.10097097785263862,0.2382554722949863,-0.35936431828886256
-0.11745217442512512,0.07077030092477798,-158.49703979492188,-0.36420431237771295,0.10097097785263862,0.2382554722949863,-0.35936431828886256
-0.12423925846815109,0.068414606153965,-158.49771118164062,-0.36420431237771295,0.10097097785263862,0.2382554722949863,-0.35936431828886256
-0.14150740206241608,0.05854300782084465,-158.4981689453125,-0.36420431237771295,0.10097097785263862,0.2382554722949863,-0.35936431828886256
-0.1357904076576233,0.06823498755693436,-158.49803161621094,-0.36420431237771295,0.10097097785263862,0.2382554722949863,-0.35936431828886256
-0.13779029250144958,0.06473293900489807,-158.49795532226562,-0.36420431237771295,0.10097097785263862,0.2382554722949863,-0.35936431828886256
-0.1260036826133728,0.07144708186388016,-158.49842834472656,-0.36420431237771295,0.10097097785263862,0.2382554722949863,-0.35936431828886256
-0.12714800238609314,0.08479411154985428,-158.49819946289062,-0.36420431237771295,0.10097097785263862,0.2382554722949863,-0.35936431828886256
-0.12183251231908798,0.06433147937059402,-158.4981231689453,-0.36420431237771295,0.10097097785263862,0.2382554722949863,-0.35936431828886256
-0.11514003574848175,0.06718581169843674,-158.49913024902344,-0.36420431237771295,0.10097097785263862,0.2382554722949863,-0.35936431828886256
-0.12419541925191879,0.05734230577945709,-158.49879455566406,-0.36420431237771295,0.10097097785263862,0.2382554722949863,-0.35936431828886256
-0.11503693461418152,0.07031756639480591,-158.49835205078125,-0.36420431237771295,0.10097097785263862,0.2382554722949863,-0.35936431828886256
-0.13990862667560577,0.06351323425769806,-158.49810791015625,-0.36420431237771295,0.10097097785263862,0.2382554722949863,-0.35936431828886256
-0.12202972173690796,0.07278206944465637,-158.49771118164062,-0.36420431237771295,0.10097097785263862,0.2382554722949863,-0.35936431828886256
-0.11907345056533813,0.07027413696050644,-158.49717712402344,-0.36420431237771295,0.10097097785263862,0.2382554722949863,-0.35936431828886256
-0.12604525685310364,0.07798362523317337,-158.496826171875,-0.36420431237771295,0.10097097785263862,0.2382554722949863,-0.35936431828886256
-0.12427125871181488,0.06606721878051758,-158.49749755859375,-0.36420431237771295,0.10097097785263862,0.2382554722949863,-0.35936431828886256
-0.12960194051265717,0.07790189236402512,-158.49639892578125,-0.36420431237771295,0.10097097785263862,0.2382554722949863,-0.35936431828886256
-0.12640395760536194,0.0881132036447525,-158.49607849121094,-0.36420431237771295,0.10097097785263862,0.2382554722949863,-0.35936431828886256
-0.13124080002307892,0.07312730699777603,-158.49546813964844,-0.36420431237771295,0.10097097785263862,0.2382554722949863,-0.35936431828886256
-0.1275773048400879,0.07868065685033798,-158.49612426757812,-0.36420431237771295,0.10097097785263862,0.2382554722949863,-0.35936431828886256
-0.12631458044052124,0.05563119426369667,-158.49569702148438,-0.36420431237771295,0.10097097785263862,0.2382554722949863,-0.35936431828886256
-0.12217032164335251,0.07610823959112167,-158.49432373046875,-0.36420431237771295,0.10097097785263862,0.2382554722949863,-0.35936431828886256
-0.1326276659965515,0.06306694447994232,-158.49337768554688,-0.36420431237771295,0.10097097785263862,0.2382554722949863,-0.35936431828886256
-0.12696145474910736,0.06831976771354675,-158.49307250976562,-0.36420431237771295,0.10097097785263862,0.2382554722949863,-0.35936431828886256
-0.12107764184474945,0.09123498201370239,-158.4932861328125,-0.36420431237771295,0.10097097785263862,0.2382554722949863,-0.35936431828886256
-0.12475396692752838,0.07071462273597717,-158.49269104003906,-0.36420431237771295,0.10097097785263862,0.2382554722949863,-0.35936431828886256
-0.12508028745651245,0.07175231724977493,-158.4932861328125,-0.36420431237771295,0.10097097785263862,0.2382554722949863,-0.35936431828886256
-0.12107566744089127,0.06959496438503265,-158.494384765625,-0.36420431237771295,0.10097097785263862,0.2382554722949863,-0.35936431828886256
-0.12423817068338394,0.06681168079376221,-158.4949493408203,-0.36420431237771295,0.10097097785263862,0.2382554722949863,-0.35936431828886256
-0.11440930515527725,0.07388651371002197,-158.49461364746094,-0.36420431237771295,0.10097097785263862,0.2382554722949863,-0.35936431828886256
-0.1094457358121872,0.07875897735357285,-158.4947509765625,-0.36420431237771295,0.10097097785263862,0.2382554722949863,-0.35936431828886256
-0.1310712844133377,0.07024727761745453,-158.49436950683594,-0.36420431237771295,0.10097097785263862,0.2382554722949863,-0.35936431828886256
-0.12431597709655762,0.06621479243040085,-158.49349975585938,-0.36420431237771295,0.10097097785263862,0.2382554722949863,-0.35936431828886256
-0.11669921875,0.06647267937660217,-158.49351501464844,-0.36420431237771295,0.10097097785263862,0.2382554722949863,-0.35936431828886256
-0.1293606460094452,0.07869576662778854,-158.49307250976562,-0.36420431237771295,0.10097097785263862,0.2382554722949863,-0.35936431828886256
-0.12528936564922333,0.06542693823575974,-158.49465942382812,-0.36420431237771295,0.10097097785263862,0.2382554722949863,-0.35936431828886256
-0.11936875432729721,0.06694286316633224,-158.49545288085938,-0.36420431237771295,0.10097097785263862,0.2382554722949863,-0.35936431828886256
-0.13068002462387085,0.07147695869207382,-158.49539184570312,-0.36420431237771295,0.10097097785263862,0.2382554722949863,-0.35936431828886256
-0.11972641944885254,0.07621573656797409,-158.49542236328125,-0.36420431237771295,0.10097097785263862,0.2382554722949863,-0.35936431828886256
-0.13142624497413635,0.08438373357057571,-158.4955596923828,-0.36420431237771295,0.10097097785263862,0.2382554722949863,-0.35936431828886256
-0.11270350217819214,0.06365689635276794,-158.494140625,-0.36420431237771295,0.10097097785263862,0.2382554722949863,-0.35936431828886256
-0.11962968111038208,0.06271334737539291,-158.49481201171875,-0.36024952208830263,0.09499034825919425,0.2363193624342482,-0.3583112329244612
-0.40029019117355347,-0.14226901531219482,-158.50038146972656,-0.3563469715944182,0.08901296967795762,0.23198669683188206,-0.35897419682393455
-1.7988440990447998,-0.6343717575073242,-158.4447479248047,-0.3526332443062631,0.08297613301055735,0.2136605777467291,-0.3654462032640972
-3.5515263080596924,-1.3963834047317505,-158.29669189453125,-0.3494437881776443,0.07674433829211136,0.169074157687525,-0.38236916294942286
-1.8528953790664673,-1.0289641618728638,-158.19061279296875,-0.3470011926111249,0.07020309199527344,0.12403731029480702,-0.402580392671128
-1.1299402713775635,0,-158.1876983642578,-0.3451410454708256,0.06342196293951347,0.09918034654110677,-0.4111550940200685
-1.235244631767273,-0.4796909987926483,-158.07835388183594,-0.34365228864674774,0.056536066164262835,0.07947047234823314,-0.4151525190100072
-1.7841510772705078,-0.6035032868385315,-157.89767456054688,-0.34253746103184923,0.049541635688704996,0.05430884143958496,-0.4241791380569337
-1.7650023698806763,-0.3612924814224243,-157.88330078125,-0.3418787826639083,0.042404983681626866,0.024732562713325097,-0.43221910279244163
-1.4764435291290283,0.3696001470088959,-157.8743438720703,-0.34169167369500636,0.03520190888964079,-0.0022794864450891086,-0.4321498722458877
-0.8105700612068176,-1.0977387428283691,-157.7787628173828,-0.3418884855239756,0.027948845838610754,-0.021337933031221158,-0.43821769387771664
-1.2611124515533447,-0.4786555767059326,-157.72682189941406,-0.3423879845823265,0.020535745779570038,-0.038601953970889176,-0.4513543132071692
-0.588697612285614,0.35515841841697693,-157.84286499023438,-0.34315980951405234,0.013004597701236041,-0.05401703783621383,-0.4523834561929105
-2.24668025970459,-0.5164732336997986,-158.04006958007812,-0.34425699471909965,0.005453671013626225,-0.07764518676946552,-0.45372774632026736
-0.08844894170761108,-0.7829812169075012,-158.13914489746094,-0.3457132429153555,-0.002198697984114849,-0.09710459678123387,-0.46455653340866154
-0.6173415184020996,0.4621320962905884,-158.3125457763672,-0.3473806660881059,-0.009963588063190938,-0.10298618394881479,-0.46723027608046913
-0.7922089695930481,0.18866755068302155,-158.59532165527344,-0.34919498793780807,-0.01770556491127003,-0.11473243801544102,-0.46180694568902236
-0.9368070363998413,-0.826843798160553,-158.66860961914062,-0.3512272657940371,-0.025446665134384122,-0.12914090473204842,-0.46712508108466844
-1.4442206621170044,-0.43840083479881287,-158.668212890625,-0.3535449633519683,-0.03331994736308411,-0.1489828022196888,-0.4776687863593298
-0.7680051326751709,-0.45989367365837097,-158.72186279296875,-0.35618163684693477,-0.04134347536549357,-0.16741801717629026,-0.4851545739298063
-0.2768062353134155,0.4092651903629303,-158.82980346679688,-0.3590444934782055,-0.049432900797885856,-0.17612477857619516,-0.4855764779572683
-0.42121171951293945,0.8336631655693054,-158.95738220214844,-0.3620283799235606,-0.0574395276280117,-0.18194159486641479,-0.475218741657833
-0.2483844757080078,-1.063538908958435,-158.98013305664062,-0.36510723957378005,-0.0653758035822665,-0.1875215631599227,-0.4771343728527424
-0.8162170648574829,-0.5237916707992554,-158.97537231445312,-0.368306529622318,-0.07343827442007315,-0.19639324266463512,-0.4903621276840565
-0.7916112542152405,-0.8185843825340271,-158.9927978515625,-0.3716914050777753,-0.08170419710740001,-0.20979181199024116,-0.5015485947951672
-0.39773789048194885,1.0767605304718018,-159.0814666748047,-0.37527052896821667,-0.09004541145482378,-0.21970305486271774,-0.4993971268956858
-0.8401658535003662,0.5446243286132812,-159.1602020263672,-0.3790182120870385,-0.09825610073231542,-0.2300189193959037,-0.4858855864033101
0.6948627233505249,-0.2880849242210388,-159.23699951171875,-0.3828619512387862,-0.10633637860262113,-0.23122977881381904,-0.4837477580333747
-0.9938159584999084,-0.5480762124061584,-159.30503845214844,-0.386736541527013,-0.11445690798210982,-0.23372105577339725,-0.490715767505268
-0.31789088249206543,-1.1891638040542603,-159.36289978027344,-0.3907229832094163,-0.12275614577500737,-0.24465194611499702,-0.5051927676424381
-0.9468425512313843,0.41948655247688293,-159.4453887939453,-0.3948883443553415,-0.131229475044852,-0.25519139139602576,-0.5116067447389163
-0.28757572174072266,0.4470325708389282,-159.43812561035156,-0.3992272577031205,-0.13969607918471477,-0.26547821033746,-0.5043857520446179
-0.14452537894248962,0.523929238319397,-159.52882385253906,-0.40368190156295897,-0.14803508048204464,-0.2690790528431534,-0.4962944036349652
-0.3446354269981384,0.7807849049568176,-159.69105529785156,-0.40820052194409073,-0.1562160487271221,-0.27315539289265867,-0.48542178577433004
-0.36122551560401917,0.25116902589797974,-159.86203002929688,-0.4128021299466491,-0.16423474835594046,-0.2790375674143433,-0.4768221696838734
-0.34938138723373413,-1.2887282371520996,-160.04063415527344,-0.41750210377180746,-0.1722538372403421,-0.28495929160465794,-0.48546849644432444
-0.5579619407653809,0.36537423729896545,-160.24037170410156,-0.42231443525188506,-0.18040910065329285,-0.2925204860046506,-0.49316311310976724
-0.6176888346672058,0.930321991443634,-160.3006591796875,-0.4272714191002565,-0.18853850696701518,-0.30231757579992213,-0.4823656445369122
0,0.3837142884731293,-160.39007568359375,-0.43235294042155153,-0.19648668185652507,-0.3074649827554822,-0.4714153422042725
-0.097183957695961,-0.13087156414985657,-160.53244018554688,-0.43748410568676066,-0.20432604570407384,-0.30827484906961516,-0.4693083195015786
-0.3070071339607239,0.29754605889320374,-160.78147888183594,-0.4426500886637304,-0.21213627641140964,-0.3116431081667542,-0.46791936537871737
0.6945780515670776,-0.050253357738256454,-161.1988525390625,-0.44781722581945366,-0.21991775939680805,-0.3084133505200346,-0.4658585928690928
-0.42578116059303284,-0.0645870491862297,-161.57736206054688,-0.4529387818773588,-0.22769004430621825,-0.3061733764285842,-0.4668155962601302
-1.2855664491653442,0.2189052402973175,-161.7802734375,-0.45816051506851285,-0.2354595877028377,-0.320434606509904,-0.46552961133420445
0.31150728464126587,-0.07571617513895035,-161.94091796875,-0.4635687348412143,-0.24320847087332734,-0.32855176621427135,-0.4643363691245514
-0.6271887421607971,-0.5217719674110413,-162.11029052734375,-0.469066519934891,-0.25098890259085804,-0.3311824450269341,-0.46931543697913464
-0.523784875869751,0.2932274341583252,-162.2897186279297,-0.4746661560754809,-0.25882669768865285,-0.34077389184385537,-0.4712199747562406
0.882716953754425,0.5587022304534912,-162.44981384277344,-0.48032079510080317,-0.2666212021523255,-0.3377827911948164,-0.46412056088447545
-0.2221277356147766,-0.3741537928581238,-162.55348205566406,-0.4859046340361237,-0.2743437289700115,-0.3322778810436527,-0.4625826572378474
-0.16607151925563812,0.8013280630111694,-162.61572265625,-0.4914695570017728,-0.2820237750441039,-0.33551287483423947,-0.4590228716532387
-0.5149866342544556,0.7237933874130249,-162.64102172851562,-0.4914695570017728,-0.2820237750441039,-0.33551287483423947,-0.4590228716532387
-0.18168431520462036,-0.6862495541572571,-162.71728515625,-0.4914695570017728,-0.2820237750441039,-0.33551287483423947,-0.4590228716532387
0.819762110710144,0.2511712908744812,-162.77806091308594,-0.4914695570017728,-0.2820237750441039,-0.33551287483423947,-0.4590228716532387
1.2762068510055542,-0.2592155337333679,-163.06138610839844,-0.4914695570017728,-0.2820237750441039,-0.33551287483423947,-0.4590228716532387
2.6371943950653076,1.740199327468872,-163.76351928710938,-0.4914695570017728,-0.2820237750441039,-0.33551287483423947,-0.4590228716532387
1.5914682149887085,1.5445475578308105,-164.65826416015625,-0.4914695570017728,-0.2820237750441039,-0.33551287483423947,-0.4590228716532387
1.761379599571228,1.5159885883331299,-165.66822814941406,-0.4914695570017728,-0.2820237750441039,-0.33551287483423947,-0.4590228716532387
2.1296157836914062,1.5953760147094727,-166.9002685546875,-0.4914695570017728,-0.2820237750441039,-0.33551287483423947,-0.4590228716532387
0.4342016875743866,0.6753625869750977,-168.34117126464844,-0.4914695570017728,-0.2820237750441039,-0.33551287483423947,-0.4590228716532387
1.390648603439331,0.5826422572135925,-169.90370178222656,-0.4914695570017728,-0.2820237750441039,-0.33551287483423947,-0.4590228716532387
1.152567744255066,0.5499404668807983,-171.5214080810547,-0.4914695570017728,-0.2820237750441039,-0.33551287483423947,-0.4590228716532387
0.7131988406181335,0.5609592199325562,-173.223388671875,-0.4914695570017728,-0.2820237750441039,-0.33551287483423947,-0.4590228716532387
1.3319467306137085,0.4616236686706543,-175.04339599609375,-0.4914695570017728,-0.2820237750441039,-0.33551287483423947,-0.4590228716532387
1.2268996238708496,-0.1464238464832306,-176.93072509765625,-0.4914695570017728,-0.2820237750441039,-0.33551287483423947,-0.4590228716532387
0.6242780089378357,0.9751871228218079,-178.95558166503906,-0.4914695570017728,-0.2820237750441039,-0.33551287483423947,-0.4590228716532387
1.0826811790466309,-0.010720598511397839,178.90866088867188,-0.4914695570017728,-0.2820237750441039,-0.33551287483423947,-0.4590228716532387
1.5138192176818848,1.0510457754135132,176.67620849609375,-0.4914695570017728,-0.2820237750441039,-0.33551287483423947,-0.4590228716532387
1.5194422006607056,-0.5900638699531555,174.3809814453125,-0.4914695570017728,-0.2820237750441039,-0.33551287483423947,-0.4590228716532387
0.9705092310905457,1.9027135372161865,171.97698974609375,-0.4914695570017728,-0.2820237750441039,-0.33551287483423947,-0.4590228716532387
0.19014613330364227,-0.20303471386432648,169.57440185546875,-0.4914695570017728,-0.2820237750441039,-0.33551287483423947,-0.4590228716532387
1.5988205671310425,-0.7035861611366272,167.1617889404297,-0.4914695570017728,-0.2820237750441039,-0.33551287483423947,-0.4590228716532387
0.5281760692596436,1.5257303714752197,164.70114135742188,-0.4914695570017728,-0.2820237750441039,-0.33551287483423947,-0.4590228716532387
0.33381256461143494,-0.6435421705245972,162.27157592773438,-0.4914695570017728,-0.2820237750441039,-0.33551287483423947,-0.4590228716532387
0.7478862404823303,1.3826417922973633,159.8565673828125,-0.4914695570017728,-0.2820237750441039,-0.33551287483423947,-0.4590228716532387
0.8607639074325562,-0.22020293772220612,157.39141845703125,-0.4914695570017728,-0.2820237750441039,-0.33551287483423947,-0.4590228716532387
0.506093442440033,1.5880300998687744,154.90902709960938,-0.4914695570017728,-0.2820237750441039,-0.33551287483423947,-0.4590228716532387
0.8456111550331116,-0.28878992795944214,152.4296417236328,-0.4914695570017728,-0.2820237750441039,-0.33551287483423947,-0.4590228716532387
0.8340173959732056,0.08621598035097122,149.91921997070312,-0.4914695570017728,-0.2820237750441039,-0.33551287483423947,-0.4590228716532387
0.27598753571510315,0.7507442831993103,147.4281463623047,-0.4914695570017728,-0.2820237750441039,-0.33551287483423947,-0.4590228716532387
0.3541176915168762,-0.9596427083015442,144.8434295654297,-0.4914695570017728,-0.2820237750441039,-0.33551287483423947,-0.4590228716532387
0.7713717222213745,0.2101958692073822,142.24658203125,-0.4914695570017728,-0.2820237750441039,-0.33551287483423947,-0.4590228716532387
