faccX,faccY,yaw,posX,posY,velX,velY
0,0,-101.1232681274414,0.0,0.0,0.0,0.0
0,0,-101.12258911132812,0.0,0.0,0.0,0.0
0,0,-101.12333679199219,0.0,0.0,0.0,0.0
0,-0.12950922548770905,-101.12236022949219,0.0,-8.99369621442424e-06,0.0,-0.0010792435457309087
-0.10548731684684753,-0.9580070376396179,-101.11434173583984,-7.325508114364412e-06,-0.00010250305136044822,-0.0008790609737237294,-0.010141879071791968
-0.44846516847610474,-2.1521003246307373,-101.07633209228516,-6.044544693496492e-05,-0.00048751404715908895,-0.005495331684748332,-0.03605944042404492
0.6199320554733276,-2.3237218856811523,-101.11959075927734,-0.00014012688563929662,-0.0013993257077203856,-0.004066440959771474,-0.07335795884331067
-1.1739150285720825,-1.1189059019088745,-101.19453430175781,-0.0002463719414340125,-0.0028610297292470934,-0.008682965735594432,-0.10204652373989423
-0.46996042132377625,-1.061291217803955,-101.1947021484375,-0.0005052460543811322,-0.0047132077026698325,-0.02238192781805992,-0.12021483307083447
0.2853134870529175,-1.2388893365859985,-101.18242645263672,-0.0008911008884509406,-0.006876523014571931,-0.02392065227031708,-0.1393830043574174
-0.36779993772506714,-1.3573507070541382,-101.21598815917969,-0.00129550665203068,-0.009379867534670565,-0.024608039359251658,-0.16101833805441854
-0.11310109496116638,-0.9993095397949219,-101.2035903930664,-0.001739036546399196,-0.012227163463830947,-0.02861554796497027,-0.18065717344482737
-0.14516538381576538,-0.7375755310058594,-101.2205810546875,-0.002233897517952654,-0.01535873337338368,-0.0307677686214447,-0.19513121570150055
0.08187725394964218,-0.8038429021835327,-101.3277587890625,-0.00275108867066188,-0.018717963248491284,-0.03129516970366239,-0.20797636931141214
-0.814340353012085,-1.5340944528579712,-101.38496398925781,-0.003323540325380034,-0.022346592831114925,-0.03739902886251608,-0.22745918060342468
0.5273435115814209,-0.8381699919700623,-101.36239624023438,-0.003966787809299098,-0.02630231976095173,-0.03979066920777161,-0.24722805097699163
-0.7464303374290466,-0.7457364201545715,-101.3337173461914,-0.004645179992334709,-0.03053278077807691,-0.04161639275650183,-0.26042727107803026
0,-0.2285671979188919,-101.3662338256836,-0.005390621978375646,-0.034940895269521405,-0.04783664556841055,-0.2685464678953091
-0.9691452383995056,-0.36399146914482117,-101.38872528076172,-0.006255201157182455,-0.0394578196418782,-0.05591285588840643,-0.2734844567875067
1.324410319328308,-0.7627574801445007,-101.3681411743164,-0.007162410902480284,-0.04409414037648174,-0.052952313547333076,-0.28287403136491773
-1.0488067865371704,-0.16855256259441376,-101.41188049316406,-0.008025810327380895,-0.04887338187442057,-0.050655617440740264,-0.290634948387742
0.05458242818713188,-0.8543738126754761,-101.41535186767578,-0.008939113976278652,-0.053788334234721125,-0.05894082042699059,-0.2991593348483244
0.6770085096359253,-0.16481900215148926,-101.47660064697266,-0.00987065605715745,-0.058845100427667295,-0.05284422927846511,-0.3076526083052158
-1.3068350553512573,-0.9613505601882935,-101.57745361328125,-0.010795131166362099,-0.06405085011902782,-0.05809278382609288,-0.31703735465804733
1.4094290733337402,0.9434688687324524,-101.5941390991211,-0.011756219645548197,-0.06933604781412415,-0.05723783367623885,-0.3171863687535127
-0.15820325911045074,-1.5348947048187256,-101.6066665649414,-0.012623292858608894,-0.07466355853196646,-0.04681095189104477,-0.322114917387565
-0.7505512237548828,0.09338561445474625,-101.6261978149414,-0.013466583340325288,-0.08013224528636782,-0.05438390591492255,-0.33412749314059814
-0.5275886058807373,-1.070857286453247,-101.57268524169922,-0.014461741482632027,-0.08576891681593324,-0.06503507116188605,-0.3422730904072523
0.20213136076927185,0.3112746775150299,-101.43939971923828,-0.015568260532907312,-0.09152621711500815,-0.06774721487114826,-0.3486029454817374
0.8327617049217224,-0.9616028070449829,-101.22794342041016,-0.016625513206753463,-0.09738142788203225,-0.05912310599038998,-0.3540223465611537
-0.38117504119873047,-0.2048521488904953,-101.12429809570312,-0.01757953812161253,-0.10336280414110255,-0.05535988379269838,-0.3637428045272827
-0.7151748538017273,0.5694781541824341,-101.11686706542969,-0.01757953812161253,-0.10336280414110255,-0.05535988379269838,-0.3637428045272827
0.08708067238330841,-0.4841592311859131,-101.23701477050781,-0.018545820502978226,-0.10941925929134917,-0.0605940019711852,-0.3630318135023117
0.2578222453594208,0.45922696590423584,-101.40814971923828,-0.0195317689443214,-0.11547152092369893,-0.05771981098999579,-0.363239582379659
0.23371383547782898,1.1180521249771118,-101.59983825683594,-0.02045963134409652,-0.12141598069315981,-0.05362367698301871,-0.35009558995564777
0.3576560318470001,0.17038902640342712,-101.78208923339844,-0.02131229194191594,-0.12716143211246364,-0.0486955947553118,-0.33935858036080996
0.9109585285186768,-0.5866995453834534,-101.7772445678711,-0.022035786954479077,-0.13284631890451742,-0.0381238067522645,-0.3428278346856435
0.14812242984771729,-1.207682490348816,-101.65851593017578,-0.022597636444908042,-0.13868472601287066,-0.029298132099211213,-0.35778101831674575
-1.571947693824768,-0.11118457466363907,-101.70948028564453,-0.02318481540100441,-0.14473933097544228,-0.0411633426323533,-0.36877157719184955
-1.7792389392852783,-1.099153995513916,-101.70867919921875,-0.02410359240550961,-0.15096957521823542,-0.06908989790827036,-0.37885773194332917
1.4003164768218994,-0.0963222086429596,-101.65254211425781,-0.025281404763874072,-0.15736688993146847,-0.07224758509546518,-0.38882003364463646
0.49385443329811096,-0.09245145320892334,-101.74871826171875,-0.026353991535595714,-0.1638603331076188,-0.05646282751113176,-0.39039314749340215
-0.8267919421195984,0.1734529435634613,-102.04241943359375,-0.02731815932111607,-0.17036126046234532,-0.05923730675131082,-0.389718135073781
-0.15924184024333954,0.06230532005429268,-102.24568176269531,-0.0283739223351909,-0.17684019061193487,-0.06745425493766864,-0.38775348287696637
0.26725462079048157,-0.2004893720149994,-102.30247497558594,-0.02949065902994738,-0.1833123447746038,-0.06655414843310913,-0.38890501664330557
-0.10224016010761261,-0.5218088626861572,-102.3429183959961,-0.030588435499618444,-0.18984425465162427,-0.06517902792741855,-0.39492416859914853
0,-0.4567416310310364,-102.37110137939453,-0.03168185264286067,-0.19649427902367378,-0.06603102926164865,-0.40307875604679183
-0.06063432991504669,-0.4279470145702362,-102.43341064453125,-0.032786580514576696,-0.2032736950026204,-0.06653631534427404,-0.41045116142680244
0.2594462037086487,-0.20659753680229187,-102.43565368652344,-0.032786580514576696,-0.2032736950026204,-0.06653631534427404,-0.41045116142680244
-0.7648310661315918,0.3720146119594574,-102.44438171386719,-0.03393061527464952,-0.2101030603961812,-0.07074785586446523,-0.4090726858004927
-0.43970540165901184,0.5676601529121399,-102.50833892822266,-0.03519339457154273,-0.21685568330085112,-0.08078565976272026,-0.4012420627598961
0.06762483716011047,0.3297182023525238,-102.5744857788086,-0.036565661162344935,-0.22348073307217822,-0.08388633113354443,-0.3937639097993572
0.9952388405799866,0.5559218525886536,-102.62715148925781,-0.0378899567036165,-0.22998196212057437,-0.07502913381904362,-0.38638357600818074
-0.8300004005432129,-0.1505499631166458,-102.68427276611328,-0.039128967375598005,-0.2363935375617196,-0.07365214681873718,-0.38300547692924736
0.7191886901855469,-0.6533489227294922,-102.71717834472656,-0.04036419841357402,-0.24283278848872414,-0.0745755777383844,-0.3897046343112985
0.19088953733444214,-1.3010940551757812,-102.76374816894531,-0.041543924832302646,-0.24946359093404474,-0.06699159250905115,-0.4059916591271758
0.43479782342910767,1.334976315498352,-102.78106689453125,-0.04261700086295603,-0.2562277656514197,-0.0617775311693549,-0.40570930695782104
-0.9361816048622131,-1.085590124130249,-102.70250701904297,-0.043681444700600355,-0.26297226894853837,-0.06595572934796412,-0.40363108869642017
-0.41496649384498596,0.41444697976112366,-102.57032012939453,-0.044874536585476646,-0.2697460609229488,-0.07721529683719078,-0.40922394823282954
-0.26160740852355957,0.15544721484184265,-102.41355895996094,-0.04620844249820542,-0.27652688407442627,-0.08285341269026199,-0.4044748299444715
0.062222402542829514,-0.6160723567008972,-102.31708526611328,-0.047603178890680664,-0.283300119097241,-0.08451495440676807,-0.40831337279329694
0.4003956913948059,0.19518455862998962,-102.3271713256836,-0.04897963520760335,-0.2901345702964398,-0.08065980362395443,-0.4118207711105545
-0.22424854338169098,0.09808366745710373,-102.45987701416016,-0.050311732827168346,-0.29697788396591523,-0.07919191072384514,-0.40937686922649535
0.0865626335144043,-0.6712355613708496,-102.6357650756836,-0.05164115952741766,-0.303840634001212,-0.08033929330607253,-0.4141531350091099
0.9572708010673523,-1.1110602617263794,-102.80651092529297,-0.05164115952741766,-0.303840634001212,-0.08033929330607253,-0.4141531350091099
-0.4843047559261322,0.7903774380683899,-102.85472869873047,-0.052947302884939616,-0.31076545589189564,-0.07639790959656237,-0.41682549187292645
0.09242071956396103,-0.1645432561635971,-102.85908508300781,-0.05424781554740747,-0.31766908671603433,-0.07966360989958046,-0.41161020702371987
-0.38273102045059204,0.6066504120826721,-102.89673614501953,-0.05559570281662872,-0.3244985549472686,-0.08208286240696905,-0.40792598072439423
-1.1547642946243286,0.5183075666427612,-102.85415649414062,-0.05707052103140285,-0.3312191992108192,-0.09489532336592672,-0.39855133090168227
0.8375870585441589,0.5766449570655823,-102.87267303466797,-0.05867413595111831,-0.337785683022812,-0.09753846699992813,-0.3894267265374461
0,-0.7011539340019226,-103.14647674560547,-0.06024161129982932,-0.34428477492183446,-0.09055857484539348,-0.3904643013452489
0.60469651222229,0.12138252705335617,-103.46501159667969,-0.06170892806723711,-0.35083277518084893,-0.08551943724354107,-0.39529572973648697
-0.9077402353286743,-0.07466311007738113,-103.57723236083984,-0.06315529672428963,-0.35741779293916703,-0.08804480160276093,-0.3949064012616872
-0.38454607129096985,0.2578209936618805,-103.58421325683594,-0.064712452188962,-0.3639868469960573,-0.09881385415792462,-0.3933800855651497
0,-0.09876672923564911,-103.57357788085938,-0.06638605434654485,-0.3705321363204469,-0.10201840475201604,-0.3920546333615978
0.4275173842906952,-0.7637857794761658,-103.59693908691406,-0.06805667238516937,-0.3771262796895785,-0.09845575988292692,-0.39924257093419624
0.0881490409374237,-0.42116567492485046,-103.5884017944336,-0.06966179154813286,-0.3838626108339263,-0.0941585396726926,-0.40911716638753803
-0.7438794374465942,1.2751106023788452,-103.64271545410156,-0.07127663737576866,-0.39062192854264544,-0.09962295964360235,-0.40200095865875474
-0.11958050727844238,-0.4014665186405182,-103.71218872070312,-0.07299698253265682,-0.397261274792254,-0.10681845918297765,-0.3947205912942687
0.5678718686103821,0.3498944342136383,-103.71263122558594,-0.07474615884116952,-0.403843532708577,-0.10308269783854482,-0.39515035866449266
-0.005619942210614681,-0.6353915333747864,-103.7392807006836,-0.07474615884116952,-0.403843532708577,-0.10308269783854482,-0.39515035866449266
-0.1511668860912323,-0.4032335579395294,-103.7497787475586,-0.07647509177933288,-0.41050149876210423,-0.10438925474106021,-0.4038055677587786
0,0.1663649082183838,-103.80621337890625,-0.0782254103921069,-0.41724804076987004,-0.10564897879182049,-0.4057794731731215
1.8092479705810547,0.7720145583152771,-103.90438842773438,-0.07986058448512466,-0.42394586674869056,-0.0905719123703117,-0.39795964428534103
-0.9015372395515442,0.33209389448165894,-103.8858642578125,-0.08130708089053058,-0.4305018532886687,-0.08300765627839912,-0.38875874051203324
-0.9738721251487732,0.8254633545875549,-103.77717590332031,-0.08282077858994143,-0.43690077971046165,-0.09863606765090177,-0.3791124301031231
0.25856348872184753,0.3438226878643036,-103.62802124023438,-0.08451438726165277,-0.4431381197925657,-0.10459697295445948,-0.36936837974935766
-0.3392098844051361,-0.5827414989471436,-103.56765747070312,-0.08626327058837176,-0.44931085103915797,-0.10526902625182022,-0.37135936984171464
-0.14906327426433563,-0.44808512926101685,-103.56385803222656,-0.08805166221747636,-0.4555717590523677,-0.10933796924073248,-0.37994959174344933
0.3178928792476654,-0.48076239228248596,-103.57257080078125,-0.08986223742669806,-0.46196875554819905,-0.1079310558658714,-0.38768998775631186
0.722874641418457,-0.12327579408884048,-103.64531707763672,-0.09158881283552744,-0.4684722024404134,-0.09925799319365372,-0.39272363930940624
0.5388197898864746,-0.5756234526634216,-103.69804382324219,-0.09315549505324772,-0.47506613109881685,-0.08874387293277929,-0.39854779969900844
-0.5340337157249451,0.14022135734558105,-103.7543716430664,-0.09463422723586615,-0.48173883068375295,-0.08870398898143321,-0.4021761504933238
-0.1317528337240219,0.12198179215192795,-103.82210540771484,-0.09615886222926844,-0.4884235579732599,-0.09425221022684127,-0.3999911242475112
-0.6779335737228394,-0.3357989490032196,-103.89095306396484,-0.09778596062245515,-0.4951049251243887,-0.10099959695556511,-0.40177293388793867
-0.9569845795631409,0.1825062334537506,-103.862060546875,-0.09958282322124831,-0.5018117860166564,-0.11462391489961495,-0.40305037318418424
0.5956801772117615,0.007732178550213575,-103.83671569824219,-0.09958282322124831,-0.5018117860166564,-0.11462391489961495,-0.40305037318418424
0.8111076354980469,-0.42929932475090027,-104.0843734741211,-0.09958282322124831,-0.5018117860166564,-0.11462391489961495,-0.40305037318418424
0.20382492244243622,0.5449540615081787,-104.40839385986328,-0.09958282322124831,-0.5018117860166564,-0.11462391489961495,-0.40305037318418424
-0.8832812905311584,0.8055175542831421,-104.59336853027344,-0.09958282322124831,-0.5018117860166564,-0.11462391489961495,-0.40305037318418424
0.2987033426761627,2.2831685543060303,-104.84150695800781,-0.09958282322124831,-0.5018117860166564,-0.11462391489961495,-0.40305037318418424
0.6592812538146973,2.070869207382202,-105.35206604003906,-0.09958282322124831,-0.5018117860166564,-0.11462391489961495,-0.40305037318418424
-0.06408139318227768,1.4522850513458252,-106.19456481933594,-0.09958282322124831,-0.5018117860166564,-0.11462391489961495,-0.40305037318418424
0.29298821091651917,2.5790443420410156,-107.26817321777344,-0.09958282322124831,-0.5018117860166564,-0.11462391489961495,-0.40305037318418424
-0.1641261726617813,1.1871691942214966,-108.52012634277344,-0.09958282322124831,-0.5018117860166564,-0.11462391489961495,-0.40305037318418424
0.5683055520057678,1.1503037214279175,-109.88980865478516,-0.09958282322124831,-0.5018117860166564,-0.11462391489961495,-0.40305037318418424
0.09834347665309906,1.5241154432296753,-111.36625671386719,-0.09958282322124831,-0.5018117860166564,-0.11462391489961495,-0.40305037318418424
0.5251625776290894,1.2971396446228027,-112.93062591552734,-0.09958282322124831,-0.5018117860166564,-0.11462391489961495,-0.40305037318418424
-0.20233573019504547,1.5393425226211548,-114.4945297241211,-0.09958282322124831,-0.5018117860166564,-0.11462391489961495,-0.40305037318418424
-0.35359707474708557,1.0576156377792358,-116.08863067626953,-0.09958282322124831,-0.5018117860166564,-0.11462391489961495,-0.40305037318418424
-0.14417991042137146,1.0263352394104004,-117.66849517822266,-0.09958282322124831,-0.5018117860166564,-0.11462391489961495,-0.40305037318418424
-0.5944201946258545,0.816521942615509,-119.23870086669922,-0.09958282322124831,-0.5018117860166564,-0.11462391489961495,-0.40305037318418424
-0.38561442494392395,1.036020278930664,-120.79740142822266,-0.09958282322124831,-0.5018117860166564,-0.11462391489961495,-0.40305037318418424
-1.0288190841674805,1.0287251472473145,-122.2898941040039,-0.09958282322124831,-0.5018117860166564,-0.11462391489961495,-0.40305037318418424
0.15466901659965515,0.8791741132736206,-123.75511932373047,-0.09958282322124831,-0.5018117860166564,-0.11462391489961495,-0.40305037318418424
-0.2996877431869507,0.9681885838508606,-125.14409637451172,-0.09958282322124831,-0.5018117860166564,-0.11462391489961495,-0.40305037318418424
-0.2258373647928238,0.5620101690292358,-126.54023742675781,-0.09958282322124831,-0.5018117860166564,-0.11462391489961495,-0.40305037318418424
-0.13899463415145874,0.9316012859344482,-127.95333862304688,-0.09958282322124831,-0.5018117860166564,-0.11462391489961495,-0.40305037318418424
-0.06821456551551819,0.07357504963874817,-129.33665466308594,-0.09958282322124831,-0.5018117860166564,-0.11462391489961495,-0.40305037318418424
-0.1076677143573761,0.025062622502446175,-130.72787475585938,-0.09958282322124831,-0.5018117860166564,-0.11462391489961495,-0.40305037318418424
0.08790649473667145,0.7211247086524963,-132.07691955566406,-0.09958282322124831,-0.5018117860166564,-0.11462391489961495,-0.40305037318418424
0.019372453913092613,0.579734742641449,-133.3968963623047,-0.09958282322124831,-0.5018117860166564,-0.11462391489961495,-0.40305037318418424
0.27766749262809753,0.1554340422153473,-134.662353515625,-0.09958282322124831,-0.5018117860166564,-0.11462391489961495,-0.40305037318418424
0.1715141236782074,0.2887444496154785,-135.93275451660156,-0.09958282322124831,-0.5018117860166564,-0.11462391489961495,-0.40305037318418424
-0.11583591997623444,1.0652189254760742,-137.18115234375,-0.09958282322124831,-0.5018117860166564,-0.11462391489961495,-0.40305037318418424
0.39871746301651,0.5744336247444153,-138.548828125,-0.09958282322124831,-0.5018117860166564,-0.11462391489961495,-0.40305037318418424
-0.40487998723983765,1.253695011138916,-139.97328186035156,-0.09958282322124831,-0.5018117860166564,-0.11462391489961495,-0.40305037318418424
-0.4337702691555023,0.41840651631355286,-141.4303741455078,-0.09958282322124831,-0.5018117860166564,-0.11462391489961495,-0.40305037318418424
-0.5878545045852661,0.23138171434402466,-142.97894287109375,-0.09958282322124831,-0.5018117860166564,-0.11462391489961495,-0.40305037318418424
-1.0362906455993652,1.3642449378967285,-144.61936950683594,-0.09958282322124831,-0.5018117860166564,-0.11462391489961495,-0.40305037318418424
0.377686083316803,-0.04623356834053993,-146.2469940185547,-0.09958282322124831,-0.5018117860166564,-0.11462391489961495,-0.40305037318418424
0.23000165820121765,0.3886477053165436,-147.9255828857422,-0.09958282322124831,-0.5018117860166564,-0.11462391489961495,-0.40305037318418424
-0.7901169061660767,0.08529293537139893,-149.60189819335938,-0.09958282322124831,-0.5018117860166564,-0.11462391489961495,-0.40305037318418424
0.8324311971664429,-0.3112368583679199,-151.2837371826172,-0.09958282322124831,-0.5018117860166564,-0.11462391489961495,-0.40305037318418424
0.026520757004618645,1.3439053297042847,-152.92752075195312,-0.09958282322124831,-0.5018117860166564,-0.11462391489961495,-0.40305037318418424
0.30444079637527466,0.38157886266708374,-154.5556640625,-0.09958282322124831,-0.5018117860166564,-0.11462391489961495,-0.40305037318418424
-0.6689926385879517,0.6285432577133179,-156.25860595703125,-0.09958282322124831,-0.5018117860166564,-0.11462391489961495,-0.40305037318418424
0.11189574003219604,-0.03871980682015419,-157.9858856201172,-0.09958282322124831,-0.5018117860166564,-0.11462391489961495,-0.40305037318418424
-0.3244301676750183,0.22216172516345978,-159.75376892089844,-0.09958282322124831,-0.5018117860166564,-0.11462391489961495,-0.40305037318418424
0.25070494413375854,0.592167317867279,-161.42294311523438,-0.09958282322124831,-0.5018117860166564,-0.11462391489961495,-0.40305037318418424
-0.0657600536942482,0.24032281339168549,-163.1565399169922,-0.09958282322124831,-0.5018117860166564,-0.11462391489961495,-0.40305037318418424
0.2611047327518463,0.4288080632686615,-164.8987274169922,-0.09958282322124831,-0.5018117860166564,-0.11462391489961495,-0.40305037318418424
-0.4806847870349884,0.18581582605838776,-166.66650390625,-0.09958282322124831,-0.5018117860166564,-0.11462391489961495,-0.40305037318418424
1.1376903057098389,0.5249088406562805,-168.4480743408203,-0.09958282322124831,-0.5018117860166564,-0.11462391489961495,-0.40305037318418424
-0.16666308045387268,0.7429050803184509,-170.2847442626953,-0.09958282322124831,-0.5018117860166564,-0.11462391489961495,-0.40305037318418424
0.2640155851840973,0.7483292818069458,-172.14024353027344,-0.09958282322124831,-0.5018117860166564,-0.11462391489961495,-0.40305037318418424
0.3060753643512726,0.6286336183547974,-173.96485900878906,-0.09958282322124831,-0.5018117860166564,-0.11462391489961495,-0.40305037318418424
-0.24896596372127533,0.4917156994342804,-175.75384521484375,-0.09958282322124831,-0.5018117860166564,-0.11462391489961495,-0.40305037318418424
-0.06764718890190125,0.19388529658317566,-177.60089111328125,-0.09958282322124831,-0.5018117860166564,-0.11462391489961495,-0.40305037318418424
0.2937571108341217,-0.28930166363716125,-179.435302734375,-0.09958282322124831,-0.5018117860166564,-0.11462391489961495,-0.40305037318418424
-0.4754796028137207,0.42053329944610596,178.70530700683594,-0.09958282322124831,-0.5018117860166564,-0.11462391489961495,-0.40305037318418424
0.27082768082618713,0.46203625202178955,176.89324951171875,-0.09958282322124831,-0.5018117860166564,-0.11462391489961495,-0.40305037318418424
1.9490470886230469,-0.9147611856460571,175.1794891357422,-0.09958282322124831,-0.5018117860166564,-0.11462391489961495,-0.40305037318418424
-0.13637618720531464,-0.027856342494487762,173.5381317138672,-0.09958282322124831,-0.5018117860166564,-0.11462391489961495,-0.40305037318418424
0.011721836403012276,2.1152541637420654,172.14996337890625,-0.09958282322124831,-0.5018117860166564,-0.11462391489961495,-0.40305037318418424
1.625349998474121,-2.5564727783203125,170.87310791015625,-0.09958282322124831,-0.5018117860166564,-0.11462391489961495,-0.40305037318418424
-1.471044659614563,-0.8178415298461914,169.5487060546875,-0.09958282322124831,-0.5018117860166564,-0.11462391489961495,-0.40305037318418424
0.39732271432876587,1.5734975337982178,168.578369140625,-0.09958282322124831,-0.5018117860166564,-0.11462391489961495,-0.40305037318418424
3.282106399536133,-0.567318856716156,167.84201049804688,-0.09958282322124831,-0.5018117860166564,-0.11462391489961495,-0.40305037318418424
-0.30360883474349976,-2.439307689666748,167.37710571289062,-0.09958282322124831,-0.5018117860166564,-0.11462391489961495,-0.40305037318418424
1.0178616046905518,-0.7894588708877563,167.06903076171875,-0.09958282322124831,-0.5018117860166564,-0.11462391489961495,-0.40305037318418424
0.8951034545898438,0.68914794921875,166.9744415283203,-0.09958282322124831,-0.5018117860166564,-0.11462391489961495,-0.40305037318418424
1.3193806409835815,0.032134298235177994,166.9517059326172,-0.09958282322124831,-0.5018117860166564,-0.11462391489961495,-0.40305037318418424
0.5363845825195312,-0.15163852274417877,166.95603942871094,-0.09958282322124831,-0.5018117860166564,-0.11462391489961495,-0.40305037318418424
-0.4318350553512573,0.13196325302124023,166.98214721679688,-0.09958282322124831,-0.5018117860166564,-0.11462391489961495,-0.40305037318418424
-0.32127898931503296,0.3249867856502533,166.96218872070312,-0.09958282322124831,-0.5018117860166564,-0.11462391489961495,-0.40305037318418424
-0.3157593905925751,0.2655843496322632,166.95458984375,-0.09958282322124831,-0.5018117860166564,-0.11462391489961495,-0.40305037318418424
0.16748148202896118,0.2482931911945343,166.964599609375,-0.09958282322124831,-0.5018117860166564,-0.11462391489961495,-0.40305037318418424
0.2704528272151947,0.02415182627737522,166.96424865722656,-0.09958282322124831,-0.5018117860166564,-0.11462391489961495,-0.40305037318418424
0.1333502233028412,0.22477740049362183,166.9610595703125,-0.09958282322124831,-0.5018117860166564,-0.11462391489961495,-0.40305037318418424
-0.12067651748657227,0.24856996536254883,166.962158203125,-0.09958282322124831,-0.5018117860166564,-0.11462391489961495,-0.40305037318418424
-0.057493679225444794,0.1603577435016632,166.9615020751953,-0.09958282322124831,-0.5018117860166564,-0.11462391489961495,-0.40305037318418424
0.1663181632757187,0.19605740904808044,166.95936584472656,-0.09958282322124831,-0.5018117860166564,-0.11462391489961495,-0.40305037318418424
0.1284993290901184,0.17223356664180756,166.9610595703125,-0.09958282322124831,-0.5018117860166564,-0.11462391489961495,-0.40305037318418424
-0.030473148450255394,0.2006901353597641,166.96005249023438,-0.09958282322124831,-0.5018117860166564,-0.11462391489961495,-0.40305037318418424
-0.02267393097281456,0.218988835811615,166.95863342285156,-0.09958282322124831,-0.5018117860166564,-0.11462391489961495,-0.40305037318418424
0.10276269912719727,0.18642736971378326,166.95779418945312,-0.09958282322124831,-0.5018117860166564,-0.11462391489961495,-0.40305037318418424
0.10380183905363083,0.17012181878089905,166.95645141601562,-0.09958282322124831,-0.5018117860166564,-0.11462391489961495,-0.40305037318418424
0.008095979690551758,0.21136927604675293,166.9579315185547,-0.09958282322124831,-0.5018117860166564,-0.11462391489961495,-0.40305037318418424
-0.018714264035224915,0.2028217315673828,166.95809936523438,-0.09958282322124831,-0.5018117860166564,-0.11462391489961495,-0.40305037318418424
0.07454618811607361,0.17721977829933167,166.95761108398438,-0.09958282322124831,-0.5018117860166564,-0.11462391489961495,-0.40305037318418424
0.07830259203910828,0.17589157819747925,166.95767211914062,-0.09958282322124831,-0.5018117860166564,-0.11462391489961495,-0.40305037318418424
0.02597453072667122,0.19520044326782227,166.95726013183594,-0.09958282322124831,-0.5018117860166564,-0.11462391489961495,-0.40305037318418424
0.02436785213649273,0.19179563224315643,166.95635986328125,-0.09958282322124831,-0.5018117860166564,-0.11462391489961495,-0.40305037318418424
0.05958767980337143,0.1863074153661728,166.9571533203125,-0.09958282322124831,-0.5018117860166564,-0.11462391489961495,-0.40305037318418424
0.0585949532687664,0.17526791989803314,166.9573211669922,-0.09958282322124831,-0.5018117860166564,-0.11462391489961495,-0.40305037318418424
0.026676909998059273,0.17953768372535706,166.9563751220703,-0.09958282322124831,-0.5018117860166564,-0.11462391489961495,-0.40305037318418424
0.04321819916367531,0.18417052924633026,166.9557647705078,-0.09958282322124831,-0.5018117860166564,-0.11462391489961495,-0.40305037318418424
0.05311504751443863,0.1724686622619629,166.955810546875,-0.09958282322124831,-0.5018117860166564,-0.11462391489961495,-0.40305037318418424
0.0660381093621254,0.1808318942785263,166.95591735839844,-0.09958282322124831,-0.5018117860166564,-0.11462391489961495,-0.40305037318418424
0.03817605972290039,0.1864718645811081,166.95567321777344,-0.09958282322124831,-0.5018117860166564,-0.11462391489961495,-0.40305037318418424
0.04093476012349129,0.1727227121591568,166.9553985595703,-0.09958282322124831,-0.5018117860166564,-0.11462391489961495,-0.40305037318418424
0.05614062771201134,0.17969229817390442,166.9552001953125,-0.09958282322124831,-0.5018117860166564,-0.11462391489961495,-0.40305037318418424
0.04876307025551796,0.1700858771800995,166.95448303222656,-0.09958282322124831,-0.5018117860166564,-0.11462391489961495,-0.40305037318418424
0.03233896195888519,0.17745351791381836,166.95364379882812,-0.09958282322124831,-0.5018117860166564,-0.11462391489961495,-0.40305037318418424
0.023218564689159393,0.18314969539642334,166.95367431640625,-0.09958282322124831,-0.5018117860166564,-0.11462391489961495,-0.40305037318418424
0.04978308826684952,0.18819579482078552,166.9542694091797,-0.09958282322124831,-0.5018117860166564,-0.11462391489961495,-0.40305037318418424
0.05402195826172829,0.19294334948062897,166.9540557861328,-0.09958282322124831,-0.5018117860166564,-0.11462391489961495,-0.40305037318418424
0.05133013427257538,0.18140040338039398,166.95474243164062,-0.09958282322124831,-0.5018117860166564,-0.11462391489961495,-0.40305037318418424
0.03815412521362305,0.18452219665050507,166.9548797607422,-0.09958282322124831,-0.5018117860166564,-0.11462391489961495,-0.40305037318418424
0.03813696280121803,0.19133861362934113,166.95510864257812,-0.09958282322124831,-0.5018117860166564,-0.11462391489961495,-0.40305037318418424
0.03895381838083267,0.1789219230413437,166.95440673828125,-0.09958282322124831,-0.5018117860166564,-0.11462391489961495,-0.40305037318418424
0.03858385235071182,0.17809705436229706,166.9534454345703,-0.09958282322124831,-0.5018117860166564,-0.11462391489961495,-0.40305037318418424
0.03967997804284096,0.18441934883594513,166.9536590576172,-0.09958282322124831,-0.5018117860166564,-0.11462391489961495,-0.40305037318418424
0.053597692400217056,0.18145863711833954,166.95285034179688,-0.09958282322124831,-0.5018117860166564,-0.11462391489961495,-0.40305037318418424
0.04917806759476662,0.18361254036426544,166.95321655273438,-0.09958282322124831,-0.5018117860166564,-0.11462391489961495,-0.40305037318418424
0.03845103085041046,0.1813904494047165,166.95237731933594,-0.09958282322124831,-0.5018117860166564,-0.11462391489961495,-0.40305037318418424
0.035760678350925446,0.19240961968898773,166.95326232910156,-0.09958282322124831,-0.5018117860166564,-0.11462391489961495,-0.40305037318418424
0.05091433599591255,0.17198742926120758,166.9545135498047,-0.09958282322124831,-0.5018117860166564,-0.11462391489961495,-0.40305037318418424
0.041225265711545944,0.18027839064598083,166.9544677734375,-0.09958282322124831,-0.5018117860166564,-0.11462391489961495,-0.40305037318418424
0.04120524227619171,0.18642528355121613,166.95396423339844,-0.09958282322124831,-0.5018117860166564,-0.11462391489961495,-0.40305037318418424
0.04808923602104187,0.18913136422634125,166.95440673828125,-0.09958282322124831,-0.5018117860166564,-0.11462391489961495,-0.40305037318418424
0.0464135967195034,0.18515700101852417,166.95448303222656,-0.09958282322124831,-0.5018117860166564,-0.11462391489961495,-0.40305037318418424
0.05464053899049759,0.1805422157049179,166.95388793945312,-0.09958282322124831,-0.5018117860166564,-0.11462391489961495,-0.40305037318418424
0.05355621874332428,0.17287306487560272,166.9542236328125,-0.10148570813917704,-0.5085047495085747,-0.1137222752518331,-0.40010524584601326
0,0.18294623494148254,166.9534149169922,-0.10337736021151708,-0.5151484605990765,-0.11327597342897205,-0.3971400850142042
-0.6278987526893616,0.23477834463119507,166.93849182128906,-0.10530889718204782,-0.5217384533646207,-0.11850846303471674,-0.3936590468510986
-0.7429996728897095,0.3054930865764618,166.97142028808594,-0.10737923951218054,-0.5282619186294162,-0.129932616581209,-0.3891567849243681
-1.9271280765533447,0.3171137571334839,167.12875366210938,-0.10973020866002312,-0.5347046284584536,-0.1521836811599011,-0.38396839456011855
-2.2354116439819336,0,167.39010620117188,-0.11255566860439198,-0.5410820799124324,-0.18687151216436176,-0.3813257799173395
-0.899560272693634,0.8169485926628113,167.59841918945312,-0.11588790019023382,-0.5473807770365643,-0.21299627813665817,-0.37451787497848277
-0.37567374110221863,1.177707314491272,167.63453674316406,-0.11952639607680283,-0.5534842238482088,-0.22362322825162362,-0.3578957424188654
-1.261260986328125,0.9854463934898376,167.5459747314453,-0.12336712590373478,-0.5592989338810246,-0.23726435098020981,-0.3398694615190228
-1.7747023105621338,-0.566238284111023,167.50120544433594,-0.1275323625379112,-0.5649343132320792,-0.262564045120962,-0.33637606060753267
-0.8900793194770813,0.05088251829147339,167.58297729492188,-0.13209348423645773,-0.57057636950372,-0.2847705587046221,-0.34067069198936223
-0.7774537801742554,0.8267038464546204,167.74159240722656,-0.1369554611245661,-0.5761932708726576,-0.29866666786838325,-0.3333574722831448
-0.21901077032089233,0.2353949099779129,167.77842712402344,-0.1420024378494902,-0.5816754718859577,-0.3069705391225095,-0.32450664931287365
-0.7293300628662109,0.230547234416008,167.7620849609375,-0.1471844705038367,-0.5870515589478116,-0.3148733793990687,-0.32062379810959096
-1.39667809009552,0.5792853832244873,167.76864624023438,-0.15257999961555463,-0.5923390505400797,-0.3325901140070831,-0.3138751929625868
-0.26528531312942505,0.7188799381256104,167.80108642578125,-0.15257999961555463,-0.5923390505400797,-0.3325901140070831,-0.3138751929625868
-1.1222926378250122,0.31507930159568787,167.6963348388672,-0.15821952776226675,-0.5974985010311422,-0.34415326359837006,-0.3052588659649093
0.7623897194862366,-0.5103878378868103,167.63455200195312,-0.16398040874712422,-0.602599711890022,-0.34715245458452654,-0.30688643710066865
1.5024691820144653,0.45122283697128296,167.4533233642578,-0.1696090011220399,-0.607718594522319,-0.32827863040535404,-0.3073794787749647
-0.5023363828659058,0.09548354893922806,167.32376098632812,-0.17501085796218824,-0.6128036201139914,-0.31994419041244937,-0.3028235922257104
0.18700763583183289,0.25776907801628113,167.2502899169922,-0.18036515896538421,-0.6178261485519924,-0.32257192997106665,-0.2998798203344145
-2.5766704082489014,0.2234959602355957,167.2526397705078,-0.1859073066018754,-0.622790724374354,-0.3424857864078755,-0.2958692783489822
-0.505737841129303,-0.25360938906669617,167.2274627685547,-0.1918294591704357,-0.6277239702238392,-0.36817252181936055,-0.29612022358924134
-1.5902310609817505,0.23623855412006378,167.16810607910156,-0.19811122126340497,-0.6326605135916423,-0.38563892933695265,-0.29626498054712996
-0.17576798796653748,1.208594560623169,167.09170532226562,-0.2046611755751978,-0.6374979276344596,-0.4003555880781884,-0.28422470459093635
-0.5549967885017395,1.0044994354248047,167.12355041503906,-0.21138451626375568,-0.6420813189612496,-0.4064452945487574,-0.2657822546238699
-0.5481199026107788,-0.5336887240409851,167.13414001464844,-0.21823520983200667,-0.6464783280166903,-0.4156379336413617,-0.26185883202900473
0.28460925817489624,1.2217761278152466,167.1229248046875,-0.22518080807633742,-0.6507948580363561,-0.41783385567832737,-0.2561247703308859
-0.23957210779190063,0.5188336372375488,166.96755981445312,-0.2321415780910885,-0.6549427285304088,-0.4174585460918024,-0.24161968895544592
-0.7649435997009277,0.062973253428936,166.86041259765625,-0.2321415780910885,-0.6549427285304088,-0.4174585460918024,-0.24161968895544592
-0.3635425865650177,-0.31456536054611206,166.82635498046875,-0.23917758762222036,-0.6589871950204382,-0.42686259764401857,-0.24371628984808905
-0.3104444146156311,-0.8283091187477112,166.83346557617188,-0.24633876890248044,-0.6631284994678573,-0.43247915598719067,-0.2532402438422042
0.5865359902381897,0,166.86936950683594,-0.2535275818095154,-0.6674066916651404,-0.43017839285700266,-0.2601428198317685
2.105867385864258,-0.062014639377593994,166.85569763183594,-0.2605102492337917,-0.6717467119011823,-0.4077416980561489,-0.2606596084932485
-1.0226079225540161,0.6112355589866638,166.807373046875,-0.26723071784977537,-0.6760528983677636,-0.39871453586189687,-0.2560827674965062
-0.7745622992515564,0.06200842559337616,166.7367706298828,-0.27400076360176573,-0.6802741914382207,-0.4136909543769433,-0.2504724009583392
-0.9865837097167969,1.0830317735671997,166.66688537597656,-0.2810179146475598,-0.6843692147736957,-0.42836717111834627,-0.24093039929866777
-0.4729510247707367,0.5060890316963196,166.67068481445312,-0.2882587240783161,-0.6882743658171969,-0.44052996057240906,-0.2276877259214718
-0.6734473705291748,0,166.66226196289062,-0.29568050108752986,-0.6920340161775759,-0.45008328053324165,-0.22347031732400247
-0.10812372714281082,0.40222471952438354,166.70901489257812,-0.3032361648670889,-0.69573058919412,-0.45659637301384154,-0.22011844466129926
0.7571133375167847,0.2289707064628601,166.7593231201172,-0.31080103569437695,-0.6993553969227815,-0.4511881262607251,-0.21485848277807224
-1.4377233982086182,0.21547335386276245,166.7815399169922,-0.3183681023862704,-0.7029055074648934,-0.45685987676649037,-0.21115478227535872
-0.367735356092453,-0.9296637177467346,166.65931701660156,-0.3261078127458717,-0.7064743503891969,-0.47190536638566594,-0.21710636864105848
-0.349324107170105,1.1485432386398315,166.46591186523438,-0.3261078127458717,-0.7064743503891969,-0.47190536638566594,-0.21710636864105848
0.6454886794090271,-0.3396724760532379,166.3881072998047,-0.3339523352014495,-0.7100366182858128,-0.4694373282836749,-0.21036577895283687
0.5664961338043213,1.489245057106018,166.411376953125,-0.34169212506081537,-0.7134628831724537,-0.4593374548402303,-0.2007860074440637
2.377206802368164,0.07861892879009247,166.4098358154297,-0.34914332549314053,-0.7167004371863898,-0.43480659703879293,-0.18772047422826277
1.9282209873199463,-1.3807802200317383,166.38385009765625,-0.35609111406950317,-0.7199195396243081,-0.39892803212472533,-0.19857181832194315
-0.993605375289917,0.625520646572113,166.40298461914062,-0.3626750107429687,-0.7232815185111641,-0.39113956869114175,-0.20486564810077337
-0.6524930000305176,0.5118862390518188,166.40208435058594,-0.36930831594166275,-0.7266169593902309,-0.4048570551521454,-0.1953872573872406
-1.2147365808486938,0.785720705986023,166.21343994140625,-0.37618560224842623,-0.7297833020866128,-0.4204173016594721,-0.18457386617859192
-0.7401412129402161,0,166.10333251953125,-0.38332831267843054,-0.7328049692516736,-0.43670794994104634,-0.1780261936287084
-0.2897506654262543,0.0599517822265625,166.12005615234375,-0.3906782987801123,-0.7357679091606085,-0.44529038226076695,-0.17752659544348703
-0.13994424045085907,0,166.03570556640625,-0.3981296450751443,-0.7387225224331231,-0.44887117314307623,-0.17702699725826568
-0.5035127401351929,-0.06949964165687561,165.93922424316406,-0.40565551580673626,-0.7416777987514315,-0.45423331464796,-0.17760616093873965
0.4432343542575836,-0.26075586676597595,165.84967041015625,-0.4132302570498882,-0.744660835844051,-0.45473563453027344,-0.18035829017559676
0.1408492475748062,1.4638638496398926,165.81643676757812,-0.42076862293082107,-0.7475832581815002,-0.44986827118167017,-0.17033239031831413
-0.6421961188316345,0.5058555006980896,165.86643981933594,-0.42076862293082107,-0.7475832581815002,-0.44986827118167017,-0.17033239031831413
0,0.44717252254486084,165.75021362304688,-0.4283110244032122,-0.750355948851858,-0.45521990550526714,-0.16239049012462287
0.2807033360004425,0.8375731110572815,165.558837890625,-0.43587852954107775,-0.7529732385738237,-0.4528807110385968,-0.15168427651127167
0,-1.0722514390945435,165.49395751953125,-0.44340704810449877,-0.7555176069551253,-0.4505415165719264,-0.1536399292449155
0.5236911773681641,-0.2598859965801239,165.488525390625,-0.4508797059378248,-0.7581707819866846,-0.44617742342719174,-0.1647410745422044
-0.30190399289131165,0.20643703639507294,165.5113525390625,-0.4583005944404671,-0.7609201782957342,-0.44432919688988465,-0.1651864825437465
0.11072873324155807,1.1703416109085083,165.64697265625,-0.4657193571149964,-0.763577676709845,-0.4459223240536326,-0.15371332714954997
-0.7092427611351013,-1.3238662481307983,165.66552734375,-0.4731929593233829,-0.7661502269288113,-0.45090994095274545,-0.15499269912640237
-0.9326163530349731,0.07511057704687119,165.52215576171875,-0.4808221429999682,-0.7688201577247433,-0.4645921002374961,-0.1653989963854351
-0.24195261299610138,1.383743405342102,165.44976806640625,-0.4886469119599009,-0.771475498360168,-0.4743801749544217,-0.15324187986552698
-0.059992093592882156,0.25701257586479187,165.4625701904297,-0.49657421659154327,-0.7739155883036763,-0.4768963808426632,-0.13956891335546953
1.1681976318359375,0.08413775265216827,165.52490234375,-0.5044455308876541,-0.7762180458645649,-0.46766133469063775,-0.13672599395116153
-0.07394981384277344,0.3228790760040283,165.5623321533203,-0.5121638970340263,-0.778468547372872,-0.45854260287402804,-0.13333418704569322
-0.45500147342681885,-0.3340279161930084,165.529052734375,-0.5198430064768761,-0.7806915580486466,-0.4629505302679413,-0.13342709404726805
-0.22809039056301117,0.4283110201358795,165.37347412109375,-0.5198430064768761,-0.7806915580486466,-0.4629505302679413,-0.13342709404726805
-0.6730082035064697,-1.5868053436279297,165.20657348632812,-0.5198430064768761,-0.7806915580486466,-0.4629505302679413,-0.13342709404726805
0.9192861318588257,1.8348488807678223,165.229248046875,-0.5198430064768761,-0.7806915580486466,-0.4629505302679413,-0.13342709404726805
0.8128848671913147,0.18876062333583832,165.3968505859375,-0.5198430064768761,-0.7806915580486466,-0.4629505302679413,-0.13342709404726805
2.8171653747558594,0.12067931145429611,165.28131103515625,-0.5198430064768761,-0.7806915580486466,-0.4629505302679413,-0.13342709404726805
2.487839937210083,-0.8679932951927185,164.70468139648438,-0.5198430064768761,-0.7806915580486466,-0.4629505302679413,-0.13342709404726805
1.8223421573638916,0.6161835193634033,163.8104705810547,-0.5198430064768761,-0.7806915580486466,-0.4629505302679413,-0.13342709404726805
1.9320437908172607,-0.044940587133169174,162.63565063476562,-0.5198430064768761,-0.7806915580486466,-0.4629505302679413,-0.13342709404726805
1.0656709671020508,0.30695292353630066,161.3231964111328,-0.5198430064768761,-0.7806915580486466,-0.4629505302679413,-0.13342709404726805
0.9131162762641907,-0.16343022882938385,159.8901824951172,-0.5198430064768761,-0.7806915580486466,-0.4629505302679413,-0.13342709404726805
1.017706274986267,-0.1377086341381073,158.37669372558594,-0.5198430064768761,-0.7806915580486466,-0.4629505302679413,-0.13342709404726805
1.2716630697250366,-0.5691725611686707,156.74462890625,-0.5198430064768761,-0.7806915580486466,-0.4629505302679413,-0.13342709404726805
1.5221385955810547,0.051646340638399124,154.99368286132812,-0.5198430064768761,-0.7806915580486466,-0.4629505302679413,-0.13342709404726805
1.5812360048294067,0.6905738115310669,153.16500854492188,-0.5198430064768761,-0.7806915580486466,-0.4629505302679413,-0.13342709404726805
0.868865430355072,-0.669065535068512,151.24624633789062,-0.5198430064768761,-0.7806915580486466,-0.4629505302679413,-0.13342709404726805
0.19412915408611298,0.27069514989852905,149.29254150390625,-0.5198430064768761,-0.7806915580486466,-0.4629505302679413,-0.13342709404726805
0.9627803564071655,0.30291280150413513,147.28799438476562,-0.5198430064768761,-0.7806915580486466,-0.4629505302679413,-0.13342709404726805
0.3220198452472687,1.0030368566513062,145.243408203125,-0.5198430064768761,-0.7806915580486466,-0.4629505302679413,-0.13342709404726805
1.691076636314392,-0.06883549690246582,143.20143127441406,-0.5198430064768761,-0.7806915580486466,-0.4629505302679413,-0.13342709404726805
1.541223406791687,0.3651057779788971,141.0663604736328,-0.5198430064768761,-0.7806915580486466,-0.4629505302679413,-0.13342709404726805
1.0926679372787476,0.27118027210235596,138.9149627685547,-0.5198430064768761,-0.7806915580486466,-0.4629505302679413,-0.13342709404726805
1.0991069078445435,0.5490679740905762,136.73622131347656,-0.5198430064768761,-0.7806915580486466,-0.4629505302679413,-0.13342709404726805
0.9791767597198486,-0.4074248969554901,134.54458618164062,-0.5198430064768761,-0.7806915580486466,-0.4629505302679413,-0.13342709404726805
1.2526299953460693,0.39138466119766235,132.32595825195312,-0.5198430064768761,-0.7806915580486466,-0.4629505302679413,-0.13342709404726805
0.9784099459648132,-1.0789060592651367,130.09475708007812,-0.5198430064768761,-0.7806915580486466,-0.4629505302679413,-0.13342709404726805
0.28505080938339233,-0.22409819066524506,127.9544448852539,-0.5198430064768761,-0.7806915580486466,-0.4629505302679413,-0.13342709404726805
-0.5936778783798218,0.20016074180603027,125.92229461669922,-0.5198430064768761,-0.7806915580486466,-0.4629505302679413,-0.13342709404726805
0.34715333580970764,-0.3282029926776886,123.9967041015625,-0.5198430064768761,-0.7806915580486466,-0.4629505302679413,-0.13342709404726805
0.5963296294212341,-0.5069078803062439,122.18107604980469,-0.5198430064768761,-0.7806915580486466,-0.4629505302679413,-0.13342709404726805
0.19258438050746918,0.985028862953186,120.37047576904297,-0.5198430064768761,-0.7806915580486466,-0.4629505302679413,-0.13342709404726805
0.2987253963947296,0.6207648515701294,118.6449203491211,-0.5198430064768761,-0.7806915580486466,-0.4629505302679413,-0.13342709404726805
0.7243687510490417,-0.05254548043012619,116.83056640625,-0.5198430064768761,-0.7806915580486466,-0.4629505302679413,-0.13342709404726805
-0.4779264032840729,-0.3470263183116913,114.95594787597656,-0.5198430064768761,-0.7806915580486466,-0.4629505302679413,-0.13342709404726805
0.9382863640785217,0.32276150584220886,113.03789520263672,-0.5198430064768761,-0.7806915580486466,-0.4629505302679413,-0.13342709404726805
0.33028027415275574,-0.5823718309402466,111.1199951171875,-0.5198430064768761,-0.7806915580486466,-0.4629505302679413,-0.13342709404726805
0.03231615200638771,0.2917827367782593,109.17488861083984,-0.5198430064768761,-0.7806915580486466,-0.4629505302679413,-0.13342709404726805
1.1232309341430664,-0.018119923770427704,107.20165252685547,-0.5198430064768761,-0.7806915580486466,-0.4629505302679413,-0.13342709404726805
-0.05194104090332985,0.5592251420021057,105.24945831298828,-0.5198430064768761,-0.7806915580486466,-0.4629505302679413,-0.13342709404726805
1.2470903396606445,0.36215460300445557,103.25981903076172,-0.5198430064768761,-0.7806915580486466,-0.4629505302679413,-0.13342709404726805
1.016770601272583,-0.057478103786706924,101.20625305175781,-0.5198430064768761,-0.7806915580486466,-0.4629505302679413,-0.13342709404726805
0.549094021320343,0.29014015197753906,99.18547058105469,-0.5198430064768761,-0.7806915580486466,-0.4629505302679413,-0.13342709404726805
0.9793828129768372,-0.25963515043258667,97.15532684326172,-0.5198430064768761,-0.7806915580486466,-0.4629505302679413,-0.13342709404726805
0.3840009570121765,0.042850248515605927,95.11732482910156,-0.5198430064768761,-0.7806915580486466,-0.4629505302679413,-0.13342709404726805
0.16739977896213531,-0.18994010984897614,93.09054565429688,-0.5198430064768761,-0.7806915580486466,-0.4629505302679413,-0.13342709404726805
1.189029574394226,0.15587234497070312,91.05683135986328,-0.5198430064768761,-0.7806915580486466,-0.4629505302679413,-0.13342709404726805
-0.7927869558334351,-0.8190891146659851,88.99334716796875,-0.5198430064768761,-0.7806915580486466,-0.4629505302679413,-0.13342709404726805
0.4284221827983856,-0.2883557081222534,86.91244506835938,-0.5198430064768761,-0.7806915580486466,-0.4629505302679413,-0.13342709404726805
-0.6444778442382812,-0.02987743727862835,84.83246612548828,-0.5198430064768761,-0.7806915580486466,-0.4629505302679413,-0.13342709404726805
0.8055098056793213,0.26421794295310974,82.72840118408203,-0.5198430064768761,-0.7806915580486466,-0.4629505302679413,-0.13342709404726805
0.23643867671489716,0.9329315423965454,80.61274719238281,-0.5198430064768761,-0.7806915580486466,-0.4629505302679413,-0.13342709404726805
-0.2954900860786438,-0.26465436816215515,78.60867309570312,-0.5198430064768761,-0.7806915580486466,-0.4629505302679413,-0.13342709404726805
1.0702996253967285,-0.08736561238765717,77.01000213623047,-0.5198430064768761,-0.7806915580486466,-0.4629505302679413,-0.13342709404726805
-0.7917113304138184,0.10502886027097702,75.79292297363281,-0.5198430064768761,-0.7806915580486466,-0.4629505302679413,-0.13342709404726805
-0.36255863308906555,0.7619860172271729,74.86891174316406,-0.5198430064768761,-0.7806915580486466,-0.4629505302679413,-0.13342709404726805
-1.5683456659317017,0.34034284949302673,74.24012756347656,-0.5198430064768761,-0.7806915580486466,-0.4629505302679413,-0.13342709404726805
0.007774053141474724,0.1712159365415573,73.95771026611328,-0.5198430064768761,-0.7806915580486466,-0.4629505302679413,-0.13342709404726805
-0.5205807089805603,0.11596595495939255,73.88980865478516,-0.5198430064768761,-0.7806915580486466,-0.4629505302679413,-0.13342709404726805
-0.09111075103282928,-0.6714684367179871,73.81585693359375,-0.5198430064768761,-0.7806915580486466,-0.4629505302679413,-0.13342709404726805
0.14507059752941132,-0.7008963823318481,73.73454284667969,-0.5198430064768761,-0.7806915580486466,-0.4629505302679413,-0.13342709404726805
0.0011395948240533471,-0.439059853553772,73.70671844482422,-0.5198430064768761,-0.7806915580486466,-0.4629505302679413,-0.13342709404726805
-0.09423206001520157,-0.18068084120750427,73.72630310058594,-0.5198430064768761,-0.7806915580486466,-0.4629505302679413,-0.13342709404726805
0.3874686360359192,0.06703836470842361,73.75407409667969,-0.5198430064768761,-0.7806915580486466,-0.4629505302679413,-0.13342709404726805
0.19829805195331573,0.3983945846557617,73.77617645263672,-0.5198430064768761,-0.7806915580486466,-0.4629505302679413,-0.13342709404726805
0.3407350480556488,0.4014498293399811,73.7796401977539,-0.5198430064768761,-0.7806915580486466,-0.4629505302679413,-0.13342709404726805
0.26906418800354004,0.23893269896507263,73.77588653564453,-0.5198430064768761,-0.7806915580486466,-0.4629505302679413,-0.13342709404726805
0.17375732958316803,-0.02168332040309906,73.7774429321289,-0.5198430064768761,-0.7806915580486466,-0.4629505302679413,-0.13342709404726805
0.15444478392601013,-0.06434467434883118,73.7674331665039,-0.5198430064768761,-0.7806915580486466,-0.4629505302679413,-0.13342709404726805
0.23289452493190765,0.05994463711977005,73.77175903320312,-0.5198430064768761,-0.7806915580486466,-0.4629505302679413,-0.13342709404726805
0.22879672050476074,0.21576468646526337,73.77213287353516,-0.5198430064768761,-0.7806915580486466,-0.4629505302679413,-0.13342709404726805
0.21963541209697723,0.1621585339307785,73.77210998535156,-0.5198430064768761,-0.7806915580486466,-0.4629505302679413,-0.13342709404726805
0.19904348254203796,0.026016272604465485,73.77213287353516,-0.5198430064768761,-0.7806915580486466,-0.4629505302679413,-0.13342709404726805
0.19511675834655762,0.02588912472128868,73.7694091796875,-0.5198430064768761,-0.7806915580486466,-0.4629505302679413,-0.13342709404726805
0.22184358537197113,0.11806584149599075,73.76966094970703,-0.5198430064768761,-0.7806915580486466,-0.4629505302679413,-0.13342709404726805
0.21934731304645538,0.14561742544174194,73.76913452148438,-0.5198430064768761,-0.7806915580486466,-0.4629505302679413,-0.13342709404726805
0.20164674520492554,0.07797078788280487,73.7684097290039,-0.5198430064768761,-0.7806915580486466,-0.4629505302679413,-0.13342709404726805
0.20905429124832153,0.04110211506485939,73.76786041259766,-0.5198430064768761,-0.7806915580486466,-0.4629505302679413,-0.13342709404726805
0.20566195249557495,0.07158204913139343,73.7673110961914,-0.5198430064768761,-0.7806915580486466,-0.4629505302679413,-0.13342709404726805
0.22745296359062195,0.13657985627651215,73.76570129394531,-0.5198430064768761,-0.7806915580486466,-0.4629505302679413,-0.13342709404726805
0.2142721563577652,0.10712689161300659,73.76530456542969,-0.5198430064768761,-0.7806915580486466,-0.4629505302679413,-0.13342709404726805
0.2080255150794983,0.0626571774482727,73.76530456542969,-0.5198430064768761,-0.7806915580486466,-0.4629505302679413,-0.13342709404726805
0.19360055029392242,0.06911347806453705,73.76518249511719,-0.5198430064768761,-0.7806915580486466,-0.4629505302679413,-0.13342709404726805
0.21716418862342834,0.11736492067575455,73.7646255493164,-0.5198430064768761,-0.7806915580486466,-0.4629505302679413,-0.13342709404726805
0.20800334215164185,0.12610064446926117,73.76495361328125,-0.5198430064768761,-0.7806915580486466,-0.4629505302679413,-0.13342709404726805
0.20518331229686737,0.08334683626890182,73.76603698730469,-0.5198430064768761,-0.7806915580486466,-0.4629505302679413,-0.13342709404726805
0.19643326103687286,0.07380763441324234,73.7668228149414,-0.5198430064768761,-0.7806915580486466,-0.4629505302679413,-0.13342709404726805
0.1995019167661667,0.08960068225860596,73.76715850830078,-0.5198430064768761,-0.7806915580486466,-0.4629505302679413,-0.13342709404726805
0.2209509164094925,0.09780899435281754,73.76837921142578,-0.5198430064768761,-0.7806915580486466,-0.4629505302679413,-0.13342709404726805
0.21583658456802368,0.08359281718730927,73.76869201660156,-0.5198430064768761,-0.7806915580486466,-0.4629505302679413,-0.13342709404726805
0.197105273604393,0.07029078900814056,73.76964569091797,-0.5198430064768761,-0.7806915580486466,-0.4629505302679413,-0.13342709404726805
0.2085791677236557,0.08756867796182632,73.76901245117188,-0.5198430064768761,-0.7806915580486466,-0.4629505302679413,-0.13342709404726805
0.21538367867469788,0.0929974690079689,73.76895904541016,-0.5198430064768761,-0.7806915580486466,-0.4629505302679413,-0.13342709404726805
0.20425008237361908,0.10118335485458374,73.7683334350586,-0.5198430064768761,-0.7806915580486466,-0.4629505302679413,-0.13342709404726805
0.20215748250484467,0.06676628440618515,73.76824951171875,-0.5198430064768761,-0.7806915580486466,-0.4629505302679413,-0.13342709404726805
0.20564940571784973,0.06420296430587769,73.76752471923828,-0.5198430064768761,-0.7806915580486466,-0.4629505302679413,-0.13342709404726805
0.20803721249103546,0.07591316103935242,73.767822265625,-0.5198430064768761,-0.7806915580486466,-0.4629505302679413,-0.13342709404726805
0.2192484736442566,0.10830569267272949,73.76718139648438,-0.5198430064768761,-0.7806915580486466,-0.4629505302679413,-0.13342709404726805
0.20916305482387543,0.09635674208402634,73.76753234863281,-0.5198430064768761,-0.7806915580486466,-0.4629505302679413,-0.13342709404726805
0.2034153938293457,0.09431728720664978,73.76596069335938,-0.5198430064768761,-0.7806915580486466,-0.4629505302679413,-0.13342709404726805
0.19985494017601013,0.08388833701610565,73.76700592041016,-0.5198430064768761,-0.7806915580486466,-0.4629505302679413,-0.13342709404726805
0.21594832837581635,0.09295298904180527,73.76661682128906,-0.5198430064768761,-0.7806915580486466,-0.4629505302679413,-0.13342709404726805
0.20080119371414185,0.08600501716136932,73.76676177978516,-0.5198430064768761,-0.7806915580486466,-0.4629505302679413,-0.13342709404726805
0.19982555508613586,0.08028664439916611,73.76690673828125,-0.5198430064768761,-0.7806915580486466,-0.4629505302679413,-0.13342709404726805
0.21154294908046722,0.08038119226694107,73.76710510253906,-0.5198430064768761,-0.7806915580486466,-0.4629505302679413,-0.13342709404726805
0.1990210860967636,0.08416486531496048,73.76509094238281,-0.5198430064768761,-0.7806915580486466,-0.4629505302679413,-0.13342709404726805
0.20450620353221893,0.07701891660690308,73.7649154663086,-0.5198430064768761,-0.7806915580486466,-0.4629505302679413,-0.13342709404726805
0.20228783786296844,0.07252226769924164,73.76451110839844,-0.5198430064768761,-0.7806915580486466,-0.4629505302679413,-0.13342709404726805
0.1974852979183197,0.06945772469043732,73.7640380859375,-0.5198430064768761,-0.7806915580486466,-0.4629505302679413,-0.13342709404726805
0.20426282286643982,0.08056865632534027,73.76385498046875,-0.527530949472954,-0.7829049244507528,-0.45960262926140166,-0.1321768742054699
0.2088010460138321,0.11104419827461243,73.76473236083984,-0.5351623083030829,-0.7850945659059412,-0.45616043035406606,-0.13058010041713694
0.2927258610725403,0.34224364161491394,73.7774887084961,-0.5427301538848808,-0.7872394225906789,-0.4519810394616796,-0.12680270175139088
0.6761680245399475,0.5801326632499695,73.75161743164062,-0.5501958869116301,-0.789288747043142,-0.4439069237482422,-0.11911623254418352
1.0422245264053345,2.027433156967163,73.64594268798828,-0.5574750028247296,-0.7910929366258077,-0.4295869858236982,-0.09738651737570742
0.9191731810569763,3.3003146648406982,73.63995361328125,-0.5644985777476619,-0.7923460627611106,-0.4132420049281789,-0.052988618860641906
-0.5021010041236877,1.9019865989685059,73.64615631103516,-0.5713569811508445,-0.7928679354876902,-0.40976640345373483,-0.009636108328898538
0.8382054567337036,1.040429711341858,73.67562866210938,-0.57816308062142,-0.792824202827178,-0.406965533015318,0.014884027590354492
0.8513967394828796,1.0596154928207397,73.782470703125,-0.5848285060191603,-0.7924302992281608,-0.39288551471351313,0.03238440429170947
1.1894149780273438,0.9624709486961365,73.78324127197266,-0.591234874895114,-0.7917501364870825,-0.37587875040092794,0.04923512463768344
0.32723531126976013,1.3861868381500244,73.76429748535156,-0.5973941977983727,-0.7907664498412568,-0.36323999799011875,0.06880727286140145
-0.3517244756221771,0.36568117141723633,73.70358276367188,-0.603449898401288,-0.789498004459569,-0.3634440743597222,0.08340617294112862
0.9812803268432617,0.8521599173545837,73.65636444091797,-0.609463580484282,-0.7880233292793855,-0.3581977755995465,0.09355484868089378
0,1.4021295309066772,73.6094741821289,-0.6153653989437992,-0.7863075339230191,-0.3500204395425193,0.11234059408307095
0.07641816884279251,1.4886761903762817,73.54488372802734,-0.6211937661188938,-0.78423444029099,-0.3493836214688294,0.13643064176042896
0.5272510051727295,-0.012879740446805954,73.545654296875,-0.6211937661188938,-0.78423444029099,-0.3493836214688294,0.13643064176042896
0.31533414125442505,1.1803913116455078,73.43363952636719,-0.6269583136193169,-0.7818795190692052,-0.34236207858193646,0.14615990485375147
0.20526747405529022,-0.31633755564689636,73.40972137451172,-0.6326281953723971,-0.7793835169219205,-0.33802373178768885,0.15336035282040655
0.253805935382843,-0.9259822964668274,73.24735260009766,-0.6382300441376476,-0.7769137832535328,-0.3341981200423711,0.14300768738612551
0.15890619158744812,-0.18336926400661469,73.0490493774414,-0.6437713522406475,-0.774607360099908,-0.33075885231761865,0.13376309104884684
0.1701403260231018,0.4327668845653534,72.97261810302734,-0.6492611493266627,-0.7723606559698885,-0.3280167980041974,0.135841404553503
0.08295764029026031,-0.1780155748128891,72.9581069946289,-0.6547105197124053,-0.7700789414974861,-0.3259076482849194,0.13796433213477352
1.1902433633804321,2.4996092319488525,72.856689453125,-0.6600538971141213,-0.767618314180161,-0.31529763992099696,0.1573109459442399
1.152565598487854,0.7354783415794373,72.82659912109375,-0.6651461627126749,-0.7647718062218175,-0.2957742319054279,0.18427000905697563
-0.6002763509750366,1.4755569696426392,72.78411865234375,-0.6700373798244659,-0.7615470952853663,-0.2911718215094877,0.2026953033171596
-0.31159642338752747,0.8913889527320862,72.73157501220703,-0.6749535680145103,-0.758004468985471,-0.2987707612958424,0.2224198526702823
1.1268266439437866,-0.5998468399047852,72.65634155273438,-0.6798764674930136,-0.7542772254609089,-0.2919771761245402,0.22484937027717647
0.23688705265522003,1.1847658157348633,72.63963317871094,-0.6846480514217143,-0.7504891165829678,-0.28061289531954847,0.22972369507576046
0.4446626603603363,0.575842559337616,72.6844253540039,-0.6892776031691917,-0.746538123861214,-0.27493331437775215,0.24439543153469778
0.5155507922172546,-0.25770828127861023,72.60028076171875,-0.6937931435857253,-0.7424427740107705,-0.2669315356062722,0.24704655051852284
0,0.05453631654381752,72.5427474975586,-0.698206200374148,-0.7383394406663462,-0.26263527900446176,0.24535345081239956
0.07237917184829712,-0.5816635489463806,72.59503173828125,-0.702578428692844,-0.7342868225439453,-0.2620321192390593,0.24096072387571155
0.4869275987148285,0.5358991026878357,72.6063003540039,-0.7069067899322059,-0.7302739885658959,-0.2573712294843666,0.24057935349022366
-1.6059362888336182,0.33274006843566895,72.51071166992188,-0.7069067899322059,-0.7302739885658959,-0.2573712294843666,0.24057935349022366
1.5696791410446167,1.4636433124542236,72.44863891601562,-0.7111988282810974,-0.726139583828497,-0.25767337238260823,0.25554921499763944
0.0698346421122551,-0.5219059586524963,72.63680267333984,-0.7153795293636438,-0.7218150318178557,-0.24401075752296764,0.2633970262793205
-0.09915938973426819,-0.4022047519683838,72.89313507080078,-0.719448411763167,-0.7174892557347712,-0.24425513041981775,0.25569610369081314
1.1832733154296875,-0.8053420186042786,73.05575561523438,-0.7234440449142129,-0.7133115114212141,-0.23522084770568927,0.24563321393604096
-0.5496361255645752,-0.13216885924339294,72.99934387207031,-0.7273203897933449,-0.7092827294443528,-0.22994053779014667,0.23782062328731035
0.6539406776428223,0.5550968050956726,72.9015121459961,-0.7311454887181752,-0.7052896823933246,-0.2290713331894946,0.24134502283607934
0.11853694170713425,0.6999118328094482,72.84636688232422,-0.7349096999922119,-0.7011801119684242,-0.22263401969491164,0.25180342815195533
0.5116193890571594,0.476576566696167,72.84737396240234,-0.738576506130824,-0.6969016875825926,-0.21738271693854253,0.26160749814783546
0.17033421993255615,0.40370678901672363,72.88220977783203,-0.7421521935236199,-0.6924804318248708,-0.21169977019696157,0.2689431927787762
-0.2536284625530243,0.09535989165306091,72.849609375,-0.7456863073493069,-0.6879633878701781,-0.21239388888546548,0.27310208178435774
0.6799210906028748,0.5554800033569336,72.79362487792969,-0.7491966018426722,-0.6833664892921743,-0.2088414503183834,0.2785257475761077
0.39330539107322693,0.13144156336784363,72.78102111816406,-0.7526027630645289,-0.678676690612661,-0.19989789630441587,0.28425009396548084
1.4486676454544067,1.0552465915679932,72.78738403320312,-0.7558064798753992,-0.6738567801469213,-0.18454812100001894,0.2941391619232795
-0.23322580754756927,0,72.77046966552734,-0.7587978762088782,-0.6688811797682299,-0.17441943901746196,0.30293288351967945
0,0.26517775654792786,72.711669921875,-0.7617210630958045,-0.6638138832542527,-0.1763629874136917,0.30514269815757883
-1.0298187732696533,0.3408072292804718,72.61339569091797,-0.7647319614119541,-0.6586860893276105,-0.18494481052427214,0.31019257303948217
0.25977393984794617,0.30719631910324097,72.56886291503906,-0.7678678502563463,-0.6534712128638703,-0.19136185080278637,0.31559260260934646
0,1.306002140045166,72.49419403076172,-0.7710391745794588,-0.6480993084829404,-0.18919706797072014,0.3290359231022498
1.5511088371276855,-1.1048481464385986,72.33425903320312,-0.7710391745794588,-0.6480993084829404,-0.18919706797072014,0.3290359231022498
0.3487832844257355,0.6125026941299438,72.19560241699219,-0.7740605220927518,-0.6426495670876465,-0.17336463362444163,0.324933044333011
0.36677005887031555,-0.5298705101013184,72.16480255126953,-0.7769002414487636,-0.6372282780026499,-0.16740168909697453,0.3256216458665829
-0.6338676810264587,0.19717228412628174,72.15602111816406,-0.7797088180463628,-0.6318243546150107,-0.1696275026149424,0.32284916065012426
-0.8436878323554993,-0.7005752921104431,72.07190704345703,-0.7826385511117079,-0.6264784938130631,-0.1819404652264587,0.31865413558358957
1.5104877948760986,-0.14235186576843262,71.94475555419922,-0.7856245866458627,-0.6212261281615227,-0.17638379887212038,0.3116297426012656
0.8983455896377563,0.13879342377185822,71.81239318847656,-0.7883970365309179,-0.6160325462321958,-0.1563101873345049,0.3116000889179608
0.47334909439086914,0.625749945640564,71.76152038574219,-0.7909069497445466,-0.610786118127354,-0.14487939830093305,0.3179712836630643
0.16547243297100067,-0.12851108610630035,71.73025512695312,-0.7932772437768286,-0.605452066256613,-0.13955588557291745,0.32211494082584985
-1.1033145189285278,0.10611321032047272,71.76937103271484,-0.7956683031256798,-0.6000850393175562,-0.14737123628923018,0.32192829186096794
-0.4676530361175537,0.9577998518943787,71.8366470336914,-0.7982335853662674,-0.5946456849349974,-0.16046263258128085,0.3307942340460917
0.5521152019500732,0.6179984211921692,71.91724395751953,-0.8009020971477726,-0.5890230172652648,-0.1597587811993432,0.3439258863218129
1.0446447134017944,0.4895540475845337,71.98807525634766,-0.8034538573958622,-0.5832140057940141,-0.14645244857141096,0.35315549022828546
1.0842541456222534,-0.23871435225009918,72.0808334350586,-0.8057468913401756,-0.5773106615335889,-0.12871162474621056,0.3552458210227391
-0.20242249965667725,-0.3849043548107147,72.20877075195312,-0.8078308467771982,-0.5714332047045336,-0.12136302769649743,0.350048998463899
0.1953400820493698,-0.12902724742889404,72.16105651855469,-0.8098540557400292,-0.5656347444247353,-0.121422047843225,0.34576623511190224
0.2370317429304123,0.15779562294483185,72.05681610107422,-0.8118477307162372,-0.5598699760356817,-0.11781894930172682,0.34600597157453505
0.46839675307273865,0.42788058519363403,71.9738540649414,-0.8137623917812657,-0.5540625378838743,-0.11194037850170056,0.3508866066423556
-0.2202894687652588,0.2464623749256134,71.98299407958984,-0.8137623917812657,-0.5540625378838743,-0.11194037850170056,0.3508866066423556
-0.32397231459617615,0.3044225871562958,72.0086441040039,-0.8156658607134719,-0.5481761718730238,-0.11647589336304585,0.35547731465970483
0.7932525277137756,-0.4443197548389435,71.95340728759766,-0.8175745366991672,-0.5422612650431178,-0.11256522492039919,0.3543115049290161
0.07940658181905746,-0.4972321093082428,71.8536148071289,-0.819390022454123,-0.5364214588404221,-0.10529306567429225,0.3464652393944562
1.0039700269699097,-0.14833228290081024,71.8008041381836,-0.8210696723953064,-0.5306918690444179,-0.09626492726771753,0.3410855361260475
0,-0.23631465435028076,71.71678924560547,-0.8226043677090066,-0.5250338217018484,-0.08789851037630161,0.33788014498228836
0.29174429178237915,0.7760940790176392,71.5316390991211,-0.8240490828616823,-0.5193650012698751,-0.08546730794478179,0.34237830685451637
-0.5508424043655396,0.18809214234352112,71.39448547363281,-0.8254915309185803,-0.5135917387791497,-0.0876264588829748,0.350413192032526
-0.41230812668800354,0.829313337802887,71.25146484375,-0.8270188573535086,-0.5076808657535974,-0.09565271330842098,0.3588915710337461
0.953328013420105,0,71.16671752929688,-0.8285754984165147,-0.5016417483656875,-0.09114421425232014,0.3658025155154368
-0.1977057009935379,0.3050725758075714,71.13414764404297,-0.830042094882357,-0.4955238541782214,-0.08484736164876541,0.3683447869804999
0.5086894631385803,0.06334032118320465,71.04353332519531,-0.8314346214819097,-0.4893591901662554,-0.08225583029755673,0.37141489445542303
0.7275494337081909,-0.5670579671859741,70.98905181884766,-0.8327197020634769,-0.4832039223174152,-0.0719538394905003,0.36721724740539996
-0.8012135624885559,0.5629774928092957,70.9967041015625,-0.8339240482861505,-0.4770839182269347,-0.07256770723033668,0.367183243452261
0.6885269284248352,-0.19387735426425934,70.95899963378906,-0.8351413355340217,-0.4709385655486647,-0.07350676251420102,0.3702590779401363
1.2481443881988525,0,70.96406555175781,-0.8362319571789373,-0.46478104462148634,-0.057367834875670286,0.3686434333212675
0.20641516149044037,-0.524878978729248,70.86433410644531,-0.8370870766803589,-0.45867343732854365,-0.04524650529492618,0.36426944183185705
-0.15867260098457336,0.4722045361995697,70.78580474853516,-0.8378378696463503,-0.45260593791207726,-0.04484865062404395,0.36383048814410973
-0.353182315826416,-0.06136009842157364,70.79186248779297,-0.8378378696463503,-0.45260593791207726,-0.04484865062404395,0.36383048814410973
-0.8032857179641724,0.6163842678070068,70.8729019165039,-0.8378378696463503,-0.45260593791207726,-0.04484865062404395,0.36383048814410973
1.2846095561981201,-0.008222280070185661,70.91747283935547,-0.8378378696463503,-0.45260593791207726,-0.04484865062404395,0.36383048814410973
-0.5094561576843262,-2.1956818103790283,70.88265228271484,-0.8378378696463503,-0.45260593791207726,-0.04484865062404395,0.36383048814410973
-0.670396089553833,-2.3446083068847656,70.42537689208984,-0.8378378696463503,-0.45260593791207726,-0.04484865062404395,0.36383048814410973
0.8484941124916077,-2.603278398513794,69.68115997314453,-0.8378378696463503,-0.45260593791207726,-0.04484865062404395,0.36383048814410973
1.3175748586654663,-1.4078420400619507,68.92019653320312,-0.8378378696463503,-0.45260593791207726,-0.04484865062404395,0.36383048814410973
0.5472816228866577,-1.6456836462020874,68.00162506103516,-0.8378378696463503,-0.45260593791207726,-0.04484865062404395,0.36383048814410973
-0.540168821811676,-1.3601707220077515,66.8895492553711,-0.8378378696463503,-0.45260593791207726,-0.04484865062404395,0.36383048814410973
-0.3801882863044739,-1.2486668825149536,65.61336517333984,-0.8378378696463503,-0.45260593791207726,-0.04484865062404395,0.36383048814410973
-0.2974322736263275,-1.5211318731307983,64.22687530517578,-0.8378378696463503,-0.45260593791207726,-0.04484865062404395,0.36383048814410973
-0.4015624225139618,-0.5357811450958252,62.72035598754883,-0.8378378696463503,-0.45260593791207726,-0.04484865062404395,0.36383048814410973
-0.040058434009552,-0.0064424918964505196,61.12939453125,-0.8378378696463503,-0.45260593791207726,-0.04484865062404395,0.36383048814410973
0.32854461669921875,-1.3500148057937622,59.547401428222656,-0.8378378696463503,-0.45260593791207726,-0.04484865062404395,0.36383048814410973
-0.5873820185661316,-0.8279212713241577,57.9256477355957,-0.8378378696463503,-0.45260593791207726,-0.04484865062404395,0.36383048814410973
-0.6159417629241943,-0.11801573634147644,56.27318572998047,-0.8378378696463503,-0.45260593791207726,-0.04484865062404395,0.36383048814410973
0.6502045392990112,-0.4511874318122864,54.59880447387695,-0.8378378696463503,-0.45260593791207726,-0.04484865062404395,0.36383048814410973
-0.5005830526351929,-0.8176544308662415,52.87190246582031,-0.8378378696463503,-0.45260593791207726,-0.04484865062404395,0.36383048814410973
2.02117657661438,-1.1927003860473633,51.2562370300293,-0.8378378696463503,-0.45260593791207726,-0.04484865062404395,0.36383048814410973
0.5418562293052673,-0.5623688697814941,49.675201416015625,-0.8378378696463503,-0.45260593791207726,-0.04484865062404395,0.36383048814410973
0.3383680284023285,-0.5004491209983826,48.143672943115234,-0.8378378696463503,-0.45260593791207726,-0.04484865062404395,0.36383048814410973
-0.16783511638641357,-0.042236655950546265,46.5564079284668,-0.8378378696463503,-0.45260593791207726,-0.04484865062404395,0.36383048814410973
-0.24629700183868408,-0.9405587315559387,44.87969970703125,-0.8378378696463503,-0.45260593791207726,-0.04484865062404395,0.36383048814410973
0.32669419050216675,-1.3332055807113647,43.14631271362305,-0.8378378696463503,-0.45260593791207726,-0.04484865062404395,0.36383048814410973
-0.6400266885757446,-0.40187835693359375,41.34394836425781,-0.8378378696463503,-0.45260593791207726,-0.04484865062404395,0.36383048814410973
0.013360110111534595,-1.2334613800048828,39.423587799072266,-0.8378378696463503,-0.45260593791207726,-0.04484865062404395,0.36383048814410973
-0.28155362606048584,-0.03137096017599106,37.4828987121582,-0.8378378696463503,-0.45260593791207726,-0.04484865062404395,0.36383048814410973
-0.48156580328941345,0.14918175339698792,35.474937438964844,-0.8378378696463503,-0.45260593791207726,-0.04484865062404395,0.36383048814410973
0.707198441028595,-1.21614408493042,33.46315002441406,-0.8378378696463503,-0.45260593791207726,-0.04484865062404395,0.36383048814410973
0.5367375016212463,-0.008937297388911247,31.389558792114258,-0.8378378696463503,-0.45260593791207726,-0.04484865062404395,0.36383048814410973
-0.25640684366226196,-1.6809121370315552,29.31281852722168,-0.8378378696463503,-0.45260593791207726,-0.04484865062404395,0.36383048814410973
0.5812126398086548,-1.0185458660125732,27.272869110107422,-0.8378378696463503,-0.45260593791207726,-0.04484865062404395,0.36383048814410973
-0.2921495735645294,-0.5681455135345459,25.22965431213379,-0.8378378696463503,-0.45260593791207726,-0.04484865062404395,0.36383048814410973
-2.182823896408081,0.9812868237495422,23.218191146850586,-0.8378378696463503,-0.45260593791207726,-0.04484865062404395,0.36383048814410973
0.18810856342315674,0.02707189880311489,21.31744956970215,-0.8378378696463503,-0.45260593791207726,-0.04484865062404395,0.36383048814410973
-0.22502726316452026,0.19108104705810547,19.4550838470459,-0.8378378696463503,-0.45260593791207726,-0.04484865062404395,0.36383048814410973
-0.6490842700004578,-0.3986913561820984,17.575565338134766,-0.8378378696463503,-0.45260593791207726,-0.04484865062404395,0.36383048814410973
0.7485383749008179,0.5937007665634155,15.82686710357666,-0.8378378696463503,-0.45260593791207726,-0.04484865062404395,0.36383048814410973
-0.8108558058738708,-0.18007397651672363,14.132543563842773,-0.8378378696463503,-0.45260593791207726,-0.04484865062404395,0.36383048814410973
-0.46829092502593994,0.4571422338485718,12.514374732971191,-0.8378378696463503,-0.45260593791207726,-0.04484865062404395,0.36383048814410973
-0.9466046094894409,0.342643678188324,10.852534294128418,-0.8378378696463503,-0.45260593791207726,-0.04484865062404395,0.36383048814410973
0.20806646347045898,-0.6310339570045471,9.212902069091797,-0.8378378696463503,-0.45260593791207726,-0.04484865062404395,0.36383048814410973
0.007132081780582666,0.47240883111953735,7.62650728225708,-0.8378378696463503,-0.45260593791207726,-0.04484865062404395,0.36383048814410973
-0.01716470532119274,-0.9906978011131287,6.026960849761963,-0.8378378696463503,-0.45260593791207726,-0.04484865062404395,0.36383048814410973
-0.897708535194397,0.205546572804451,4.4490132331848145,-0.8378378696463503,-0.45260593791207726,-0.04484865062404395,0.36383048814410973
0.29206570982933044,-0.3360718786716461,2.808828592300415,-0.8378378696463503,-0.45260593791207726,-0.04484865062404395,0.36383048814410973
0.18154574930667877,-0.13356491923332214,1.1546478271484375,-0.8378378696463503,-0.45260593791207726,-0.04484865062404395,0.36383048814410973
-0.2914489805698395,-0.7834755778312683,-0.4987874925136566,-0.8378378696463503,-0.45260593791207726,-0.04484865062404395,0.36383048814410973
0.31465569138526917,0.3159449100494385,-2.1693150997161865,-0.8378378696463503,-0.45260593791207726,-0.04484865062404395,0.36383048814410973
0.6581395268440247,-0.08503822982311249,-3.76816463470459,-0.8378378696463503,-0.45260593791207726,-0.04484865062404395,0.36383048814410973
0.7811762094497681,-0.5457881093025208,-5.036997318267822,-0.8378378696463503,-0.45260593791207726,-0.04484865062404395,0.36383048814410973
-0.26015955209732056,0.3166753053665161,-5.995882987976074,-0.8378378696463503,-0.45260593791207726,-0.04484865062404395,0.36383048814410973
1.0235995054244995,-0.706651508808136,-6.504694938659668,-0.8378378696463503,-0.45260593791207726,-0.04484865062404395,0.36383048814410973
0.40110835433006287,0.10058995336294174,-6.6187214851379395,-0.8378378696463503,-0.45260593791207726,-0.04484865062404395,0.36383048814410973
0.42216867208480835,-0.19406573474407196,-6.49772834777832,-0.8378378696463503,-0.45260593791207726,-0.04484865062404395,0.36383048814410973
-0.0404001846909523,-0.0012899491703137755,-6.453216552734375,-0.8378378696463503,-0.45260593791207726,-0.04484865062404395,0.36383048814410973
-0.28907081484794617,-0.2916065454483032,-6.4976887702941895,-0.8378378696463503,-0.45260593791207726,-0.04484865062404395,0.36383048814410973
-0.03556647151708603,-0.0503377839922905,-6.4826226234436035,-0.8378378696463503,-0.45260593791207726,-0.04484865062404395,0.36383048814410973
0.22730131447315216,-0.14353515207767487,-6.467176914215088,-0.8378378696463503,-0.45260593791207726,-0.04484865062404395,0.36383048814410973
0.2642708122730255,-0.05868669971823692,-6.473574638366699,-0.8378378696463503,-0.45260593791207726,-0.04484865062404395,0.36383048814410973
0.2597656846046448,-0.27326539158821106,-6.4707512855529785,-0.8378378696463503,-0.45260593791207726,-0.04484865062404395,0.36383048814410973
0.14812929928302765,-0.04831169545650482,-6.466355800628662,-0.8378378696463503,-0.45260593791207726,-0.04484865062404395,0.36383048814410973
0.01672433502972126,-0.15864203870296478,-6.4657745361328125,-0.8378378696463503,-0.45260593791207726,-0.04484865062404395,0.36383048814410973
0.03745224326848984,-0.13153396546840668,-6.465999603271484,-0.8378378696463503,-0.45260593791207726,-0.04484865062404395,0.36383048814410973
0.14176759123802185,-0.12997981905937195,-6.4644551277160645,-0.8378378696463503,-0.45260593791207726,-0.04484865062404395,0.36383048814410973
0.2041928917169571,-0.12444748729467392,-6.466720104217529,-0.8378378696463503,-0.45260593791207726,-0.04484865062404395,0.36383048814410973
0.13493229448795319,-0.15274596214294434,-6.462765216827393,-0.8378378696463503,-0.45260593791207726,-0.04484865062404395,0.36383048814410973
0.0699610635638237,-0.11754223704338074,-6.462223529815674,-0.8378378696463503,-0.45260593791207726,-0.04484865062404395,0.36383048814410973
0.0710451751947403,-0.14087463915348053,-6.463107109069824,-0.8378378696463503,-0.45260593791207726,-0.04484865062404395,0.36383048814410973
0.1342831403017044,-0.12166954576969147,-6.462672233581543,-0.8378378696463503,-0.45260593791207726,-0.04484865062404395,0.36383048814410973
0.12707462906837463,-0.12986166775226593,-6.462686061859131,-0.8378378696463503,-0.45260593791207726,-0.04484865062404395,0.36383048814410973
0.09685547649860382,-0.11393381655216217,-6.462735652923584,-0.8378378696463503,-0.45260593791207726,-0.04484865062404395,0.36383048814410973
0.09720360487699509,-0.15193605422973633,-6.463315963745117,-0.8378378696463503,-0.45260593791207726,-0.04484865062404395,0.36383048814410973
0.10627015680074692,-0.14063839614391327,-6.4641265869140625,-0.8378378696463503,-0.45260593791207726,-0.04484865062404395,0.36383048814410973
0.1399238258600235,-0.11641529947519302,-6.463802337646484,-0.8378378696463503,-0.45260593791207726,-0.04484865062404395,0.36383048814410973
0.1267113983631134,-0.1565709263086319,-6.463652610778809,-0.8378378696463503,-0.45260593791207726,-0.04484865062404395,0.36383048814410973
0.09524909406900406,-0.12516598403453827,-6.463344573974609,-0.8378378696463503,-0.45260593791207726,-0.04484865062404395,0.36383048814410973
0.0931374728679657,-0.13897880911827087,-6.464820861816406,-0.8378378696463503,-0.45260593791207726,-0.04484865062404395,0.36383048814410973
0.10352964699268341,-0.12384884804487228,-6.465798854827881,-0.8378378696463503,-0.45260593791207726,-0.04484865062404395,0.36383048814410973
0.1266067922115326,-0.1391175240278244,-6.465053081512451,-0.8378378696463503,-0.45260593791207726,-0.04484865062404395,0.36383048814410973
0.12383069097995758,-0.13902254402637482,-6.465209484100342,-0.8378378696463503,-0.45260593791207726,-0.04484865062404395,0.36383048814410973
0.09585796296596527,-0.12279798835515976,-6.465047359466553,-0.8378378696463503,-0.45260593791207726,-0.04484865062404395,0.36383048814410973
0.10136187076568604,-0.11408524215221405,-6.464883327484131,-0.8378378696463503,-0.45260593791207726,-0.04484865062404395,0.36383048814410973
0.14408175647258759,-0.122508704662323,-6.464497089385986,-0.8378378696463503,-0.45260593791207726,-0.04484865062404395,0.36383048814410973
0.09968145936727524,-0.13105183839797974,-6.463720798492432,-0.8378378696463503,-0.45260593791207726,-0.04484865062404395,0.36383048814410973
0.09473145008087158,-0.14303214848041534,-6.462631702423096,-0.8378378696463503,-0.45260593791207726,-0.04484865062404395,0.36383048814410973
0.08974038809537888,-0.126662015914917,-6.462432384490967,-0.8378378696463503,-0.45260593791207726,-0.04484865062404395,0.36383048814410973
0.12043658643960953,-0.13508257269859314,-6.463858604431152,-0.8378378696463503,-0.45260593791207726,-0.04484865062404395,0.36383048814410973
0.11565329879522324,-0.12798884510993958,-6.463497638702393,-0.8378378696463503,-0.45260593791207726,-0.04484865062404395,0.36383048814410973
0.11848042905330658,-0.126601904630661,-6.463166236877441,-0.8378378696463503,-0.45260593791207726,-0.04484865062404395,0.36383048814410973
0.10110267251729965,-0.12972712516784668,-6.463066577911377,-0.8378378696463503,-0.45260593791207726,-0.04484865062404395,0.36383048814410973
0.10889460891485214,-0.14005012810230255,-6.463337421417236,-0.8378378696463503,-0.45260593791207726,-0.04484865062404395,0.36383048814410973
0.1202983483672142,-0.14342555403709412,-6.4626617431640625,-0.8378378696463503,-0.45260593791207726,-0.04484865062404395,0.36383048814410973
0.10800743848085403,-0.13331922888755798,-6.462482452392578,-0.8378378696463503,-0.45260593791207726,-0.04484865062404395,0.36383048814410973
0.10727350413799286,-0.13607129454612732,-6.462162971496582,-0.8378378696463503,-0.45260593791207726,-0.04484865062404395,0.36383048814410973
0.10407005250453949,-0.13104994595050812,-6.4626264572143555,-0.8378378696463503,-0.45260593791207726,-0.04484865062404395,0.36383048814410973
0.09046375006437302,-0.13840746879577637,-6.463965892791748,-0.8378378696463503,-0.45260593791207726,-0.04484865062404395,0.36383048814410973
0.11118219047784805,-0.14277133345603943,-6.4633989334106445,-0.8378378696463503,-0.45260593791207726,-0.04484865062404395,0.36383048814410973
0.0950317308306694,-0.1301286518573761,-6.463560581207275,-0.8378378696463503,-0.45260593791207726,-0.04484865062404395,0.36383048814410973
0.0934867188334465,-0.1283201277256012,-6.463853359222412,-0.8378378696463503,-0.45260593791207726,-0.04484865062404395,0.36383048814410973
0.10054376721382141,-0.13456490635871887,-6.462543964385986,-0.8378378696463503,-0.45260593791207726,-0.04484865062404395,0.36383048814410973
0.08782638609409332,-0.12601405382156372,-6.46345853805542,-0.8378378696463503,-0.45260593791207726,-0.04484865062404395,0.36383048814410973
0.10875414311885834,-0.13881029188632965,-6.462334156036377,-0.8378378696463503,-0.45260593791207726,-0.04484865062404395,0.36383048814410973
0.10497690737247467,-0.13073495030403137,-6.461080551147461,-0.8378378696463503,-0.45260593791207726,-0.04484865062404395,0.36383048814410973
0.09952928870916367,-0.13617081940174103,-6.460508823394775,-0.8378378696463503,-0.45260593791207726,-0.04484865062404395,0.36383048814410973
0.10142988711595535,-0.13117918372154236,-6.460306644439697,-0.8378378696463503,-0.45260593791207726,-0.04484865062404395,0.36383048814410973
0.09088452905416489,-0.127263605594635,-6.460818290710449,-0.8378378696463503,-0.45260593791207726,-0.04484865062404395,0.36383048814410973
0.0964115709066391,-0.1354055404663086,-6.461635112762451,-0.8385723404831427,-0.44656033735592965,-0.04328784979103725,0.36164157859360185
0.31679868698120117,-0.059601977467536926,-6.45703125,-0.8392651094895288,-0.44054651990144833,-0.03984443097530525,0.3600165159441531
1.2669894695281982,-0.6394253969192505,-6.429999351501465,-0.8398191980504708,-0.4345947882033782,-0.026646196337726927,0.35419128782426323
2.249058723449707,-0.35939663648605347,-6.512467384338379,-0.840019131309365,-0.4287609627141825,0.002654205270422285,0.34586777087921905
2.514442205429077,0.0669967383146286,-6.5500807762146,-0.8396440958792414,-0.4230168054146797,0.042350046344412154,0.34343110506112384
1.4595379829406738,0.43229055404663086,-6.369341850280762,-0.8386622909270867,-0.41725828093502476,0.07546654791416008,0.34759183249746767
0.7659426331520081,-1.1558427810668945,-6.220627307891846,-0.8372499678635109,-0.4115153304091656,0.09401221971493243,0.3415622306056321
1.4417755603790283,-0.29946351051330566,-6.266022682189941,-0.835529783771489,-0.4059236895026537,0.11240987132769106,0.32943467817579714
1.014469027519226,0.2953444719314575,-6.299744606018066,-0.8334857133752013,-0.40043339757740304,0.13287857622684318,0.3294003528542817
0.7040658593177795,-0.49483662843704224,-6.358642578125,-0.8311517277376125,-0.3949572453184779,0.14719970028381824,0.32773791821673515
1.2487332820892334,-0.4943106472492218,-6.46019172668457,-0.8285627883480623,-0.3895636374645661,0.16347302646221,0.31949502425268295
1.7457891702651978,0.46332651376724243,-6.536947250366211,-0.8256302849589453,-0.3842408720696243,0.18842738023183028,0.31923682314033314
0.9665068984031677,-0.6382476687431335,-6.6716766357421875,-0.8223014747280906,-0.37893240565304764,0.21102984747073333,0.3177791468488674
1.1988765001296997,-0.4492054581642151,-6.739773273468018,-0.818633936756458,-0.3737116041171573,0.2290747091251739,0.3087170374579728
0.5621253252029419,0.3515940308570862,-6.743951320648193,-0.8146937331442793,-0.3685730987308652,0.24374972433627923,0.30790360889708007
0.9461093544960022,0.20812539756298065,-6.669465065002441,-0.8105264992192511,-0.36340250251116246,0.25631834666710374,0.3125679374672473
0.7636997103691101,-0.20147158205509186,-6.4983415603637695,-0.8061357900341838,-0.35819257481618694,0.2705667555409797,0.31262338592981304
-0.10939088463783264,-0.2998862564563751,-6.460296154022217,-0.8015809059956028,-0.35301700156725335,0.27601932908874033,0.3084454039422175
0.8998342156410217,-0.7117025256156921,-6.482168674468994,-0.8015809059956028,-0.35301700156725335,0.27601932908874033,0.3084454039422175
-0.11477632820606232,0.29954269528388977,-6.511571407318115,-0.7969260659352742,-0.34790486704532275,0.2825614781506983,0.30501073868945244
-0.8868640661239624,0.5052310824394226,-6.545025825500488,-0.7922862663268132,-0.3427654676659344,0.27421447486461475,0.3117171868371467
-1.5302648544311523,-1.363255262374878,-6.624976634979248,-0.7878838812541081,-0.33762976623114416,0.2540717338599888,0.3045669853376846
-0.6407691240310669,0.5739957690238953,-6.710053443908691,-0.7838001186049459,-0.3326084594958877,0.23597978403947034,0.2979898228930931
1.0934559106826782,-1.11409592628479,-6.673969745635986,-0.7798356856218818,-0.32767946940303483,0.23975217392823378,0.29348898824925235
1.0730888843536377,1.2726948261260986,-6.823403835296631,-0.7756893615567559,-0.3227769724530583,0.25780671388686976,0.2948106457479299
1.6333476305007935,-0.5231607556343079,-6.954592704772949,-0.7712046360117766,-0.31781141071347535,0.2803603515106567,0.30105676300202816
0.407105952501297,-0.39928552508354187,-6.9135894775390625,-0.7663902653211128,-0.3128578567662692,0.29736413136900747,0.2933697106627127
1.1722286939620972,-0.372885137796402,-6.846022129058838,-0.7613245204478472,-0.30802198455125734,0.3105252534228691,0.2869349551387132
0.4655602276325226,-0.21411722898483276,-6.880392551422119,-0.7560353642156886,-0.30328049935219414,0.32417349443615756,0.2820432687488696
-0.2633666694164276,-0.9148703813552856,-6.935298919677734,-0.7506184314224321,-0.2986581801237644,0.325858440754625,0.27263503866270195
0.7172039151191711,-0.872618556022644,-6.962154865264893,-0.745155940934459,-0.29423839398892615,0.32964041780214787,0.2577392975178859
0.3304585814476013,0.5247892737388611,-6.961361408233643,-0.7395891796310505,-0.28996689384156443,0.33837093860687095,0.254840720165521
0.7747109532356262,-0.42489132285118103,-6.992918491363525,-0.7338729161032497,-0.28571261114777186,0.3475806847292312,0.255673203089585
0.5813784599304199,1.1762869358062744,-7.070502281188965,-0.7279857318151816,-0.2813992108453791,0.3588814298389483,0.2619348331975441
-0.17880430817604065,0.16300877928733826,-7.196107387542725,-0.7279857318151816,-0.2813992108453791,0.3588814298389483,0.2619348331975441
-0.05542292445898056,-1.5233067274093628,-7.270885944366455,-0.7220206404312431,-0.27712809542737293,0.3569295362336564,0.2505990169631939
-0.17001645267009735,0,-7.268016338348389,-0.7160874703396495,-0.2730572303340565,0.3550508747575808,0.23790479423478256
-1.302964448928833,0.4590611755847931,-7.267760276794434,-0.7102722461007452,-0.26906027118183895,0.34277603391092304,0.2417303040313225
-1.4093294143676758,-1.0880897045135498,-7.387999534606934,-0.7047476659427365,-0.26507511531804806,0.3201735850501188,0.23648839962358287
0.470532089471817,-0.5726455450057983,-7.561051845550537,-0.6994766337839079,-0.2612489708277605,0.31235027400932,0.22264893921092163
1.5786207914352417,0.08456701785326004,-7.765556335449219,-0.6941284936003562,-0.2575720495164085,0.3294265480168788,0.21858161815131716
1.7190301418304443,0.15287965536117554,-7.8063554763793945,-0.6884090475963759,-0.2539125331949133,0.35690697246075953,0.22056034042810413
-0.2821634113788605,0.4737643897533417,-7.710941314697266,-0.6823608156435264,-0.25019301057353416,0.3688808618811894,0.22578237413739177
0.1892062872648239,-0.45814085006713867,-7.644417762756348,-0.6762192566346811,-0.24642888603654386,0.3681062191802391,0.22591257030144346
-0.07256852835416794,-1.1096426248550415,-7.663087368011475,-0.6700760531373083,-0.24277255038394496,0.3690782005044946,0.2128477080104253
0.6306771636009216,0,-7.720275402069092,-0.6638859922514524,-0.23930214709938613,0.37372910579821755,0.2036006861366333
0.503256618976593,0.6781312823295593,-7.751092433929443,-0.6575784284199142,-0.23586170988028046,0.3831785539863635,0.20925178015604629
0.6877246499061584,0,-7.730872631072998,-0.6511094121542469,-0.23232708776085126,0.3931033978937198,0.21490287417545928
1.0511232614517212,0.36599814891815186,-7.724179267883301,-0.6444369355288406,-0.22871995665314096,0.40759379715503546,0.2179528587497772
-0.3644229769706726,0.32105058431625366,-7.7719221115112305,-0.6375960180565011,-0.22503969728972562,0.41331629952571086,0.22367826486006392
0.4307159185409546,-1.5739344358444214,-7.688364028930664,-0.6375960180565011,-0.22503969728972562,0.41331629952571086,0.22367826486006392
0.30570217967033386,0.23117515444755554,-7.561546325683594,-0.6306562729186969,-0.22140497338104378,0.41945311701080495,0.21248860418175672
-0.2744333744049072,0,-7.5628814697265625,-0.6236632161903733,-0.2178474428145112,0.41971369038801687,0.21441506380215303
-1.6590440273284912,-1.172196388244629,-7.746523380279541,-0.616802257281249,-0.2143552609447701,0.4036013787069052,0.20464676056678113
-0.5625888109207153,0.7802331447601318,-7.927514553070068,-0.6102298476943457,-0.21097170127167683,0.38508777172149516,0.20138040020441034
-1.0663708448410034,0.6714003682136536,-7.9323015213012695,-0.603924840363971,-0.2075145533854246,0.37151310792348086,0.21347734614585856
0.7740660905838013,-0.9924119114875793,-7.8086018562316895,-0.5977532541731808,-0.20397889008460987,0.3690772349713375,0.2108022499519092
1.1753443479537964,-0.29389771819114685,-7.785831928253174,-0.5914665911987601,-0.20055484630969464,0.3853223219591508,0.20008300303791982
1.245276689529419,0.6134592890739441,-7.949376583099365,-0.5848764538162824,-0.19719793781664022,0.40549416393817755,0.2027460161286098
-0.20833595097064972,-0.38012686371803284,-8.09963607788086,-0.5780462079771351,-0.19380263390718033,0.41413533675950065,0.2046904530065757
0.8586373329162598,-0.539972186088562,-8.188347816467285,-0.5710987925462861,-0.19045502212441842,0.4195545149423807,0.19702296092485408
0.1563991904258728,-0.12332861125469208,-8.207539558410645,-0.5640357286497921,-0.18721736866437524,0.4280131526368985,0.19149545428032697
0.2418942153453827,-1.1124420166015625,-8.211349487304688,-0.5568745168415541,-0.18411159516441536,0.43133226435165894,0.18119736571485817
0,-0.6229730844497681,-8.300615310668945,-0.5496688475596274,-0.18121215400674073,0.43334804947953715,0.16673557320609708
0,0.4680487811565399,-8.353410720825195,-0.5424463800683018,-0.17844398641881226,0.43334804947953715,0.1654445373453202
0.2072831094264984,-0.3797155022621155,-8.405097961425781,-0.5424463800683018,-0.17844398641881226,0.43334804947953715,0.1654445373453202
-0.3306684195995331,0.48615962266921997,-8.459295272827148,-0.5352324810012937,-0.17567918551025088,0.4323198385614285,0.16633157168204607
-0.9067732095718384,0,-8.476836204528809,-0.5281130838050735,-0.17287323156397585,0.42200782498500045,0.17038290187095623
-1.6346429586410522,0.3039000332355499,-8.50380802154541,-0.5212561072892271,-0.17001241236381856,0.4008293569165597,0.17291540214791914
-0.39114218950271606,-0.3832426369190216,-8.593326568603516,-0.5147162975314611,-0.16713599889772016,0.3839478140153616,0.17225421378389022
0,-0.6964394450187683,-8.590307235717773,-0.5083443299499205,-0.1643400732570121,0.38068829576950564,0.16325686310107532
2.003246545791626,-0.2920929193496704,-8.546182632446289,-0.501860410676971,-0.16168777361951978,0.39738201698443587,0.155019093398005
1.52101469039917,-0.4312683641910553,-8.617201805114746,-0.4949926366969393,-0.15915435548535448,0.4267508606193592,0.14899108270183228
-0.32688018679618835,-0.07292886823415756,-8.693791389465332,-0.4877971963460887,-0.15670618447035348,0.4367019814827174,0.14478943909828884
-0.6283786296844482,-0.19372835755348206,-8.771909713745117,-0.48058516740585455,-0.1543115450149506,0.42874149134537876,0.1425672955500585
0.351712703704834,0.17527511715888977,-8.730576515197754,-0.47345868879495795,-0.15193670489747702,0.4264359419622153,0.14241351854677023
-0.3718564510345459,-0.3707001507282257,-8.769989967346191,-0.46635282196693,-0.14957671743791762,0.42626807740113437,0.1407849766003591
1.1151807308197021,0.06377110630273819,-8.816566467285156,-0.4591967342685927,-0.14725161567821896,0.432462446399344,0.13822723456348004
1.0334535837173462,0.7509952187538147,-8.75870418548584,-0.45183981611231633,-0.1448912474406987,0.4503677323538194,0.1450169539389513
0.5294862389564514,-0.4293292760848999,-8.616973876953125,-0.444225149752067,-0.1424519602956975,0.46339223087610104,0.14769750346119226
-2.067840576171875,-1.055451512336731,-8.640841484069824,-0.444225149752067,-0.1424519602956975,0.46339223087610104,0.14769750346119226
2.0061776638031006,-0.6794154047966003,-8.71792984008789,-0.444225149752067,-0.1424519602956975,0.46339223087610104,0.14769750346119226
-0.1480804681777954,1.4757460355758667,-8.669075012207031,-0.444225149752067,-0.1424519602956975,0.46339223087610104,0.14769750346119226
-0.8264752626419067,-0.3089306950569153,-8.659294128417969,-0.444225149752067,-0.1424519602956975,0.46339223087610104,0.14769750346119226
-1.2066173553466797,-0.3297622501850128,-8.975735664367676,-0.444225149752067,-0.1424519602956975,0.46339223087610104,0.14769750346119226
-2.0490479469299316,-0.6236979961395264,-9.603604316711426,-0.444225149752067,-0.1424519602956975,0.46339223087610104,0.14769750346119226
-1.915845513343811,-0.03202776238322258,-10.413250923156738,-0.444225149752067,-0.1424519602956975,0.46339223087610104,0.14769750346119226
-1.8406010866165161,-0.20487093925476074,-11.442117691040039,-0.444225149752067,-0.1424519602956975,0.46339223087610104,0.14769750346119226
-2.0470213890075684,-0.31835854053497314,-12.654088020324707,-0.444225149752067,-0.1424519602956975,0.46339223087610104,0.14769750346119226
-1.7072744369506836,-0.8256819844245911,-14.040428161621094,-0.444225149752067,-0.1424519602956975,0.46339223087610104,0.14769750346119226
-1.4694570302963257,-0.4969621002674103,-15.497834205627441,-0.444225149752067,-0.1424519602956975,0.46339223087610104,0.14769750346119226
-0.5205627083778381,-0.48089197278022766,-17.049962997436523,-0.444225149752067,-0.1424519602956975,0.46339223087610104,0.14769750346119226
-1.284220576286316,-0.4380612373352051,-18.57073211669922,-0.444225149752067,-0.1424519602956975,0.46339223087610104,0.14769750346119226
-1.0661532878875732,-0.041511259973049164,-20.162750244140625,-0.444225149752067,-0.1424519602956975,0.46339223087610104,0.14769750346119226
-1.9003194570541382,-0.9645988941192627,-21.75966453552246,-0.444225149752067,-0.1424519602956975,0.46339223087610104,0.14769750346119226
-0.5452717542648315,-0.45817065238952637,-23.42247772216797,-0.444225149752067,-0.1424519602956975,0.46339223087610104,0.14769750346119226
-0.9500219225883484,-0.48114773631095886,-25.11418342590332,-0.444225149752067,-0.1424519602956975,0.46339223087610104,0.14769750346119226
-1.3153631687164307,-0.20149612426757812,-26.748125076293945,-0.444225149752067,-0.1424519602956975,0.46339223087610104,0.14769750346119226
-0.5347391366958618,-0.6039950847625732,-28.373727798461914,-0.444225149752067,-0.1424519602956975,0.46339223087610104,0.14769750346119226
-0.2686806619167328,-0.4370328485965729,-29.999267578125,-0.444225149752067,-0.1424519602956975,0.46339223087610104,0.14769750346119226
-0.5229763388633728,-0.3432851731777191,-31.61073112487793,-0.444225149752067,-0.1424519602956975,0.46339223087610104,0.14769750346119226
-0.6693050861358643,-0.39866214990615845,-33.11213302612305,-0.444225149752067,-0.1424519602956975,0.46339223087610104,0.14769750346119226
0.4412548542022705,0.5850000977516174,-34.659725189208984,-0.444225149752067,-0.1424519602956975,0.46339223087610104,0.14769750346119226
-0.8323076963424683,0.22866004705429077,-36.183441162109375,-0.444225149752067,-0.1424519602956975,0.46339223087610104,0.14769750346119226
-0.19114160537719727,-0.5337308049201965,-37.59905242919922,-0.444225149752067,-0.1424519602956975,0.46339223087610104,0.14769750346119226
0.13428249955177307,-0.9354685544967651,-39.05052947998047,-0.444225149752067,-0.1424519602956975,0.46339223087610104,0.14769750346119226
-0.14182236790657043,0.29266226291656494,-40.506900787353516,-0.444225149752067,-0.1424519602956975,0.46339223087610104,0.14769750346119226
-0.745342493057251,0.4717496335506439,-41.85343933105469,-0.444225149752067,-0.1424519602956975,0.46339223087610104,0.14769750346119226
-0.14302316308021545,-0.3370060920715332,-43.217838287353516,-0.444225149752067,-0.1424519602956975,0.46339223087610104,0.14769750346119226
-0.39438489079475403,-0.23318803310394287,-44.60511779785156,-0.444225149752067,-0.1424519602956975,0.46339223087610104,0.14769750346119226
0.02140950597822666,-0.5673075318336487,-45.972774505615234,-0.444225149752067,-0.1424519602956975,0.46339223087610104,0.14769750346119226
0.49742433428764343,0.34817689657211304,-47.37212371826172,-0.444225149752067,-0.1424519602956975,0.46339223087610104,0.14769750346119226
-0.4908982515335083,-0.7908626198768616,-48.8250846862793,-0.444225149752067,-0.1424519602956975,0.46339223087610104,0.14769750346119226
-0.19377943873405457,0.041480448096990585,-50.33096694946289,-0.444225149752067,-0.1424519602956975,0.46339223087610104,0.14769750346119226
-0.621428370475769,-0.4991408586502075,-51.82174301147461,-0.444225149752067,-0.1424519602956975,0.46339223087610104,0.14769750346119226
-0.3058866858482361,1.51621413230896,-53.44734573364258,-0.444225149752067,-0.1424519602956975,0.46339223087610104,0.14769750346119226
-1.3707704544067383,0.1271466314792633,-55.15522384643555,-0.444225149752067,-0.1424519602956975,0.46339223087610104,0.14769750346119226
-0.18062223494052887,0.10382678359746933,-56.91062927246094,-0.444225149752067,-0.1424519602956975,0.46339223087610104,0.14769750346119226
-0.9062191247940063,0.30659863352775574,-58.6633415222168,-0.444225149752067,-0.1424519602956975,0.46339223087610104,0.14769750346119226
0.04890264570713043,0.9666063785552979,-60.43515396118164,-0.444225149752067,-0.1424519602956975,0.46339223087610104,0.14769750346119226
0.41191133856773376,0.9061975479125977,-62.09751892089844,-0.444225149752067,-0.1424519602956975,0.46339223087610104,0.14769750346119226
-0.09576193243265152,0.3157278597354889,-63.73338317871094,-0.444225149752067,-0.1424519602956975,0.46339223087610104,0.14769750346119226
0.20465430617332458,0.7244706153869629,-65.23770141601562,-0.444225149752067,-0.1424519602956975,0.46339223087610104,0.14769750346119226
0.20238381624221802,-0.12559930980205536,-66.73782348632812,-0.444225149752067,-0.1424519602956975,0.46339223087610104,0.14769750346119226
-0.10135741531848907,0.6240004301071167,-68.1703109741211,-0.444225149752067,-0.1424519602956975,0.46339223087610104,0.14769750346119226
0.022681016474962234,-0.24957649409770966,-69.47340393066406,-0.444225149752067,-0.1424519602956975,0.46339223087610104,0.14769750346119226
0.0832958072423935,0.2755314111709595,-70.7586669921875,-0.444225149752067,-0.1424519602956975,0.46339223087610104,0.14769750346119226
-1.2716480493545532,-0.2576311230659485,-72.053955078125,-0.444225149752067,-0.1424519602956975,0.46339223087610104,0.14769750346119226
-0.15217772126197815,0.5115474462509155,-73.41851806640625,-0.444225149752067,-0.1424519602956975,0.46339223087610104,0.14769750346119226
-0.9631715416908264,-0.24590766429901123,-74.8430404663086,-0.444225149752067,-0.1424519602956975,0.46339223087610104,0.14769750346119226
-0.237394317984581,0.4379945993423462,-76.33922576904297,-0.444225149752067,-0.1424519602956975,0.46339223087610104,0.14769750346119226
-0.6506145000457764,-0.21534956991672516,-77.90534973144531,-0.444225149752067,-0.1424519602956975,0.46339223087610104,0.14769750346119226
-0.20605871081352234,-0.4993298351764679,-79.48128509521484,-0.444225149752067,-0.1424519602956975,0.46339223087610104,0.14769750346119226
-0.6937307119369507,-0.6166355013847351,-81.10055541992188,-0.444225149752067,-0.1424519602956975,0.46339223087610104,0.14769750346119226
0.3105427324771881,0.20477531850337982,-82.82127380371094,-0.444225149752067,-0.1424519602956975,0.46339223087610104,0.14769750346119226
-0.6574805974960327,-0.07496310770511627,-84.59510040283203,-0.444225149752067,-0.1424519602956975,0.46339223087610104,0.14769750346119226
0.01834108680486679,0.2472468763589859,-86.42645263671875,-0.444225149752067,-0.1424519602956975,0.46339223087610104,0.14769750346119226
-0.9332895278930664,0.28764280676841736,-88.29720306396484,-0.444225149752067,-0.1424519602956975,0.46339223087610104,0.14769750346119226
-0.2773779332637787,0.06768946349620819,-90.12776947021484,-0.444225149752067,-0.1424519602956975,0.46339223087610104,0.14769750346119226
1.3575046062469482,-0.6389651298522949,-91.81055450439453,-0.444225149752067,-0.1424519602956975,0.46339223087610104,0.14769750346119226
0.6223390698432922,-0.5486118197441101,-93.18544006347656,-0.444225149752067,-0.1424519602956975,0.46339223087610104,0.14769750346119226
0.7379427552223206,-1.2979466915130615,-94.23714447021484,-0.444225149752067,-0.1424519602956975,0.46339223087610104,0.14769750346119226
1.521162509918213,-0.6263414621353149,-94.87293243408203,-0.444225149752067,-0.1424519602956975,0.46339223087610104,0.14769750346119226
1.5355864763259888,-0.7189599871635437,-95.05643463134766,-0.444225149752067,-0.1424519602956975,0.46339223087610104,0.14769750346119226
-0.06904858350753784,0.15015901625156403,-95.0272445678711,-0.444225149752067,-0.1424519602956975,0.46339223087610104,0.14769750346119226
-0.6079414486885071,0.589597225189209,-95.04022216796875,-0.444225149752067,-0.1424519602956975,0.46339223087610104,0.14769750346119226
0.07086993753910065,0.4140195846557617,-95.04719543457031,-0.444225149752067,-0.1424519602956975,0.46339223087610104,0.14769750346119226
0.20757605135440826,0.5155102610588074,-95.01152801513672,-0.444225149752067,-0.1424519602956975,0.46339223087610104,0.14769750346119226
-0.32379546761512756,0.5310008525848389,-94.98226165771484,-0.444225149752067,-0.1424519602956975,0.46339223087610104,0.14769750346119226
-0.03202297165989876,0.5150548815727234,-94.99659729003906,-0.444225149752067,-0.1424519602956975,0.46339223087610104,0.14769750346119226
-0.14048074185848236,-0.2100321501493454,-95.00304412841797,-0.444225149752067,-0.1424519602956975,0.46339223087610104,0.14769750346119226
-0.15766200423240662,-0.40473923087120056,-94.98551940917969,-0.444225149752067,-0.1424519602956975,0.46339223087610104,0.14769750346119226
-0.07368770241737366,-0.3773573040962219,-94.98611450195312,-0.444225149752067,-0.1424519602956975,0.46339223087610104,0.14769750346119226
-0.17047780752182007,-0.27646392583847046,-94.99092102050781,-0.444225149752067,-0.1424519602956975,0.46339223087610104,0.14769750346119226
-0.10326579958200455,-0.09282446652650833,-94.98188018798828,-0.444225149752067,-0.1424519602956975,0.46339223087610104,0.14769750346119226
-0.09518013149499893,0.018475783988833427,-94.98287200927734,-0.444225149752067,-0.1424519602956975,0.46339223087610104,0.14769750346119226
-0.12146969139575958,0.04363943263888359,-94.98468017578125,-0.444225149752067,-0.1424519602956975,0.46339223087610104,0.14769750346119226
-0.11723136901855469,-0.0611409917473793,-94.98206329345703,-0.444225149752067,-0.1424519602956975,0.46339223087610104,0.14769750346119226
-0.09278203547000885,-0.17609362304210663,-94.98319244384766,-0.444225149752067,-0.1424519602956975,0.46339223087610104,0.14769750346119226
-0.1191028580069542,-0.17882218956947327,-94.98245239257812,-0.444225149752067,-0.1424519602956975,0.46339223087610104,0.14769750346119226
-0.14090055227279663,-0.12240254133939743,-94.98212432861328,-0.444225149752067,-0.1424519602956975,0.46339223087610104,0.14769750346119226
-0.09614743292331696,-0.04525928571820259,-94.98287963867188,-0.444225149752067,-0.1424519602956975,0.46339223087610104,0.14769750346119226
-0.11544717848300934,-0.04068346321582794,-94.98237609863281,-0.444225149752067,-0.1424519602956975,0.46339223087610104,0.14769750346119226
-0.11053047329187393,-0.08970003575086594,-94.98257446289062,-0.444225149752067,-0.1424519602956975,0.46339223087610104,0.14769750346119226
-0.11570411175489426,-0.14232531189918518,-94.98379516601562,-0.444225149752067,-0.1424519602956975,0.46339223087610104,0.14769750346119226
-0.11885514855384827,-0.1195388063788414,-94.98473358154297,-0.444225149752067,-0.1424519602956975,0.46339223087610104,0.14769750346119226
-0.11040479689836502,-0.0861048623919487,-94.98460388183594,-0.444225149752067,-0.1424519602956975,0.46339223087610104,0.14769750346119226
-0.11626968532800674,-0.06451686471700668,-94.98502349853516,-0.444225149752067,-0.1424519602956975,0.46339223087610104,0.14769750346119226
-0.11948592215776443,-0.07645248621702194,-94.98542785644531,-0.444225149752067,-0.1424519602956975,0.46339223087610104,0.14769750346119226
-0.12001340836286545,-0.11487400531768799,-94.983154296875,-0.444225149752067,-0.1424519602956975,0.46339223087610104,0.14769750346119226
-0.11701951920986176,-0.10747617483139038,-94.9827880859375,-0.444225149752067,-0.1424519602956975,0.46339223087610104,0.14769750346119226
-0.11454072594642639,-0.08719814568758011,-94.98309326171875,-0.444225149752067,-0.1424519602956975,0.46339223087610104,0.14769750346119226
-0.11278632283210754,-0.08775035291910172,-94.98197937011719,-0.444225149752067,-0.1424519602956975,0.46339223087610104,0.14769750346119226
-0.11948364228010178,-0.1003902405500412,-94.9826889038086,-0.444225149752067,-0.1424519602956975,0.46339223087610104,0.14769750346119226
-0.11928527057170868,-0.10786116123199463,-94.9825668334961,-0.444225149752067,-0.1424519602956975,0.46339223087610104,0.14769750346119226
-0.11705408245325089,-0.10619871318340302,-94.98259735107422,-0.444225149752067,-0.1424519602956975,0.46339223087610104,0.14769750346119226
-0.10818849503993988,-0.09840547293424606,-94.98191833496094,-0.444225149752067,-0.1424519602956975,0.46339223087610104,0.14769750346119226
-0.12813808023929596,-0.08177175372838974,-94.98127746582031,-0.444225149752067,-0.1424519602956975,0.46339223087610104,0.14769750346119226
-0.10851363092660904,-0.08617182075977325,-94.9815673828125,-0.444225149752067,-0.1424519602956975,0.46339223087610104,0.14769750346119226
-0.11648862063884735,-0.08627752214670181,-94.98260498046875,-0.444225149752067,-0.1424519602956975,0.46339223087610104,0.14769750346119226
-0.11921421438455582,-0.09752883017063141,-94.98268127441406,-0.444225149752067,-0.1424519602956975,0.46339223087610104,0.14769750346119226
-0.10961010307073593,-0.10892146825790405,-94.98194885253906,-0.444225149752067,-0.1424519602956975,0.46339223087610104,0.14769750346119226
-0.10772557556629181,-0.09034459292888641,-94.98182678222656,-0.444225149752067,-0.1424519602956975,0.46339223087610104,0.14769750346119226
-0.12363030761480331,-0.08826804906129837,-94.9819107055664,-0.444225149752067,-0.1424519602956975,0.46339223087610104,0.14769750346119226
-0.10349293053150177,-0.08518632501363754,-94.98078918457031,-0.444225149752067,-0.1424519602956975,0.46339223087610104,0.14769750346119226
-0.11284154653549194,-0.11041167378425598,-94.98172760009766,-0.444225149752067,-0.1424519602956975,0.46339223087610104,0.14769750346119226
-0.10880419611930847,-0.09026657789945602,-94.98074340820312,-0.444225149752067,-0.1424519602956975,0.46339223087610104,0.14769750346119226
-0.10875902324914932,-0.08351343125104904,-94.98063659667969,-0.444225149752067,-0.1424519602956975,0.46339223087610104,0.14769750346119226
-0.10313601046800613,-0.10167154669761658,-94.98101806640625,-0.444225149752067,-0.1424519602956975,0.46339223087610104,0.14769750346119226
-0.10639652609825134,-0.09007405489683151,-94.98139190673828,-0.444225149752067,-0.1424519602956975,0.46339223087610104,0.14769750346119226
-0.11473562568426132,-0.0942515879869461,-94.9807357788086,-0.444225149752067,-0.1424519602956975,0.46339223087610104,0.14769750346119226
-0.12067364156246185,-0.0897524431347847,-94.97994995117188,-0.444225149752067,-0.1424519602956975,0.46339223087610104,0.14769750346119226
-0.12461520731449127,-0.10443198680877686,-94.97960662841797,-0.444225149752067,-0.1424519602956975,0.46339223087610104,0.14769750346119226
-0.11015594750642776,-0.08571350574493408,-94.9797134399414,-0.444225149752067,-0.1424519602956975,0.46339223087610104,0.14769750346119226
-0.11226153373718262,-0.0981026142835617,-94.98088836669922,-0.444225149752067,-0.1424519602956975,0.46339223087610104,0.14769750346119226
-0.11636994034051895,-0.08720363676548004,-94.98086547851562,-0.444225149752067,-0.1424519602956975,0.46339223087610104,0.14769750346119226
-0.1254667341709137,-0.07071007043123245,-94.9806900024414,-0.43651874011763975,-0.14000130146767742,0.46137692525517243,0.14638155590121965
-0.11827047169208527,-0.1352909952402115,-94.98030090332031,-0.4288460508915718,-0.1375759144988843,0.45934578187298075,0.1446648803539576
-0.08967247605323792,-0.37257444858551025,-94.9660415649414,-0.4212047283428378,-0.13520010159325066,0.45761292397510306,0.1404326683220766
-0.49657851457595825,-1.1149243116378784,-94.96742248535156,-0.41361855815093534,-0.13296285564623156,0.4527274990531931,0.12803684532021503
0.3569948673248291,-3.0542993545532227,-94.87627410888672,-0.406082793142219,-0.13111843764549125,0.45156430199276704,0.09329331476862252
-0.14341287314891815,-2.48527193069458,-94.85945892333984,-0.3985418893594107,-0.12994824151637863,0.45334415194423294,0.04713022072489083
-0.7528175711631775,-1.5184848308563232,-94.79601287841797,-0.39104839171897293,-0.12944077650162703,0.4458755649082988,0.013765581045299971
0.39845192432403564,-0.9876784086227417,-94.74472045898438,-0.38364174102930954,-0.12938538926472473,0.442922517851306,-0.00711911261702557
-0.6650693416595459,-0.6329293251037598,-94.67648315429688,-0.3762782141635472,-0.12961658334540616,0.44070070604017675,-0.020624177064746417
-0.3508940041065216,-1.3950374126434326,-94.62122344970703,-0.36900375540633357,-0.13010115065327327,0.4322343448254595,-0.03752389987930635
-0.16046498715877533,-0.7935046553611755,-94.636474609375,-0.36183536070030264,-0.1308785310726509,0.4279730198982487,-0.05576175044601142
-0.20595411956310272,-0.6909393668174744,-94.7002944946289,-0.35472792280663196,-0.13191097997051351,0.42491952734223304,-0.06813211729750017
-0.2468922734260559,-1.577660322189331,-94.724365234375,-0.3476773783504412,-0.1332040569038751,0.4211458074006567,-0.0870371147058902
0.41520771384239197,-1.3112478256225586,-94.75279235839844,-0.3406465929881791,-0.13485529410368244,0.42254843607079284,-0.11111134927098928
-0.9643305540084839,-0.3009679913520813,-94.87318420410156,-0.3406465929881791,-0.13485529410368244,0.42254843607079284,-0.11111134927098928
0,-1.166541337966919,-94.9093246459961,-0.33367108645324983,-0.13680906029495718,0.41451234812072213,-0.12334059368198096
0.30962055921554565,0.9219568371772766,-94.85607147216797,-0.32674104589018116,-0.1388817218911006,0.41709251944751835,-0.12537879785522799
-0.713423490524292,-0.331926554441452,-94.82117462158203,-0.31981754576961896,-0.14093039419683107,0.4137274950199455,-0.12046187883242945
0.7360174059867859,1.7206590175628662,-94.85320281982422,-0.3129205184973794,-0.14284165242298813,0.4139157776487996,-0.10888910830641767
0.15017230808734894,-0.5529584288597107,-94.93356323242188,-0.3059603812508665,-0.1445753805761018,0.4213006919327507,-0.0991582700672247
-0.2950744926929474,-0.6543373465538025,-95.07884216308594,-0.29894876570369605,-0.14631185839495928,0.42009317372770405,-0.10921906819567065
-1.9368144273757935,-2.3272299766540527,-95.11978912353516,-0.2921022050943502,-0.14833922948455433,0.4014940993937979,-0.13406546255573612
1.009681224822998,-1.4118541479110718,-95.11776733398438,-0.2854750210212975,-0.15083331248024473,0.3937679893725246,-0.16522449692711216
0,0.317889928817749,-95.34516143798828,-0.27884210444669827,-0.15366302383313363,0.40218199957938294,-0.1743408654195565
-0.330367773771286,0.4325619339942932,-95.58558654785156,-0.2721620133268871,-0.15651659021076428,0.39942893479795555,-0.16808709989612283
-0.9821906089782715,-1.1391404867172241,-95.75596618652344,-0.26559601430127877,-0.15936710983074986,0.38849094827504255,-0.17397525450214726
0.8924662470817566,-0.6926155090332031,-95.78694915771484,-0.25912739602182644,-0.1623939026832683,0.38774324525923826,-0.18923988780006748
0.3906051218509674,-1.175717830657959,-95.7075424194336,-0.25257590642244104,-0.16567764618408132,0.39843550666701094,-0.20480933229749382
-1.2171576023101807,-0.6279588937759399,-95.7347412109375,-0.2459927141224672,-0.1692163903837919,0.39154756932985085,-0.2198399716677763
0.2319847196340561,-1.201907992362976,-95.83412170410156,-0.2459927141224672,-0.1692163903837919,0.39154756932985085,-0.2198399716677763
-0.22384391725063324,0.5457817316055298,-95.85889434814453,-0.23946635596680418,-0.1729259542352519,0.39161540934971273,-0.2253076905074217
-0.18453706800937653,0.8386099934577942,-95.8004150390625,-0.23296779226828537,-0.1765849440961351,0.388212234472546,-0.21377109279856066
-0.16967372596263885,1.4891942739486694,-95.78907012939453,-0.22652218633221322,-0.17998614256865234,0.3852604778561125,-0.1943727239035068
0.05368325486779213,0.7571784257888794,-95.86324310302734,-0.2201092332617707,-0.18306968986289568,0.38429389059698876,-0.1756529514056939
-0.4689979553222656,0.40882688760757446,-95.82688903808594,-0.2137331763837969,-0.1859162664617825,0.3808329347598681,-0.16593624046072344
0.0919647067785263,-1.7641137838363647,-95.91098022460938,-0.20741214366894797,-0.18877598761503267,0.37769099102200365,-0.1772302979292967
-0.34774672985076904,-1.5952423810958862,-96.0251693725586,-0.20113505645907237,-0.191963114536419,0.3755594741630683,-0.20522493263706545
0.32843154668807983,-0.7212215662002563,-96.0657958984375,-0.19487707322185197,-0.19554439563226567,0.3753985143033792,-0.2245287988645333
-0.9105895757675171,-0.2993727922439575,-96.23541259765625,-0.18866085895770393,-0.1993574168882332,0.3705471973943839,-0.2330337518515684
-0.4271831810474396,-0.19596587121486664,-96.49156188964844,-0.18257797322035413,-0.20327571127072175,0.3593990910875926,-0.23716157404705862
0.9242947101593018,-1.0147449970245361,-96.53264617919922,-0.17655346673492814,-0.2073124813151338,0.3635416871635248,-0.24725083128238698
-0.17716224491596222,-0.21274977922439575,-96.43122863769531,-0.17044255441656084,-0.21151857119596865,0.36976779104055263,-0.25747995441779475
0.9055793881416321,-1.0423122644424438,-96.3924560546875,-0.16422917337538318,-0.2158970608559643,0.37583793390076653,-0.2679388047816851
-1.3522006273269653,0.2883453071117401,-96.23680877685547,-0.15799622317420273,-0.220415066418807,0.37211609024088876,-0.27422186275944094
-0.09118933230638504,0.5453749299049377,-96.1378402709961,-0.15799622317420273,-0.220415066418807,0.37211609024088876,-0.27422186275944094
-0.28859302401542664,-0.30917298793792725,-96.118408203125,-0.15182066211159914,-0.22496902788549442,0.36895123727154033,-0.2722535132430492
0.15067045390605927,-0.5348253846168518,-96.14801025390625,-0.14568105277999774,-0.2295651974376393,0.36780188252062895,-0.27928683301433904
-0.8195490837097168,0,-96.22260284423828,-0.1395974713095014,-0.2342571186395878,0.3622278939389318,-0.2837437112194795
-0.2329794317483902,0.1896229088306427,-96.29180145263672,-0.13363343200187044,-0.23897301223568812,0.3534568229767809,-0.2821635203125575
-0.23477895557880402,-0.12281292676925659,-96.30437469482422,-0.1277749681735996,-0.24367109799214315,0.34955883641572094,-0.2816067704620459
0.18011422455310822,-0.9687865376472473,-96.36914825439453,-0.1219527837285477,-0.24844034968487283,0.3491032969905068,-0.2907034326655168
-0.06751905381679535,0.16401486098766327,-96.48023986816406,-0.11612657633629368,-0.253341293817955,0.3500415900799761,-0.29740986330434666
0.14191769063472748,-1.095253586769104,-96.45779418945312,-0.1102873832629595,-0.2583627942289845,0.35066157872012554,-0.305170186019192
0.35027340054512024,0.0755692571401596,-96.36160278320312,-0.1044088436807366,-0.26351977540775084,0.35476317114662426,-0.31366755543276653
-0.476544052362442,-0.3599448800086975,-96.44607543945312,-0.09850489295689129,-0.2687673163054406,0.3537109157148132,-0.31603735229000435
-1.1717222929000854,0.08569110929965973,-96.5322036743164,-0.0927241739689543,-0.2740536509110177,0.33997536283762547,-0.3183228003792463
-0.20893381536006927,0.13342887163162231,-96.63921356201172,-0.0871537968180675,-0.279343814251996,0.32846989526879083,-0.3164968005381523
0.6605272889137268,-0.08992429077625275,-96.81300354003906,-0.08164793790570198,-0.2846157397761836,0.3322331742150713,-0.3161342623643576
-0.9209060668945312,0.2962355613708496,-96.93548583984375,-0.07612880019503279,-0.2898703169773538,0.33006335106523127,-0.3144150017760693
-0.08632766455411911,-0.49757683277130127,-96.95026397705078,-0.07612880019503279,-0.2898703169773538,0.33006335106523127,-0.3144150017760693
1.1877621412277222,-0.9997275471687317,-97.02189636230469,-0.07055125583862105,-0.29521454647778417,0.33924197170417797,-0.3268925382755696
-0.7239346504211426,0.1183839738368988,-97.1457290649414,-0.06486501273446763,-0.30072395986385836,0.3431072007942328,-0.33423706805333486
-0.1887623518705368,1.2103010416030884,-97.14183044433594,-0.05920994112416733,-0.30620230787200836,0.3355013924418021,-0.3231646929246683
-0.46909305453300476,1.172168493270874,-97.07183074951172,-0.053663935653359765,-0.3114229368141644,0.3300192640551059,-0.303310780134052
0.32327234745025635,1.5020655393600464,-97.13470458984375,-0.04817374102376652,-0.31629240578635476,0.328804091496083,-0.2810254965287943
-0.40601834654808044,-0.11073178797960281,-97.1295166015625,-0.04269941908210249,-0.32087954366243326,0.3281145415036011,-0.26943104860062395
0.06599438190460205,-0.8895792961120605,-97.30918884277344,-0.037254456165698266,-0.3254395271866167,0.32528100846490543,-0.2777669743013878
-1.0776286125183105,-0.7613407969474792,-97.48102569580078,-0.03190335840174246,-0.33018362398699114,0.3168507232097912,-0.29152464174355064
0.9372434616088867,-0.9900723099708557,-97.62684631347656,-0.02663226198372576,-0.33516399392625296,0.31568084695221266,-0.3061197509678701
-0.40532606840133667,-0.5423644185066223,-97.7474365234375,-0.021333975826660582,-0.34037240899297283,0.3201134918956089,-0.31889005703851575
-0.32194891571998596,-1.4360724687576294,-97.80825805664062,-0.016049256168964413,-0.34582463472745256,0.3140528670279312,-0.3353770310990512
0.9069440960884094,0.5922495722770691,-97.69993591308594,-0.01077441705319553,-0.35147285072469236,0.31892782686433474,-0.3424088885697225
-0.1755891591310501,0.2083991914987564,-97.59010314941406,-0.005408164734834578,-0.3571240649255922,0.3250224513389794,-0.3357368155382573
-1.0560948848724365,0.19737759232521057,-97.4527359008789,-7.665749335182982e-05,-0.36269149957457536,0.31475841763895035,-0.33235534233972425
-0.2292538285255432,0.28089067339897156,-97.4686508178711,-7.665749335182982e-05,-0.36269149957457536,0.31475841763895035,-0.33235534233972425
-0.4906025528907776,0.07366754114627838,-97.53778076171875,-7.665749335182982e-05,-0.36269149957457536,0.31475841763895035,-0.33235534233972425
