faccX,faccY,yaw,posX,posY,velX,velY
0,0,-99.39244842529297,0.0,0.0,0.0,0.0
0,0,-99.3934097290039,0.0,0.0,0.0,0.0
0,0,-99.39482879638672,0.0,0.0,0.0,0.0
0,-0.05891456454992294,-99.40284729003906,0.0,-4.091289204855759e-06,0.0,-0.0004909547045826912
-0.05589684098958969,-1.1319292783737183,-99.38453674316406,-3.881725068721506e-06,-9.49713567064868e-05,-0.00046580700824658077,-0.010414653395613035
-0.10318587720394135,-2.2844858169555664,-99.22706604003906,-2.2692586191826395e-05,-0.0005057999615867933,-0.001791496326526006,-0.03888477919002374
-0.5240052938461304,-1.9126918315887451,-99.01741790771484,-9.610580073462592e-05,-0.0014453502847916549,-0.007018089418609937,-0.07386125959455966
-0.5498670935630798,-2.0027387142181396,-98.99919891357422,-0.00028764842905932,-0.0029482761770486827,-0.015967025980353357,-0.1064898474762837
-0.15649542212486267,-1.227270245552063,-99.02339172363281,-0.0006028184812102053,-0.004947413146081898,-0.02185338027775288,-0.13340658880770206
-0.11750556528568268,-0.6634989976882935,-98.94428253173828,-0.0009860693321873744,-0.007302159712546401,-0.024136721839507422,-0.14916299916803838
0,-0.9442910552024841,-98.9453353881836,-0.0013965081382128928,-0.009899861785686678,-0.025115934883554777,-0.16256124960879487
-0.48352715373039246,-1.2884269952774048,-98.98290252685547,-0.0018486853275034164,-0.01276426581044992,-0.02914532783130805,-0.18116723336279394
-0.11107464879751205,-1.5356740951538086,-98.99679565429688,-0.002375732583200766,-0.015979837831109765,-0.03410034285237392,-0.2047014091163874
0.4354114234447479,-1.5107343196868896,-98.96202087402344,-0.002921548243612051,-0.019603084122969048,-0.031397536396980286,-0.23008814590672655
-0.6662848591804504,-0.9169301390647888,-98.89505767822266,-0.003460873394376702,-0.02360647436438336,-0.033321481694777805,-0.25031868306299054
-0.3191293179988861,-0.48961713910102844,-98.79881286621094,-0.004084662962704897,-0.027876129309750274,-0.04153326650460561,-0.262039910381039
-0.7133869528770447,-0.9425280094146729,-98.82440185546875,-0.0048485865899258185,-0.032342915673636737,-0.05013756876190503,-0.27397445328533654
-0.07836783677339554,-1.2340114116668701,-98.76801300048828,-0.005739195707461071,-0.03706030513263412,-0.05673552534232537,-0.2921122817943494
-0.9401454329490662,-0.3955802917480469,-98.8258285522461,-0.006755517884674999,-0.04204200925305487,-0.06522313592334589,-0.3056922126561404
0.2224198579788208,-0.5940755605697632,-98.89920043945312,-0.007892412203881476,-0.047205605564845945,-0.07120418238143127,-0.3139393447587888
0.8191389441490173,-1.449400782585144,-98.97098541259766,-0.009006818104535342,-0.05257983605687818,-0.06252452569703261,-0.3309683142850797
0.5086793899536133,-0.5778300166130066,-99.08702087402344,-0.009956683926284314,-0.058236754544907156,-0.05145937291284402,-0.34786190427839764
0.33210289478302,-1.3168233633041382,-99.01897430419922,-0.010755952482836114,-0.06416602610093025,-0.04445285387337208,-0.3636506824443738
-1.6233316659927368,-0.08259064704179764,-98.944580078125,-0.01158650204539299,-0.07032405233683273,-0.05521309363345305,-0.3753124658639233
0.11568794399499893,-0.7269589900970459,-98.80905151367188,-0.012611417753311495,-0.07663547882603275,-0.06777679131676753,-0.38205871284008036
-0.07096105813980103,-0.5917894244194031,-98.73688507080078,-0.013737924908184342,-0.08309470379104217,-0.06740406726797421,-0.39304828296105077
-0.1029692217707634,-0.20394949615001678,-98.73299407958984,-0.014873404520977702,-0.08970076815432144,-0.06885348626722891,-0.3996794406324626
0.2353236824274063,0.33392274379730225,-98.74073028564453,-0.01601177134344147,-0.09635306624488699,-0.06775053242842355,-0.39859633023540186
0.7284247875213623,-0.6665663123130798,-98.71235656738281,-0.017074019906835422,-0.10301943866329061,-0.059719295178850475,-0.40136835997303333
-1.2497912645339966,-0.18563854694366455,-98.65176391601562,-0.018105547498497698,-0.10976809222251177,-0.06406401582062243,-0.4084700671335062
0.22902390360832214,-0.8550601005554199,-98.59416198730469,-0.019244167717794577,-0.11664819741414653,-0.07257041049500305,-0.41714255586266524
-0.3721342086791992,-0.20231907069683075,-98.53587341308594,-0.020463612775007883,-0.1236740024543057,-0.07376299637059369,-0.425954048956434
0.9625589847564697,0.43001165986061096,-98.48555755615234,-0.02165199432729019,-0.13075742461822099,-0.0688427899032831,-0.4240566107134025
-0.39172589778900146,-0.3532053232192993,-98.39804077148438,-0.02275973297241661,-0.13781970102339983,-0.06408584751188753,-0.42341655790805827
-0.5434336066246033,-0.16093145310878754,-98.32098388671875,-0.023892772063199015,-0.14491234759800137,-0.0718788433820009,-0.42770103104412566
0.6241790652275085,-0.4708874225616455,-98.22708129882812,-0.025085145462718273,-0.1520845744262139,-0.07120596456031002,-0.4329661883413793
0.7805155515670776,-0.6234920620918274,-98.16539001464844,-0.026174363301446037,-0.15937667614056003,-0.0595001760870218,-0.44208601738015824
-0.9764888882637024,-0.5778853297233582,-98.24378967285156,-0.02717964216238922,-0.16682820541577206,-0.06113328722616034,-0.4520974956452848
-0.6300976276397705,-0.5939328670501709,-98.22621154785156,-0.028310098790874077,-0.17444453994019163,-0.07452150819202262,-0.4618626472850642
0.25779274106025696,1.2064458131790161,-98.2333984375,-0.029577978433420252,-0.18209971510701708,-0.07762404891351857,-0.4567583727339905
0.9639514684677124,0.16979292035102844,-98.2864761352539,-0.03078686923409501,-0.18961678251831068,-0.06744284716745216,-0.4452897166212401
-0.2643570005893707,0.7640122771263123,-98.30595397949219,-0.03186233373772766,-0.1969734302121732,-0.06161289326846598,-0.4375080066422623
0,-1.3690519332885742,-98.26065063476562,-0.03290757341724303,-0.20430724696566663,-0.0638158682733774,-0.4425500037769478
-0.07714293152093887,0.19090045988559723,-98.20246887207031,-0.0339765283698216,-0.21176489643649096,-0.06445872603605189,-0.4523679327219726
-0.20801009237766266,-1.5931060314178467,-98.14916229248047,-0.03507064276374876,-0.21940173736876914,-0.0668350012352069,-0.46405297915140803
-0.9582386016845703,0.2223508507013321,-98.11175537109375,-0.03626554894364541,-0.22723114501995348,-0.07655374035239218,-0.47547593899071233
-1.0248031616210938,0.5833539962768555,-98.24957275390625,-0.037679155849748174,-0.23509979227764743,-0.09307908837993938,-0.46876173193256077
0.1853468120098114,0.9257185459136963,-98.35358428955078,-0.03928876956924795,-0.242807691105538,-0.1000745579600334,-0.45618612741430614
1.3935056924819946,-1.2311021089553833,-98.40265655517578,-0.040847036333547686,-0.2504320004209877,-0.08691745375593501,-0.45873099043965354
1.7134917974472046,-0.34477028250694275,-98.49263000488281,-0.042079896848234856,-0.25818695251105567,-0.06102580800652502,-0.47186326036850623
-1.3215906620025635,-0.36820080876350403,-98.4398422241211,-0.04306977829171551,-0.26610085206520234,-0.05775996521115301,-0.47780468612909327
-0.4658360779285431,0.24743476510047913,-98.33551788330078,-0.044156571235507716,-0.27407265003149717,-0.07265518804391223,-0.47881106982628513
0.2292427271604538,0.07064608484506607,-98.21707153320312,-0.04538392113004293,-0.282030745580689,-0.07462679930031298,-0.47616039607673893
0.37570592761039734,0.18472601473331451,-98.27498626708984,-0.0465856907951335,-0.2899490180083862,-0.06958556051055588,-0.4740322952469191
-0.4198075234889984,-0.39476504921913147,-98.41387939453125,-0.047748512747801,-0.297864142306563,-0.06995307380954423,-0.47578262053430087
-0.3072623908519745,0.41054344177246094,-98.36592864990234,-0.048964888277567085,-0.30579275692709623,-0.07601198976238567,-0.4756511339296898
0.19893281161785126,-0.6624298095703125,-98.22003936767578,-0.05023927766105366,-0.31373776793479924,-0.07691473625600337,-0.47775018699467187
-0.28490474820137024,0.4167466461658478,-98.13397216796875,-0.051527160205360904,-0.3217173323821691,-0.07763116906086602,-0.4797975466897091
0.9216476678848267,0.7568118572235107,-98.06027221679688,-0.052776794764730656,-0.32963246104203997,-0.07232497806350388,-0.47001789249479775
0.23136597871780396,-1.1107295751571655,-97.99372100830078,-0.05390214067366387,-0.3374906702029209,-0.06271653100848196,-0.47296720681091153
0.3748001456260681,0.7748432755470276,-97.93756866455078,-0.0549053213207258,-0.3453967824205757,-0.05766514663894969,-0.4757662593076627
-1.0037190914154053,-0.8463626503944397,-97.89000701904297,-0.05591008202483255,-0.3533311866989567,-0.06290613785386083,-0.4763622540980578
0.06101648136973381,-0.48728853464126587,-97.94371032714844,-0.05702398311476118,-0.36136317226621845,-0.07076199293757476,-0.4874760139733554
-0.940520167350769,-0.33013975620269775,-98.04951477050781,-0.05826442630858055,-0.3695445383526385,-0.07809119032075006,-0.4942879163970551
0.4035918116569519,0.2122548669576645,-98.07178497314453,-0.05960323283862735,-0.37779085674323143,-0.0825655932848652,-0.49527029047409704
0.6918048858642578,0.8680052161216736,-98.09931182861328,-0.06090325684493613,-0.3859703435231414,-0.07343728747218844,-0.48626812311510254
0.18334141373634338,0.5675862431526184,-98.08229064941406,-0.062066437587555895,-0.39397511839038796,-0.06614440164218344,-0.47430486095448343
0.19174306094646454,-1.0968480110168457,-98.15524291992188,-0.0631427967486282,-0.40191695369573105,-0.06301869768649337,-0.4787153756866853
-0.8457066416740417,0.6955249309539795,-98.16012573242188,-0.0631427967486282,-0.40191695369573105,-0.06301869768649337,-0.4787153756866853
-0.5968194007873535,-0.8236348628997803,-98.12288665771484,-0.0631427967486282,-0.40191695369573105,-0.06301869768649337,-0.4787153756866853
-0.6307043433189392,1.1635524034500122,-98.19945526123047,-0.0631427967486282,-0.40191695369573105,-0.06301869768649337,-0.4787153756866853
0.8571124076843262,2.309785842895508,-98.5635757446289,-0.0631427967486282,-0.40191695369573105,-0.06301869768649337,-0.4787153756866853
1.4619905948638916,2.2685904502868652,-99.07588958740234,-0.0631427967486282,-0.40191695369573105,-0.06301869768649337,-0.4787153756866853
-0.31868308782577515,1.2754416465759277,-99.83084869384766,-0.0631427967486282,-0.40191695369573105,-0.06301869768649337,-0.4787153756866853
-0.34458842873573303,2.7059974670410156,-100.80667877197266,-0.0631427967486282,-0.40191695369573105,-0.06301869768649337,-0.4787153756866853
0.22000928223133087,2.113558053970337,-101.99954986572266,-0.0631427967486282,-0.40191695369573105,-0.06301869768649337,-0.4787153756866853
-0.27815836668014526,1.240875244140625,-103.42935180664062,-0.0631427967486282,-0.40191695369573105,-0.06301869768649337,-0.4787153756866853
-0.15255720913410187,1.3835452795028687,-104.92100524902344,-0.0631427967486282,-0.40191695369573105,-0.06301869768649337,-0.4787153756866853
0.673883318901062,2.092744827270508,-106.45940399169922,-0.0631427967486282,-0.40191695369573105,-0.06301869768649337,-0.4787153756866853
-0.5429474711418152,1.460269808769226,-108.08370208740234,-0.0631427967486282,-0.40191695369573105,-0.06301869768649337,-0.4787153756866853
0.8792675137519836,2.3817355632781982,-109.83920288085938,-0.0631427967486282,-0.40191695369573105,-0.06301869768649337,-0.4787153756866853
-0.4928014278411865,1.0379159450531006,-111.62037658691406,-0.0631427967486282,-0.40191695369573105,-0.06301869768649337,-0.4787153756866853
0.5295999050140381,0.5276942849159241,-113.47187805175781,-0.0631427967486282,-0.40191695369573105,-0.06301869768649337,-0.4787153756866853
-0.3486247956752777,1.0612469911575317,-115.37125396728516,-0.0631427967486282,-0.40191695369573105,-0.06301869768649337,-0.4787153756866853
0.36387813091278076,1.505486011505127,-117.33332061767578,-0.0631427967486282,-0.40191695369573105,-0.06301869768649337,-0.4787153756866853
-1.28139328956604,1.3456639051437378,-119.3205795288086,-0.0631427967486282,-0.40191695369573105,-0.06301869768649337,-0.4787153756866853
1.2115944623947144,1.2664904594421387,-121.38187408447266,-0.0631427967486282,-0.40191695369573105,-0.06301869768649337,-0.4787153756866853
0.2618376910686493,1.307712435722351,-123.47325134277344,-0.0631427967486282,-0.40191695369573105,-0.06301869768649337,-0.4787153756866853
0.24184979498386383,0.9689284563064575,-125.5252456665039,-0.0631427967486282,-0.40191695369573105,-0.06301869768649337,-0.4787153756866853
-0.16184793412685394,0.8304382562637329,-127.62162017822266,-0.0631427967486282,-0.40191695369573105,-0.06301869768649337,-0.4787153756866853
-0.8657160401344299,0.9730257391929626,-129.7543487548828,-0.0631427967486282,-0.40191695369573105,-0.06301869768649337,-0.4787153756866853
0.48769721388816833,0.5601512789726257,-131.91339111328125,-0.0631427967486282,-0.40191695369573105,-0.06301869768649337,-0.4787153756866853
0.06629641354084015,1.3411223888397217,-134.02874755859375,-0.0631427967486282,-0.40191695369573105,-0.06301869768649337,-0.4787153756866853
0.5556976199150085,1.2832791805267334,-136.25936889648438,-0.0631427967486282,-0.40191695369573105,-0.06301869768649337,-0.4787153756866853
-0.5962398648262024,0.8309047818183899,-138.4267578125,-0.0631427967486282,-0.40191695369573105,-0.06301869768649337,-0.4787153756866853
-0.0007207460002973676,0.8876512050628662,-140.58871459960938,-0.0631427967486282,-0.40191695369573105,-0.06301869768649337,-0.4787153756866853
0.8983888030052185,0.25295668840408325,-142.709716796875,-0.0631427967486282,-0.40191695369573105,-0.06301869768649337,-0.4787153756866853
0.039108484983444214,0.2540796399116516,-144.9113311767578,-0.0631427967486282,-0.40191695369573105,-0.06301869768649337,-0.4787153756866853
0.8392016291618347,1.5588234663009644,-147.05039978027344,-0.0631427967486282,-0.40191695369573105,-0.06301869768649337,-0.4787153756866853
0.25021249055862427,-0.2914681136608124,-149.04180908203125,-0.0631427967486282,-0.40191695369573105,-0.06301869768649337,-0.4787153756866853
0.4044884443283081,0.5856870412826538,-151.0534210205078,-0.0631427967486282,-0.40191695369573105,-0.06301869768649337,-0.4787153756866853
-0.2946135997772217,0.27017492055892944,-153.08470153808594,-0.0631427967486282,-0.40191695369573105,-0.06301869768649337,-0.4787153756866853
0.16511625051498413,-0.19048437476158142,-155.2203826904297,-0.0631427967486282,-0.40191695369573105,-0.06301869768649337,-0.4787153756866853
0.5783816576004028,0.3749210834503174,-157.4216766357422,-0.0631427967486282,-0.40191695369573105,-0.06301869768649337,-0.4787153756866853
0.7905373573303223,0.36648476123809814,-159.668701171875,-0.0631427967486282,-0.40191695369573105,-0.06301869768649337,-0.4787153756866853
-0.5346550941467285,1.26958429813385,-161.95298767089844,-0.0631427967486282,-0.40191695369573105,-0.06301869768649337,-0.4787153756866853
0.04253370687365532,-0.39165520668029785,-164.3074951171875,-0.0631427967486282,-0.40191695369573105,-0.06301869768649337,-0.4787153756866853
1.2999496459960938,-0.2530018091201782,-166.60049438476562,-0.0631427967486282,-0.40191695369573105,-0.06301869768649337,-0.4787153756866853
1.0511305332183838,0.5304270386695862,-168.93881225585938,-0.0631427967486282,-0.40191695369573105,-0.06301869768649337,-0.4787153756866853
0.007876142859458923,0.54290372133255,-171.18455505371094,-0.0631427967486282,-0.40191695369573105,-0.06301869768649337,-0.4787153756866853
0.8992702960968018,-1.41390061378479,-173.44139099121094,-0.0631427967486282,-0.40191695369573105,-0.06301869768649337,-0.4787153756866853
0.0009210896678268909,0.3462332785129547,-175.71018981933594,-0.0631427967486282,-0.40191695369573105,-0.06301869768649337,-0.4787153756866853
0.2017558068037033,-0.00284652691334486,-177.83750915527344,-0.0631427967486282,-0.40191695369573105,-0.06301869768649337,-0.4787153756866853
0.19412770867347717,-0.4573683440685272,-179.90049743652344,-0.0631427967486282,-0.40191695369573105,-0.06301869768649337,-0.4787153756866853
0.1139422133564949,1.0265613794326782,177.97723388671875,-0.0631427967486282,-0.40191695369573105,-0.06301869768649337,-0.4787153756866853
-0.09642788767814636,0.3233499526977539,175.80479431152344,-0.0631427967486282,-0.40191695369573105,-0.06301869768649337,-0.4787153756866853
1.3831045627593994,0.1534738540649414,173.63636779785156,-0.0631427967486282,-0.40191695369573105,-0.06301869768649337,-0.4787153756866853
1.0068063735961914,-0.41551339626312256,171.4066619873047,-0.0631427967486282,-0.40191695369573105,-0.06301869768649337,-0.4787153756866853
-0.46944889426231384,0.4069540202617645,169.10494995117188,-0.0631427967486282,-0.40191695369573105,-0.06301869768649337,-0.4787153756866853
0.5807468295097351,-0.3340052664279938,166.8988494873047,-0.0631427967486282,-0.40191695369573105,-0.06301869768649337,-0.4787153756866853
-0.13743269443511963,-1.3451693058013916,164.987548828125,-0.0631427967486282,-0.40191695369573105,-0.06301869768649337,-0.4787153756866853
-0.4404829442501068,-0.8417797684669495,163.4528045654297,-0.0631427967486282,-0.40191695369573105,-0.06301869768649337,-0.4787153756866853
-1.2805794477462769,-1.4149640798568726,162.40480041503906,-0.0631427967486282,-0.40191695369573105,-0.06301869768649337,-0.4787153756866853
-1.1016535758972168,-1.1847690343856812,161.89402770996094,-0.0631427967486282,-0.40191695369573105,-0.06301869768649337,-0.4787153756866853
-0.9335381388664246,-0.8063840866088867,161.78094482421875,-0.0631427967486282,-0.40191695369573105,-0.06301869768649337,-0.4787153756866853
-0.8785344362258911,0.3721846342086792,161.79193115234375,-0.0631427967486282,-0.40191695369573105,-0.06301869768649337,-0.4787153756866853
-0.6461474299430847,0.7061908841133118,161.80703735351562,-0.0631427967486282,-0.40191695369573105,-0.06301869768649337,-0.4787153756866853
-0.36202436685562134,0.11282812803983688,161.8023223876953,-0.0631427967486282,-0.40191695369573105,-0.06301869768649337,-0.4787153756866853
0.057641491293907166,0.31187716126441956,161.8119659423828,-0.0631427967486282,-0.40191695369573105,-0.06301869768649337,-0.4787153756866853
0.2052505761384964,0.027228644117712975,161.80551147460938,-0.0631427967486282,-0.40191695369573105,-0.06301869768649337,-0.4787153756866853
0.25008535385131836,0.20605508983135223,161.8065185546875,-0.0631427967486282,-0.40191695369573105,-0.06301869768649337,-0.4787153756866853
0.0559394434094429,0.12976403534412384,161.8098907470703,-0.0631427967486282,-0.40191695369573105,-0.06301869768649337,-0.4787153756866853
-0.10320375114679337,0.2628149390220642,161.812255859375,-0.0631427967486282,-0.40191695369573105,-0.06301869768649337,-0.4787153756866853
-0.02586827054619789,0.19163097441196442,161.81243896484375,-0.0631427967486282,-0.40191695369573105,-0.06301869768649337,-0.4787153756866853
0.09361562132835388,0.1666966676712036,161.81369018554688,-0.0631427967486282,-0.40191695369573105,-0.06301869768649337,-0.4787153756866853
0.13736391067504883,0.13997186720371246,161.8125,-0.0631427967486282,-0.40191695369573105,-0.06301869768649337,-0.4787153756866853
0.025651080533862114,0.21578939259052277,161.81448364257812,-0.0631427967486282,-0.40191695369573105,-0.06301869768649337,-0.4787153756866853
-0.015907470136880875,0.17967940866947174,161.81509399414062,-0.0631427967486282,-0.40191695369573105,-0.06301869768649337,-0.4787153756866853
0.03914618492126465,0.1989736258983612,161.81556701660156,-0.0631427967486282,-0.40191695369573105,-0.06301869768649337,-0.4787153756866853
0.07089199125766754,0.15456189215183258,161.8153533935547,-0.0631427967486282,-0.40191695369573105,-0.06301869768649337,-0.4787153756866853
0.06676788628101349,0.1716906875371933,161.81520080566406,-0.0631427967486282,-0.40191695369573105,-0.06301869768649337,-0.4787153756866853
0.01805456541478634,0.18847425282001495,161.81570434570312,-0.0631427967486282,-0.40191695369573105,-0.06301869768649337,-0.4787153756866853
0.021906180307269096,0.19054903090000153,161.81448364257812,-0.0631427967486282,-0.40191695369573105,-0.06301869768649337,-0.4787153756866853
0.057168807834386826,0.17321385443210602,161.8157958984375,-0.0631427967486282,-0.40191695369573105,-0.06301869768649337,-0.4787153756866853
0.06470319628715515,0.174724280834198,161.8147430419922,-0.0631427967486282,-0.40191695369573105,-0.06301869768649337,-0.4787153756866853
0.015110435895621777,0.19330920279026031,161.81497192382812,-0.0631427967486282,-0.40191695369573105,-0.06301869768649337,-0.4787153756866853
0,0.17625795304775238,161.8157501220703,-0.06419205904091034,-0.40986987890468707,-0.0628927773873632,-0.4756356493880352
-0.1662779301404953,0.251933217048645,161.81011962890625,-0.06525181907584837,-0.4177674042298976,-0.06427842680520066,-0.4720673896372319
-0.8293207883834839,0.48030078411102295,161.80935668945312,-0.06639226498916588,-0.4255843444737709,-0.07257508279290048,-0.465965439627568
-1.8918417692184448,0.8603792786598206,161.89739990234375,-0.06779081932443658,-0.4332573323520935,-0.09525143743958323,-0.4547931057711443
-3.238243579864502,1.0799691677093506,162.01206970214844,-0.06973459920878261,-0.4407024710283925,-0.1380021486819411,-0.43862353538473453
-2.738670587539673,0.7354046702384949,162.11920166015625,-0.07244969850399581,-0.4478867956571695,-0.18780976674364255,-0.4234954200685025
-0.69928377866745,0.3759293258190155,162.20838928222656,-0.07581860811404313,-0.45486787668636275,-0.21645938646203525,-0.4142343034346899
-0.7047984004020691,1.3693768978118896,162.18670654296875,-0.07952377026195688,-0.4616505799225221,-0.22816007128761456,-0.39969008490443236
-1.4498541355133057,0.5095754265785217,162.2579803466797,-0.0834760667650779,-0.4681815985372911,-0.24611550908690935,-0.3840321488678456
-1.6976674795150757,-0.36690446734428406,162.27890014648438,-0.08779656980645892,-0.4745722266462528,-0.2723448558788125,-0.3828432242075603
-1.26607084274292,1.7639429569244385,162.31961059570312,-0.09254146589904037,-0.48085593048793573,-0.2970426752309625,-0.3712012367943923
-1.3603771924972534,-0.20700106024742126,162.35316467285156,-0.09767456937755921,-0.48693449680279527,-0.31892974219129727,-0.3582267209887505
-0.24667029082775116,0.9624630212783813,162.3019561767578,-0.10310166560042285,-0.4928524795164251,-0.33232180455233895,-0.35193120464682587
-0.3116014897823334,0.9758704304695129,162.29360961914062,-0.10867913121661531,-0.49858339310416744,-0.3369740693907563,-0.3357784258822601
-0.6557201147079468,0.5215098857879639,162.35885620117188,-0.11436254081788418,-0.5040757154580205,-0.3450350827615086,-0.32330025658011446
-0.5479748845100403,0.8511260747909546,162.34109497070312,-0.12019671546107724,-0.5093687311259822,-0.35506587442165854,-0.3118616235752901
-1.9408049583435059,-0.5583434700965881,162.346435546875,-0.12628731196830303,-0.5145460927269111,-0.3758057064454381,-0.3094217685361704
0.5236179232597351,0.6810353994369507,162.3636932373047,-0.13264915617538559,-0.5196946019296431,-0.3876155984044695,-0.3083993357916674
-1.2721706628799438,-0.42507457733154297,162.45986938476562,-0.1391613989779337,-0.5248168158024136,-0.3938535379013046,-0.306266328940789
-1.7631410360336304,0.5601394176483154,162.73240661621094,-0.1459364101442689,-0.5299118751152936,-0.4191478020589177,-0.30514078860481586
-0.16422106325626373,0.5412699580192566,162.976806640625,-0.15305605143547932,-0.5349210681631748,-0.4352091528863335,-0.29596237714091944
0.25936633348464966,-0.7268048524856567,163.11776733398438,-0.16030293000648568,-0.5398666588165281,-0.4344162756344303,-0.29750850126147277
-0.0812702402472496,0.6087204813957214,163.203857421875,-0.16753083348280692,-0.5448333341411006,-0.43293214152411863,-0.2984925376872222
-1.162490725517273,0.37278100848197937,163.2012176513672,-0.17483274146416478,-0.549740049943535,-0.443296816238823,-0.29031335860490803
-0.2555568814277649,0,163.14186096191406,-0.1823194972630719,-0.55455271835025,-0.45511387963003164,-0.28720685020089154
-0.9381555318832397,1.4243121147155762,163.05047607421875,-0.18998762528560792,-0.5592405886234096,-0.46506148307429,-0.27533758257826174
-0.16745097935199738,0.9370101094245911,163.04925537109375,-0.19781542823345966,-0.5636655676230377,-0.474274870667917,-0.25565989737709366
0.506704568862915,0.5954284071922302,163.15492248535156,-0.2056964501342089,-0.5678201465712241,-0.4714477574219927,-0.24288957640528683
-0.09947182238101959,-0.29286709427833557,163.2218475341797,-0.21352563270606975,-0.5718472949756932,-0.4680541512013102,-0.24036823213100436
-0.8343082070350647,-1.082499384880066,163.1162872314453,-0.22139138106146772,-0.5759489437389292,-0.47583565144644424,-0.25182961945732435
0.3800828456878662,0.942491352558136,162.99249267578125,-0.2293535186801131,-0.5801558268432403,-0.47962086279100424,-0.2529963530600071
-0.8553080558776855,0.07780870795249939,163.01353454589844,-0.23738020147733746,-0.584301578556705,-0.4835810728759194,-0.24449385255575182
1.137452483177185,0.5984784364700317,163.03623962402344,-0.24542029266226253,-0.5883295117142715,-0.4812298693150902,-0.23885812635223072
-0.21600885689258575,0.4406740665435791,162.93798828125,-0.2533768013434665,-0.5922383171185438,-0.4735511724293852,-0.23019852216045064
0,1.129988670349121,162.89102172851562,-0.26128432149901826,-0.5959658853533782,-0.47535124623682345,-0.21710966601967813
-0.052031226456165314,0.39272603392601013,163.0172576904297,-0.269210455549247,-0.5994786357103538,-0.47578483979062486,-0.20442037681738537
-1.4095357656478882,-1.36737060546875,163.09669494628906,-0.27724170058687575,-0.6029533256414451,-0.4879645647248253,-0.21254241491357487
1.3743196725845337,0.2330981343984604,163.04554748535156,-0.2853768888943078,-0.6065744681449401,-0.4882580321670199,-0.2219946855058273
-0.9264082312583923,0.5130279660224915,163.021240234375,-0.29348341780255494,-0.610222565257508,-0.4845254368226354,-0.21577696800231935
-0.9941800236701965,0,162.9815673828125,-0.3016922159339689,-0.6137832211154617,-0.5005303389470402,-0.21150173495213193
0.11373242735862732,0.4212483763694763,162.9857177734375,-0.31009553044394117,-0.6172789966718605,-0.5078674022496367,-0.20799133181571963
0.4709130823612213,0.5926504135131836,162.92398071289062,-0.31851938676548236,-0.6206751092306029,-0.5029953563353046,-0.19954217523336412
1.5336161851882935,1.6790046691894531,162.79644775390625,-0.3267634392830465,-0.6238430583259713,-0.48629094577239196,-0.18061171621084215
-2.0963878631591797,-0.7954930663108826,162.82640075683594,-0.3349073697457788,-0.6267918986237299,-0.4909807097554827,-0.1732491195201874
0.46642836928367615,0.20619559288024902,162.96649169921875,-0.343203573206556,-0.6297203073847212,-0.5045637055377785,-0.178159931798776
-1.363343596458435,-0.6755005717277527,163.2478485107422,-0.3516752540785172,-0.6327222302048985,-0.5120379990975682,-0.18207080662250522
-0.4127710163593292,0.15474608540534973,163.46701049804688,-0.3603325620227001,-0.6357929071546015,-0.5268389542043829,-0.1864104273418586
1.0735831260681152,-0.9318684935569763,163.64024353027344,-0.3690673215295989,-0.6389537144441986,-0.5213321866234764,-0.1928864474097888
-0.15490934252738953,0,163.6503448486328,-0.3776923945161332,-0.6422332016575254,-0.513676571760637,-0.20065201818943026
0.6597537994384766,0.09995152056217194,163.55357360839844,-0.38621861206930275,-0.6455704608828657,-0.5094695346197112,-0.19981908885141217
-0.5017513036727905,0.6783605813980103,163.45529174804688,-0.38621861206930275,-0.6455704608828657,-0.5094695346197112,-0.19981908885141217
-0.6837524771690369,0.5852457880973816,163.506591796875,-0.38621861206930275,-0.6455704608828657,-0.5094695346197112,-0.19981908885141217
1.2917076349258423,1.1800204515457153,163.5984344482422,-0.38621861206930275,-0.6455704608828657,-0.5094695346197112,-0.19981908885141217
2.0441670417785645,-1.0079892873764038,163.5467529296875,-0.38621861206930275,-0.6455704608828657,-0.5094695346197112,-0.19981908885141217
3.5097012519836426,-2.115324020385742,162.9609375,-0.38621861206930275,-0.6455704608828657,-0.5094695346197112,-0.19981908885141217
2.1253771781921387,0.7622271180152893,162.11276245117188,-0.38621861206930275,-0.6455704608828657,-0.5094695346197112,-0.19981908885141217
2.026001453399658,0.8782588839530945,161.1522979736328,-0.38621861206930275,-0.6455704608828657,-0.5094695346197112,-0.19981908885141217
2.706604480743408,-1.3773877620697021,159.9769287109375,-0.38621861206930275,-0.6455704608828657,-0.5094695346197112,-0.19981908885141217
0.3596573770046234,0.5744513273239136,158.58212280273438,-0.38621861206930275,-0.6455704608828657,-0.5094695346197112,-0.19981908885141217
3.2474608421325684,-0.2705386281013489,157.05084228515625,-0.38621861206930275,-0.6455704608828657,-0.5094695346197112,-0.19981908885141217
1.806772232055664,0.4329042434692383,155.37896728515625,-0.38621861206930275,-0.6455704608828657,-0.5094695346197112,-0.19981908885141217
0.9073370099067688,-0.8633549809455872,153.59439086914062,-0.38621861206930275,-0.6455704608828657,-0.5094695346197112,-0.19981908885141217
1.6516635417938232,0.06769870966672897,151.78717041015625,-0.38621861206930275,-0.6455704608828657,-0.5094695346197112,-0.19981908885141217
0.3482980728149414,-0.5742080211639404,149.9669647216797,-0.38621861206930275,-0.6455704608828657,-0.5094695346197112,-0.19981908885141217
0.9662191271781921,0.18459506332874298,148.06396484375,-0.38621861206930275,-0.6455704608828657,-0.5094695346197112,-0.19981908885141217
1.4568310976028442,0.23805014789104462,146.2001495361328,-0.38621861206930275,-0.6455704608828657,-0.5094695346197112,-0.19981908885141217
1.237230896949768,0.21517060697078705,144.352294921875,-0.38621861206930275,-0.6455704608828657,-0.5094695346197112,-0.19981908885141217
1.378462553024292,0.7831255793571472,142.58497619628906,-0.38621861206930275,-0.6455704608828657,-0.5094695346197112,-0.19981908885141217
0.622343897819519,-0.7274606227874756,140.84075927734375,-0.38621861206930275,-0.6455704608828657,-0.5094695346197112,-0.19981908885141217
0.806630551815033,0.252107709646225,139.1016387939453,-0.38621861206930275,-0.6455704608828657,-0.5094695346197112,-0.19981908885141217
0.13906742632389069,-0.015075047500431538,137.3575439453125,-0.38621861206930275,-0.6455704608828657,-0.5094695346197112,-0.19981908885141217
-0.6654631495475769,-2.5620687007904053,135.67123413085938,-0.38621861206930275,-0.6455704608828657,-0.5094695346197112,-0.19981908885141217
0.7471224069595337,-0.6256668567657471,134.08555603027344,-0.38621861206930275,-0.6455704608828657,-0.5094695346197112,-0.19981908885141217
0.10116522014141083,1.1990132331848145,132.642333984375,-0.38621861206930275,-0.6455704608828657,-0.5094695346197112,-0.19981908885141217
1.1846758127212524,1.7186106443405151,131.35572814941406,-0.38621861206930275,-0.6455704608828657,-0.5094695346197112,-0.19981908885141217
-0.13112160563468933,-1.81199312210083,130.1136474609375,-0.38621861206930275,-0.6455704608828657,-0.5094695346197112,-0.19981908885141217
0.13954560458660126,-2.0185418128967285,128.90577697753906,-0.38621861206930275,-0.6455704608828657,-0.5094695346197112,-0.19981908885141217
1.1981323957443237,0.2820599675178528,127.57758331298828,-0.38621861206930275,-0.6455704608828657,-0.5094695346197112,-0.19981908885141217
0.9936694502830505,0.4204005300998688,126.38306427001953,-0.38621861206930275,-0.6455704608828657,-0.5094695346197112,-0.19981908885141217
-0.8386751413345337,-1.567975401878357,125.0899429321289,-0.38621861206930275,-0.6455704608828657,-0.5094695346197112,-0.19981908885141217
0.5365614295005798,1.128955364227295,123.76969909667969,-0.38621861206930275,-0.6455704608828657,-0.5094695346197112,-0.19981908885141217
1.505189061164856,0.36327046155929565,122.3836441040039,-0.38621861206930275,-0.6455704608828657,-0.5094695346197112,-0.19981908885141217
0.278597354888916,-0.9406555891036987,121.0105972290039,-0.38621861206930275,-0.6455704608828657,-0.5094695346197112,-0.19981908885141217
0.3318297863006592,-0.3626437783241272,119.49015808105469,-0.38621861206930275,-0.6455704608828657,-0.5094695346197112,-0.19981908885141217
1.329467535018921,1.3605326414108276,117.90533447265625,-0.38621861206930275,-0.6455704608828657,-0.5094695346197112,-0.19981908885141217
1.3367762565612793,-0.5427820086479187,116.21858978271484,-0.38621861206930275,-0.6455704608828657,-0.5094695346197112,-0.19981908885141217
1.1637464761734009,1.2787470817565918,114.33821868896484,-0.38621861206930275,-0.6455704608828657,-0.5094695346197112,-0.19981908885141217
-0.4989030957221985,1.5854977369308472,112.45879364013672,-0.38621861206930275,-0.6455704608828657,-0.5094695346197112,-0.19981908885141217
0.09275176376104355,-2.0121712684631348,110.47948455810547,-0.38621861206930275,-0.6455704608828657,-0.5094695346197112,-0.19981908885141217
1.4154099225997925,0.9042246341705322,108.4931640625,-0.38621861206930275,-0.6455704608828657,-0.5094695346197112,-0.19981908885141217
0.681477963924408,0.2547813653945923,106.34851837158203,-0.38621861206930275,-0.6455704608828657,-0.5094695346197112,-0.19981908885141217
0.8641172051429749,0.5425499677658081,104.16011047363281,-0.38621861206930275,-0.6455704608828657,-0.5094695346197112,-0.19981908885141217
-0.43877527117729187,-1.5610690116882324,101.94371795654297,-0.38621861206930275,-0.6455704608828657,-0.5094695346197112,-0.19981908885141217
2.1042165756225586,2.0221288204193115,99.80290222167969,-0.38621861206930275,-0.6455704608828657,-0.5094695346197112,-0.19981908885141217
-0.7862178087234497,-0.5035369992256165,97.60995483398438,-0.38621861206930275,-0.6455704608828657,-0.5094695346197112,-0.19981908885141217
0.5498650670051575,-1.1644326448440552,95.29342651367188,-0.38621861206930275,-0.6455704608828657,-0.5094695346197112,-0.19981908885141217
1.0661998987197876,1.131818175315857,92.96176147460938,-0.38621861206930275,-0.6455704608828657,-0.5094695346197112,-0.19981908885141217
0.12704087793827057,-0.3598532974720001,90.60697174072266,-0.38621861206930275,-0.6455704608828657,-0.5094695346197112,-0.19981908885141217
-0.511718213558197,-0.9133457541465759,88.25540161132812,-0.38621861206930275,-0.6455704608828657,-0.5094695346197112,-0.19981908885141217
0.06731525808572769,0.42207103967666626,85.83193969726562,-0.38621861206930275,-0.6455704608828657,-0.5094695346197112,-0.19981908885141217
-0.7037468552589417,-0.4588163495063782,83.43656158447266,-0.38621861206930275,-0.6455704608828657,-0.5094695346197112,-0.19981908885141217
0.3623255789279938,0.2907450497150421,81.48207092285156,-0.38621861206930275,-0.6455704608828657,-0.5094695346197112,-0.19981908885141217
-1.8044910430908203,0.35176897048950195,79.88268280029297,-0.38621861206930275,-0.6455704608828657,-0.5094695346197112,-0.19981908885141217
-2.2635254859924316,0.46554890275001526,78.60093688964844,-0.38621861206930275,-0.6455704608828657,-0.5094695346197112,-0.19981908885141217
-0.13184191286563873,0.8393070697784424,77.8039321899414,-0.38621861206930275,-0.6455704608828657,-0.5094695346197112,-0.19981908885141217
-1.1470338106155396,0.48315274715423584,77.44844818115234,-0.38621861206930275,-0.6455704608828657,-0.5094695346197112,-0.19981908885141217
-1.0575661659240723,0.4088420271873474,77.40031433105469,-0.38621861206930275,-0.6455704608828657,-0.5094695346197112,-0.19981908885141217
1.0276552438735962,0.18477383255958557,77.50189971923828,-0.38621861206930275,-0.6455704608828657,-0.5094695346197112,-0.19981908885141217
-0.1131260022521019,1.1066967248916626,77.47373962402344,-0.38621861206930275,-0.6455704608828657,-0.5094695346197112,-0.19981908885141217
0.6509532928466797,0.5865985751152039,77.45813751220703,-0.38621861206930275,-0.6455704608828657,-0.5094695346197112,-0.19981908885141217
0.17330077290534973,0.3469288647174835,77.48255157470703,-0.38621861206930275,-0.6455704608828657,-0.5094695346197112,-0.19981908885141217
0.05235074460506439,-0.06363068521022797,77.47613525390625,-0.38621861206930275,-0.6455704608828657,-0.5094695346197112,-0.19981908885141217
0.2612544000148773,-0.2135223150253296,77.47237396240234,-0.38621861206930275,-0.6455704608828657,-0.5094695346197112,-0.19981908885141217
0.07293537259101868,-0.22580944001674652,77.48584747314453,-0.38621861206930275,-0.6455704608828657,-0.5094695346197112,-0.19981908885141217
0.15788376331329346,0.009537175297737122,77.4724349975586,-0.38621861206930275,-0.6455704608828657,-0.5094695346197112,-0.19981908885141217
0.24551084637641907,0.11017639189958572,77.47413635253906,-0.38621861206930275,-0.6455704608828657,-0.5094695346197112,-0.19981908885141217
0.1813003420829773,0.3321879804134369,77.47354125976562,-0.38621861206930275,-0.6455704608828657,-0.5094695346197112,-0.19981908885141217
0.2563566267490387,0.31370577216148376,77.47065734863281,-0.38621861206930275,-0.6455704608828657,-0.5094695346197112,-0.19981908885141217
0.1902717500925064,0.1563597321510315,77.47574615478516,-0.38621861206930275,-0.6455704608828657,-0.5094695346197112,-0.19981908885141217
0.1633971929550171,0.012096500024199486,77.47639465332031,-0.38621861206930275,-0.6455704608828657,-0.5094695346197112,-0.19981908885141217
0.19509108364582062,-0.02616182155907154,77.47339630126953,-0.38621861206930275,-0.6455704608828657,-0.5094695346197112,-0.19981908885141217
0.16398905217647552,0.0800064355134964,77.4738998413086,-0.38621861206930275,-0.6455704608828657,-0.5094695346197112,-0.19981908885141217
0.1911076009273529,0.1522378921508789,77.47041320800781,-0.38621861206930275,-0.6455704608828657,-0.5094695346197112,-0.19981908885141217
0.20599882304668427,0.18366366624832153,77.4720230102539,-0.38621861206930275,-0.6455704608828657,-0.5094695346197112,-0.19981908885141217
0.1833348572254181,0.12540794909000397,77.47358703613281,-0.38621861206930275,-0.6455704608828657,-0.5094695346197112,-0.19981908885141217
0.1736040562391281,0.07257623225450516,77.47310638427734,-0.38621861206930275,-0.6455704608828657,-0.5094695346197112,-0.19981908885141217
0.18137982487678528,0.056809552013874054,77.47335815429688,-0.38621861206930275,-0.6455704608828657,-0.5094695346197112,-0.19981908885141217
0.18486981093883514,0.1043311059474945,77.47244262695312,-0.38621861206930275,-0.6455704608828657,-0.5094695346197112,-0.19981908885141217
0.199030339717865,0.13264885544776917,77.4719009399414,-0.39468311124694677,-0.6488843220886257,-0.5062703666975721,-0.19784425583978496
0.1262749582529068,0.5090360045433044,77.4731216430664,-0.4030983600462139,-0.6521371649040116,-0.5035594892144823,-0.192496882006526
0.5647522211074829,1.6148240566253662,77.5392837524414,-0.4114430302012219,-0.6551979559887615,-0.4978009293864791,-0.17479804816345376
-0.36697039008140564,2.4909911155700684,77.71834564208984,-0.41972597750828644,-0.6578261307378611,-0.49615274746126176,-0.1405829217284918
0.18591415882110596,1.2599560022354126,77.90531921386719,-0.4280077633153672,-0.6599086969945995,-0.49766154938843093,-0.1093250290801128
1.3948243856430054,0.5401015281677246,78.08740997314453,-0.43619234896180886,-0.6616057768174345,-0.48448872818456334,-0.09432454966008666
0.8491394519805908,2.1573264598846436,78.29332733154297,-0.44411133027616106,-0.6629905312570434,-0.46578902953770007,-0.0718459830929836
0.5244222283363342,2.091860294342041,78.38685607910156,-0.4517790945406563,-0.6638928818951052,-0.4543426822017257,-0.03643609347442789
0.13499261438846588,1.954003930091858,78.43177795410156,-0.45930567987994025,-0.6642191873263156,-0.44884755851235236,-0.002720558270812065
0.615805447101593,1.2689883708953857,78.55860137939453,-0.46673433376754264,-0.6640407110543717,-0.4425909079999352,0.024137710904081632
0.8048868775367737,0.6668300032615662,78.60888671875,-0.4740121897116639,-0.6635039840410983,-0.4307518052946155,0.040269530688722896
0.6439783573150635,1.2072843313217163,78.46578216552734,-0.481090770825265,-0.6627026783674957,-0.4186779283375168,0.055887150143583586
0.37685626745224,1.5186020135879517,78.51172637939453,-0.48799784500417037,-0.6615819282022617,-0.4101709731311226,0.07860286968449748
0.27331671118736267,0.9157775044441223,78.51936340332031,-0.4947888769883947,-0.66010282624099,-0.4047528649757926,0.0988893656680981
0.5819040536880493,0,78.43411254882812,-0.5014753677404304,-0.6583910744864909,-0.3976260252684975,0.10652084487179912
0.546969473361969,2.352299213409424,78.3938980102539,-0.5080240741666381,-0.6564523729599187,-0.38821874587641403,0.12612333831687766
0.7622491717338562,1.1199133396148682,78.5440673828125,-0.5144034686364467,-0.6541091914495663,-0.3773085905006155,0.15505844292541343
0,0.6167255640029907,78.73729705810547,-0.520639011174531,-0.6514042841436136,-0.37095651406950003,0.1695304337888956
0,1.855762004852295,78.79964447021484,-0.5268216197423561,-0.6484070763881837,-0.37095651406950003,0.19013449686268963
0.5360511541366577,-0.4276813566684723,78.87052917480469,-0.5329670025355883,-0.645138995839904,-0.3664894211183612,0.20203516893088816
0,0.28183555603027344,78.91220092773438,-0.5390379337796348,-0.6417818712049891,-0.36202232816722235,0.20081978725890318
-0.29724591970443726,1.450798511505127,78.98523712158203,-0.5450922813268457,-0.6383145529404285,-0.36449937749809264,0.21525840448836484
-0.21812207996845245,1.2551602125167847,79.01445007324219,-0.5512030603962357,-0.6345389990653432,-0.36879411082870006,0.23780806052188078
1.405616044998169,-0.3482751250267029,79.10189056396484,-0.5572671640513647,-0.6305125532589028,-0.35889832778678576,0.2453654362509648
0.7256049513816833,0,79.03302764892578,-0.5631008013897292,-0.626447315093958,-0.34113815281695364,0.24246314354240894
-0.27783113718032837,-0.20487168431282043,78.94667053222656,-0.5687553418662478,-0.622420489901884,-0.3374067043652757,0.24075587950646876
-0.38328471779823303,1.7315226793289185,78.93938446044922,-0.5744246977622648,-0.6183018744799001,-0.34291600315676374,0.2534779711316029
0.42959776520729065,-0.7859959602355957,78.9901351928711,-0.5801367482976963,-0.6140115800499919,-0.3425300610950216,0.2613573604573806
0.953436553478241,0.5929156541824341,79.1536636352539,-0.5857495385993713,-0.6096690323969559,-0.3310047751059755,0.2597483579069376
-0.5151901841163635,1.0120216608047485,79.36246490478516,-0.5912358510754874,-0.6052284391182995,-0.32735272202795984,0.2731228355318308
0.6914220452308655,0.9467716217041016,79.41331481933594,-0.5966794914522648,-0.6005403645481503,-0.325884123185339,0.28944611288607125
0.6942870616912842,0.23853617906570435,79.40522766113281,-0.602014663706262,-0.5956339496249956,-0.3143365472943211,0.2993236778924863
-0.3687385320663452,1.63473641872406,79.35404968261719,-0.6072309986243878,-0.5905151332852743,-0.3116236428807799,0.31493428287406766
0.37199199199676514,-0.6800870299339294,79.24480438232422,-0.6124245000710167,-0.5851999334742627,-0.3115965307146931,0.32288969444731874
0.5745178461074829,-0.36752185225486755,79.09424591064453,-0.6175520457330599,-0.579891189183626,-0.30370894873049104,0.31415962042907875
-0.6459847688674927,-0.22133585810661316,79.01744079589844,-0.6226188245259819,-0.5746960884063609,-0.30430450642015777,0.30925247284273305
0.9814788103103638,0.5969851613044739,79.04448699951172,-0.6276672681023289,-0.5695157937684822,-0.30150872274146717,0.3123828837027152
0,1.1042506694793701,79.1898422241211,-0.6326242552306374,-0.5641912709962992,-0.29332973265554746,0.3265598489592473
-0.95701003074646,1.491924524307251,79.30816650390625,-0.6375795431381428,-0.5585683169029654,-0.3013048162451013,0.34819464224080243
1.5933637619018555,-0.8939924240112305,79.24398803710938,-0.642557098844231,-0.5527235498030981,-0.296001868485473,0.3531774097432693
0.9733295440673828,0.11957018077373505,79.25770568847656,-0.6473122207282965,-0.5468910389631574,-0.274612757602396,0.3467238910496235
-0.320873498916626,-0.6633477210998535,79.24159240722656,-0.6518437905740899,-0.541150069774853,-0.26917562389280636,0.34219241154690583
-0.6342357993125916,0.612722635269165,79.23284149169922,-0.6563963780069026,-0.5354503785466984,-0.2771348680447165,0.34177053583165007
0.11069981753826141,-0.5345545411109924,79.2289047241211,-0.6610516491397156,-0.5297487746096321,-0.2814976678928359,0.3424219366163015
0.7463127970695496,1.4053783416748047,79.33375549316406,-0.6656837621730262,-0.5239812684576546,-0.2743558961044375,0.3496788016209999
0.22094868123531342,0,79.51979064941406,-0.67018918950544,-0.5180556927124661,-0.2662953837852303,0.3613902878016233
-0.3960602283477783,0.2698837220668793,79.58384704589844,-0.6746396064259655,-0.5120137793239622,-0.2677546466778342,0.3636393188188473
-0.10458970069885254,0.17952372133731842,79.59839630126953,-0.6791369512267799,-0.5059219151600783,-0.2719267294198895,0.36738438084721564
0.22322897613048553,0.706141471862793,79.6480941772461,-0.6836608245452064,-0.4997373376186525,-0.27093806879129256,0.37476492412388324
0.20018161833286285,-0.9816189408302307,79.73878479003906,-0.6881470555115569,-0.4935103859297105,-0.26740964717076465,0.37246927854915457
-0.49254897236824036,-0.05715933069586754,79.75579833984375,-0.6926241862528776,-0.487374702000525,-0.26984604178772614,0.36381279295310376
0.3028719425201416,0,79.7813949584961,-0.6971347922986347,-0.48131512484927164,-0.27142668370312695,0.36333646519730484
1.0489037036895752,-0.5600395798683167,79.81685638427734,-0.701564697051589,-0.47529840873347406,-0.2601618866513793,0.3586694686984022
0.6216686367988586,0.6193176507949829,79.96562957763672,-0.7057847165276891,-0.4693164677224641,-0.24624045048064236,0.3591634526227911
-0.3053554892539978,0.5820536017417908,80.18119049072266,-0.7098667578448982,-0.46324698161954697,-0.2436045075844352,0.3691748797272642
-0.12973178923130035,0.9597879648208618,80.28323364257812,-0.7139570473656447,-0.4569869946264146,-0.247230234905146,0.38202355944861965
0.13600492477416992,0.1824357807636261,80.21897888183594,-0.7180771156463177,-0.4505406142088276,-0.2471779587756221,0.3915420906618237
0,0,80.12437438964844,-0.7221873035061355,-0.44400224354635526,-0.246044584402504,0.39306238883485395
1.0452744960784912,0.09223917126655579,80.04631042480469,-0.7262154580728384,-0.4374447982344364,-0.2373339636018499,0.3938310485954086
-0.5136730074882507,-1.238740086555481,79.98986053466797,-0.7301341073628282,-0.4309605655436302,-0.23290395119693125,0.38427687430133417
-0.3962215483188629,0.38150840997695923,80.03401947021484,-0.7301341073628282,-0.4309605655436302,-0.23290395119693125,0.38427687430133417
0.1688513457775116,1.3019009828567505,80.0966796875,-0.7301341073628282,-0.4309605655436302,-0.23290395119693125,0.38427687430133417
0.7014335989952087,0.8046175837516785,80.14239501953125,-0.7301341073628282,-0.4309605655436302,-0.23290395119693125,0.38427687430133417
0.8110120296478271,-2.2520241737365723,79.93318939208984,-0.7301341073628282,-0.4309605655436302,-0.23290395119693125,0.38427687430133417
-1.3732459545135498,-2.6791317462921143,79.45874786376953,-0.7301341073628282,-0.4309605655436302,-0.23290395119693125,0.38427687430133417
-1.0708166360855103,-3.7022056579589844,78.78208923339844,-0.7301341073628282,-0.4309605655436302,-0.23290395119693125,0.38427687430133417
0.12941411137580872,-1.7848398685455322,77.81180572509766,-0.7301341073628282,-0.4309605655436302,-0.23290395119693125,0.38427687430133417
-0.029123878106474876,-2.6129214763641357,76.56993103027344,-0.7301341073628282,-0.4309605655436302,-0.23290395119693125,0.38427687430133417
-0.13459846377372742,-0.7724776268005371,75.1613540649414,-0.7301341073628282,-0.4309605655436302,-0.23290395119693125,0.38427687430133417
1.0945022106170654,-0.8087678551673889,73.69062805175781,-0.7301341073628282,-0.4309605655436302,-0.23290395119693125,0.38427687430133417
0.3757713735103607,-2.5656578540802,72.15619659423828,-0.7301341073628282,-0.4309605655436302,-0.23290395119693125,0.38427687430133417
0.5533865690231323,-0.9019893407821655,70.489013671875,-0.7301341073628282,-0.4309605655436302,-0.23290395119693125,0.38427687430133417
0.571231484413147,-1.7572288513183594,68.83399200439453,-0.7301341073628282,-0.4309605655436302,-0.23290395119693125,0.38427687430133417
0.24057693779468536,-0.42103853821754456,67.243408203125,-0.7301341073628282,-0.4309605655436302,-0.23290395119693125,0.38427687430133417
0.09354015439748764,-1.0480483770370483,65.69207000732422,-0.7301341073628282,-0.4309605655436302,-0.23290395119693125,0.38427687430133417
0.5536155700683594,-0.6875664591789246,64.18647766113281,-0.7301341073628282,-0.4309605655436302,-0.23290395119693125,0.38427687430133417
0.9743062853813171,-0.8353489637374878,62.6308479309082,-0.7301341073628282,-0.4309605655436302,-0.23290395119693125,0.38427687430133417
0.3460465371608734,-1.62248694896698,61.10438919067383,-0.7301341073628282,-0.4309605655436302,-0.23290395119693125,0.38427687430133417
-0.03144393488764763,-0.7655749917030334,59.485321044921875,-0.7301341073628282,-0.4309605655436302,-0.23290395119693125,0.38427687430133417
0.24949334561824799,-0.6508519053459167,57.83341979980469,-0.7301341073628282,-0.4309605655436302,-0.23290395119693125,0.38427687430133417
-0.5793861150741577,-0.7047921419143677,56.140506744384766,-0.7301341073628282,-0.4309605655436302,-0.23290395119693125,0.38427687430133417
-0.5453083515167236,-0.48747962713241577,54.33378601074219,-0.7301341073628282,-0.4309605655436302,-0.23290395119693125,0.38427687430133417
0.6624190807342529,-1.8733776807785034,52.66950225830078,-0.7301341073628282,-0.4309605655436302,-0.23290395119693125,0.38427687430133417
-0.5861120223999023,-0.4784080684185028,51.01602554321289,-0.7301341073628282,-0.4309605655436302,-0.23290395119693125,0.38427687430133417
0.5306547284126282,-0.028795165941119194,49.54559326171875,-0.7301341073628282,-0.4309605655436302,-0.23290395119693125,0.38427687430133417
-0.6716408133506775,-0.08866611123085022,48.056602478027344,-0.7301341073628282,-0.4309605655436302,-0.23290395119693125,0.38427687430133417
1.7847115993499756,-0.8286643028259277,46.64216232299805,-0.7301341073628282,-0.4309605655436302,-0.23290395119693125,0.38427687430133417
-0.5994495153427124,-0.3607318699359894,45.173057556152344,-0.7301341073628282,-0.4309605655436302,-0.23290395119693125,0.38427687430133417
0.3180500566959381,-0.7014341354370117,43.65559768676758,-0.7301341073628282,-0.4309605655436302,-0.23290395119693125,0.38427687430133417
-0.1685890257358551,-0.6695244908332825,42.05558395385742,-0.7301341073628282,-0.4309605655436302,-0.23290395119693125,0.38427687430133417
-1.1353894472122192,-1.0119023323059082,40.52632522583008,-0.7301341073628282,-0.4309605655436302,-0.23290395119693125,0.38427687430133417
1.0519450902938843,0.009254079312086105,39.065311431884766,-0.7301341073628282,-0.4309605655436302,-0.23290395119693125,0.38427687430133417
-0.1986537128686905,-0.6813663244247437,37.611839294433594,-0.7301341073628282,-0.4309605655436302,-0.23290395119693125,0.38427687430133417
-0.4450986683368683,0.2593628168106079,36.13797378540039,-0.7301341073628282,-0.4309605655436302,-0.23290395119693125,0.38427687430133417
-0.9153929352760315,0.6153282523155212,34.540828704833984,-0.7301341073628282,-0.4309605655436302,-0.23290395119693125,0.38427687430133417
0.6790404319763184,-1.1646164655685425,33.073673248291016,-0.7301341073628282,-0.4309605655436302,-0.23290395119693125,0.38427687430133417
-0.042968347668647766,-0.9122285842895508,31.710416793823242,-0.7301341073628282,-0.4309605655436302,-0.23290395119693125,0.38427687430133417
-0.012823217548429966,0.4418390095233917,30.413223266601562,-0.7301341073628282,-0.4309605655436302,-0.23290395119693125,0.38427687430133417
-1.0712053775787354,1.4259625673294067,29.128475189208984,-0.7301341073628282,-0.4309605655436302,-0.23290395119693125,0.38427687430133417
0.09610807150602341,0.25754326581954956,27.854351043701172,-0.7301341073628282,-0.4309605655436302,-0.23290395119693125,0.38427687430133417
0.9250778555870056,-0.898413360118866,26.585819244384766,-0.7301341073628282,-0.4309605655436302,-0.23290395119693125,0.38427687430133417
0.8891690969467163,-0.8574739098548889,25.237648010253906,-0.7301341073628282,-0.4309605655436302,-0.23290395119693125,0.38427687430133417
0.8735893368721008,-0.4415340721607208,23.839338302612305,-0.7301341073628282,-0.4309605655436302,-0.23290395119693125,0.38427687430133417
-2.693761110305786,0.7499561309814453,22.253055572509766,-0.7301341073628282,-0.4309605655436302,-0.23290395119693125,0.38427687430133417
0.6200365424156189,-0.7470247745513916,20.543323516845703,-0.7301341073628282,-0.4309605655436302,-0.23290395119693125,0.38427687430133417
-0.7651363611221313,0.6074522137641907,18.827993392944336,-0.7301341073628282,-0.4309605655436302,-0.23290395119693125,0.38427687430133417
2.2752811908721924,-1.2986359596252441,17.005525588989258,-0.7301341073628282,-0.4309605655436302,-0.23290395119693125,0.38427687430133417
-2.8907017707824707,0.8436223268508911,15.028536796569824,-0.7301341073628282,-0.4309605655436302,-0.23290395119693125,0.38427687430133417
0.07738719880580902,-1.5200716257095337,13.02665901184082,-0.7301341073628282,-0.4309605655436302,-0.23290395119693125,0.38427687430133417
0.8325204849243164,-0.08737307041883469,10.871536254882812,-0.7301341073628282,-0.4309605655436302,-0.23290395119693125,0.38427687430133417
-0.9091413021087646,-0.325340211391449,8.587233543395996,-0.7301341073628282,-0.4309605655436302,-0.23290395119693125,0.38427687430133417
0.14296682178974152,-0.5193080902099609,6.179571628570557,-0.7301341073628282,-0.4309605655436302,-0.23290395119693125,0.38427687430133417
0.8387958407402039,-0.6792638301849365,3.774451732635498,-0.7301341073628282,-0.4309605655436302,-0.23290395119693125,0.38427687430133417
-0.8653730750083923,-0.4861505627632141,1.2963234186172485,-0.7301341073628282,-0.4309605655436302,-0.23290395119693125,0.38427687430133417
-0.1162334680557251,0.4249349534511566,-1.159758448600769,-0.7301341073628282,-0.4309605655436302,-0.23290395119693125,0.38427687430133417
-1.5780141353607178,0.24180445075035095,-3.4708473682403564,-0.7301341073628282,-0.4309605655436302,-0.23290395119693125,0.38427687430133417
0.7580402493476868,0.08797173202037811,-5.391602039337158,-0.7301341073628282,-0.4309605655436302,-0.23290395119693125,0.38427687430133417
-0.5653057098388672,2.14485502243042,-6.897960186004639,-0.7301341073628282,-0.4309605655436302,-0.23290395119693125,0.38427687430133417
1.0270628929138184,1.2952263355255127,-8.015830993652344,-0.7301341073628282,-0.4309605655436302,-0.23290395119693125,0.38427687430133417
-0.3846985101699829,2.533916711807251,-8.390893936157227,-0.7301341073628282,-0.4309605655436302,-0.23290395119693125,0.38427687430133417
1.3539998531341553,1.1073145866394043,-8.224947929382324,-0.7301341073628282,-0.4309605655436302,-0.23290395119693125,0.38427687430133417
1.9549133777618408,0.7217839360237122,-7.806441783905029,-0.7301341073628282,-0.4309605655436302,-0.23290395119693125,0.38427687430133417
1.5471359491348267,-3.2517004013061523,-7.806039810180664,-0.7301341073628282,-0.4309605655436302,-0.23290395119693125,0.38427687430133417
0.7214270234107971,0.31825685501098633,-7.878584861755371,-0.7301341073628282,-0.4309605655436302,-0.23290395119693125,0.38427687430133417
0.20245711505413055,0.5599722266197205,-7.772205352783203,-0.7301341073628282,-0.4309605655436302,-0.23290395119693125,0.38427687430133417
-0.47840383648872375,-1.0018349885940552,-7.792819976806641,-0.7301341073628282,-0.4309605655436302,-0.23290395119693125,0.38427687430133417
-0.03085661306977272,0.7744437456130981,-7.816065788269043,-0.7301341073628282,-0.4309605655436302,-0.23290395119693125,0.38427687430133417
-0.36047592759132385,-0.5850141048431396,-7.797259330749512,-0.7301341073628282,-0.4309605655436302,-0.23290395119693125,0.38427687430133417
0.09318221360445023,0.2952439486980438,-7.796986103057861,-0.7301341073628282,-0.4309605655436302,-0.23290395119693125,0.38427687430133417
0.10151725262403488,-0.25216829776763916,-7.8020806312561035,-0.7301341073628282,-0.4309605655436302,-0.23290395119693125,0.38427687430133417
0.2604202330112457,-0.08707129955291748,-7.794135570526123,-0.7301341073628282,-0.4309605655436302,-0.23290395119693125,0.38427687430133417
0.176657035946846,-0.10791131108999252,-7.794691562652588,-0.7301341073628282,-0.4309605655436302,-0.23290395119693125,0.38427687430133417
0.21407173573970795,-0.15628045797348022,-7.795137882232666,-0.7301341073628282,-0.4309605655436302,-0.23290395119693125,0.38427687430133417
0.11434651166200638,-0.09754106402397156,-7.791425704956055,-0.7301341073628282,-0.4309605655436302,-0.23290395119693125,0.38427687430133417
0.06463919579982758,-0.09806857258081436,-7.793123722076416,-0.7301341073628282,-0.4309605655436302,-0.23290395119693125,0.38427687430133417
0.08307059109210968,-0.11855212599039078,-7.794279098510742,-0.7301341073628282,-0.4309605655436302,-0.23290395119693125,0.38427687430133417
0.09988011419773102,-0.08869132399559021,-7.793664932250977,-0.7301341073628282,-0.4309605655436302,-0.23290395119693125,0.38427687430133417
0.13780464231967926,-0.11556751281023026,-7.794600963592529,-0.7301341073628282,-0.4309605655436302,-0.23290395119693125,0.38427687430133417
0.1668005883693695,-0.12445908039808273,-7.793027400970459,-0.7301341073628282,-0.4309605655436302,-0.23290395119693125,0.38427687430133417
0.13214512169361115,-0.11245749145746231,-7.793562889099121,-0.7301341073628282,-0.4309605655436302,-0.23290395119693125,0.38427687430133417
0.09005170315504074,-0.10698219388723373,-7.793275833129883,-0.7301341073628282,-0.4309605655436302,-0.23290395119693125,0.38427687430133417
0.10255125910043716,-0.09733961522579193,-7.793676376342773,-0.7301341073628282,-0.4309605655436302,-0.23290395119693125,0.38427687430133417
0.12271304428577423,-0.09556995332241058,-7.792621612548828,-0.7340001965283752,-0.42456934746975716,-0.2310267486687128,0.38266929456343246
0.14343035221099854,-0.09177138656377792,-7.79246711730957,-0.7378321601592082,-0.4182045357089698,-0.2288088870312397,0.38110811673104755
1.1839311122894287,-0.5151705145835876,-7.779463291168213,-0.7415534637302497,-0.41189488250658757,-0.21774754149373612,0.3760502675548195
3.0546512603759766,-0.7411494851112366,-7.836861610412598,-0.7448882434237102,-0.4057146224917638,-0.18242602172152442,0.3655809342240293
3.3448076248168945,0.7276294231414795,-7.706338405609131,-0.7474842702520417,-0.3996225458145557,-0.1290971976782505,0.36546826704094804
2.1068837642669678,0.23005512356758118,-7.528658866882324,-0.7492573005335483,-0.3934649021592407,-0.08366643610255166,0.37344897159685686
0.7173791527748108,-2.0337345600128174,-7.393479347229004,-0.7504556117660185,-0.3873660081490462,-0.06013091179387017,0.3584183096264799
1.0095545053482056,0.18056611716747284,-7.270569324493408,-0.7513378676807689,-0.3815210619082469,-0.04573979797617837,0.34297523926943535
2.1080162525177,0,-7.308632850646973,-0.7518836996777424,-0.3757922686067308,-0.019760041660629158,0.3444799569124976
1.0214804410934448,-1.1362462043762207,-7.298964023590088,-0.751995707546141,-0.3701298419779375,0.006319097452797049,0.33501123854269577
1.2345815896987915,0.687204897403717,-7.306023597717285,-0.7517337182809004,-0.36457750475965456,0.025119614376065684,0.3312692276512582
0.6987627744674683,0.14516034722328186,-7.361905097961426,-0.75118079801601,-0.35899854782347895,0.041230817410784514,0.33820560468981653
1.8719099760055542,-0.8390578627586365,-7.381646156311035,-0.7503150987848252,-0.3534099750727831,0.06265309033139303,0.33242312539368857
0.06157740578055382,-0.6281253695487976,-7.412690162658691,-0.7491366106555668,-0.34797147737402073,0.0787654851796106,0.3201965984577933
2.1500608921051025,-0.9592962861061096,-7.311645984649658,-0.7476702665763313,-0.34274510501470024,0.09719580432865774,0.30696808466066905
0.36631831526756287,0.5503057837486267,-7.053581714630127,-0.7458755879481195,-0.337657372388575,0.11816563105676328,0.3035598304743567
1.8329473733901978,0.8502662181854248,-6.929803848266602,-0.7437534339799056,-0.33250077993609034,0.1364928451289113,0.3152312638238071
0.06454692035913467,-1.010769248008728,-6.861785888671875,-0.7413467827906911,-0.3272580715827646,0.1523052975768224,0.3138937385752796
0.27068063616752625,-0.33069437742233276,-6.808300971984863,-0.7387850814729853,-0.3221196664693871,0.15509886054787791,0.30271487503002076
0.5042057633399963,0.11669914424419403,-6.8116679191589355,-0.7361462889083327,-0.3170892793323019,0.1615562472104406,0.30093158142020293
0.633188784122467,-0.6780967116355896,-6.802770614624023,-0.733374699055696,-0.3121127389174785,0.17103453510596112,0.296253268358608
0.9232267737388611,-0.06494856625795364,-6.84099817276001,-0.7304160390568563,-0.3072267848113554,0.1840046647548055,0.2900612243761618
1.1659799814224243,0.35470443964004517,-6.750741481781006,-0.7272042108418344,-0.3023723091361012,0.20141472104781621,0.2924758566543459
-0.7605330944061279,-0.8334425687789917,-6.619384288787842,-0.7238191427905503,-0.29753095722860784,0.20479344510628536,0.2884863722448547
1.8547049760818481,0.30805742740631104,-6.542468547821045,-0.7203299345469958,-0.2927593361037889,0.2139115441202497,0.28410816273341566
0.6206871271133423,-0.12283042818307877,-6.580139636993408,-0.7165928399156031,-0.2880113370721748,0.2345398116468763,0.2856517210602759
0.13992416858673096,-0.6824315786361694,-6.594559192657471,-0.7126310228259537,-0.2833063960271993,0.24087823911104356,0.2789412043367822
0.5655432939529419,-0.07049558311700821,-6.547957420349121,-0.7085673947114266,-0.2787096625633747,0.2467571346322075,0.2726668113221724
0.1294437199831009,0.05005738139152527,-6.5444440841674805,-0.704406512813811,-0.27416663502756944,0.25254869308167455,0.27249649297446005
-0.29920080304145813,0,-6.568902492523193,-0.7002091566154399,-0.2696215506042874,0.2511340507228549,0.27291363781938943
0.4322664439678192,0.14392751455307007,-6.640793323516846,-0.6960143484338835,-0.26506299500767583,0.2522429310639079,0.27411303377399837
1.0059157609939575,-0.20790565013885498,-6.688298225402832,-0.691710425818585,-0.2604988873708582,0.2642277827719227,0.2735798826441168
1.4813369512557983,-0.4586929976940155,-6.653294086456299,-0.6871339035562578,-0.25598551423288907,0.2849548887073373,0.2680248939121762
0,-0.2300712913274765,-6.703444480895996,-0.6822817847895205,-0.2515662635210904,0.29729936330113566,0.26228519150366375
-0.2166081964969635,-0.719869077205658,-6.735270977020264,-0.677341837637036,-0.24726081174384415,0.2954942949969943,0.2543690217658876
0,-0.6311343312263489,-6.70105504989624,-0.6724319749562873,-0.24311514772888715,0.29368922669285297,0.2431106600289542
0.31575897336006165,0.7547625303268433,-6.596732139587402,-0.667515226804923,-0.23905471810346704,0.29632055147085345,0.24414089502145833
-0.6095889806747437,0,-6.5476579666137695,-0.6625969558086946,-0.2349332891218367,0.29387196807656446,0.250430582774182
2.492180109024048,1.3888139724731445,-6.582113742828369,-0.6575683541790609,-0.23066300066084525,0.3095602274794753,0.26200403254479154
-0.21586689352989197,-1.971864104270935,-6.651025295257568,-0.6522509397477715,-0.22633675637758469,0.32852950427525995,0.25714528144647664
-0.5212799310684204,0.40447044372558594,-6.732953071594238,-0.6468266387615587,-0.2221598484687924,0.322386614070274,0.24408366760859873
-0.4039122760295868,0.8834373950958252,-6.810776710510254,-0.6415177779858804,-0.2180023492976198,0.31467667901112395,0.2548162329321105
0.16836130619049072,-0.7156387567520142,-6.849571704864502,-0.6362895243752672,-0.2137437593988663,0.31271375426246484,0.2562145549183089
0.7747216820716858,-1.7523914575576782,-6.686853885650635,-0.631012136596708,-0.20964490780399933,0.32057277916464966,0.23564763646572814
0.34909096360206604,0.644081175327301,-6.545111179351807,-0.6255912143991254,-0.20579441318805874,0.32993788454526424,0.22641171744714167
-0.9620197415351868,0.4047573506832123,-6.59547758102417,-0.6201348141551719,-0.201948048555189,0.3248301447291549,0.23515203849722927
0.8253329992294312,0.365969717502594,-6.5969414710998535,-0.6147304705445683,-0.19797532520050004,0.3236910885432736,0.24157476406544431
-0.3459237217903137,-0.25484493374824524,-6.529421806335449,-0.6093023267579138,-0.1939413621338708,0.3276861658552663,0.24250080393006387
0.41251522302627563,-0.26132485270500183,-6.47680139541626,-0.603836266250518,-0.189935527192429,0.32824109503223264,0.23819938904295349
0.28818997740745544,-0.22655391693115234,-6.39269495010376,-0.5983169212499507,-0.18599941784516008,0.33408030503584707,0.23413373262931886
1.0009765625,-0.1798008382320404,-6.459567546844482,-0.5926593907118597,-0.18212540804822444,0.34482335953507587,0.2307474430029589
-0.06441807001829147,-0.42646610736846924,-6.584651947021484,-0.5868472959354083,-0.1783217192027307,0.35262801363909013,0.22569521845628798
0.6492525935173035,-0.6485945582389832,-6.594369411468506,-0.5809295488661804,-0.17463478921912642,0.3575016346682486,0.21673637957622588
-0.31413543224334717,0.544090986251831,-6.496724605560303,-0.5749479162632878,-0.17102977341868844,0.3602942776788649,0.21586551647633295
0,0,-6.476113319396973,-0.5689648265958791,-0.16739423071448206,0.35767648241017036,0.22039960802843153
0.40701207518577576,-0.4095357060432434,-6.510993003845215,-0.5629752871615995,-0.16374934389359455,0.36106824970338514,0.21698681047807117
0.45980802178382874,0.2401825189590454,-6.542084693908691,-0.5568972871598091,-0.16014465769028532,0.3682917505114652,0.2155755339190362
0.7288782596588135,-0.4442421793937683,-6.534000873565674,-0.5506765436595179,-0.15656590293472047,0.3781974695234872,0.21387503674874683
-0.7332852482795715,0.3515118658542633,-6.51351261138916,-0.5443735585416696,-0.15300775859401494,0.3781607446183142,0.2131022841359176
-0.3197939991950989,-0.3829166293144226,-6.468947887420654,-0.5381440099679945,-0.14945823474476772,0.36938508422269195,0.21284057777374962
-0.06961505115032196,-0.1898777037858963,-6.419788837432861,-0.5320146341927792,-0.14595066916611496,0.3661400088031468,0.2080672916645803
-0.22282521426677704,-0.5120684504508972,-6.3706231117248535,-0.5259326090644918,-0.14253162723241616,0.36370300659133764,0.20221774037927367
0.2517767548561096,1.0828688144683838,-6.335320472717285,-0.5198688817643174,-0.1391216926452604,0.3639442694295821,0.20697441007941939
1.0878689289093018,-0.3439931869506836,-6.332917213439941,-0.5137101129902296,-0.13562080833647022,0.3751079834609605,0.2131317069754002
-0.37436139583587646,0.12712635099887848,-6.341225624084473,-0.507408764131639,-0.13208367341715466,0.3810538795699057,0.2113244833424685
-0.7830765843391418,-0.24223993718624115,-6.322051525115967,-0.5011382437763194,-0.12856959269382098,0.3714085630684472,0.2103652034575738
0.4501877427101135,-0.3688303530216217,-6.3380632400512695,-0.4949712183391807,-0.12510594140634806,0.3686344893882053,0.20527295103917495
0.3271719813346863,-1.260354995727539,-6.294487476348877,-0.4887733268685408,-0.12179786342713607,0.37511248708857864,0.1916964064662653
-0.09222396463155746,1.2254012823104858,-6.21746826171875,-0.4825051362492379,-0.1186053506605745,0.37707038722777136,0.19140512552112318
0.33428066968917847,-0.6028822064399719,-6.2452802658081055,-0.47620382030203495,-0.11537203474384254,0.3790875264365849,0.1965927844867108
0.278910368680954,-0.29573240876197815,-6.283699989318848,-0.47620382030203495,-0.11537203474384254,0.3790875264365849,0.1965927844867108
-0.6641807556152344,0.6709316372871399,-6.254019737243652,-0.47620382030203495,-0.11537203474384254,0.3790875264365849,0.1965927844867108
-0.16394689679145813,-0.14775320887565613,-6.11992073059082,-0.47620382030203495,-0.11537203474384254,0.3790875264365849,0.1965927844867108
-3.5539567470550537,-0.8172699809074402,-6.333946704864502,-0.47620382030203495,-0.11537203474384254,0.3790875264365849,0.1965927844867108
-1.8806668519973755,1.0214351415634155,-7.098557949066162,-0.47620382030203495,-0.11537203474384254,0.3790875264365849,0.1965927844867108
-2.220257520675659,0.2407151758670807,-8.159451484680176,-0.47620382030203495,-0.11537203474384254,0.3790875264365849,0.1965927844867108
-2.85369610786438,-1.0952116250991821,-9.461970329284668,-0.47620382030203495,-0.11537203474384254,0.3790875264365849,0.1965927844867108
-2.2669663429260254,0.8328065276145935,-10.81531047821045,-0.47620382030203495,-0.11537203474384254,0.3790875264365849,0.1965927844867108
-1.0371284484863281,-0.01907617598772049,-12.261884689331055,-0.47620382030203495,-0.11537203474384254,0.3790875264365849,0.1965927844867108
-1.3369446992874146,-0.2852475643157959,-13.832063674926758,-0.47620382030203495,-0.11537203474384254,0.3790875264365849,0.1965927844867108
-0.3320360779762268,-0.9916495084762573,-15.449955940246582,-0.47620382030203495,-0.11537203474384254,0.3790875264365849,0.1965927844867108
-1.900817632675171,1.201180338859558,-17.151643753051758,-0.47620382030203495,-0.11537203474384254,0.3790875264365849,0.1965927844867108
-1.675324559211731,-0.520455539226532,-18.97633171081543,-0.47620382030203495,-0.11537203474384254,0.3790875264365849,0.1965927844867108
-1.321250557899475,0.019424017518758774,-20.905054092407227,-0.47620382030203495,-0.11537203474384254,0.3790875264365849,0.1965927844867108
-1.2272676229476929,0.4494275748729706,-22.856494903564453,-0.47620382030203495,-0.11537203474384254,0.3790875264365849,0.1965927844867108
-0.9029268622398376,-0.17024651169776917,-24.859447479248047,-0.47620382030203495,-0.11537203474384254,0.3790875264365849,0.1965927844867108
0.06404770165681839,-1.6882200241088867,-26.775896072387695,-0.47620382030203495,-0.11537203474384254,0.3790875264365849,0.1965927844867108
-2.2027955055236816,0.08367985486984253,-28.77931022644043,-0.47620382030203495,-0.11537203474384254,0.3790875264365849,0.1965927844867108
-0.17807573080062866,-0.4893290400505066,-30.875194549560547,-0.47620382030203495,-0.11537203474384254,0.3790875264365849,0.1965927844867108
-1.6614840030670166,0.5150399804115295,-33.04100036621094,-0.47620382030203495,-0.11537203474384254,0.3790875264365849,0.1965927844867108
-0.7568626999855042,-2.2537593841552734,-35.17314910888672,-0.47620382030203495,-0.11537203474384254,0.3790875264365849,0.1965927844867108
-0.8362903594970703,1.868903636932373,-37.335140228271484,-0.47620382030203495,-0.11537203474384254,0.3790875264365849,0.1965927844867108
-2.3941843509674072,-0.16192834079265594,-39.51974868774414,-0.47620382030203495,-0.11537203474384254,0.3790875264365849,0.1965927844867108
-0.008322878740727901,-0.7209084630012512,-41.543067932128906,-0.47620382030203495,-0.11537203474384254,0.3790875264365849,0.1965927844867108
-0.7754286527633667,0.00738690048456192,-43.68672561645508,-0.47620382030203495,-0.11537203474384254,0.3790875264365849,0.1965927844867108
-1.4096736907958984,-0.11583519726991653,-45.85585021972656,-0.47620382030203495,-0.11537203474384254,0.3790875264365849,0.1965927844867108
0.1137906163930893,0.5544290542602539,-48.102500915527344,-0.47620382030203495,-0.11537203474384254,0.3790875264365849,0.1965927844867108
-0.6808656454086304,0.31424039602279663,-50.344825744628906,-0.47620382030203495,-0.11537203474384254,0.3790875264365849,0.1965927844867108
-0.7742404937744141,0.5691695809364319,-52.72453308105469,-0.47620382030203495,-0.11537203474384254,0.3790875264365849,0.1965927844867108
-0.9900790452957153,-0.10721024125814438,-55.1347770690918,-0.47620382030203495,-0.11537203474384254,0.3790875264365849,0.1965927844867108
-0.5282615423202515,-0.21783779561519623,-57.57312774658203,-0.47620382030203495,-0.11537203474384254,0.3790875264365849,0.1965927844867108
0.003789007430896163,-0.5665651559829712,-60.01431655883789,-0.47620382030203495,-0.11537203474384254,0.3790875264365849,0.1965927844867108
-0.9370664358139038,-0.44831815361976624,-62.50365447998047,-0.47620382030203495,-0.11537203474384254,0.3790875264365849,0.1965927844867108
-0.10985567420721054,0.9553056359291077,-64.99890899658203,-0.47620382030203495,-0.11537203474384254,0.3790875264365849,0.1965927844867108
0.18685996532440186,0.8023176193237305,-67.42875671386719,-0.47620382030203495,-0.11537203474384254,0.3790875264365849,0.1965927844867108
-0.975208580493927,-0.18745297193527222,-69.83316802978516,-0.47620382030203495,-0.11537203474384254,0.3790875264365849,0.1965927844867108
0.25640955567359924,0.09807900339365005,-72.25527954101562,-0.47620382030203495,-0.11537203474384254,0.3790875264365849,0.1965927844867108
0.30597448348999023,0.9887909293174744,-74.72725677490234,-0.47620382030203495,-0.11537203474384254,0.3790875264365849,0.1965927844867108
-0.7734293341636658,-0.8361590504646301,-77.1213150024414,-0.47620382030203495,-0.11537203474384254,0.3790875264365849,0.1965927844867108
0.2833242416381836,1.1842526197433472,-79.52005004882812,-0.47620382030203495,-0.11537203474384254,0.3790875264365849,0.1965927844867108
-0.16691812872886658,-0.5320847034454346,-81.95207977294922,-0.47620382030203495,-0.11537203474384254,0.3790875264365849,0.1965927844867108
0.3559016287326813,0.9762476086616516,-84.45299530029297,-0.47620382030203495,-0.11537203474384254,0.3790875264365849,0.1965927844867108
0.28370335698127747,-0.26468437910079956,-86.69108581542969,-0.47620382030203495,-0.11537203474384254,0.3790875264365849,0.1965927844867108
1.6219685077667236,0.057751256972551346,-88.6374740600586,-0.47620382030203495,-0.11537203474384254,0.3790875264365849,0.1965927844867108
1.593897819519043,0.3504032790660858,-90.18093872070312,-0.47620382030203495,-0.11537203474384254,0.3790875264365849,0.1965927844867108
1.2767800092697144,-0.6013200283050537,-91.2186279296875,-0.47620382030203495,-0.11537203474384254,0.3790875264365849,0.1965927844867108
1.0884933471679688,-1.2768890857696533,-91.92752075195312,-0.47620382030203495,-0.11537203474384254,0.3790875264365849,0.1965927844867108
1.1698404550552368,-0.7473816871643066,-92.30756378173828,-0.47620382030203495,-0.11537203474384254,0.3790875264365849,0.1965927844867108
0.44191452860832214,-0.4861315190792084,-92.36781311035156,-0.47620382030203495,-0.11537203474384254,0.3790875264365849,0.1965927844867108
-0.3691873550415039,-0.3452285826206207,-92.294189453125,-0.47620382030203495,-0.11537203474384254,0.3790875264365849,0.1965927844867108
0.09886990487575531,0.14284026622772217,-92.3862075805664,-0.47620382030203495,-0.11537203474384254,0.3790875264365849,0.1965927844867108
-0.20547762513160706,-0.059459831565618515,-92.476806640625,-0.47620382030203495,-0.11537203474384254,0.3790875264365849,0.1965927844867108
-0.13460394740104675,0.06507420539855957,-92.48517608642578,-0.47620382030203495,-0.11537203474384254,0.3790875264365849,0.1965927844867108
0.07376859337091446,-0.0010459917830303311,-92.53050994873047,-0.47620382030203495,-0.11537203474384254,0.3790875264365849,0.1965927844867108
-0.2543286681175232,-0.1364579051733017,-92.58364868164062,-0.47620382030203495,-0.11537203474384254,0.3790875264365849,0.1965927844867108
-0.04394989088177681,-0.23203007876873016,-92.60064697265625,-0.47620382030203495,-0.11537203474384254,0.3790875264365849,0.1965927844867108
-0.05444849282503128,-0.13639844954013824,-92.64838409423828,-0.47620382030203495,-0.11537203474384254,0.3790875264365849,0.1965927844867108
-0.16014689207077026,-0.10079704225063324,-92.69003295898438,-0.47620382030203495,-0.11537203474384254,0.3790875264365849,0.1965927844867108
-0.058370836079120636,-0.04150104895234108,-92.7129898071289,-0.47620382030203495,-0.11537203474384254,0.3790875264365849,0.1965927844867108
-0.0642579048871994,-0.0600922666490078,-92.75320434570312,-0.47620382030203495,-0.11537203474384254,0.3790875264365849,0.1965927844867108
-0.1279347836971283,-0.1137222871184349,-92.78234100341797,-0.47620382030203495,-0.11537203474384254,0.3790875264365849,0.1965927844867108
-0.07548365741968155,-0.1453179568052292,-92.80970001220703,-0.47620382030203495,-0.11537203474384254,0.3790875264365849,0.1965927844867108
-0.08949494361877441,-0.1159498319029808,-92.8432388305664,-0.47620382030203495,-0.11537203474384254,0.3790875264365849,0.1965927844867108
-0.09701808542013168,-0.07215137034654617,-92.87034606933594,-0.47620382030203495,-0.11537203474384254,0.3790875264365849,0.1965927844867108
-0.08148468285799026,-0.07535714656114578,-92.8959732055664,-0.47620382030203495,-0.11537203474384254,0.3790875264365849,0.1965927844867108
-0.1112954318523407,-0.10173862427473068,-92.92386627197266,-0.47620382030203495,-0.11537203474384254,0.3790875264365849,0.1965927844867108
-0.09842562675476074,-0.1289406269788742,-92.94697570800781,-0.47620382030203495,-0.11537203474384254,0.3790875264365849,0.1965927844867108
-0.0898246169090271,-0.10557454079389572,-92.97232055664062,-0.47620382030203495,-0.11537203474384254,0.3790875264365849,0.1965927844867108
-0.11481072753667831,-0.0847841426730156,-92.99769592285156,-0.47620382030203495,-0.11537203474384254,0.3790875264365849,0.1965927844867108
-0.10019851475954056,-0.09625289589166641,-93.0201644897461,-0.47620382030203495,-0.11537203474384254,0.3790875264365849,0.1965927844867108
-0.09023845195770264,-0.10395623743534088,-93.04685974121094,-0.46989891965078057,-0.1121093917477673,0.3775005517139412,0.19492437504231908
0,-0.16823431849479675,-93.06719207763672,-0.46361351034804527,-0.10887955428566824,0.3767485646142937,0.19265612040956792
-0.1272670477628708,-0.5620461106300354,-93.04327392578125,-0.4573432055939017,-0.105719332864198,0.37568800588293644,0.186570450166861
0,-2.4958412647247314,-92.95256805419922,-0.45109057681861403,-0.10282217865137218,0.3746274471515792,0.16108805537223794
-0.3312333822250366,-3.7751646041870117,-92.76602935791016,-0.44486978835096447,-0.10057286424717597,0.37186716896637056,0.10882967313130676
0,-2.33770751953125,-92.63529205322266,-0.43869500451973503,-0.09918354137024574,0.36910689078116193,0.057889072100321244
-0.11748886108398438,-1.553685188293457,-92.43101501464844,-0.43255138195540205,-0.0984889591066171,0.36812781693879537,0.025460799535115354
-0.7678523659706116,-0.5296838879585266,-92.22139739990234,-0.426477400369412,-0.09820929085577157,0.3607499733800071,0.008099390566348823
0,-1.191781759262085,-92.10262298583984,-0.42051822389404875,-0.09819384723850053,0.3543512036635853,-0.00624615649382294
-0.3575585186481476,-1.070251703262329,-91.99728393554688,-0.4146372009523396,-0.09845503550385067,0.35137154934151743,-0.025096435348193058
0.4087677001953125,-1.189042329788208,-91.98394012451172,-0.4087774522701513,-0.0990302048452824,0.35179829252107714,-0.0439238856236142
-0.7468215823173523,-2.5719423294067383,-92.05008697509766,-0.40293762335883626,-0.10002344909589783,0.3489811768367268,-0.07526542445023875
0.22469770908355713,-0.6795134544372559,-92.07249450683594,-0.39715752901386536,-0.10150366837727987,0.34463014455977853,-0.10236088931560536
-0.6091015338897705,-1.6432256698608398,-91.9620132446289,-0.39144038798125835,-0.10337098452728288,0.3414267793530601,-0.12171704868475616
-0.17656183242797852,-0.36773553490638733,-92.00968170166016,-0.38580450161470164,-0.10553925208902655,0.3348795846337455,-0.13847505872448307
-0.13173995912075043,-1.1874159574508667,-92.10076904296875,-0.3802445850507746,-0.1079551663658483,0.3323104030375061,-0.15143465449412685
-0.3512803316116333,-0.9091101884841919,-92.19277954101562,-0.3747396214092281,-0.11062466936755146,0.3282852339480696,-0.16890570571025235
0.9038902521133423,-0.13169801235198975,-92.28192138671875,-0.36922982515450326,-0.11351204281000261,0.33289031661891716,-0.17757910738388719
-0.9938842058181763,-1.4866671562194824,-92.3621597290039,-0.363687902790973,-0.11658408106977375,0.3321403670047102,-0.19106548378864946
-0.3162786066532135,-1.2368319034576416,-92.34455871582031,-0.35824321353620503,-0.11995763767872882,0.32122234356744866,-0.21376130928595882
0.5315988063812256,-0.18414589762687683,-92.26213836669922,-0.3528745550184331,-0.12361900518079233,0.3230166785651821,-0.22560279096166314
-0.19892758131027222,-0.9653539061546326,-92.21691131591797,-0.3474678415406057,-0.12745887807208264,0.32578893877410675,-0.2351819559931757
0.17293445765972137,0.3826776146888733,-92.18065643310547,-0.3420398309724019,-0.13141904096998736,0.32557232941035213,-0.24003759175539036
0.5177923440933228,-1.4180552959442139,-92.342529296875,-0.3365656583432188,-0.13549156872710882,0.3313283860916275,-0.24866573909918485
-0.973409116268158,-0.4277978241443634,-92.4958267211914,-0.3310751586286482,-0.13976418195654583,0.3275315796568372,-0.26404784843325635
-0.25920674204826355,0,-92.5848617553711,-0.32570189729119514,-0.14419468761266568,0.3172597808375337,-0.26761283030112604
-0.43183356523513794,-0.33454403281211853,-92.58428192138672,-0.32046222318746426,-0.14867813367551863,0.311501111610172,-0.270400697241227
-0.8839006423950195,-0.5717999339103699,-92.49464416503906,-0.3153619084250468,-0.15324775251611703,0.30053665987992073,-0.2779535636305811
0.07109042257070541,-0.974213182926178,-92.4290542602539,-0.31040940924786925,-0.15798767393196259,0.29376324138138477,-0.29083700627088566
0.9865060448646545,0.14305290579795837,-92.37255096435547,-0.3054399110257187,-0.16289267683350014,0.30257654527667943,-0.2977633419136208
0.7193253636360168,-0.4805104434490204,-92.27938842773438,-0.3002785080899615,-0.16787883374995294,0.316791807014185,-0.300575488060713
-0.9944702982902527,-0.3647101819515228,-92.15157318115234,-0.2950177519268538,-0.17294712109439542,0.31449893255873307,-0.3076189932723842
-0.2676061987876892,0,-92.17169952392578,-0.2898637472520609,-0.17809943141157067,0.3039816284164169,-0.31065824478864684
-0.6110405325889587,0,-92.3409423828125,-0.28485840391257733,-0.18327706882471478,0.2966595723216115,-0.31065824478864684
-0.49638041853904724,-0.7351651787757874,-92.38389587402344,-0.2799909819399344,-0.1885057593752739,0.2874310643955448,-0.3167846212784451
1.1284501552581787,-1.2577589750289917,-92.36095428466797,-0.275156570468292,-0.19392390057392886,0.2926983122015375,-0.33339232256015155
0.12598121166229248,0.09989948570728302,-92.22624206542969,-0.2701911519755636,-0.1995608461922454,0.3031519069258748,-0.34304115163783244
-0.08571576327085495,-0.6982098817825317,-92.07154846191406,-0.2651358239817718,-0.2053197480526034,0.30348745232913676,-0.3480270716051262
-0.2982181906700134,0.47119152545928955,-92.01750183105469,-0.260104361856421,-0.2111359644096557,0.30028800271296285,-0.3499188912411532
-0.382165789604187,0.30529364943504333,-91.95653533935547,-0.25514681069872397,-0.2169140233487517,0.29461813621067784,-0.3434481814503671
-1.0388743877410889,-0.6637207269668579,-91.8951187133789,-0.250335191774195,-0.22266305047553087,0.28277613473280055,-0.3464350737631322
1.8590201139450073,-0.8956786394119263,-91.95948791503906,-0.24556530163099527,-0.22854525999424827,0.28961068245116656,-0.3594300684829554
-1.3710951805114746,0.08636670559644699,-92.10606384277344,-0.24070457324754294,-0.23459196335325694,0.29367672356311264,-0.3661743345980844
-1.387387752532959,1.4503862857818604,-92.24344635009766,-0.23600152250295248,-0.24058814997215708,0.2706893657877424,-0.35336805966993184
1.76344895362854,-1.8549095392227173,-92.33382415771484,-0.23146391771196959,-0.24650570952592266,0.2738232091302056,-0.356739086781939
0.1289995312690735,-0.3266085982322693,-92.3950424194336,-0.22676877752612604,-0.25260285528738935,0.289593613171019,-0.3749184045940639
-1.0118080377578735,-0.16185973584651947,-92.38821411132812,-0.222003523452893,-0.2588854167760459,0.28223687561694566,-0.3789889740447205
-0.5515055656433105,0.3110555410385132,-92.29682922363281,-0.21740813897062455,-0.2651915388569862,0.26920926225526914,-0.37774567566812056
1.4513083696365356,-0.4401441812515259,-92.30731201171875,-0.21285883162720387,-0.27149626460702525,0.2767076189552127,-0.37882141433656236
-0.28920379281044006,0.09066406637430191,-92.59874725341797,-0.2081663362712263,-0.27783422429839,0.2863918237620968,-0.3817337486272059
-0.2603934705257416,-0.1901189386844635,-92.81597900390625,-0.20343130568514525,-0.28420336003053165,0.28181184656762864,-0.38256253922979055
-0.9423834681510925,-0.4804931879043579,-92.84685516357422,-0.19881796775198177,-0.2906259726375968,0.27178870541198835,-0.38815097361803075
-1.345365285873413,0.6190159320831299,-92.70038604736328,-0.194447027436367,-0.2970855358962182,0.25272413246178416,-0.38699661741654096
0.44563788175582886,-0.29718130826950073,-92.57624816894531,-0.19029743963173432,-0.3035131298931735,0.24522640409413762,-0.38431466221809407
1.2529850006103516,-0.21120306849479675,-92.4885025024414,-0.18609237297444547,-0.30995367873408375,0.2593815947805225,-0.38855119869112986
-0.3025953769683838,-0.12415387481451035,-92.34603881835938,-0.18170334711535052,-0.3164528207222213,0.2673015083108722,-0.3913458398853741
0.378099650144577,0.49340707063674927,-92.2516860961914,-0.1772430786245321,-0.3229496088039343,0.26793071058734047,-0.38826872992018874
-1.567116618156433,0,-92.29170227050781,-0.17286013740418835,-0.3293864899226988,0.2580222358539083,-0.38415700433154915
-0.08471512794494629,0.29279816150665283,-92.34187316894531,-0.1686744773445469,-0.3357687734558978,0.2442569713030635,-0.381717019652327
0,-1.845542550086975,-92.42188262939453,-0.16460941081782535,-0.34223855325486574,0.2435510119035223,-0.3946565562238297
1.1043105125427246,-1.2644832134246826,-92.29705047607422,-0.1604735390560623,-0.34903213653661785,0.252753599508045,-0.42057343758642685
-0.10002163797616959,0.9267814755439758,-92.09577178955078,-0.15619123678130553,-0.3560651453393,0.2611226734627663,-0.42338761873543274
-0.07573463767766953,0.4904705286026001,-91.92233276367188,-0.15619123678130553,-0.3560651453393,0.2611226734627663,-0.42338761873543274
-0.2831304371356964,0.2872335910797119,-91.83335876464844,-0.15619123678130553,-0.3560651453393,0.2611226734627663,-0.42338761873543274
-0.25839948654174805,-0.0586993508040905,-91.75263214111328,-0.15619123678130553,-0.3560651453393,0.2611226734627663,-0.42338761873543274
-0.34457287192344666,0.6326433420181274,-91.86955261230469,-0.15619123678130553,-0.3560651453393,0.2611226734627663,-0.42338761873543274
0.6320846676826477,3.433868408203125,-92.40105438232422,-0.15619123678130553,-0.3560651453393,0.2611226734627663,-0.42338761873543274
-0.24067869782447815,1.6965266466140747,-93.14691162109375,-0.15619123678130553,-0.3560651453393,0.2611226734627663,-0.42338761873543274
-2.011627674102783,1.100658655166626,-93.87671661376953,-0.15619123678130553,-0.3560651453393,0.2611226734627663,-0.42338761873543274
-0.45122990012168884,2.2590901851654053,-94.70490264892578,-0.15619123678130553,-0.3560651453393,0.2611226734627663,-0.42338761873543274
-1.6960668563842773,1.0352702140808105,-95.6936264038086,-0.15619123678130553,-0.3560651453393,0.2611226734627663,-0.42338761873543274
-0.3698042929172516,0.9513145089149475,-96.90899658203125,-0.15619123678130553,-0.3560651453393,0.2611226734627663,-0.42338761873543274
-0.15777899324893951,3.0683960914611816,-98.25131225585938,-0.15619123678130553,-0.3560651453393,0.2611226734627663,-0.42338761873543274
-0.23810765147209167,0.07967166602611542,-99.64212036132812,-0.15619123678130553,-0.3560651453393,0.2611226734627663,-0.42338761873543274
0.3380158543586731,1.9943095445632935,-101.06653594970703,-0.15619123678130553,-0.3560651453393,0.2611226734627663,-0.42338761873543274
-0.08678640425205231,0.8705819845199585,-102.65888977050781,-0.15619123678130553,-0.3560651453393,0.2611226734627663,-0.42338761873543274
-0.3790035545825958,1.4565738439559937,-104.35030364990234,-0.15619123678130553,-0.3560651453393,0.2611226734627663,-0.42338761873543274
0.014684892259538174,1.3552377223968506,-106.07901763916016,-0.15619123678130553,-0.3560651453393,0.2611226734627663,-0.42338761873543274
-0.30897408723831177,0.8012909889221191,-107.87242126464844,-0.15619123678130553,-0.3560651453393,0.2611226734627663,-0.42338761873543274
0.0766197070479393,0.6674603223800659,-109.75543212890625,-0.15619123678130553,-0.3560651453393,0.2611226734627663,-0.42338761873543274
-0.04462826997041702,0.7692997455596924,-111.61028289794922,-0.15619123678130553,-0.3560651453393,0.2611226734627663,-0.42338761873543274
-0.41699913144111633,1.2845571041107178,-113.4733657836914,-0.15619123678130553,-0.3560651453393,0.2611226734627663,-0.42338761873543274
0.7197755575180054,1.674466848373413,-115.30482482910156,-0.15619123678130553,-0.3560651453393,0.2611226734627663,-0.42338761873543274
-0.4928815960884094,0.9952171444892883,-117.0970687866211,-0.15619123678130553,-0.3560651453393,0.2611226734627663,-0.42338761873543274
0.2218945324420929,0.9125765562057495,-118.94444274902344,-0.15619123678130553,-0.3560651453393,0.2611226734627663,-0.42338761873543274
-1.5323959589004517,-0.06701534241437912,-120.7356185913086,-0.15619123678130553,-0.3560651453393,0.2611226734627663,-0.42338761873543274
0.15574616193771362,0.8857243657112122,-122.57191467285156,-0.15619123678130553,-0.3560651453393,0.2611226734627663,-0.42338761873543274
-1.4825785160064697,1.0044082403182983,-124.33570098876953,-0.15619123678130553,-0.3560651453393,0.2611226734627663,-0.42338761873543274
1.621368408203125,1.2178181409835815,-126.19963073730469,-0.15619123678130553,-0.3560651453393,0.2611226734627663,-0.42338761873543274
-0.8674349784851074,0.3060450851917267,-127.97333526611328,-0.15619123678130553,-0.3560651453393,0.2611226734627663,-0.42338761873543274
0.5716575980186462,0.39682698249816895,-129.79360961914062,-0.15619123678130553,-0.3560651453393,0.2611226734627663,-0.42338761873543274
-1.1419007778167725,0.4246467649936676,-131.5691680908203,-0.15619123678130553,-0.3560651453393,0.2611226734627663,-0.42338761873543274
1.3288013935089111,0.4254748225212097,-133.28536987304688,-0.15619123678130553,-0.3560651453393,0.2611226734627663,-0.42338761873543274
0.22881944477558136,-0.3395808935165405,-134.97479248046875,-0.15619123678130553,-0.3560651453393,0.2611226734627663,-0.42338761873543274
1.0659319162368774,0.9037792086601257,-136.66905212402344,-0.15619123678130553,-0.3560651453393,0.2611226734627663,-0.42338761873543274
-0.5406597256660461,0.08687733113765717,-138.2656707763672,-0.15619123678130553,-0.3560651453393,0.2611226734627663,-0.42338761873543274
1.3387129306793213,0.22008003294467926,-139.82090759277344,-0.15619123678130553,-0.3560651453393,0.2611226734627663,-0.42338761873543274
-0.09401834011077881,0.2880632281303406,-141.3096466064453,-0.15619123678130553,-0.3560651453393,0.2611226734627663,-0.42338761873543274
0.5183082818984985,-0.20082443952560425,-142.6428680419922,-0.15619123678130553,-0.3560651453393,0.2611226734627663,-0.42338761873543274
-0.4520983397960663,0.9922488927841187,-143.89390563964844,-0.15619123678130553,-0.3560651453393,0.2611226734627663,-0.42338761873543274
1.065368413925171,0.4377840459346771,-145.07664489746094,-0.15619123678130553,-0.3560651453393,0.2611226734627663,-0.42338761873543274
1.0604193210601807,-0.2606576681137085,-146.2282257080078,-0.15619123678130553,-0.3560651453393,0.2611226734627663,-0.42338761873543274
-1.2035313844680786,-0.029343824833631516,-147.43881225585938,-0.15619123678130553,-0.3560651453393,0.2611226734627663,-0.42338761873543274
0.3650049865245819,-0.9507126808166504,-148.8898468017578,-0.15619123678130553,-0.3560651453393,0.2611226734627663,-0.42338761873543274
0.3755060136318207,1.098283052444458,-150.18020629882812,-0.15619123678130553,-0.3560651453393,0.2611226734627663,-0.42338761873543274
1.0124528408050537,0.3457184433937073,-151.328369140625,-0.15619123678130553,-0.3560651453393,0.2611226734627663,-0.42338761873543274
1.4276455640792847,-0.6528249382972717,-152.30511474609375,-0.15619123678130553,-0.3560651453393,0.2611226734627663,-0.42338761873543274
1.0703949928283691,-1.3927292823791504,-153.32186889648438,-0.15619123678130553,-0.3560651453393,0.2611226734627663,-0.42338761873543274
-2.5078516006469727,0.8105372190475464,-154.11431884765625,-0.15619123678130553,-0.3560651453393,0.2611226734627663,-0.42338761873543274
2.148400068283081,-0.10361400246620178,-155.01976013183594,-0.15619123678130553,-0.3560651453393,0.2611226734627663,-0.42338761873543274
-0.40626204013824463,0.6401365399360657,-155.8210906982422,-0.15619123678130553,-0.3560651453393,0.2611226734627663,-0.42338761873543274
-0.0015414077788591385,-0.8391492962837219,-156.754638671875,-0.15619123678130553,-0.3560651453393,0.2611226734627663,-0.42338761873543274
0.3796767592430115,1.3020800352096558,-157.65264892578125,-0.15619123678130553,-0.3560651453393,0.2611226734627663,-0.42338761873543274
-0.6550166606903076,-0.7206807732582092,-158.60711669921875,-0.15619123678130553,-0.3560651453393,0.2611226734627663,-0.42338761873543274
-0.5711601376533508,-0.23865559697151184,-159.80491638183594,-0.15619123678130553,-0.3560651453393,0.2611226734627663,-0.42338761873543274
-0.7460094094276428,1.8946189880371094,-161.0784454345703,-0.15619123678130553,-0.3560651453393,0.2611226734627663,-0.42338761873543274
0.5905479192733765,0.18292996287345886,-162.32009887695312,-0.15619123678130553,-0.3560651453393,0.2611226734627663,-0.42338761873543274
1.095815896987915,0.43137866258621216,-163.489990234375,-0.15619123678130553,-0.3560651453393,0.2611226734627663,-0.42338761873543274
-0.3523435592651367,-0.6193017959594727,-164.63523864746094,-0.15619123678130553,-0.3560651453393,0.2611226734627663,-0.42338761873543274
0.22068026661872864,1.0079692602157593,-166.01705932617188,-0.15619123678130553,-0.3560651453393,0.2611226734627663,-0.42338761873543274
0.4845062494277954,0.5402803421020508,-167.5026397705078,-0.15619123678130553,-0.3560651453393,0.2611226734627663,-0.42338761873543274
0.0475897341966629,-0.41762763261795044,-168.93087768554688,-0.15619123678130553,-0.3560651453393,0.2611226734627663,-0.42338761873543274
0.28953561186790466,-0.5932044982910156,-170.1143341064453,-0.15619123678130553,-0.3560651453393,0.2611226734627663,-0.42338761873543274
-1.4988335371017456,-1.501747727394104,-171.1118621826172,-0.15619123678130553,-0.3560651453393,0.2611226734627663,-0.42338761873543274
-1.112441897392273,-0.22603444755077362,-172.00733947753906,-0.15619123678130553,-0.3560651453393,0.2611226734627663,-0.42338761873543274
-1.3083325624465942,-0.5769509077072144,-172.697998046875,-0.15619123678130553,-0.3560651453393,0.2611226734627663,-0.42338761873543274
-1.7910195589065552,-1.4502614736557007,-173.18003845214844,-0.15619123678130553,-0.3560651453393,0.2611226734627663,-0.42338761873543274
-0.8114975094795227,-0.9918732643127441,-173.43222045898438,-0.15619123678130553,-0.3560651453393,0.2611226734627663,-0.42338761873543274
-0.8304804563522339,-0.3071775436401367,-173.42340087890625,-0.15619123678130553,-0.3560651453393,0.2611226734627663,-0.42338761873543274
-0.30517446994781494,0.1910134106874466,-173.36602783203125,-0.15619123678130553,-0.3560651453393,0.2611226734627663,-0.42338761873543274
0.2501696050167084,-0.061150070279836655,-173.380126953125,-0.15619123678130553,-0.3560651453393,0.2611226734627663,-0.42338761873543274
0.12388622015714645,0.29696622490882874,-173.3811492919922,-0.15619123678130553,-0.3560651453393,0.2611226734627663,-0.42338761873543274
0.24339990317821503,0.04005848616361618,-173.36866760253906,-0.15619123678130553,-0.3560651453393,0.2611226734627663,-0.42338761873543274
0.0001355015701847151,0.09057513624429703,-173.3782958984375,-0.15619123678130553,-0.3560651453393,0.2611226734627663,-0.42338761873543274
-0.10659843683242798,0.12386217713356018,-173.37545776367188,-0.15619123678130553,-0.3560651453393,0.2611226734627663,-0.42338761873543274
-0.1936517208814621,0.03566974774003029,-173.371337890625,-0.15619123678130553,-0.3560651453393,0.2611226734627663,-0.42338761873543274
-0.1884365975856781,0.06571437418460846,-173.37478637695312,-0.15619123678130553,-0.3560651453393,0.2611226734627663,-0.42338761873543274
-0.19909456372261047,0.08606600016355515,-173.37033081054688,-0.15619123678130553,-0.3560651453393,0.2611226734627663,-0.42338761873543274
-0.14377635717391968,0.046121373772621155,-173.368408203125,-0.15619123678130553,-0.3560651453393,0.2611226734627663,-0.42338761873543274
-0.08060936629772186,0.10278141498565674,-173.36851501464844,-0.15619123678130553,-0.3560651453393,0.2611226734627663,-0.42338761873543274
-0.04914408549666405,0.06003345549106598,-173.3673858642578,-0.15619123678130553,-0.3560651453393,0.2611226734627663,-0.42338761873543274
-0.07218458503484726,0.04991378262639046,-173.3688507080078,-0.15619123678130553,-0.3560651453393,0.2611226734627663,-0.42338761873543274
-0.12604212760925293,0.07619279623031616,-173.3697509765625,-0.15619123678130553,-0.3560651453393,0.2611226734627663,-0.42338761873543274
-0.13847395777702332,0.06432409584522247,-173.36959838867188,-0.15619123678130553,-0.3560651453393,0.2611226734627663,-0.42338761873543274
-0.11299437284469604,0.07691743224859238,-173.36862182617188,-0.15619123678130553,-0.3560651453393,0.2611226734627663,-0.42338761873543274
-0.0938878059387207,0.07430492341518402,-173.36720275878906,-0.15619123678130553,-0.3560651453393,0.2611226734627663,-0.42338761873543274
-0.09049823135137558,0.07573734223842621,-173.3672332763672,-0.15619123678130553,-0.3560651453393,0.2611226734627663,-0.42338761873543274
-0.09783994406461716,0.08554579317569733,-173.3678741455078,-0.15619123678130553,-0.3560651453393,0.2611226734627663,-0.42338761873543274
-0.13339205086231232,0.07031629234552383,-173.3673553466797,-0.15619123678130553,-0.3560651453393,0.2611226734627663,-0.42338761873543274
-0.12596404552459717,0.06760063767433167,-173.366943359375,-0.15185720306361963,-0.3631120280869725,0.25896137265954206,-0.42223831098526726
-0.10737290978431702,0.07989050447940826,-173.36642456054688,-0.14755738414119038,-0.370139090829633,0.25701689803196776,-0.4210092181339861
-0.38138875365257263,0.10093840956687927,-173.37974548339844,-0.14330771095617403,-0.3771433535683906,0.2529438841699937,-0.4195023105169337
-1.9335911273956299,-0.2536202073097229,-173.3671112060547,-0.13925274204508026,-0.3841456616462939,0.23365238516125866,-0.4207746588314574
-3.1938421726226807,-0.12690426409244537,-173.250244140625,-0.13571460738267166,-0.3911849979373322,0.19092377432777274,-0.42394569609314214
-1.9430263042449951,-0.944964587688446,-173.18838500976562,-0.13288927145476903,-0.3983251948758138,0.14811653702054212,-0.43287793652464956
-1.5614092350006104,0.7991083860397339,-173.14564514160156,-0.13066402608354094,-0.4055499560541169,0.11891290752682873,-0.43409340487172215
-1.9027454853057861,-0.17789021134376526,-173.0382843017578,-0.12892271059144841,-0.4127417059842917,0.09004495152427543,-0.42891658674925576
-1.3212217092514038,-0.33266380429267883,-173.00930786132812,-0.1276458480101103,-0.41992577090342076,0.06317855823629884,-0.4331712035462261
-1.8697466850280762,0.08114311099052429,-173.01632690429688,-0.12681446706688584,-0.4271627576773372,0.036587154950636504,-0.4352672093237441
-1.5720754861831665,-0.37100541591644287,-173.00057983398438,-0.12644369657959825,-0.43443734049279725,0.00790530352387615,-0.43768272853146006
-0.7933909893035889,0.10912082344293594,-173.06936645507812,-0.12647621002610912,-0.44175023906502114,-0.011806917105180146,-0.439865100135406
-1.9991812705993652,0.10657721012830734,-173.13107299804688,-0.12686692060702204,-0.4490663450371688,-0.035078352604371435,-0.4380676165223123
-0.5659614205360413,0.2558782398700714,-173.07017517089844,-0.12762969472620153,-0.45634230146184634,-0.05645454169716649,-0.4350471544389925
-0.37710070610046387,0.5862689018249512,-172.95252990722656,-0.1286360941799485,-0.4635346049287674,-0.0643133927524707,-0.428029261591534
-1.013838291168213,-0.07636148482561111,-172.947509765625,-0.12980457704507778,-0.47063301571800137,-0.075904551063043,-0.4237800331165395
-1.254930019378662,-0.5345189571380615,-172.94590759277344,-0.13122720625102757,-0.47773843852285786,-0.09481095365093363,-0.4288707034662368
-1.1317720413208008,0.12789687514305115,-172.90492248535156,-0.13297313201053615,-0.48491452122521145,-0.11470013749009582,-0.4322592208161952
-1.2626607418060303,-0.49835461378097534,-172.9568634033203,-0.13505108102308822,-0.4921445678039979,-0.13465374401615274,-0.43534636863817794
-0.3131261169910431,-0.3261684775352478,-172.97218322753906,-0.1374047397329961,-0.49945759916264226,-0.147785301172795,-0.4422173943991465
-0.23184899985790253,-0.4402365982532501,-172.80149841308594,-0.13990567358010164,-0.5068811116440023,-0.15232676047986957,-0.44860410336405065
-1.0512932538986206,-0.12631681561470032,-172.66575622558594,-0.14253356002238812,-0.514397190687144,-0.16301961259450726,-0.45332538181295023
-0.5619189143180847,-0.7011783123016357,-172.5940399169922,-0.14536258218842274,-0.5220100786567984,-0.17646304732964646,-0.46022117454558636
-0.667228102684021,0,-172.61715698242188,-0.14838899040898643,-0.5297291245042458,-0.18670593913799735,-0.4660643271481
-1.9419255256652832,2.0705854892730713,-172.63563537597656,-0.1516819472854773,-0.5373530726310701,-0.20844888604090822,-0.4488094480708244
-0.06890041381120682,0.5342186689376831,-172.6124725341797,-0.15529573607640051,-0.5446523409212637,-0.22520576886987898,-0.42710274675240145
-0.1864716112613678,-0.514300525188446,-172.694580078125,-0.159066899725973,-0.5517693368293767,-0.22733386907881709,-0.4269367622211578
-0.34205204248428345,-0.10927272588014603,-172.697021484375,-0.1628925005754634,-0.5589282532310536,-0.23173823286003084,-0.4321332059800627
0,-0.3768610656261444,-172.5235137939453,-0.16677855807052533,-0.566164232621798,-0.23458866654739988,-0.43618432090928183
-0.07998766750097275,-1.3393980264663696,-172.50144958496094,-0.17069392387878068,-0.5735531559627925,-0.23525523044324131,-0.45048648001005276
-0.5091947913169861,0.9195792078971863,-172.55874633789062,-0.17465575983469706,-0.581090418047583,-0.2401650842667243,-0.45398497016479594
-2.1148414611816406,0.44347718358039856,-172.5292205810547,-0.17884073597889932,-0.5885621775231437,-0.2620320530375462,-0.44262616690248274
1.497941493988037,0.34460023045539856,-172.58860778808594,-0.183250777138358,-0.5958845527066547,-0.26717288609749285,-0.4360588551188511
-0.1895020753145218,0.6427760124206543,-172.8319854736328,-0.18761279472479722,-0.6030836324973248,-0.25626922427521354,-0.4278307197615507
-0.4187175929546356,0.8597878217697144,-172.98133850097656,-0.19192618593968058,-0.6101097997826429,-0.2613377215107898,-0.4153093544766309
-0.4892285168170929,-0.4617922008037567,-172.9054718017578,-0.19634486644470567,-0.6170039837724641,-0.2689039390922209,-0.4119927243019146
-0.5786024928092957,-1.2934201955795288,-172.82040405273438,-0.2009007536941334,-0.6239924189272449,-0.27780253083910744,-0.4266194942717753
-0.1597105711698532,0.5910186767578125,-172.67649841308594,-0.20558206761533931,-0.631151521715026,-0.2839551397056003,-0.43247284026195626
-0.7937571406364441,0,-172.66421508789062,-0.2103808663126414,-0.6383183594223949,-0.2919007039706528,-0.4275476846223078
0.10859177261590958,-0.48360833525657654,-172.71292114257812,-0.21529345897382038,-0.6454777380782706,-0.29761041537082394,-0.43157775408277926
-0.13061580061912537,0.29699376225471497,-172.78634643554688,-0.22025516200972323,-0.6526836599916642,-0.2977939489375174,-0.43313287552446145
-0.3469110131263733,0.19356873631477356,-172.82618713378906,-0.22525155607630307,-0.6598684744102268,-0.30177333905206327,-0.42904485470304904
-0.288449764251709,0.9409205913543701,-172.83139038085938,-0.2303252340033776,-0.6669404380075228,-0.3070680121968806,-0.4195907769724728
-0.3565567135810852,0.47917428612709045,-172.77452087402344,-0.2354878263231751,-0.6738349999239056,-0.31244306617882056,-0.40775665299346064
0.18970821797847748,-0.5495028495788574,-172.72509765625,-0.2407067974605723,-0.6806358280684808,-0.3138334703088423,-0.4083427243555587
-0.5463142395019531,-2.1355676651000977,-172.70867919921875,-0.24596211960610326,-0.6876280033712595,-0.31680518715487127,-0.4307183119778833
0.11516477167606354,0.42650243639945984,-172.58595275878906,-0.2512721469939501,-0.6949253269895507,-0.3203980993867537,-0.4449605222170553
0,0.801193356513977,-172.38955688476562,-0.2566041177634741,-0.7022560790408826,-0.3194383929561198,-0.43472972394277665
-1.403114914894104,-0.2605186104774475,-172.2694549560547,-0.26202552951516594,-0.7094640275825652,-0.331131017246904,-0.4302241010591389
0.570972204208374,0.6954683661460876,-172.33847045898438,-0.2676021674908564,-0.7166042244227405,-0.3380655398359518,-0.4265995197619002
-0.8295024037361145,0.5214391350746155,-172.5277099609375,-0.27325454664086724,-0.7236297089534096,-0.3402199581653496,-0.41645862391839433
-0.7657743096351624,0,-172.64572143554688,-0.27903566238205163,-0.7305344749676693,-0.3535139307767769,-0.41211329779277256
1.3293901681900024,0.3849813640117645,-172.6074676513672,-0.28488842123815383,-0.737376295113937,-0.3488171319554866,-0.4089051197593412
-0.09561360627412796,-1.5116044282913208,-172.438232421875,-0.28488842123815383,-0.737376295113937,-0.3488171319554866,-0.4089051197593412
-0.15515480935573578,0.054156143218278885,-172.54481506347656,-0.28488842123815383,-0.737376295113937,-0.3488171319554866,-0.4089051197593412
0.8128476142883301,1.3663686513900757,-172.7086944580078,-0.28488842123815383,-0.737376295113937,-0.3488171319554866,-0.4089051197593412
1.9417989253997803,0.4626474678516388,-173.06178283691406,-0.28488842123815383,-0.737376295113937,-0.3488171319554866,-0.4089051197593412
2.034552812576294,-0.4098626971244812,-173.73422241210938,-0.28488842123815383,-0.737376295113937,-0.3488171319554866,-0.4089051197593412
3.352324962615967,1.6492470502853394,-174.61302185058594,-0.28488842123815383,-0.737376295113937,-0.3488171319554866,-0.4089051197593412
2.380624294281006,-0.4527098834514618,-175.61328125,-0.28488842123815383,-0.737376295113937,-0.3488171319554866,-0.4089051197593412
1.0652050971984863,0.5888544321060181,-176.88259887695312,-0.28488842123815383,-0.737376295113937,-0.3488171319554866,-0.4089051197593412
0.08824989199638367,1.4564515352249146,-178.28793334960938,-0.28488842123815383,-0.737376295113937,-0.3488171319554866,-0.4089051197593412
2.507032871246338,-0.43660664558410645,-179.82395935058594,-0.28488842123815383,-0.737376295113937,-0.3488171319554866,-0.4089051197593412
1.7899523973464966,0.39524203538894653,178.58106994628906,-0.28488842123815383,-0.737376295113937,-0.3488171319554866,-0.4089051197593412
0.6391880512237549,1.1979107856750488,176.8813018798828,-0.28488842123815383,-0.737376295113937,-0.3488171319554866,-0.4089051197593412
1.5959596633911133,-0.15326781570911407,175.13983154296875,-0.28488842123815383,-0.737376295113937,-0.3488171319554866,-0.4089051197593412
1.2488954067230225,-0.04095567762851715,173.30152893066406,-0.28488842123815383,-0.737376295113937,-0.3488171319554866,-0.4089051197593412
2.0666615962982178,-0.23047228157520294,171.43540954589844,-0.28488842123815383,-0.737376295113937,-0.3488171319554866,-0.4089051197593412
0.15847338736057281,0.3158079981803894,169.49539184570312,-0.28488842123815383,-0.737376295113937,-0.3488171319554866,-0.4089051197593412
0.3072245717048645,0.8553563356399536,167.4770050048828,-0.28488842123815383,-0.737376295113937,-0.3488171319554866,-0.4089051197593412
1.289517879486084,0.6848655343055725,165.4071044921875,-0.28488842123815383,-0.737376295113937,-0.3488171319554866,-0.4089051197593412
0.5739956498146057,1.342834711074829,163.352783203125,-0.28488842123815383,-0.737376295113937,-0.3488171319554866,-0.4089051197593412
1.2918423414230347,-0.2526904046535492,161.24420166015625,-0.28488842123815383,-0.737376295113937,-0.3488171319554866,-0.4089051197593412
0.21055194735527039,0.8906977772712708,159.068359375,-0.28488842123815383,-0.737376295113937,-0.3488171319554866,-0.4089051197593412
1.089266061782837,0.09537369757890701,156.96786499023438,-0.28488842123815383,-0.737376295113937,-0.3488171319554866,-0.4089051197593412
1.1345239877700806,-0.40907761454582214,154.794189453125,-0.28488842123815383,-0.737376295113937,-0.3488171319554866,-0.4089051197593412
0.5734018087387085,1.0690662860870361,152.58595275878906,-0.28488842123815383,-0.737376295113937,-0.3488171319554866,-0.4089051197593412
1.1744908094406128,-0.012751288712024689,150.36264038085938,-0.28488842123815383,-0.737376295113937,-0.3488171319554866,-0.4089051197593412
0.40161943435668945,-0.036923836916685104,148.09149169921875,-0.28488842123815383,-0.737376295113937,-0.3488171319554866,-0.4089051197593412
0.2916085422039032,-1.3318333625793457,145.83204650878906,-0.28488842123815383,-0.737376295113937,-0.3488171319554866,-0.4089051197593412
0.5577807426452637,0.5015798211097717,143.58168029785156,-0.28488842123815383,-0.737376295113937,-0.3488171319554866,-0.4089051197593412
-0.09521301835775375,-0.5532456040382385,141.29017639160156,-0.28488842123815383,-0.737376295113937,-0.3488171319554866,-0.4089051197593412
1.3460065126419067,1.870697021484375,139.0842742919922,-0.28488842123815383,-0.737376295113937,-0.3488171319554866,-0.4089051197593412
-0.4316893517971039,-1.272417664527893,136.84193420410156,-0.28488842123815383,-0.737376295113937,-0.3488171319554866,-0.4089051197593412
0.7480712532997131,1.1436227560043335,134.7007598876953,-0.28488842123815383,-0.737376295113937,-0.3488171319554866,-0.4089051197593412
-0.15642519295215607,-1.5838857889175415,132.58474731445312,-0.28488842123815383,-0.737376295113937,-0.3488171319554866,-0.4089051197593412
0.7477535009384155,3.0975868701934814,130.51870727539062,-0.28488842123815383,-0.737376295113937,-0.3488171319554866,-0.4089051197593412
0.4994930028915405,-1.8322101831436157,128.4348907470703,-0.28488842123815383,-0.737376295113937,-0.3488171319554866,-0.4089051197593412
1.7093780040740967,0.40049615502357483,126.43321228027344,-0.28488842123815383,-0.737376295113937,-0.3488171319554866,-0.4089051197593412
-0.8501840233802795,-1.2438887357711792,124.38568115234375,-0.28488842123815383,-0.737376295113937,-0.3488171319554866,-0.4089051197593412
1.1257739067077637,0.171779066324234,122.44708251953125,-0.28488842123815383,-0.737376295113937,-0.3488171319554866,-0.4089051197593412
0.47068798542022705,0.9542257785797119,120.46306610107422,-0.28488842123815383,-0.737376295113937,-0.3488171319554866,-0.4089051197593412
-0.18984191119670868,-1.2765815258026123,118.43761444091797,-0.28488842123815383,-0.737376295113937,-0.3488171319554866,-0.4089051197593412
0.323253870010376,1.116766333580017,116.4072265625,-0.28488842123815383,-0.737376295113937,-0.3488171319554866,-0.4089051197593412
0.18123272061347961,0.18147216737270355,114.39566040039062,-0.28488842123815383,-0.737376295113937,-0.3488171319554866,-0.4089051197593412
0.35254573822021484,-1.8289680480957031,112.32306671142578,-0.28488842123815383,-0.737376295113937,-0.3488171319554866,-0.4089051197593412
0.2668870985507965,1.3767330646514893,110.3016586303711,-0.28488842123815383,-0.737376295113937,-0.3488171319554866,-0.4089051197593412
-0.10277727991342545,-0.5347588658332825,108.16336059570312,-0.28488842123815383,-0.737376295113937,-0.3488171319554866,-0.4089051197593412
0.4688485562801361,-0.5994858145713806,105.97679901123047,-0.28488842123815383,-0.737376295113937,-0.3488171319554866,-0.4089051197593412
0.1680992990732193,0.9148662090301514,103.95211791992188,-0.28488842123815383,-0.737376295113937,-0.3488171319554866,-0.4089051197593412
-0.6142184138298035,0.31347838044166565,102.20130920410156,-0.28488842123815383,-0.737376295113937,-0.3488171319554866,-0.4089051197593412
-1.748848557472229,-0.3101045489311218,100.83079528808594,-0.28488842123815383,-0.737376295113937,-0.3488171319554866,-0.4089051197593412
-2.0109503269195557,0.8165133595466614,99.92108917236328,-0.28488842123815383,-0.737376295113937,-0.3488171319554866,-0.4089051197593412
-1.623278021812439,-0.2667858600616455,99.48358917236328,-0.28488842123815383,-0.737376295113937,-0.3488171319554866,-0.4089051197593412
-0.8189913630485535,-0.023166827857494354,99.51244354248047,-0.28488842123815383,-0.737376295113937,-0.3488171319554866,-0.4089051197593412
0.8330308198928833,-0.550153911113739,99.61898803710938,-0.28488842123815383,-0.737376295113937,-0.3488171319554866,-0.4089051197593412
-0.39142319560050964,-0.6483176350593567,99.58732604980469,-0.28488842123815383,-0.737376295113937,-0.3488171319554866,-0.4089051197593412
0.5178096890449524,0.28667783737182617,99.56682586669922,-0.28488842123815383,-0.737376295113937,-0.3488171319554866,-0.4089051197593412
-0.1828974038362503,0.3203134536743164,99.61235809326172,-0.28488842123815383,-0.737376295113937,-0.3488171319554866,-0.4089051197593412
-0.03438642993569374,0.3566814661026001,99.60834503173828,-0.28488842123815383,-0.737376295113937,-0.3488171319554866,-0.4089051197593412
0.1983765959739685,0.1803005486726761,99.59564971923828,-0.28488842123815383,-0.737376295113937,-0.3488171319554866,-0.4089051197593412
0.09200819581747055,-0.03042423725128174,99.61634826660156,-0.28488842123815383,-0.737376295113937,-0.3488171319554866,-0.4089051197593412
-0.0001276625698665157,-0.09755636751651764,99.60491943359375,-0.28488842123815383,-0.737376295113937,-0.3488171319554866,-0.4089051197593412
0.21375758945941925,0.10336150228977203,99.60466766357422,-0.28488842123815383,-0.737376295113937,-0.3488171319554866,-0.4089051197593412
-0.021673521026968956,0.20919832587242126,99.60964965820312,-0.28488842123815383,-0.737376295113937,-0.3488171319554866,-0.4089051197593412
0.0875013992190361,0.16396096348762512,99.60768127441406,-0.28488842123815383,-0.737376295113937,-0.3488171319554866,-0.4089051197593412
0.11543473601341248,0.01844596490263939,99.61211395263672,-0.28488842123815383,-0.737376295113937,-0.3488171319554866,-0.4089051197593412
0.04814824461936951,0.036716341972351074,99.61149597167969,-0.28488842123815383,-0.737376295113937,-0.3488171319554866,-0.4089051197593412
0.09432366490364075,0.1231117993593216,99.60862731933594,-0.28488842123815383,-0.737376295113937,-0.3488171319554866,-0.4089051197593412
0.06495265662670135,0.14320072531700134,99.60977172851562,-0.28488842123815383,-0.737376295113937,-0.3488171319554866,-0.4089051197593412
0.06266665458679199,0.09153274446725845,99.60799407958984,-0.28488842123815383,-0.737376295113937,-0.3488171319554866,-0.4089051197593412
0.10623475909233093,0.048334114253520966,99.60834503173828,-0.28488842123815383,-0.737376295113937,-0.3488171319554866,-0.4089051197593412
0.06477568298578262,0.09006533026695251,99.6082763671875,-0.28488842123815383,-0.737376295113937,-0.3488171319554866,-0.4089051197593412
0.07094965875148773,0.11815743893384933,99.60823822021484,-0.28488842123815383,-0.737376295113937,-0.3488171319554866,-0.4089051197593412
0.07369054108858109,0.10288435220718384,99.61003875732422,-0.28488842123815383,-0.737376295113937,-0.3488171319554866,-0.4089051197593412
0.07547325640916824,0.0773051381111145,99.60939025878906,-0.28488842123815383,-0.737376295113937,-0.3488171319554866,-0.4089051197593412
0.0891694724559784,0.08066025376319885,99.60911560058594,-0.28488842123815383,-0.737376295113937,-0.3488171319554866,-0.4089051197593412
0.0836985781788826,0.10529511421918869,99.6077651977539,-0.2906900353783401,-0.7441784668760384,-0.34737656486686275,-0.4073554916928213
0,0.38308796286582947,99.61619567871094,-0.29647383239152536,-0.7509338095794545,-0.34667907671537207,-0.4032856327171128
-0.09386607259511948,1.2169839143753052,99.6090316772461,-0.3022583354807118,-0.7575441206888203,-0.34746129398699804,-0.38995170040677
-0.6394616365432739,2.8136484622955322,99.74456024169922,-0.3081002825825186,-0.7637634106694421,-0.353572358229818,-0.3563630972678464
-0.597017228603363,3.1967508792877197,99.89140319824219,-0.3140790218075396,-0.7692854067807406,-0.36387634877270664,-0.30627643608798594
1.2722526788711548,1.3497480154037476,99.95343017578125,-0.32009673626970503,-0.7740742849589646,-0.3582493866871417,-0.26838894529889035
-0.08721615374088287,0.7032975554466248,99.97147369384766,-0.32598526517802334,-0.7784048614381925,-0.3483740823110561,-0.25128023220847057
-0.9653443098068237,1.5955506563186646,99.9765625,-0.3318645943598429,-0.7824332230714056,-0.357145419507287,-0.23212316377709316
0.4703550338745117,0.5584511160850525,99.98143005371094,-0.33785139227357075,-0.7861523590112736,-0.3612703301400563,-0.2141731490070622
0.4020729959011078,1.43389892578125,99.92841339111328,-0.34381197916272616,-0.7895835538529283,-0.35400009655859277,-0.19757023199150966
-1.2160825729370117,1.8693397045135498,99.79752349853516,-0.3497685092148857,-0.7926469994812386,-0.3607835097005586,-0.17004324340571966
0.7264428734779358,1.5074927806854248,99.79795837402344,-0.3558155704668019,-0.795246551282084,-0.36486384052938425,-0.1419029726957282
-0.6188992261886597,0.6154986619949341,99.80496978759766,-0.36188916616678546,-0.7974641708657155,-0.3639676434686403,-0.12421137734005855
-0.7697305679321289,1.259681224822998,99.75375366210938,-0.3680517261825212,-0.7994041396625764,-0.37553955841964687,-0.10858487828324245
-0.3534846007823944,1.5100353956222534,99.96027374267578,-0.37438871987623157,-0.8010215462019884,-0.3848996848256012,-0.0855039064461987
0.7326967120170593,0.4016191065311432,100.14447021484375,-0.3807773804489336,-0.8023138575245533,-0.38173958389864565,-0.06957345226158705
-0.31669461727142334,1.6952725648880005,100.23726654052734,-0.38711081781288703,-0.8033277975850646,-0.37827289977576534,-0.05209935499976086
2.1667842864990234,0.5384901165962219,100.33566284179688,-0.3932868876932312,-0.8040409977599575,-0.36285548586553534,-0.03348466598739234
-0.6608411073684692,-0.17784805595874786,100.78811645507812,-0.39922989973688383,-0.8045740309388698,-0.35030595937278075,-0.030479315482080056
0,-0.8162182569503784,101.15342712402344,-0.4051142241366641,-0.8051510519130787,-0.3558129686008513,-0.038763201422989446
-0.8209090232849121,-0.463076651096344,101.28675842285156,-0.41110144785107305,-0.8058859451942985,-0.3626538771282256,-0.049423992323378796
-2.324021339416504,0.19253046810626984,101.06706237792969,-0.41736407707839773,-0.8067284663290624,-0.3888616301507374,-0.05167854384829608
0.7022207975387573,1.7900360822677612,100.78959655761719,-0.4239577292852071,-0.8074520971605358,-0.4023766346663853,-0.035157155928512485
0.3230067193508148,3.1387643814086914,100.95054626464844,-0.4305928101743073,-0.8076957719493668,-0.39383307202563883,0.005916181268791287
0.4087413251399994,-0.4763621985912323,101.10311126708984,-0.437105878871645,-0.8074122798877469,-0.387735171654882,0.028102866125603445
0.5916878581047058,1.6213256120681763,101.04845428466797,-0.44349865748372325,-0.8068643874374953,-0.3793982617945095,0.03764422790457798
0.14927424490451813,-0.973484992980957,100.92947387695312,-0.44977050614536723,-0.8061919947072046,-0.3732235776027659,0.043042899730304805
0,1.305837869644165,100.84334564208984,-0.45598053283840606,-0.8054515329841535,-0.37197962556189496,0.04581250703583154
-1.0581856966018677,-0.18030069768428802,100.84180450439453,-0.4622536783822572,-0.8046098288966147,-0.38079783970024383,0.055191983468830516
-0.050083354115486145,1.0725172758102417,100.74222564697266,-0.46867727217245,-0.8036280030208754,-0.39003341512288847,0.06262712161988013
0.8735976219177246,0.5712191462516785,100.63556671142578,-0.4751206406003452,-0.8024700692979009,-0.3831707962245365,0.0763249251370628
0.19411559402942657,0.5357301831245422,100.55928802490234,-0.4814326737863134,-0.8011211157310765,-0.37427318609164356,0.08554950288186464
