faccX,faccY,yaw,posX,posY,velX,velY
0,0,-96.32382202148438,0.0,0.0,0.0,0.0
0,0,-96.32543182373047,0.0,0.0,0.0,0.0
0,0,-96.32561492919922,0.0,0.0,0.0,0.0
0,-0.16832122206687927,-96.32732391357422,0.0,-1.1688973754644394e-05,0.0,-0.0014026768505573273
-0.09474056214094162,-1.3500257730484009,-96.28158569335938,-6.5792057042320565e-06,-0.00014050768481360543,-0.0007895046845078468,-0.014055568476517996
-0.16640330851078033,-2.6196353435516357,-96.218994140625,-3.7872608130176864e-05,-0.0006504380702972413,-0.00296570360660553,-0.0471360777815183
-0.41653427481651306,-2.0682077407836914,-96.36395263671875,-0.00012778277819355328,-0.0017615840252902773,-0.00782351680099964,-0.08620143681764603
-1.099212408065796,-1.2483677864074707,-96.52044677734375,-0.00036343491118815205,-0.0034285923838615418,-0.020454739158352213,-0.11383956621090571
0.6105949282646179,-1.6343554258346558,-96.48331451416016,-0.0007382789999246597,-0.005526107599337896,-0.024526551490028695,-0.13786225964625676
1.2035901546478271,-1.049379587173462,-96.4029769897461,-0.0010210697828895515,-0.008010182413789962,-0.00940834246575832,-0.16022671808799108
-0.17400643229484558,-1.2785314321517944,-96.33566284179688,-0.0011063766210443443,-0.010842288202709622,-0.0008284781128168068,-0.1796259765823682
-0.8299575448036194,-1.5378637313842773,-96.25912475585938,-0.001189904310223129,-0.014031637476550209,-0.009194844588637348,-0.20309593627850214
0.3466651141643524,-1.6233257055282593,-96.119384765625,-0.0013767136943837006,-0.017636096792088614,-0.01322228151063124,-0.2294391815861066
0.1821441650390625,-1.3855289220809937,-96.00801086425781,-0.001560362186282873,-0.021669031389885476,-0.008815537517269448,-0.254512970149517
-0.8682908415794373,-0.25703155994415283,-95.91130065917969,-0.0017549368863304454,-0.026024980925851395,-0.014533426488439237,-0.2682009741663932
0.5423480272293091,-1.2049777507781982,-95.867919921875,-0.0020197955788009694,-0.030596525586313667,-0.017249616608023637,-0.2803843850890795
-0.8607470989227295,-0.9609719514846802,-95.88801574707031,-0.002329400235580073,-0.035420011844899915,-0.01990294220546881,-0.29843396594127014
-0.20138108730316162,-1.1023929119110107,-95.95279693603516,-0.0027348748408257957,-0.040537200503879114,-0.0287540104240179,-0.3156286731362342
0.2058839648962021,-0.4198334217071533,-96.0545425415039,-0.0032137956480599106,-0.04590338855153984,-0.028716486444075897,-0.32831389258305227
-0.2783083915710449,-0.8784682154655457,-96.1840591430664,-0.0036974332295358174,-0.05146544659717214,-0.02932002333303292,-0.33913307289282474
0.4824160039424896,-0.3269962668418884,-96.29610443115234,-0.004171926145338349,-0.05720137728999057,-0.027619126563270882,-0.3491786102453867
-0.5746912360191345,-0.301384299993515,-96.29191589355469,-0.0046386529236204085,-0.06306465833344392,-0.028388086830576257,-0.35441511496901507
-0.3247649073600769,-1.1782010793685913,-96.3094482421875,-0.0051742499363091245,-0.06907432590093876,-0.035883554692069684,-0.36674499313036596
0.34386691451072693,-1.3782052993774414,-96.3023910522461,-0.005770982652902602,-0.07536427067385777,-0.0357243712991476,-0.38804837961991623
0,0.7219182848930359,-96.25038146972656,-0.006342509194380706,-0.08187731915464001,-0.03285881367822488,-0.39351743807395295
-0.26145175099372864,-1.166029691696167,-96.15401458740234,-0.006908312460614574,-0.08846678419245611,-0.03503757826983928,-0.39721836646397907
0.07162634283304214,0.22784867882728577,-95.95527648925781,-0.0075054544184563875,-0.0951522417594161,-0.03661945667117834,-0.40503654157121977
0.6690860986709595,-0.5407314300537109,-95.83625793457031,-0.008064340332316027,-0.10192457875443826,-0.030446852991978322,-0.40764389783143995
0.31730034947395325,-0.6045176982879639,-95.79684448242188,-0.00850328882328338,-0.10879817490776376,-0.02222696592410405,-0.4171876405676206
-0.2851325571537018,-1.4651613235473633,-95.76396179199219,-0.008871504380885097,-0.11589502996040711,-0.021958900988101954,-0.4344349657495816
-0.38143789768218994,-0.21219895780086517,-95.83116912841797,-0.009283775678939288,-0.12325209607577155,-0.02751365477840105,-0.4484129680941502
0.5267773270606995,0.5146806836128235,-95.8901138305664,-0.009732243575983575,-0.13070463986860378,-0.026302492866913472,-0.4458922870457172
-0.23388266563415527,-0.4515235722064972,-95.89427185058594,-0.01015027855005529,-0.13813179207551807,-0.02386170402169227,-0.44536597778399784
-0.48088908195495605,0.17055939137935638,-95.80442810058594,-0.010597610543999405,-0.14557406977336437,-0.02981813525160153,-0.44770734595755735
-0.05769462138414383,-0.11630912870168686,-95.6473388671875,-0.011131981110924645,-0.15303209149330438,-0.034306332779427365,-0.44725526043524344
0.7477757334709167,-0.9259316921234131,-95.42765808105469,-0.01165583102446463,-0.1605587236686713,-0.028555656845370925,-0.45594060060878594
0.936578094959259,-1.2673625946044922,-95.31495666503906,-0.012014789622690938,-0.1683100457820627,-0.014519374941786126,-0.47421805299818515
-0.8620050549507141,0.12141098082065582,-95.36692810058594,-0.012251600521720113,-0.17629325997187856,-0.01389793294171492,-0.4837676497797171
-1.1491450071334839,0.5143923759460449,-95.46849060058594,-0.012622895936171209,-0.18431190112398727,-0.03065751679241657,-0.4784692884733279
0.36669546365737915,0.09865444898605347,-95.62187957763672,-0.01318819132323066,-0.19224381656903355,-0.037177929654717445,-0.4733605649322271
1.4157229661941528,0.17515960335731506,-95.64814758300781,-0.013684044426514039,-0.20011414445315795,-0.022324442739288013,-0.471078781162699
-1.2834383249282837,-1.2760396003723145,-95.48047637939453,-0.014046932038747599,-0.20804190747232898,-0.021222070728739103,-0.480252781137824
0,-0.27685582637786865,-95.21762084960938,-0.01448976087901327,-0.2161539604514837,-0.031917390103141464,-0.4931935763607422
0.27998703718185425,-0.13732267916202545,-95.0810775756836,-0.015002273836483554,-0.22440261578704745,-0.029584164793292678,-0.496645063906908
-0.8514366149902344,0,-95.1795883178711,-0.015535027248164014,-0.23268956981599329,-0.03434624460836251,-0.49778941956659156
0.5871953368186951,0.6220452189445496,-95.31925964355469,-0.0161258147470653,-0.24094286255745423,-0.036548255259792,-0.49260570940872034
0.3667098879814148,-0.5909519791603088,-95.3999252319336,-0.016668708916339606,-0.24915079846150345,-0.028599045053124418,-0.492346599077185
0.4537542462348938,0.6421018242835999,-95.3919906616211,-0.017088382991237768,-0.25735302304021185,-0.02176184393465518,-0.4919203503678242
-1.117841362953186,0.3778354525566101,-95.39215087890625,-0.017497197551031903,-0.2654808665687839,-0.027295903240640948,-0.4834208730608225
1.0887192487716675,-2.2548675537109375,-95.38334655761719,-0.017954151640749635,-0.27366823057126666,-0.027538587525486935,-0.49906280723710855
-0.7106929421424866,1.0606648921966553,-95.38114929199219,-0.018386876272658503,-0.2820688747656014,-0.024388368303577095,-0.5090144960830609
0.16758553683757782,0.11378898471593857,-95.25688934326172,-0.018831064869753184,-0.29047089040331125,-0.028914263347784668,-0.49922738044212267
0.2704986333847046,0.4850293695926666,-95.03721618652344,-0.019282546747061938,-0.2987497621360752,-0.025263561929265647,-0.49423722748955096
-0.3106575310230255,-0.4089023768901825,-94.9581527709961,-0.019706394924885694,-0.3069817626641856,-0.02559821940958499,-0.4936028358836969
0.35262349247932434,-0.5576454401016235,-94.9981918334961,-0.020130117612166536,-0.3152755979717605,-0.025248503064115833,-0.5016574010252953
0.548297643661499,0.7116430401802063,-95.1183090209961,-0.020488362028780908,-0.3236258603777322,-0.01774082692960897,-0.5003740876913071
-0.8139452934265137,-1.0828648805618286,-95.14298248291016,-0.020802490231063626,-0.3319912078003916,-0.019954557344317427,-0.5034676030278206
-0.3201022744178772,0.6780335307121277,-95.05597686767578,-0.021213819490124776,-0.34041044780570595,-0.029404953743020684,-0.5068411976099014
0,-0.19652965664863586,-94.92500305175781,-0.021726131377120806,-0.34882436333017214,-0.03207247269650299,-0.502828665326039
0.07713361084461212,-1.026107668876648,-94.78642272949219,-0.022255316087976092,-0.35728974645543427,-0.031429692606131224,-0.5130173097054164
1.7470875978469849,-0.3641492426395416,-94.69132232666016,-0.02265246226969692,-0.36593658056937983,-0.016227849200367916,-0.5246027839680513
-1.243493676185608,0.648120105266571,-94.76232147216797,-0.022887954622921012,-0.37466024010338717,-0.012031233186523108,-0.522236360112826
-1.0268110036849976,0.45750293135643005,-94.85291290283203,-0.023246135223242967,-0.38328740006105766,-0.030950438852111486,-0.5130228348076343
1.1099039316177368,0.32400062680244446,-94.97422790527344,-0.023756205528560607,-0.3917835095607572,-0.030257997786005325,-0.5065103051563103
1.4808564186096191,-0.2373446375131607,-94.98089599609375,-0.024080591578450463,-0.40021933020299505,-0.00866832820077736,-0.505788171912233
-1.6287633180618286,-0.5566828846931458,-94.97163391113281,-0.024080591578450463,-0.40021933020299505,-0.00866832820077736,-0.505788171912233
-0.41620686650276184,-0.378612756729126,-94.81969451904297,-0.024080591578450463,-0.40021933020299505,-0.00866832820077736,-0.505788171912233
-0.5159847140312195,1.8407419919967651,-94.81017303466797,-0.024080591578450463,-0.40021933020299505,-0.00866832820077736,-0.505788171912233
0.2249814122915268,1.9217556715011597,-95.22278594970703,-0.024080591578450463,-0.40021933020299505,-0.00866832820077736,-0.505788171912233
0.12106231600046158,2.3669097423553467,-95.94611358642578,-0.024080591578450463,-0.40021933020299505,-0.00866832820077736,-0.505788171912233
-0.10573216527700424,3.382565975189209,-96.87523651123047,-0.024080591578450463,-0.40021933020299505,-0.00866832820077736,-0.505788171912233
-0.865271270275116,0.48226693272590637,-97.8992919921875,-0.024080591578450463,-0.40021933020299505,-0.00866832820077736,-0.505788171912233
0.17324917018413544,3.0282201766967773,-99.12387084960938,-0.024080591578450463,-0.40021933020299505,-0.00866832820077736,-0.505788171912233
-0.27459293603897095,0.7886914014816284,-100.57544708251953,-0.024080591578450463,-0.40021933020299505,-0.00866832820077736,-0.505788171912233
-0.697571873664856,0.7511922717094421,-102.17594909667969,-0.024080591578450463,-0.40021933020299505,-0.00866832820077736,-0.505788171912233
0.1038033664226532,1.85136079788208,-103.8907470703125,-0.024080591578450463,-0.40021933020299505,-0.00866832820077736,-0.505788171912233
-1.1119073629379272,2.1796581745147705,-105.69908905029297,-0.024080591578450463,-0.40021933020299505,-0.00866832820077736,-0.505788171912233
0.6486759781837463,0.7629571557044983,-107.56938934326172,-0.024080591578450463,-0.40021933020299505,-0.00866832820077736,-0.505788171912233
-0.08618844300508499,2.3252804279327393,-109.50729370117188,-0.024080591578450463,-0.40021933020299505,-0.00866832820077736,-0.505788171912233
0.0698433443903923,0.19624806940555573,-111.48307037353516,-0.024080591578450463,-0.40021933020299505,-0.00866832820077736,-0.505788171912233
0.8996103405952454,1.740119457244873,-113.53589630126953,-0.024080591578450463,-0.40021933020299505,-0.00866832820077736,-0.505788171912233
-0.2558809816837311,1.2275025844573975,-115.63107299804688,-0.024080591578450463,-0.40021933020299505,-0.00866832820077736,-0.505788171912233
-0.552124559879303,1.9015867710113525,-117.79354095458984,-0.024080591578450463,-0.40021933020299505,-0.00866832820077736,-0.505788171912233
-0.49316927790641785,1.0876500606536865,-120.05489349365234,-0.024080591578450463,-0.40021933020299505,-0.00866832820077736,-0.505788171912233
-0.20211918652057648,0.5154275894165039,-122.3593978881836,-0.024080591578450463,-0.40021933020299505,-0.00866832820077736,-0.505788171912233
-0.28204545378685,0.8598913550376892,-124.65203094482422,-0.024080591578450463,-0.40021933020299505,-0.00866832820077736,-0.505788171912233
-0.5252925753593445,0.6190407276153564,-126.98333740234375,-0.024080591578450463,-0.40021933020299505,-0.00866832820077736,-0.505788171912233
0.6378700137138367,1.8271125555038452,-129.32908630371094,-0.024080591578450463,-0.40021933020299505,-0.00866832820077736,-0.505788171912233
0.2503770589828491,0.45347487926483154,-131.67213439941406,-0.024080591578450463,-0.40021933020299505,-0.00866832820077736,-0.505788171912233
-0.4782041907310486,1.3014239072799683,-134.0095672607422,-0.024080591578450463,-0.40021933020299505,-0.00866832820077736,-0.505788171912233
1.2353193759918213,0.6562284231185913,-136.3856658935547,-0.024080591578450463,-0.40021933020299505,-0.00866832820077736,-0.505788171912233
-0.615669846534729,-0.4640018045902252,-138.72315979003906,-0.024080591578450463,-0.40021933020299505,-0.00866832820077736,-0.505788171912233
-0.8277373909950256,1.1022841930389404,-141.13473510742188,-0.024080591578450463,-0.40021933020299505,-0.00866832820077736,-0.505788171912233
-0.32647478580474854,0.6061049103736877,-143.53384399414062,-0.024080591578450463,-0.40021933020299505,-0.00866832820077736,-0.505788171912233
0.5561467409133911,1.0728323459625244,-145.9049530029297,-0.024080591578450463,-0.40021933020299505,-0.00866832820077736,-0.505788171912233
0.5450709462165833,0.11091291904449463,-148.2509765625,-0.024080591578450463,-0.40021933020299505,-0.00866832820077736,-0.505788171912233
-0.43176060914993286,1.103651523590088,-150.57000732421875,-0.024080591578450463,-0.40021933020299505,-0.00866832820077736,-0.505788171912233
-1.0173028707504272,0.7406467795372009,-152.82574462890625,-0.024080591578450463,-0.40021933020299505,-0.00866832820077736,-0.505788171912233
0.8375226259231567,1.0366395711898804,-155.1222686767578,-0.024080591578450463,-0.40021933020299505,-0.00866832820077736,-0.505788171912233
0.7640666365623474,-0.20851854979991913,-157.40919494628906,-0.024080591578450463,-0.40021933020299505,-0.00866832820077736,-0.505788171912233
-0.043515030294656754,0.6718090772628784,-159.71072387695312,-0.024080591578450463,-0.40021933020299505,-0.00866832820077736,-0.505788171912233
1.2919648885726929,0.2457374632358551,-162.0621337890625,-0.024080591578450463,-0.40021933020299505,-0.00866832820077736,-0.505788171912233
0.06694444268941879,0.9688097834587097,-164.39578247070312,-0.024080591578450463,-0.40021933020299505,-0.00866832820077736,-0.505788171912233
0.1306379735469818,-0.24443748593330383,-166.68276977539062,-0.024080591578450463,-0.40021933020299505,-0.00866832820077736,-0.505788171912233
-0.06857891380786896,-0.07205000519752502,-169.1109619140625,-0.024080591578450463,-0.40021933020299505,-0.00866832820077736,-0.505788171912233
0.6532175540924072,0.7137092351913452,-171.56114196777344,-0.024080591578450463,-0.40021933020299505,-0.00866832820077736,-0.505788171912233
1.1782612800598145,0.04675609618425369,-174.0680694580078,-0.024080591578450463,-0.40021933020299505,-0.00866832820077736,-0.505788171912233
0.6567420959472656,0.5188917517662048,-176.6703643798828,-0.024080591578450463,-0.40021933020299505,-0.00866832820077736,-0.505788171912233
-0.5854737758636475,0.7514256834983826,-179.3400421142578,-0.024080591578450463,-0.40021933020299505,-0.00866832820077736,-0.505788171912233
0.3272515535354614,0.6914733648300171,177.94271850585938,-0.024080591578450463,-0.40021933020299505,-0.00866832820077736,-0.505788171912233
-0.15017816424369812,-0.11161312460899353,175.22451782226562,-0.024080591578450463,-0.40021933020299505,-0.00866832820077736,-0.505788171912233
0.5428100824356079,-0.1669275462627411,172.4827880859375,-0.024080591578450463,-0.40021933020299505,-0.00866832820077736,-0.505788171912233
0.7636910676956177,0.9062217473983765,169.71041870117188,-0.024080591578450463,-0.40021933020299505,-0.00866832820077736,-0.505788171912233
1.2387902736663818,0.012537469156086445,166.93409729003906,-0.024080591578450463,-0.40021933020299505,-0.00866832820077736,-0.505788171912233
-0.06011134386062622,0.2058374136686325,164.43370056152344,-0.024080591578450463,-0.40021933020299505,-0.00866832820077736,-0.505788171912233
-0.4314627945423126,-0.3490828573703766,162.32456970214844,-0.024080591578450463,-0.40021933020299505,-0.00866832820077736,-0.505788171912233
-0.559857964515686,-1.769363522529602,160.5518341064453,-0.024080591578450463,-0.40021933020299505,-0.00866832820077736,-0.505788171912233
-1.0222643613815308,-0.6236459612846375,159.17572021484375,-0.024080591578450463,-0.40021933020299505,-0.00866832820077736,-0.505788171912233
-0.2197314351797104,-1.001482367515564,158.18475341796875,-0.024080591578450463,-0.40021933020299505,-0.00866832820077736,-0.505788171912233
-1.0069056749343872,-1.2816249132156372,157.6738739013672,-0.024080591578450463,-0.40021933020299505,-0.00866832820077736,-0.505788171912233
-0.7851571440696716,-1.2478855848312378,157.53038024902344,-0.024080591578450463,-0.40021933020299505,-0.00866832820077736,-0.505788171912233
1.232955813407898,0.3106807470321655,157.5769500732422,-0.024080591578450463,-0.40021933020299505,-0.00866832820077736,-0.505788171912233
0.9361463785171509,-0.28756436705589294,157.5524444580078,-0.024080591578450463,-0.40021933020299505,-0.00866832820077736,-0.505788171912233
0.4388171434402466,-0.16954420506954193,157.56410217285156,-0.024080591578450463,-0.40021933020299505,-0.00866832820077736,-0.505788171912233
0.39120838046073914,0.3761990964412689,157.6046905517578,-0.024080591578450463,-0.40021933020299505,-0.00866832820077736,-0.505788171912233
-0.4454587399959564,0.09878368675708771,157.6277313232422,-0.024080591578450463,-0.40021933020299505,-0.00866832820077736,-0.505788171912233
-0.2870519161224365,0.49032270908355713,157.6175994873047,-0.024080591578450463,-0.40021933020299505,-0.00866832820077736,-0.505788171912233
-0.4801495373249054,0.39663657546043396,157.6251678466797,-0.024080591578450463,-0.40021933020299505,-0.00866832820077736,-0.505788171912233
-0.1318998634815216,0.1880505532026291,157.6314239501953,-0.024080591578450463,-0.40021933020299505,-0.00866832820077736,-0.505788171912233
0.15536648035049438,0.17563991248607635,157.61683654785156,-0.024080591578450463,-0.40021933020299505,-0.00866832820077736,-0.505788171912233
0.21772006154060364,0.13476969301700592,157.62037658691406,-0.024080591578450463,-0.40021933020299505,-0.00866832820077736,-0.505788171912233
0.26461538672447205,0.05603133887052536,157.6174774169922,-0.024080591578450463,-0.40021933020299505,-0.00866832820077736,-0.505788171912233
0.13503682613372803,0.17531171441078186,157.61846923828125,-0.024080591578450463,-0.40021933020299505,-0.00866832820077736,-0.505788171912233
0.010432595387101173,0.21069374680519104,157.62713623046875,-0.024080591578450463,-0.40021933020299505,-0.00866832820077736,-0.505788171912233
-0.07144417613744736,0.19423235952854156,157.6291046142578,-0.024080591578450463,-0.40021933020299505,-0.00866832820077736,-0.505788171912233
-0.07266224920749664,0.26884210109710693,157.62953186035156,-0.024080591578450463,-0.40021933020299505,-0.00866832820077736,-0.505788171912233
-0.040304191410541534,0.21902529895305634,157.63250732421875,-0.024080591578450463,-0.40021933020299505,-0.00866832820077736,-0.505788171912233
0.06668436527252197,0.1719135344028473,157.63055419921875,-0.024080591578450463,-0.40021933020299505,-0.00866832820077736,-0.505788171912233
0.10822737962007523,0.18081484735012054,157.629150390625,-0.024080591578450463,-0.40021933020299505,-0.00866832820077736,-0.505788171912233
0.10370368510484695,0.15503919124603271,157.63037109375,-0.024080591578450463,-0.40021933020299505,-0.00866832820077736,-0.505788171912233
0.04629058763384819,0.18106071650981903,157.63116455078125,-0.024080591578450463,-0.40021933020299505,-0.00866832820077736,-0.505788171912233
0,0.2171836942434311,157.6337432861328,-0.024221849090988845,-0.40862147720634107,-0.008282573303828625,-0.5024694684892893
0,0.20313023030757904,157.6343536376953,-0.02435989197938599,-0.4169667798808465,-0.008282573303828625,-0.49896685245136424
0,0.21989962458610535,157.63160705566406,-0.024497934867783136,-0.42525351701511277,-0.008282573303828625,-0.49544160366058354
-1.016262412071228,0.3721747398376465,157.65310668945312,-0.024706551534796336,-0.4334697608008153,-0.016751426737755523,-0.4905076506237189
-2.3486080169677734,1.3009228706359863,157.70306396484375,-0.025219413537997747,-0.4415287009771499,-0.04479201364641387,-0.47656517053643865
-2.276427745819092,1.0165917873382568,157.71119689941406,-0.02628713013785373,-0.449310515301509,-0.08333397833630442,-0.4572525483866533
-1.0169143676757812,0.6842238903045654,157.68667602539062,-0.027904734090229283,-0.4568132789081169,-0.11077849594876168,-0.44307908440629645
-1.2881308794021606,0.6184737086296082,157.62783813476562,-0.02991111494264461,-0.46410746520385143,-0.12998720634107785,-0.432223271081845
-1.1218204498291016,0.34029197692871094,157.60894775390625,-0.03224492611285919,-0.4712446054381629,-0.1500701340846717,-0.4242335570355257
-1.8954339027404785,1.0099334716796875,157.65476989746094,-0.03495562656653216,-0.47822139906593497,-0.17521392035608488,-0.41298167829712235
-1.3474308252334595,0.3115623891353607,157.61929321289062,-0.03810105751190954,-0.48501265649166375,-0.20223779308920103,-0.40196921279033027
-1.0815143585205078,1.402246356010437,157.57020568847656,-0.04164036414560136,-0.4915931288753119,-0.22247900295381742,-0.3876874732474486
-0.14172081649303436,-0.2150978446006775,157.66156005859375,-0.0454332944153187,-0.4979721458939215,-0.2326726294122636,-0.37779456898570063
-2.238877773284912,-0.4903738498687744,157.82208251953125,-0.04947649091870212,-0.5043177131335769,-0.2525109509937465,-0.38367349977294607
-0.11838097125291824,1.6652058362960815,157.94058227539062,-0.053848705292524134,-0.510630685908513,-0.27215477386489506,-0.37388323321938516
-0.7883906364440918,0.9658903479576111,157.97610473632812,-0.0584475884408069,-0.5166793581160407,-0.2797112039290368,-0.3519574316839377
-1.7810419797897339,-0.7218812108039856,158.02700805664062,-0.06328787466019598,-0.522528370231804,-0.30112314239765203,-0.3499240222076575
0.43990272283554077,1.6787723302841187,158.0528106689453,-0.06839972837077866,-0.5282939864964121,-0.3122993028722703,-0.34194992954532305
-0.7151988744735718,0.9727504253387451,158.1216583251953,-0.07362383454029137,-0.5338090184641382,-0.3145934374692539,-0.3198539065817992
-1.0860053300857544,0.11461640149354935,158.2811737060547,-0.07899214212342888,-0.5390644053219715,-0.32960347250724825,-0.3107925163581967
-1.034842610359192,0.30151787400245667,158.40296936035156,-0.08463281443885837,-0.5442153823810321,-0.34727720534428946,-0.30732473072906336
-1.86033034324646,0.33238649368286133,158.53134155273438,-0.09062182153859692,-0.5492934400898717,-0.37140364662433656,-0.3020421943316857
0.8406769037246704,-0.7832443118095398,158.69631958007812,-0.09688269158230266,-0.5543587862327697,-0.3799007586203515,-0.3057993428160747
-1.1436681747436523,0.5232668519020081,158.8029327392578,-0.10323541195312928,-0.5594734959366423,-0.382425685878843,-0.30796582164863745
0.15734481811523438,0.8017280697822571,158.8262481689453,-0.10967766806198698,-0.5645142460945581,-0.39064504718407983,-0.29692419730126857
-0.575238823890686,-0.2626698911190033,158.87693786621094,-0.11621743926545605,-0.5694255481205055,-0.3941274972322086,-0.2924320458124081
-0.7289400696754456,0.08309845626354218,158.9281768798828,-0.12287679886471273,-0.574311885789244,-0.404995654678593,-0.2939284744362036
-0.380016565322876,0.9715126752853394,158.90359497070312,-0.12970373732011972,-0.5791374568123787,-0.4142369599702457,-0.2851400483399629
0.3203354775905609,1.1378854513168335,158.7735595703125,-0.13661183117293857,-0.5837433049703641,-0.41473430236801495,-0.26756173061827815
0.3555528223514557,1.984189748764038,158.58018493652344,-0.14347713285824285,-0.587985856369552,-0.40910189986849815,-0.24154443728427089
-1.541634202003479,-0.5699286460876465,158.5019073486328,-0.15037786461852698,-0.5919133844143818,-0.4189859113655984,-0.22975892809530096
-0.5720517635345459,-1.050047516822815,158.4416961669922,-0.15750774688889377,-0.5958551982272834,-0.43659996107841526,-0.24325872945288815
0.2822073996067047,0.23491929471492767,158.3690643310547,-0.16480454098769567,-0.5999661165113668,-0.4390153307778139,-0.2500514646371205
0.4887426495552063,0.1637752652168274,158.3251190185547,-0.17206792496946743,-0.604105953799768,-0.432590747034798,-0.24672900997102257
-0.49140670895576477,0.32753831148147583,158.46356201171875,-0.17927795575750577,-0.6081839849675699,-0.43261294752980267,-0.24263473016520337
-0.2660731375217438,0,158.56900024414062,-0.18654077431678565,-0.6122051514209148,-0.4389252795837819,-0.23990524423619108
0.07270338386297226,0.16919192671775818,158.4981689453125,-0.1938696240982972,-0.6161918227188292,-0.440536694197605,-0.2384953115135431
0.6147346496582031,0.9882155060768127,158.36370849609375,-0.2011641635825961,-0.6200863690612219,-0.4348080439182619,-0.22885024957358835
0.24967998266220093,0.39432698488235474,158.25692749023438,-0.20835093552065598,-0.6238045299922429,-0.4276045886489252,-0.2173290621489286
-1.2298952341079712,0.19619111716747284,158.27218627929688,-0.21554574916837735,-0.6273856728265271,-0.43577304907764,-0.21240807796518005
-1.5278135538101196,-0.5598850846290588,158.32469177246094,-0.22300014087438788,-0.6309510639847983,-0.4587539556436241,-0.21543886102735993
1.018826961517334,0.6664252281188965,158.39845275878906,-0.2306813864262464,-0.634534313047512,-0.4629955105793973,-0.21455102649827795
-0.07979410141706467,0.7230642437934875,158.51817321777344,-0.2383327676539516,-0.6380136711647115,-0.4551702367452284,-0.20297194756567474
-0.159983292222023,0,158.64886474609375,-0.24593558947426367,-0.6413463241627649,-0.4571683816922208,-0.196946412200729
0.19680365920066833,0.3930467367172241,158.787109375,-0.2535525055325383,-0.6446014694538383,-0.4568615453007321,-0.19367102272808548
0,0.9974084496498108,158.92047119140625,-0.261153197700106,-0.6477327604446976,-0.4552215148073932,-0.18208389617502685
0.25710418820381165,-0.30897608399391174,159.05584716796875,-0.2687223684893817,-0.6507196842444442,-0.4530789799056948,-0.17634695979456103
-0.12331968545913696,-1.4257149696350098,159.24916076660156,-0.2762643942306749,-0.6537792648975221,-0.4519641090494892,-0.19080271857480205
-0.702337920665741,-0.43533048033714294,159.35792541503906,-0.2838544667152584,-0.6570885494744614,-0.45884458910052983,-0.20631143065790333
0,0.6350734829902649,159.4500274658203,-0.29155065000031344,-0.6605132022769089,-0.46469740510607765,-0.204646905635794
-0.42398953437805176,0,159.517822265625,-0.29932505046974656,-0.6638798817122978,-0.46823065122589475,-0.1993546266108751
-0.3549019694328308,0.19446757435798645,159.53359985351562,-0.30718298434460944,-0.6671889541298154,-0.4747214137576521,-0.19773406349122521
1.0821586847305298,1.2426855564117432,159.41693115234375,-0.3150445039686746,-0.6703847195539212,-0.46866094113017126,-0.18575778740147747
0.3076685965061188,0.786329984664917,159.2261199951172,-0.32275900387075823,-0.67333977882026,-0.45707904711986586,-0.16884932455917195
-0.9500791430473328,0.41837912797927856,159.12379455566406,-0.32275900387075823,-0.67333977882026,-0.45707904711986586,-0.16884932455917195
-0.06950012594461441,-1.014409065246582,159.17893981933594,-0.32275900387075823,-0.67333977882026,-0.45707904711986586,-0.16884932455917195
-0.08258245140314102,0.270231157541275,159.2882537841797,-0.32275900387075823,-0.67333977882026,-0.45707904711986586,-0.16884932455917195
0.9822394251823425,1.044649362564087,159.26722717285156,-0.32275900387075823,-0.67333977882026,-0.45707904711986586,-0.16884932455917195
-0.5200759768486023,-0.08587385714054108,159.26612854003906,-0.32275900387075823,-0.67333977882026,-0.45707904711986586,-0.16884932455917195
-0.46980127692222595,-0.11863427609205246,159.1798095703125,-0.32275900387075823,-0.67333977882026,-0.45707904711986586,-0.16884932455917195
0.5261819362640381,0.821546733379364,159.0526580810547,-0.32275900387075823,-0.67333977882026,-0.45707904711986586,-0.16884932455917195
0.8338087797164917,0.19630467891693115,158.95559692382812,-0.32275900387075823,-0.67333977882026,-0.45707904711986586,-0.16884932455917195
-0.281476765871048,-0.25865811109542847,158.93959045410156,-0.32275900387075823,-0.67333977882026,-0.45707904711986586,-0.16884932455917195
-0.4660322070121765,-1.093182921409607,158.87356567382812,-0.32275900387075823,-0.67333977882026,-0.45707904711986586,-0.16884932455917195
3.2868635654449463,-0.3284361660480499,158.53616333007812,-0.32275900387075823,-0.67333977882026,-0.45707904711986586,-0.16884932455917195
1.048715353012085,0.2301836907863617,157.9473876953125,-0.32275900387075823,-0.67333977882026,-0.45707904711986586,-0.16884932455917195
1.7687666416168213,0.020748255774378777,157.21240234375,-0.32275900387075823,-0.67333977882026,-0.45707904711986586,-0.16884932455917195
2.7076873779296875,-0.6836341023445129,156.2340545654297,-0.32275900387075823,-0.67333977882026,-0.45707904711986586,-0.16884932455917195
2.1053850650787354,-0.40400707721710205,155.01544189453125,-0.32275900387075823,-0.67333977882026,-0.45707904711986586,-0.16884932455917195
2.7894601821899414,0.43142884969711304,153.5362091064453,-0.32275900387075823,-0.67333977882026,-0.45707904711986586,-0.16884932455917195
0.2089717984199524,0.22794729471206665,151.946044921875,-0.32275900387075823,-0.67333977882026,-0.45707904711986586,-0.16884932455917195
1.4583700895309448,0.025212988257408142,150.19522094726562,-0.32275900387075823,-0.67333977882026,-0.45707904711986586,-0.16884932455917195
1.6993889808654785,-0.2001761645078659,148.3994598388672,-0.32275900387075823,-0.67333977882026,-0.45707904711986586,-0.16884932455917195
1.880812406539917,0.8081739544868469,146.4816131591797,-0.32275900387075823,-0.67333977882026,-0.45707904711986586,-0.16884932455917195
1.406347393989563,-0.44884613156318665,144.53355407714844,-0.32275900387075823,-0.67333977882026,-0.45707904711986586,-0.16884932455917195
1.0484752655029297,0.8364651799201965,142.53126525878906,-0.32275900387075823,-0.67333977882026,-0.45707904711986586,-0.16884932455917195
1.7024567127227783,-0.7199767827987671,140.4986572265625,-0.32275900387075823,-0.67333977882026,-0.45707904711986586,-0.16884932455917195
0.27721211314201355,0.294821172952652,138.46548461914062,-0.32275900387075823,-0.67333977882026,-0.45707904711986586,-0.16884932455917195
0.7111257910728455,0.4563193619251251,136.40335083007812,-0.32275900387075823,-0.67333977882026,-0.45707904711986586,-0.16884932455917195
2.1039979457855225,-0.34356623888015747,134.27577209472656,-0.32275900387075823,-0.67333977882026,-0.45707904711986586,-0.16884932455917195
0.7688090205192566,1.1901849508285522,132.08802795410156,-0.32275900387075823,-0.67333977882026,-0.45707904711986586,-0.16884932455917195
1.254881501197815,-2.1311283111572266,129.84765625,-0.32275900387075823,-0.67333977882026,-0.45707904711986586,-0.16884932455917195
0.8376969695091248,1.2420114278793335,127.64429473876953,-0.32275900387075823,-0.67333977882026,-0.45707904711986586,-0.16884932455917195
0.9285803437232971,0.20465487241744995,125.4671630859375,-0.32275900387075823,-0.67333977882026,-0.45707904711986586,-0.16884932455917195
0.8782405853271484,-0.3705797791481018,123.30168914794922,-0.32275900387075823,-0.67333977882026,-0.45707904711986586,-0.16884932455917195
0.8090773224830627,0.4120422303676605,121.1566390991211,-0.32275900387075823,-0.67333977882026,-0.45707904711986586,-0.16884932455917195
1.170589804649353,-0.9031614661216736,119.03496551513672,-0.32275900387075823,-0.67333977882026,-0.45707904711986586,-0.16884932455917195
0.5834527611732483,0.4473719596862793,116.8905029296875,-0.32275900387075823,-0.67333977882026,-0.45707904711986586,-0.16884932455917195
0.423404723405838,-0.08512730896472931,114.65401458740234,-0.32275900387075823,-0.67333977882026,-0.45707904711986586,-0.16884932455917195
0.29466328024864197,1.0129514932632446,112.41200256347656,-0.32275900387075823,-0.67333977882026,-0.45707904711986586,-0.16884932455917195
1.0516281127929688,-0.583408772945404,110.10572052001953,-0.32275900387075823,-0.67333977882026,-0.45707904711986586,-0.16884932455917195
0.8551114797592163,-0.3187708258628845,107.85847473144531,-0.32275900387075823,-0.67333977882026,-0.45707904711986586,-0.16884932455917195
0.7549132108688354,-1.0205327272415161,105.62032318115234,-0.32275900387075823,-0.67333977882026,-0.45707904711986586,-0.16884932455917195
-0.004441991914063692,-0.7739126682281494,103.32411193847656,-0.32275900387075823,-0.67333977882026,-0.45707904711986586,-0.16884932455917195
0.5565747022628784,0.09125825017690659,101.05665588378906,-0.32275900387075823,-0.67333977882026,-0.45707904711986586,-0.16884932455917195
0.38560664653778076,0.07504396140575409,98.83334350585938,-0.32275900387075823,-0.67333977882026,-0.45707904711986586,-0.16884932455917195
0.3127977252006531,0.3917433023452759,96.6019058227539,-0.32275900387075823,-0.67333977882026,-0.45707904711986586,-0.16884932455917195
0.8552879095077515,-1.2600222826004028,94.44316101074219,-0.32275900387075823,-0.67333977882026,-0.45707904711986586,-0.16884932455917195
-0.3027670085430145,-0.375633180141449,92.3256607055664,-0.32275900387075823,-0.67333977882026,-0.45707904711986586,-0.16884932455917195
1.2978254556655884,0.7210069298744202,90.15499877929688,-0.32275900387075823,-0.67333977882026,-0.45707904711986586,-0.16884932455917195
-0.6143410801887512,-0.9538276791572571,87.95545196533203,-0.32275900387075823,-0.67333977882026,-0.45707904711986586,-0.16884932455917195
0.6061375141143799,-0.2688778340816498,85.76380157470703,-0.32275900387075823,-0.67333977882026,-0.45707904711986586,-0.16884932455917195
0.5994269251823425,-0.8428055047988892,83.64998626708984,-0.32275900387075823,-0.67333977882026,-0.45707904711986586,-0.16884932455917195
-1.2949261665344238,-0.9626529812812805,81.40206146240234,-0.32275900387075823,-0.67333977882026,-0.45707904711986586,-0.16884932455917195
1.836751103401184,1.7053589820861816,79.32170104980469,-0.32275900387075823,-0.67333977882026,-0.45707904711986586,-0.16884932455917195
-0.15746933221817017,-1.8600090742111206,77.49337005615234,-0.32275900387075823,-0.67333977882026,-0.45707904711986586,-0.16884932455917195
-0.28372353315353394,1.7650222778320312,76.08421325683594,-0.32275900387075823,-0.67333977882026,-0.45707904711986586,-0.16884932455917195
-1.6455714702606201,0.0681338980793953,74.88097381591797,-0.32275900387075823,-0.67333977882026,-0.45707904711986586,-0.16884932455917195
-0.946590006351471,1.6661595106124878,74.08626556396484,-0.32275900387075823,-0.67333977882026,-0.45707904711986586,-0.16884932455917195
-1.0336084365844727,0.6945347785949707,73.57695770263672,-0.32275900387075823,-0.67333977882026,-0.45707904711986586,-0.16884932455917195
-0.4839005172252655,0.5501349568367004,73.48821258544922,-0.32275900387075823,-0.67333977882026,-0.45707904711986586,-0.16884932455917195
-0.06031251326203346,0.2709559500217438,73.60078430175781,-0.32275900387075823,-0.67333977882026,-0.45707904711986586,-0.16884932455917195
0.28688347339630127,-1.312232255935669,73.62583923339844,-0.32275900387075823,-0.67333977882026,-0.45707904711986586,-0.16884932455917195
-0.24935594201087952,-0.6233184337615967,73.55921173095703,-0.32275900387075823,-0.67333977882026,-0.45707904711986586,-0.16884932455917195
0.2468542456626892,-0.039997901767492294,73.56648254394531,-0.32275900387075823,-0.67333977882026,-0.45707904711986586,-0.16884932455917195
0.2645837366580963,0.30050164461135864,73.60379791259766,-0.32275900387075823,-0.67333977882026,-0.45707904711986586,-0.16884932455917195
0.1724582314491272,0.5262172222137451,73.61599731445312,-0.32275900387075823,-0.67333977882026,-0.45707904711986586,-0.16884932455917195
0.3859412670135498,0.34845632314682007,73.60734558105469,-0.32275900387075823,-0.67333977882026,-0.45707904711986586,-0.16884932455917195
0.16118115186691284,0.22380976378917694,73.61884307861328,-0.32275900387075823,-0.67333977882026,-0.45707904711986586,-0.16884932455917195
0.19798651337623596,-0.007159699685871601,73.61893463134766,-0.32275900387075823,-0.67333977882026,-0.45707904711986586,-0.16884932455917195
0.11847642064094543,-0.0921444445848465,73.61454772949219,-0.32275900387075823,-0.67333977882026,-0.45707904711986586,-0.16884932455917195
0.1958937793970108,-0.02443835325539112,73.62014770507812,-0.32275900387075823,-0.67333977882026,-0.45707904711986586,-0.16884932455917195
0.1427244246006012,0.12478119134902954,73.61885833740234,-0.32275900387075823,-0.67333977882026,-0.45707904711986586,-0.16884932455917195
0.2615377604961395,0.2841128706932068,73.62236022949219,-0.32275900387075823,-0.67333977882026,-0.45707904711986586,-0.16884932455917195
0.1922377347946167,0.12269684672355652,73.6231460571289,-0.32275900387075823,-0.67333977882026,-0.45707904711986586,-0.16884932455917195
0.17414590716362,0.02830558456480503,73.62226867675781,-0.32275900387075823,-0.67333977882026,-0.45707904711986586,-0.16884932455917195
0.1978512853384018,0.05655812472105026,73.62226104736328,-0.32275900387075823,-0.67333977882026,-0.45707904711986586,-0.16884932455917195
0.20366546511650085,0.12233541905879974,73.62459564208984,-0.32275900387075823,-0.67333977882026,-0.45707904711986586,-0.16884932455917195
0.192948579788208,0.1672622263431549,73.62480163574219,-0.32275900387075823,-0.67333977882026,-0.45707904711986586,-0.16884932455917195
0.2068081945180893,0.10129250586032867,73.62531280517578,-0.32275900387075823,-0.67333977882026,-0.45707904711986586,-0.16884932455917195
0.1773861199617386,0.052789751440286636,73.62580871582031,-0.32275900387075823,-0.67333977882026,-0.45707904711986586,-0.16884932455917195
0.17791222035884857,0.08645345270633698,73.62577819824219,-0.32275900387075823,-0.67333977882026,-0.45707904711986586,-0.16884932455917195
0.18793641030788422,0.13151533901691437,73.62606811523438,-0.33035158183451524,-0.676138797507932,-0.4540303085309764,-0.1670329179614782
0.17479869723320007,0.11457952111959457,73.62662506103516,-0.3378935637053412,-0.6789055895531139,-0.45100751596813404,-0.16498212746034063
0.13784804940223694,0.24782343208789825,73.6313705444336,-0.34538864405851594,-0.6816301248057024,-0.4484021264128387,-0.1619621028502782
0.6770500540733337,2.028285026550293,73.66259002685547,-0.3528054226859886,-0.684171430099135,-0.4416113088838756,-0.14299453236162663
0.8922089338302612,2.8610782623291016,73.80487060546875,-0.3600566348487821,-0.6862151331878787,-0.42853415065134565,-0.10224983828763168
0.7740285396575928,2.5660383701324463,73.84005737304688,-0.3670831597573123,-0.6875424140598628,-0.41464883837228017,-0.05702386635045211
0.431774765253067,1.2901411056518555,73.8510971069336,-0.37391023738956486,-0.6882250215909964,-0.4046004774980247,-0.02488903738558293
0,1.0139213800430298,73.9805908203125,-0.3806235943225005,-0.6884798345414718,-0.40100235445424914,-0.005688516671458886
0.15879304707050323,1.3297909498214722,74.1314468383789,-0.38729593960180253,-0.6884118853519777,-0.39967907906199496,0.013842419410745297
1.5020660161972046,1.6913633346557617,74.26276397705078,-0.39384192015122,-0.6879713759809322,-0.3858385868680974,0.039018705114722246
0.6295159459114075,1.702674150466919,74.4511947631836,-0.4001245367405418,-0.6870853671814422,-0.3680754038505256,0.06730235082407791
-0.6981984972953796,1.6666123867034912,74.55445098876953,-0.40626389642634114,-0.6857296831026263,-0.36864775844539205,0.09537973863383133
1.7949671745300293,-0.9995036721229553,74.60476684570312,-0.4123318612422897,-0.6840936937979943,-0.35950801946843663,0.10093897792200246
0.3404064178466797,2.6274943351745605,74.6722412109375,-0.4181753717339597,-0.682298322592138,-0.3417132395319641,0.11450556678076584
0.6857375502586365,1.0529199838638306,74.76570129394531,-0.42379933239504064,-0.6801343121514142,-0.3331620397977531,0.14517568610608578
0.9952418208122253,0.654885470867157,74.847412109375,-0.4292352983797899,-0.6775961197819564,-0.3191538783721626,0.159407398228844
-1.1754201650619507,1.7930395603179932,74.89583587646484,-0.43456704207100993,-0.6747693350176434,-0.32065536457424365,0.17980677348872026
-0.9074180126190186,1.320690393447876,75.04239654541016,-0.44005593968736406,-0.6715563242127087,-0.33801234938825175,0.20575452310343584
1.0803873538970947,0.3469213843345642,75.17229461669922,-0.44567746708402395,-0.6680112757875277,-0.3365709382109345,0.2196512879182895
0,0.54470294713974,75.31414031982422,-0.4512119558212967,-0.6642885026325371,-0.32756771026179204,0.22708149068057537
0,1.2793917655944824,75.30099487304688,-0.4566714176589932,-0.6603771378772544,-0.32756771026179204,0.24228227995336055
0.5485711693763733,0.43465423583984375,75.23412322998047,-0.46209278427659417,-0.6562200689057098,-0.32299628385032225,0.25656599663197993
1.3152925968170166,0.40697935223579407,75.11302185058594,-0.4673466206903361,-0.6518855221848938,-0.30746408579871065,0.2635796098659436
1.7629210948944092,0.8848992586135864,74.96273040771484,-0.47225725728061246,-0.647402814894708,-0.28181230503444876,0.2743452649563551
-0.12865585088729858,-0.6075816750526428,74.90316772460938,-0.4768406383892417,-0.642811135646577,-0.26819342800105617,0.27665624481936296
-1.3521952629089355,1.2252044677734375,74.97394561767578,-0.4814133657388285,-0.6381573077612043,-0.2805338539493581,0.2818031014253696
-0.1638779193162918,0.5722185373306274,74.94011688232422,-0.4861942128311945,-0.6333357683620937,-0.2931677971345683,0.29678162646790346
1.3650617599487305,1.3457969427108765,74.86517333984375,-0.49099692723894894,-0.6282562124015146,-0.28315793179596466,0.31276508880158266
0.7339361310005188,0.2914484441280365,74.85286712646484,-0.49557046235978797,-0.62292976332518,-0.2656662827047209,0.3264088003585736
-0.3597020208835602,0.32072460651397705,74.837890625,-0.4999722452583307,-0.6174471046351314,-0.26254766512041294,0.3315102424472571
0.419256329536438,-0.9732750058174133,74.81146240234375,-0.5043439039611256,-0.6119672499276287,-0.2620513792149723,0.3260723224530618
0.3745954930782318,0.2904732823371887,74.75975799560547,-0.5086562983492491,-0.6065801280064305,-0.25543594735985004,0.3203823080907266
-0.2737730145454407,0.4745102524757385,74.66267395019531,-0.5129065625775707,-0.6011872990150008,-0.25459576003874346,0.32675717088083434
0.44338148832321167,1.4509433507919312,74.65410614013672,-0.5171380468786485,-0.5956076341112044,-0.25318235609059536,0.34280261757473157
0.7902476191520691,0.11794251948595047,74.75979614257812,-0.5212720841254727,-0.5897853067439673,-0.24290211352830135,0.3558766664937139
-1.0010205507278442,0.05096958205103874,74.84439849853516,-0.5253350896934149,-0.5838422989620209,-0.24465855462476616,0.35728426733985547
0.9762389063835144,0,74.92093658447266,-0.5294144532180183,-0.5778840216187142,-0.24486506832763558,0.3577090138569475
-0.2080772966146469,0.08217353373765945,74.96265411376953,-0.5334421931339116,-0.5719164982257,-0.2384637215795617,0.3583937933047613
-0.38965389132499695,0.5374912619590759,74.98682403564453,-0.5374580976038446,-0.5659002360598084,-0.24344481481239205,0.3635576666022341
0.9097124934196472,0.3286973834037781,75.07025909423828,-0.54147939600335,-0.5597807896271766,-0.23911099312826997,0.3707759053135912
0.677765965461731,0.3851584792137146,75.20352172851562,-0.54535433766251,-0.5535516178814905,-0.22588200597092514,0.376724704168737
0.6669881343841553,-0.270084023475647,75.22823333740234,-0.5490256520606472,-0.5472648815303631,-0.21467572180554276,0.37768365796655423
0.4690617322921753,0.460991770029068,75.2373275756836,-0.5525246884055538,-0.5409568964151876,-0.20520863958324,0.37927455585449943
-0.7128522992134094,0.666890025138855,75.26155090332031,-0.5559617622990884,-0.5345573286929481,-0.20724022764091696,0.3886735708142321
-0.8424069285392761,0.08632311969995499,75.42523193359375,-0.5595237702061421,-0.5280271293776527,-0.22020072120552267,0.39495034702122217
-0.2940939962863922,1.0263038873672485,75.67558288574219,-0.5632727059015692,-0.521367357829586,-0.22967156224573657,0.4042222387467822
1.11101496219635,-0.1950095146894455,75.74919891357422,-0.5670438346496989,-0.5145725917412592,-0.22286388752982025,0.41114969185243055
0.7374251484870911,-0.08872229605913162,75.60487365722656,-0.5706298688786207,-0.5077398004750208,-0.20746021994079158,0.4087852600961924
0.5546337962150574,0.6385942697525024,75.35619354248047,-0.5739978128953629,-0.5008885272530221,-0.1966930620682737,0.4133675265436372
1.3247333765029907,-0.7536072731018066,75.29342651367188,-0.5771455189872843,-0.4940070554914163,-0.18103166896228995,0.41240908484905964
-0.8273264765739441,0.2987416684627533,75.3797607421875,-0.5801281713241607,-0.487165158633143,-0.17688661146288123,0.40861853814373417
-0.46886107325553894,0.8060364127159119,75.38810729980469,-0.5831662945395024,-0.48027812896399896,-0.18768817437812693,0.4178250221535564
0.4657045900821686,-0.10093320906162262,75.33573150634766,-0.5862946499793582,-0.47326541309451925,-0.18771447840457167,0.4237008821840088
0,0.34708353877067566,75.34794616699219,-0.589390884022901,-0.4661866379518893,-0.1838336068205536,0.42575213493158426
0.1699022501707077,-0.24584414064884186,75.35923767089844,-0.5924429787025373,-0.4590837385226044,-0.18241775473579772,0.42659579658259955
1.0361130237579346,-1.3351850509643555,75.38436126708984,-0.5953995235541111,-0.45208360227342315,-0.17236762745305903,0.4134205533191562
0.14548365771770477,1.4492319822311401,75.26441955566406,-0.5981902620198929,-0.44518533979232144,-0.16252098844076204,0.4143709444130461
-0.4107421934604645,-0.49132096767425537,75.09822082519531,-0.6009173658922211,-0.4382126357872042,-0.16473147623861836,0.4223535362010202
0.611581563949585,0.5116658210754395,75.15448760986328,-0.6036489433176919,-0.4311719973468121,-0.16305781481787568,0.42252307664603006
-1.2378207445144653,-0.7915552854537964,75.35054016113281,-0.6064100623966402,-0.4241493828377379,-0.16827647465591636,0.42019066444287706
0.20531581342220306,0.410257488489151,75.42144012451172,-0.609286372038898,-0.4171726841107014,-0.17688068241501853,0.417013182801505
-0.13138078153133392,0.17525692284107208,75.46310424804688,-0.612229249035267,-0.41018180367433393,-0.1762645571492613,0.4218924695625902
0.5232452750205994,-0.12001561373472214,75.48472595214844,-0.6151397788423735,-0.4031464263129362,-0.17299901970351741,0.4223528138051431
1.2119728326797485,0.21658989787101746,75.56468200683594,-0.6179025945799529,-0.39610050620200765,-0.1585388688060145,0.4231575995062789
0.5812827944755554,-0.06068098917603493,75.60939025878906,-0.6179025945799529,-0.39610050620200765,-0.1585388688060145,0.4231575995062789
0.6414288282394409,0.7198593020439148,75.6104736328125,-0.6179025945799529,-0.39610050620200765,-0.1585388688060145,0.4231575995062789
-1.0933446884155273,0.49025169014930725,75.62215423583984,-0.6179025945799529,-0.39610050620200765,-0.1585388688060145,0.4231575995062789
-0.9158567786216736,-0.0644945502281189,75.7917251586914,-0.6179025945799529,-0.39610050620200765,-0.1585388688060145,0.4231575995062789
0.10884195566177368,0.4342142343521118,76.02391815185547,-0.6179025945799529,-0.39610050620200765,-0.1585388688060145,0.4231575995062789
0.5767464637756348,-0.7350896000862122,76.04405212402344,-0.6179025945799529,-0.39610050620200765,-0.1585388688060145,0.4231575995062789
-0.7630511522293091,-2.7261343002319336,75.71327209472656,-0.6179025945799529,-0.39610050620200765,-0.1585388688060145,0.4231575995062789
0.14524483680725098,-1.4369784593582153,75.04776763916016,-0.6179025945799529,-0.39610050620200765,-0.1585388688060145,0.4231575995062789
1.3497438430786133,-2.428974151611328,74.28788757324219,-0.6179025945799529,-0.39610050620200765,-0.1585388688060145,0.4231575995062789
0.21963386237621307,-0.8732417225837708,73.47977447509766,-0.6179025945799529,-0.39610050620200765,-0.1585388688060145,0.4231575995062789
0.5624336004257202,-2.678441286087036,72.46125030517578,-0.6179025945799529,-0.39610050620200765,-0.1585388688060145,0.4231575995062789
0.8882966041564941,-0.9506416320800781,71.30348205566406,-0.6179025945799529,-0.39610050620200765,-0.1585388688060145,0.4231575995062789
-0.3986426889896393,-1.460321307182312,69.98749542236328,-0.6179025945799529,-0.39610050620200765,-0.1585388688060145,0.4231575995062789
0.29265913367271423,-0.4626036286354065,68.58960723876953,-0.6179025945799529,-0.39610050620200765,-0.1585388688060145,0.4231575995062789
0.7605786323547363,-2.0598270893096924,67.07888793945312,-0.6179025945799529,-0.39610050620200765,-0.1585388688060145,0.4231575995062789
-0.5114112496376038,-1.8138866424560547,65.49544525146484,-0.6179025945799529,-0.39610050620200765,-0.1585388688060145,0.4231575995062789
0.049146153032779694,-1.3277926445007324,63.7958869934082,-0.6179025945799529,-0.39610050620200765,-0.1585388688060145,0.4231575995062789
-0.3278590440750122,-1.2142361402511597,62.00796127319336,-0.6179025945799529,-0.39610050620200765,-0.1585388688060145,0.4231575995062789
0.16872797906398773,-0.8054512143135071,60.09431457519531,-0.6179025945799529,-0.39610050620200765,-0.1585388688060145,0.4231575995062789
-0.4932929277420044,-0.26743271946907043,58.09157943725586,-0.6179025945799529,-0.39610050620200765,-0.1585388688060145,0.4231575995062789
-0.3665902018547058,-1.3108155727386475,56.00537109375,-0.6179025945799529,-0.39610050620200765,-0.1585388688060145,0.4231575995062789
0.650833249092102,-1.3251776695251465,53.884544372558594,-0.6179025945799529,-0.39610050620200765,-0.1585388688060145,0.4231575995062789
-0.5241050720214844,-1.5276236534118652,51.6979866027832,-0.6179025945799529,-0.39610050620200765,-0.1585388688060145,0.4231575995062789
0.47105672955513,-1.0862960815429688,49.459693908691406,-0.6179025945799529,-0.39610050620200765,-0.1585388688060145,0.4231575995062789
-0.6305037140846252,-1.3679968118667603,47.15828323364258,-0.6179025945799529,-0.39610050620200765,-0.1585388688060145,0.4231575995062789
0.19532056152820587,-0.47371676564216614,44.83993911743164,-0.6179025945799529,-0.39610050620200765,-0.1585388688060145,0.4231575995062789
0.04317423328757286,-1.2568321228027344,42.49394226074219,-0.6179025945799529,-0.39610050620200765,-0.1585388688060145,0.4231575995062789
-0.9360913038253784,-0.47702643275260925,40.09877395629883,-0.6179025945799529,-0.39610050620200765,-0.1585388688060145,0.4231575995062789
0.7218198776245117,-0.9957292079925537,37.70232009887695,-0.6179025945799529,-0.39610050620200765,-0.1585388688060145,0.4231575995062789
0.7696406245231628,-0.6640400886535645,35.30634689331055,-0.6179025945799529,-0.39610050620200765,-0.1585388688060145,0.4231575995062789
-0.40561461448669434,-0.9026908874511719,32.90647888183594,-0.6179025945799529,-0.39610050620200765,-0.1585388688060145,0.4231575995062789
0.6729266047477722,-0.5469029545783997,30.485891342163086,-0.6179025945799529,-0.39610050620200765,-0.1585388688060145,0.4231575995062789
-0.46968793869018555,-1.0991870164871216,28.144119262695312,-0.6179025945799529,-0.39610050620200765,-0.1585388688060145,0.4231575995062789
-1.292647123336792,-0.024524027481675148,25.863262176513672,-0.6179025945799529,-0.39610050620200765,-0.1585388688060145,0.4231575995062789
-0.04131247475743294,-0.26890507340431213,23.60029411315918,-0.6179025945799529,-0.39610050620200765,-0.1585388688060145,0.4231575995062789
0.8723416924476624,-0.9891544580459595,21.42035675048828,-0.6179025945799529,-0.39610050620200765,-0.1585388688060145,0.4231575995062789
0.07827457040548325,-0.8993606567382812,19.18795394897461,-0.6179025945799529,-0.39610050620200765,-0.1585388688060145,0.4231575995062789
-0.8238214254379272,0.22760693728923798,16.90492057800293,-0.6179025945799529,-0.39610050620200765,-0.1585388688060145,0.4231575995062789
-0.4334335923194885,-0.2672310173511505,14.656435012817383,-0.6179025945799529,-0.39610050620200765,-0.1585388688060145,0.4231575995062789
-2.0880825519561768,0.2583652138710022,12.381796836853027,-0.6179025945799529,-0.39610050620200765,-0.1585388688060145,0.4231575995062789
1.2368860244750977,-0.7902185320854187,10.14951229095459,-0.6179025945799529,-0.39610050620200765,-0.1585388688060145,0.4231575995062789
-1.1751644611358643,1.3758277893066406,7.800614833831787,-0.6179025945799529,-0.39610050620200765,-0.1585388688060145,0.4231575995062789
0.5156564712524414,-2.380143165588379,5.427975177764893,-0.6179025945799529,-0.39610050620200765,-0.1585388688060145,0.4231575995062789
0.38973891735076904,0.19078557193279266,2.999711513519287,-0.6179025945799529,-0.39610050620200765,-0.1585388688060145,0.4231575995062789
-1.9583852291107178,0.3980284333229065,0.4544064700603485,-0.6179025945799529,-0.39610050620200765,-0.1585388688060145,0.4231575995062789
1.1119524240493774,-1.613263487815857,-2.0470964908599854,-0.6179025945799529,-0.39610050620200765,-0.1585388688060145,0.4231575995062789
-0.42545413970947266,0.5194242000579834,-4.6877617835998535,-0.6179025945799529,-0.39610050620200765,-0.1585388688060145,0.4231575995062789
0.16926099359989166,-1.8126683235168457,-7.2358245849609375,-0.6179025945799529,-0.39610050620200765,-0.1585388688060145,0.4231575995062789
-0.7441714406013489,1.0221686363220215,-9.87531566619873,-0.6179025945799529,-0.39610050620200765,-0.1585388688060145,0.4231575995062789
0.06267577409744263,0.5327545404434204,-12.56791877746582,-0.6179025945799529,-0.39610050620200765,-0.1585388688060145,0.4231575995062789
-1.3713774681091309,-0.8930444121360779,-15.141807556152344,-0.6179025945799529,-0.39610050620200765,-0.1585388688060145,0.4231575995062789
0.26415345072746277,-0.07547976821660995,-17.37788200378418,-0.6179025945799529,-0.39610050620200765,-0.1585388688060145,0.4231575995062789
0.40354466438293457,1.1624912023544312,-19.315269470214844,-0.6179025945799529,-0.39610050620200765,-0.1585388688060145,0.4231575995062789
0.4463889002799988,2.0250229835510254,-20.908191680908203,-0.6179025945799529,-0.39610050620200765,-0.1585388688060145,0.4231575995062789
0.451343834400177,1.0806206464767456,-22.12574577331543,-0.6179025945799529,-0.39610050620200765,-0.1585388688060145,0.4231575995062789
0.5232753753662109,0.5809892416000366,-22.959135055541992,-0.6179025945799529,-0.39610050620200765,-0.1585388688060145,0.4231575995062789
1.0589349269866943,1.1644043922424316,-23.462600708007812,-0.6179025945799529,-0.39610050620200765,-0.1585388688060145,0.4231575995062789
1.6194177865982056,0.583929181098938,-23.658672332763672,-0.6179025945799529,-0.39610050620200765,-0.1585388688060145,0.4231575995062789
1.2693543434143066,-0.34854185581207275,-23.598133087158203,-0.6179025945799529,-0.39610050620200765,-0.1585388688060145,0.4231575995062789
0.559536874294281,-0.33064553141593933,-23.56203842163086,-0.6179025945799529,-0.39610050620200765,-0.1585388688060145,0.4231575995062789
0.23146523535251617,-0.20609241724014282,-23.58426856994629,-0.6179025945799529,-0.39610050620200765,-0.1585388688060145,0.4231575995062789
-0.3465820252895355,-0.03516572341322899,-23.566673278808594,-0.6179025945799529,-0.39610050620200765,-0.1585388688060145,0.4231575995062789
-0.20709890127182007,0.04746684059500694,-23.560510635375977,-0.6179025945799529,-0.39610050620200765,-0.1585388688060145,0.4231575995062789
-0.21741953492164612,-0.013873174786567688,-23.570741653442383,-0.6179025945799529,-0.39610050620200765,-0.1585388688060145,0.4231575995062789
0.13574928045272827,-0.20852801203727722,-23.561237335205078,-0.6179025945799529,-0.39610050620200765,-0.1585388688060145,0.4231575995062789
0.3102836608886719,-0.11127731949090958,-23.557212829589844,-0.6179025945799529,-0.39610050620200765,-0.1585388688060145,0.4231575995062789
0.2868669629096985,-0.22860302031040192,-23.561355590820312,-0.6179025945799529,-0.39610050620200765,-0.1585388688060145,0.4231575995062789
0.09431484341621399,-0.15423743426799774,-23.556175231933594,-0.6179025945799529,-0.39610050620200765,-0.1585388688060145,0.4231575995062789
-0.03585539758205414,-0.027807537466287613,-23.555038452148438,-0.6179025945799529,-0.39610050620200765,-0.1585388688060145,0.4231575995062789
-0.004963552579283714,-0.11063782870769501,-23.558971405029297,-0.6179025945799529,-0.39610050620200765,-0.1585388688060145,0.4231575995062789
0.14794239401817322,-0.17284104228019714,-23.55647850036621,-0.6179025945799529,-0.39610050620200765,-0.1585388688060145,0.4231575995062789
0.1844015121459961,-0.13586749136447906,-23.557220458984375,-0.6179025945799529,-0.39610050620200765,-0.1585388688060145,0.4231575995062789
0.09705934673547745,-0.1396656334400177,-23.55545425415039,-0.6179025945799529,-0.39610050620200765,-0.1585388688060145,0.4231575995062789
0.05450686067342758,-0.12373668700456619,-23.553802490234375,-0.6179025945799529,-0.39610050620200765,-0.1585388688060145,0.4231575995062789
0.05372871458530426,-0.11322731524705887,-23.553781509399414,-0.6179025945799529,-0.39610050620200765,-0.1585388688060145,0.4231575995062789
0.11295237392187119,-0.13497716188430786,-23.554161071777344,-0.6179025945799529,-0.39610050620200765,-0.1585388688060145,0.4231575995062789
0.14902827143669128,-0.13856081664562225,-23.55384635925293,-0.6179025945799529,-0.39610050620200765,-0.1585388688060145,0.4231575995062789
0.10053994506597519,-0.12824511528015137,-23.552459716796875,-0.6205275779339071,-0.3890664077332867,-0.1564591336684923,0.4209342167402308
0.13750110566616058,-0.20816132426261902,-23.557872772216797,-0.6231186995331922,-0.38207419901258444,-0.15447545824572448,0.41813082974404103
1.540271520614624,-0.7569822669029236,-23.567136764526367,-0.6255767785160181,-0.37517237571068135,-0.1404940196933846,0.41008796648432816
2.1375539302825928,-0.37562650442123413,-23.42371940612793,-0.6276629409657066,-0.3684162296561734,-0.10984547426924113,0.40064956005662683
2.6977860927581787,-1.0823643207550049,-23.32465934753418,-0.6291579113685939,-0.3618399863514224,-0.0695509740772347,0.3884996365134915
1.9069122076034546,-1.3895167112350464,-23.39783477783203,-0.6299973235545783,-0.3555366508145302,-0.031178488240887765,0.3679006279135744
1.275530457496643,-1.0242984294891357,-23.367116928100586,-0.6302959620624056,-0.34957259973407645,-0.004658132698386951,0.3477855017408729
1.041584849357605,0,-23.345964431762695,-0.6302126868221805,-0.3438473065404431,0.01465116152539845,0.33924968149513013
1.097335696220398,-0.5671993494033813,-23.438779830932617,-0.6298199646477587,-0.3382325340258995,0.032475499405215144,0.33452302025010194
1.7211469411849976,-1.336869478225708,-23.56329345703125,-0.6290829783634075,-0.3327893773569831,0.055962854716926774,0.31865578001985956
1.2851293087005615,-0.26068800687789917,-23.63838005065918,-0.6279414949341056,-0.32758938918200653,0.08101515679930643,0.3053428009773295
1.541695475578308,0,-23.669967651367188,-0.6263949350440977,-0.322518445832862,0.10457203000163035,0.3031704009200137
0.6891518235206604,-0.41374602913856506,-23.640670776367188,-0.6244971479260776,-0.317494338180663,0.12316242416078842,0.29972251734385896
1.0128859281539917,-0.217680424451828,-23.639089584350586,-0.6223262437906426,-0.3125428119508758,0.13734607209141053,0.2944606302306057
2.356343984603882,-0.7151075005531311,-23.591428756713867,-0.619803168289622,-0.30769991171960215,0.16542298803105948,0.28668739752223105
-1.105522632598877,-0.29984790086746216,-23.584482192993164,-0.6169592558952152,-0.3029922714415525,0.17584649929776786,0.2782294358437261
1.5054287910461426,-0.6545795798301697,-23.61693572998047,-0.6140007096459158,-0.29842139386364996,0.17917905061816172,0.27027587350457916
0.3522808849811554,-0.0821584165096283,-23.5712833404541,-0.6108853845192224,-0.2939679583327639,0.19465996458505588,0.2641363902017475
0.91949862241745,-0.414939284324646,-23.51850700378418,-0.607552733754791,-0.28960020583640383,0.20525812714671093,0.2599939093614619
0.1028677374124527,-1.5696486234664917,-23.385400772094727,-0.6040607673051355,-0.2854047926184205,0.21377784681196013,0.24345567679653574
0.7114248275756836,-0.2786310315132141,-23.315387725830078,-0.600441255096812,-0.2814755507589629,0.22056361818686127,0.22805334633837152
0.9176590442657471,1.2085667848587036,-23.2860050201416,-0.5966520639692642,-0.2776100827815633,0.23413931711887317,0.23580281094958394
0.2555570900440216,0,-23.235153198242188,-0.5926682686746225,-0.27359610768345505,0.24391611823812126,0.24587420082340647
0.4559609889984131,-0.507235050201416,-23.14995574951172,-0.5885535890596092,-0.26953342899266225,0.24984543556347488,0.241647242071728
0.5620129108428955,-0.7714704871177673,-23.057933807373047,-0.5843188058349512,-0.2655947739537806,0.2583285513954858,0.23099136259406813
1.159201741218567,-0.24461856484413147,-22.941253662109375,-0.5798938011830778,-0.26181547965026575,0.2726720068293313,0.22252395382771897
0.2191450148820877,-0.38473811745643616,-22.82678985595703,-0.575253549211193,-0.2581504524116302,0.28415822979683675,0.21727931480854756
0.3267093300819397,-0.704365611076355,-22.69873046875,-0.5704796721628455,-0.25460476270152477,0.2887070160048703,0.20820345040410765
0.2306000143289566,-0.506995677947998,-22.711267471313477,-0.565629186524958,-0.25121882750652746,0.2933512605416278,0.19810877299557136
0.14768250286579132,-0.5940103530883789,-22.74692153930664,-0.5607137292300145,-0.24799347337542324,0.29650361485158405,0.1889337227369349
0.7602786421775818,0.8787990808486938,-22.750314712524414,-0.5557089494585268,-0.24482480100149098,0.3040699577269455,0.19130696213493753
-0.4052209258079529,-0.2414339780807495,-22.75886344909668,-0.5506164600438853,-0.24159209016710537,0.30702877203002577,0.19661833799133707
-0.2706139385700226,-0.8452512621879578,-22.696674346923828,-0.5455462468200778,-0.23839058212004618,0.30139681482687597,0.1875626276557645
0.8315940499305725,0.6892123818397522,-22.645111083984375,-0.5404840096207854,-0.23527537435914095,0.3060716490882139,0.18626230365286278
1.1343894004821777,0.5017937421798706,-22.700023651123047,-0.5352462888408143,-0.23208829387298077,0.3224548445083201,0.19618735468635964
1.2350589036941528,-1.9381604194641113,-22.758108139038086,-0.529707496411219,-0.22891825231413063,0.3422002470431229,0.18421763237565764
0.2514844834804535,0.1699080914258957,-22.703676223754883,-0.5239009267808353,-0.2259707537417612,0.3545881086029113,0.1694821963086725
-0.7571359276771545,0.146804079413414,-22.674758911132812,-0.5180262396544115,-0.22312405656919726,0.35037434656793875,0.17212146439900008
-0.5036066770553589,-0.6133155226707458,-22.7858943939209,-0.5122742187813857,-0.22028776212388457,0.3398681581951678,0.16823386903852233
0.327218621969223,0.4488673806190491,-22.915376663208008,-0.506621998648625,-0.21749528431644055,0.33839825773611665,0.1668634678547582
0.8557074666023254,0,-22.990894317626953,-0.5008998800413167,-0.21468305517298492,0.3482559751408795,0.17060402935991695
1.9172956943511963,-0.7227782011032104,-22.860097885131836,-0.49490304412501357,-0.21188984761428514,0.3713643348154922,0.16458087768405685
-0.7643980383872986,0.8378419280052185,-22.80142593383789,-0.48863357620753567,-0.2091388424496271,0.38097181528185803,0.16553974207490693
0.378900408744812,-0.5321701765060425,-22.833425521850586,-0.4823108166215632,-0.20635861954341345,0.37775933503483733,0.1680870066707334
-0.7611927390098572,-0.9098421335220337,-22.85540008544922,-0.4760413757828066,-0.2036573091759865,0.37457356561596195,0.15607023742049944
0.8469446897506714,-0.9709155559539795,-22.743444442749023,-0.46979252802596133,-0.2011867467251918,0.3752881652054687,0.140397256674866
-1.0052932500839233,0.22297780215740204,-22.632781982421875,-0.4635487217003378,-0.1988987325690688,0.37396859386935827,0.13416444205989453
0.5873614549636841,1.5861127376556396,-22.554452896118164,-0.4573449348438429,-0.1965370272472502,0.37048582891002296,0.14924019655833654
0,0,-22.503116607666016,-0.45112938203874786,-0.19393954392005183,0.375380507701387,0.16245780270546686
0,-0.8036378622055054,-22.49597930908203,-0.44487304024372476,-0.1912877220598361,0.375380507701387,0.15576082052042098
0.6356849670410156,-0.25490015745162964,-22.424230575561523,-0.4385725536593238,-0.18876521796919415,0.3806778824267288,0.1469396703566115
0.29360100626945496,-0.2578427195549011,-22.327407836914062,-0.43216338853739844,-0.1863518306074872,0.38842193220431603,0.14266681304822376
0.05579351633787155,-1.0907319784164429,-22.218647003173828,-0.4256654261588121,-0.18406770141070924,0.39133355322604374,0.13142869056512924
-0.3822394907474518,-0.5082299113273621,-22.257062911987305,-0.41916587013104534,-0.18198826225474485,0.3886131701059639,0.11810400815059753
-0.48997458815574646,0.7700998187065125,-22.31123924255371,-0.4127495543847587,-0.1800016767086669,0.3813447194484373,0.12028625737875712
0.5639787912368774,0.06415717303752899,-22.337095260620117,-0.40638866987984856,-0.17793897123903873,0.38196142114078,0.12723839897662412
-0.152924582362175,-0.24403759837150574,-22.22640037536621,-0.399994100762997,-0.17583082295229874,0.38538687288140255,0.1257393954321743
0.19783556461334229,-0.3953392207622528,-22.116600036621094,-0.39356786739676175,-0.1737795675297579,0.38576113106682897,0.12041125527272631
0.5144538283348083,0.7378628849983215,-22.14825439453125,-0.38708905067113764,-0.17174892690964053,0.3916968760080636,0.12326561914136021
0.755890429019928,-0.25414565205574036,-22.30243682861328,-0.3804725510531314,-0.1696609084494413,0.4022830781526864,0.1272965960825484
0.19177919626235962,-0.5750366449356079,-22.320207595825195,-0.37370202269327535,-0.16759688061868988,0.41018032503003876,0.1203867436076205
-0.8854199051856995,0.47249913215637207,-22.32765007019043,-0.36691385343644994,-0.16559755555250588,0.40439998578901093,0.1195322643344602
0.4481008052825928,-0.4964011013507843,-22.455917358398438,-0.36020422305523747,-0.16360701100590339,0.40075565995648504,0.11933308125784009
0.17503158748149872,-0.210675910115242,-22.59701156616211,-0.35348168897313187,-0.16166722888851343,0.4059484298961858,0.11344077282895654
0.2119632363319397,0.6959812045097351,-22.602157592773438,-0.34668900716765283,-0.15974284758480897,0.4091733867612978,0.11748498361557731
0.5499990582466125,-0.0512186661362648,-22.549436569213867,-0.33981653667339656,-0.1577399893482734,0.41552307254945237,0.12285800476868956
-0.3887176215648651,-0.6100677847862244,-22.535995483398438,-0.33287995203113613,-0.15573827860566486,0.41686708452180027,0.11734728434433549
-0.28965234756469727,-0.431223064661026,-22.55136489868164,-0.3259792763147401,-0.15385480239780422,0.41121400144572057,0.10866986059894174
0,-0.9722917675971985,-22.507266998291016,-0.3191458243703368,-0.15214110436228423,0.40880023188268144,0.09697390366345654
-0.23191970586776733,-0.24873678386211395,-22.42063331604004,-0.3123485927074218,-0.15060966628396685,0.40686756766711674,0.08679866573462894
-0.12845836579799652,2.048959493637085,-22.341054916381836,-0.3055924928346133,-0.14903800638909978,0.40386441706990206,0.10180052164942036
1.1103919744491577,-0.879950761795044,-22.24066925048828,-0.2987932293828475,-0.14726014986634264,0.41204719714199506,0.11154226108143736
-0.8262529969215393,-0.8343604207038879,-22.24518585205078,-0.2987932293828475,-0.14726014986634264,0.41204719714199506,0.11154226108143736
0.6406327486038208,-0.055742066353559494,-22.224693298339844,-0.2987932293828475,-0.14726014986634264,0.41204719714199506,0.11154226108143736
0.5988473892211914,-0.5889383554458618,-22.115510940551758,-0.2987932293828475,-0.14726014986634264,0.41204719714199506,0.11154226108143736
-0.4504472315311432,0.2356586754322052,-22.010896682739258,-0.2987932293828475,-0.14726014986634264,0.41204719714199506,0.11154226108143736
-2.752011299133301,-0.2684415876865387,-22.17585563659668,-0.2987932293828475,-0.14726014986634264,0.41204719714199506,0.11154226108143736
-0.6570676565170288,0.5258724689483643,-22.625701904296875,-0.2987932293828475,-0.14726014986634264,0.41204719714199506,0.11154226108143736
-3.3146121501922607,1.1678388118743896,-23.348106384277344,-0.2987932293828475,-0.14726014986634264,0.41204719714199506,0.11154226108143736
-1.9633443355560303,0.05281446501612663,-24.23350715637207,-0.2987932293828475,-0.14726014986634264,0.41204719714199506,0.11154226108143736
-1.464843511581421,-0.1725642830133438,-25.234251022338867,-0.2987932293828475,-0.14726014986634264,0.41204719714199506,0.11154226108143736
-1.3903781175613403,0.4559840261936188,-26.513790130615234,-0.2987932293828475,-0.14726014986634264,0.41204719714199506,0.11154226108143736
-1.3088468313217163,0.05199037492275238,-27.948144912719727,-0.2987932293828475,-0.14726014986634264,0.41204719714199506,0.11154226108143736
-1.326794981956482,-0.2751437723636627,-29.44365119934082,-0.2987932293828475,-0.14726014986634264,0.41204719714199506,0.11154226108143736
-1.8324354887008667,0.43272075057029724,-31.018508911132812,-0.2987932293828475,-0.14726014986634264,0.41204719714199506,0.11154226108143736
-0.21468155086040497,0.22702476382255554,-32.647010803222656,-0.2987932293828475,-0.14726014986634264,0.41204719714199506,0.11154226108143736
-1.8396499156951904,0.9796946048736572,-34.35470962524414,-0.2987932293828475,-0.14726014986634264,0.41204719714199506,0.11154226108143736
-0.5714107751846313,0.6320458650588989,-36.152957916259766,-0.2987932293828475,-0.14726014986634264,0.41204719714199506,0.11154226108143736
-1.942915439605713,-1.0734519958496094,-38.05598068237305,-0.2987932293828475,-0.14726014986634264,0.41204719714199506,0.11154226108143736
-0.7036375999450684,0.10366664081811905,-40.031185150146484,-0.2987932293828475,-0.14726014986634264,0.41204719714199506,0.11154226108143736
-0.9918431043624878,-0.3807631731033325,-42.06690216064453,-0.2987932293828475,-0.14726014986634264,0.41204719714199506,0.11154226108143736
-0.8047649264335632,-0.2378763109445572,-44.087398529052734,-0.2987932293828475,-0.14726014986634264,0.41204719714199506,0.11154226108143736
-1.1711505651474,1.1105992794036865,-46.132896423339844,-0.2987932293828475,-0.14726014986634264,0.41204719714199506,0.11154226108143736
-0.26506009697914124,-0.7198478579521179,-48.14336013793945,-0.2987932293828475,-0.14726014986634264,0.41204719714199506,0.11154226108143736
-1.411984920501709,2.0112500190734863,-50.2350959777832,-0.2987932293828475,-0.14726014986634264,0.41204719714199506,0.11154226108143736
-1.73753023147583,-0.650378406047821,-52.3373908996582,-0.2987932293828475,-0.14726014986634264,0.41204719714199506,0.11154226108143736
0.23721550405025482,0.4319402575492859,-54.502132415771484,-0.2987932293828475,-0.14726014986634264,0.41204719714199506,0.11154226108143736
-0.7209502458572388,-0.47666069865226746,-56.66532897949219,-0.2987932293828475,-0.14726014986634264,0.41204719714199506,0.11154226108143736
-0.9052515029907227,-0.2245846539735794,-58.83177185058594,-0.2987932293828475,-0.14726014986634264,0.41204719714199506,0.11154226108143736
-0.7832011580467224,1.4927937984466553,-61.07902145385742,-0.2987932293828475,-0.14726014986634264,0.41204719714199506,0.11154226108143736
-0.2528294324874878,0.40249180793762207,-63.3672981262207,-0.2987932293828475,-0.14726014986634264,0.41204719714199506,0.11154226108143736
-1.5064482688903809,0.47029024362564087,-65.6061019897461,-0.2987932293828475,-0.14726014986634264,0.41204719714199506,0.11154226108143736
-0.2667871117591858,-0.14599056541919708,-67.9302749633789,-0.2987932293828475,-0.14726014986634264,0.41204719714199506,0.11154226108143736
-0.9188000559806824,0.5041996836662292,-70.25680541992188,-0.2987932293828475,-0.14726014986634264,0.41204719714199506,0.11154226108143736
0.26702865958213806,0.4739656448364258,-72.61446380615234,-0.2987932293828475,-0.14726014986634264,0.41204719714199506,0.11154226108143736
-1.3430947065353394,-0.6594409942626953,-74.9768295288086,-0.2987932293828475,-0.14726014986634264,0.41204719714199506,0.11154226108143736
-0.5503013134002686,1.0972591638565063,-77.43195343017578,-0.2987932293828475,-0.14726014986634264,0.41204719714199506,0.11154226108143736
-0.7144213914871216,-0.39915621280670166,-79.89356231689453,-0.2987932293828475,-0.14726014986634264,0.41204719714199506,0.11154226108143736
-0.3108580410480499,0.5140393972396851,-82.37958526611328,-0.2987932293828475,-0.14726014986634264,0.41204719714199506,0.11154226108143736
-0.6012910604476929,0.0770096629858017,-84.87422180175781,-0.2987932293828475,-0.14726014986634264,0.41204719714199506,0.11154226108143736
0.5965397357940674,0.5288456678390503,-87.41661071777344,-0.2987932293828475,-0.14726014986634264,0.41204719714199506,0.11154226108143736
-1.2993372678756714,-0.08058668673038483,-89.97067260742188,-0.2987932293828475,-0.14726014986634264,0.41204719714199506,0.11154226108143736
-1.358199119567871,0.29696226119995117,-92.54986572265625,-0.2987932293828475,-0.14726014986634264,0.41204719714199506,0.11154226108143736
0.39074164628982544,1.1708742380142212,-95.12274932861328,-0.2987932293828475,-0.14726014986634264,0.41204719714199506,0.11154226108143736
0.09181923419237137,0.09244926273822784,-97.62374877929688,-0.2987932293828475,-0.14726014986634264,0.41204719714199506,0.11154226108143736
-0.34758350253105164,0.27939572930336,-100.06828308105469,-0.2987932293828475,-0.14726014986634264,0.41204719714199506,0.11154226108143736
0.9168756604194641,0.4786145091056824,-102.6041488647461,-0.2987932293828475,-0.14726014986634264,0.41204719714199506,0.11154226108143736
-0.8486705422401428,-0.5545912384986877,-105.02416229248047,-0.2987932293828475,-0.14726014986634264,0.41204719714199506,0.11154226108143736
1.185310959815979,0.6338446140289307,-107.109619140625,-0.2987932293828475,-0.14726014986634264,0.41204719714199506,0.11154226108143736
1.3174562454223633,-1.127310037612915,-108.9280776977539,-0.2987932293828475,-0.14726014986634264,0.41204719714199506,0.11154226108143736
0.4776000678539276,-0.28457504510879517,-110.3899154663086,-0.2987932293828475,-0.14726014986634264,0.41204719714199506,0.11154226108143736
1.6568512916564941,-0.2993808686733246,-111.36422729492188,-0.2987932293828475,-0.14726014986634264,0.41204719714199506,0.11154226108143736
1.1176583766937256,-1.071234107017517,-111.93975067138672,-0.2987932293828475,-0.14726014986634264,0.41204719714199506,0.11154226108143736
0.7926467657089233,-1.143722653388977,-112.14996337890625,-0.2987932293828475,-0.14726014986634264,0.41204719714199506,0.11154226108143736
0.4306427538394928,-1.4897977113723755,-112.05257415771484,-0.2987932293828475,-0.14726014986634264,0.41204719714199506,0.11154226108143736
-0.6177330613136292,-0.8015733361244202,-111.83769226074219,-0.2987932293828475,-0.14726014986634264,0.41204719714199506,0.11154226108143736
-0.8450775742530823,-0.04155370220541954,-111.72816467285156,-0.2987932293828475,-0.14726014986634264,0.41204719714199506,0.11154226108143736
0.18245933949947357,0.12191592156887054,-111.78215026855469,-0.2987932293828475,-0.14726014986634264,0.41204719714199506,0.11154226108143736
0.13445062935352325,0.4592929482460022,-111.76825714111328,-0.2987932293828475,-0.14726014986634264,0.41204719714199506,0.11154226108143736
-0.005430648569017649,0.562303364276886,-111.70013427734375,-0.2987932293828475,-0.14726014986634264,0.41204719714199506,0.11154226108143736
0.061234503984451294,0.14047808945178986,-111.65721893310547,-0.2987932293828475,-0.14726014986634264,0.41204719714199506,0.11154226108143736
-0.23540516197681427,-0.33541160821914673,-111.60062408447266,-0.2987932293828475,-0.14726014986634264,0.41204719714199506,0.11154226108143736
-0.27741432189941406,-0.33102622628211975,-111.53811645507812,-0.2987932293828475,-0.14726014986634264,0.41204719714199506,0.11154226108143736
-0.14075525104999542,-0.45346418023109436,-111.5085220336914,-0.2987932293828475,-0.14726014986634264,0.41204719714199506,0.11154226108143736
-0.22796468436717987,-0.026549668982625008,-111.473876953125,-0.2987932293828475,-0.14726014986634264,0.41204719714199506,0.11154226108143736
0.00012796508963219821,0.09388145059347153,-111.44032287597656,-0.2987932293828475,-0.14726014986634264,0.41204719714199506,0.11154226108143736
-0.03378278389573097,0.151361882686615,-111.40502166748047,-0.2987932293828475,-0.14726014986634264,0.41204719714199506,0.11154226108143736
-0.14931324124336243,-0.06247914955019951,-111.36328887939453,-0.2987932293828475,-0.14726014986634264,0.41204719714199506,0.11154226108143736
-0.09992198646068573,-0.19753789901733398,-111.31549835205078,-0.2987932293828475,-0.14726014986634264,0.41204719714199506,0.11154226108143736
-0.18585096299648285,-0.13676495850086212,-111.27584838867188,-0.2987932293828475,-0.14726014986634264,0.41204719714199506,0.11154226108143736
-0.11845576018095016,-0.08743104338645935,-111.23657989501953,-0.2987932293828475,-0.14726014986634264,0.41204719714199506,0.11154226108143736
-0.07858413457870483,0.014147353358566761,-111.19286346435547,-0.2987932293828475,-0.14726014986634264,0.41204719714199506,0.11154226108143736
-0.10887675732374191,-0.020152682438492775,-111.15391540527344,-0.2987932293828475,-0.14726014986634264,0.41204719714199506,0.11154226108143736
-0.1485569179058075,-0.11451408267021179,-111.11358642578125,-0.2987932293828475,-0.14726014986634264,0.41204719714199506,0.11154226108143736
-0.1331673115491867,-0.11901071667671204,-111.07026672363281,-0.29194534027974867,-0.14541732918160666,0.4096994952298701,0.10959622108687966
-0.08119132369756699,-0.19698196649551392,-111.03056335449219,-0.2851319013755874,-0.14361266943315673,0.40791317326948046,0.10696294872711111
-0.5155014991760254,-0.6604958176612854,-111.021240234375,-0.2783747854893512,-0.14188950068938244,0.4029407330788672,0.09981730052580445
-0.9937657713890076,-1.9056707620620728,-110.920654296875,-0.271763916831826,-0.14040408502643315,0.3903635058241586,0.0784325790281098
-0.6274318099021912,-3.7560489177703857,-110.8521728515625,-0.2653704415667908,-0.1394900503537308,0.3768535259800653,0.03125158169617264
-0.5076923370361328,-2.5735929012298584,-110.69882202148438,-0.25916837753288263,-0.1394087491184474,0.36739415808891257,-0.021495433462162726
-1.0740203857421875,-1.2056066989898682,-110.42216491699219,-0.25315498272603815,-0.14002945075949869,0.35421321873242656,-0.05298876346399378
0,-0.28058290481567383,-110.27191162109375,-0.24732601382950758,-0.1410158044286073,0.34526304885124165,-0.06537367682903997
-1.4900141954421997,-1.2196877002716064,-110.25879669189453,-0.2416751028900037,-0.14220955116777792,0.33284626388922334,-0.07787593187143396
-1.3585542440414429,-1.2503091096878052,-110.22752380371094,-0.2363254824112586,-0.14367901092188234,0.309108193560193,-0.09845923862109572
1.2193503379821777,-1.753188967704773,-110.26593780517578,-0.23118334612317615,-0.14552857448760842,0.30794816100969913,-0.12348838926603387
-1.3736861944198608,-1.0930864810943604,-110.46051025390625,-0.22606159454082267,-0.1477843723259867,0.30666202887271843,-0.14720735133935997
0.30714914202690125,-2.0869393348693848,-110.47901153564453,-0.22102462579936022,-0.1504586633077513,0.2977742201027771,-0.1737075664723912
-0.5251657962799072,-1.158180594444275,-110.46116638183594,-0.21607686217641484,-0.15357914496627126,0.2959574146506687,-0.20075023255000501
-1.2009129524230957,-0.10077539831399918,-110.39302825927734,-0.21126410517867472,-0.1570124096749351,0.2815734250781437,-0.2112415324896573
0.46988335251808167,-1.8311535120010376,-110.3770980834961,-0.2066219807051435,-0.16066726361297903,0.2754815117456019,-0.22734094007561595
-0.6117652654647827,-0.7229256629943848,-110.28458404541016,-0.20204047508667144,-0.16463364589028065,0.2742991624710461,-0.2486249332005778
-0.7938517928123474,0.41024261713027954,-110.29070281982422,-0.19756643467453436,-0.16879910887736418,0.2625856869854033,-0.25123062524944534
-0.39479953050613403,-2.043797254562378,-110.29659271240234,-0.19327255178889696,-0.17309972725912107,0.2526802592910826,-0.26484358056137947
0.20429618656635284,0.22210659086704254,-110.32706451416016,-0.1890744435329303,-0.177640293231234,0.2510927314249178,-0.2800243360921739
-0.4764705002307892,-0.4104529917240143,-110.3425064086914,-0.1849084656698528,-0.18232044511060752,0.2488246121443808,-0.2815938894326487
0.11839289963245392,-0.14413204789161682,-110.34632873535156,-0.18078625530082135,-0.18705218945112498,0.2458406321393947,-0.2862154314294456
-0.21192020177841187,-1.478368878364563,-110.31709289550781,-0.17669540638336934,-0.1919351203170502,0.24506123795484505,-0.29973627248158047
-0.4664795994758606,-0.8168554306030273,-110.42992401123047,-0.17265816351476457,-0.19709011543542151,0.23940790627772612,-0.31886314172297703
-0.5648596286773682,-0.3605734705924988,-110.50586700439453,-0.168739652523202,-0.20248626702672082,0.23081341270978256,-0.3286750492329397
0.30770865082740784,0.5899704098701477,-110.54777526855469,-0.16491062001816742,-0.20794825417093107,0.22867048789436623,-0.32676340807229265
-0.9783397912979126,-0.20137876272201538,-110.4260025024414,-0.1611460168269051,-0.213367325441084,0.223081895057112,-0.3235251443460582
-0.08479961007833481,-0.3951917290687561,-110.241455078125,-0.1575018143677155,-0.21880083968655933,0.21422240004564327,-0.3284965651109813
-0.15349233150482178,-0.7831801176071167,-110.17284393310547,-0.15394798908512025,-0.2243576138166504,0.21223663386578365,-0.3383163304999469
-0.6353968977928162,-0.31845566630363464,-110.21488952636719,-0.15046549582828064,-0.23007272180997665,0.20566255695497,-0.34749662869920317
-0.20742851495742798,-0.39562365412712097,-110.32048797607422,-0.1470963160882499,-0.2359139211299933,0.19863901184871796,-0.3534472897027928
0.2815321385860443,-0.9080607891082764,-110.44092559814453,-0.14378051980579706,-0.24189524293359785,0.1992565420456231,-0.36431132672975447
0,-0.90595942735672,-110.45704650878906,-0.14044002659541266,-0.24809307200523717,0.2016026432005068,-0.37942816186696277
-0.22306887805461884,0.20648173987865448,-110.3421401977539,-0.13709547343638023,-0.25446544954242806,0.19974373588338498,-0.3852571425959466
0.18525205552577972,0.3336397111415863,-110.14598846435547,-0.13376903733988832,-0.26084889348492857,0.19942859569564467,-0.3807561305041113
-0.5204042196273804,-0.2526327967643738,-110.0158462524414,-0.13046850186746797,-0.26718920351316533,0.19663566099479798,-0.38008107288430115
-0.5206140875816345,-1.0086307525634766,-109.93756866455078,-0.12726353378888863,-0.2736114758077181,0.18796050843472287,-0.3905916024620332
-0.553932249546051,0.23867261409759521,-109.92341613769531,-0.12420547992172157,-0.28017480516392324,0.17900595562532548,-0.39700792028258225
-0.3421141803264618,0,-109.97021484375,-0.12128427277448507,-0.2867750293482095,0.17153890204305455,-0.395018981831769
0.47168660163879395,-0.20007580518722534,-110.00695037841797,-0.11841629298895413,-0.29337257319854365,0.17261867222065733,-0.3966862802083292
0,0,-110.051025390625,-0.11550655910460715,-0.2999979053551538,0.17654939390098062,-0.3983535785848894
-0.11344143748283386,-0.7180064916610718,-110.09530639648438,-0.11257194708386045,-0.30668699322682286,0.17560404858862366,-0.4043369660153983
-0.5358314514160156,-1.2029772996902466,-109.97686004638672,-0.10969030133577914,-0.31355934431259,0.17019344118113325,-0.4203451642766593
-0.39885276556015015,0.11868849396705627,-109.76776123046875,-0.10691865260893915,-0.3206403948842651,0.1624044060396652,-0.42938090432435255
0.08828343451023102,0.7581198215484619,-109.73362731933594,-0.10423347982293431,-0.3277358538233157,0.15981632828091585,-0.42207416836172323
-0.2318917065858841,0,-109.87255859375,-0.10157984714825763,-0.33471777608618136,0.15861959268028542,-0.41575650318215274
0.2415941208600998,-0.0560033805668354,-109.88227844238281,-0.09893551349148383,-0.34165094026286774,0.15870044613257053,-0.4162231980202097
0.33120837807655334,-1.7413266897201538,-109.904052734375,-0.09625072810462594,-0.3487128081514189,0.16347380029037598,-0.4312009486059346
-0.32103729248046875,0,-109.98479461669922,-0.09352545844106439,-0.35602041609274837,0.16355855933701002,-0.44571200435360253
0.37087494134902954,0.7475565671920776,-109.98773956298828,-0.09079602150427613,-0.3633970358481423,0.16397387307758135,-0.43948236629366855
0.3882284164428711,-0.0963868722319603,-109.94813537597656,-0.088010408108692,-0.37067652183533123,0.17029973439251386,-0.4340559521690009
-1.4907238483428955,-0.10332665592432022,-109.71184539794922,-0.08524864138492094,-0.37792465669982545,0.16111227246001367,-0.4357202315703032
-0.21327245235443115,0.41788917779922485,-109.4498519897461,-0.08268176992035803,-0.3851648159397559,0.14691230328753593,-0.43309887722134566
-0.4121677279472351,-0.39650052785873413,-109.47370147705078,-0.08027666487808671,-0.3923816452371991,0.14170030178502205,-0.4329206384718416
-0.2087278664112091,0.16608598828315735,-109.59306335449219,-0.0779581109312779,-0.39961299022142255,0.13652617183203503,-0.4348407596349714
0.845127284526825,-0.7955371141433716,-109.75462341308594,-0.0756384803300415,-0.40690404809907904,0.14182950031633182,-0.4400861856838065
-0.23237282037734985,-0.7857983112335205,-109.67369079589844,-0.0732321029314256,-0.41434863282057144,0.14693578751757744,-0.4532639808952806
0,0.11260111629962921,-109.47222137451172,-0.07079931014088106,-0.4219497823073632,0.14499934734776618,-0.4588739575197297
-0.3174402713775635,0.33916786313056946,-109.278076171875,-0.06840469881504173,-0.42956630875356494,0.14235401175295315,-0.45510921602447807
-0.423338383436203,-0.057309601455926895,-109.1197509765625,-0.06608357491463235,-0.43713188886357884,0.13618085629617177,-0.45276039717718936
-0.22513875365257263,0.4166904389858246,-109.06314849853516,-0.06385892711088287,-0.4446529384805924,0.13077688015376532,-0.4497655568644402
-1.0487189292907715,0.14143003523349762,-109.13117980957031,-0.061767774780746736,-0.4521102727287345,0.12016139946257079,-0.44511455291261254
0.43858784437179565,-0.5817060470581055,-109.21389770507812,-0.059807455003934376,-0.45955942333365474,0.11507697375491266,-0.4487835196778176
1.3694745302200317,-0.2909385561943054,-109.30072784423828,-0.05776394555422806,-0.4670997489812887,0.13014416020984454,-0.45605555803825437
-0.3607328534126282,-0.6305925250053406,-109.48219299316406,-0.05776394555422806,-0.4670997489812887,0.13014416020984454,-0.45605555803825437
-1.6383682489395142,-0.7232561707496643,-109.49236297607422,-0.05776394555422806,-0.4670997489812887,0.13014416020984454,-0.45605555803825437
-0.10312960296869278,0.2868106961250305,-109.38304138183594,-0.05776394555422806,-0.4670997489812887,0.13014416020984454,-0.45605555803825437
0.39260655641555786,1.5185831785202026,-109.416015625,-0.05776394555422806,-0.4670997489812887,0.13014416020984454,-0.45605555803825437
0.7702724933624268,2.3027803897857666,-109.84896087646484,-0.05776394555422806,-0.4670997489812887,0.13014416020984454,-0.45605555803825437
0.4197130799293518,2.1392319202423096,-110.5812759399414,-0.05776394555422806,-0.4670997489812887,0.13014416020984454,-0.45605555803825437
0.4094993770122528,2.524435520172119,-111.43673706054688,-0.05776394555422806,-0.4670997489812887,0.13014416020984454,-0.45605555803825437
1.3069963455200195,2.0949912071228027,-112.48359680175781,-0.05776394555422806,-0.4670997489812887,0.13014416020984454,-0.45605555803825437
0.6324207186698914,2.3066282272338867,-113.77952575683594,-0.05776394555422806,-0.4670997489812887,0.13014416020984454,-0.45605555803825437
-0.028111735358834267,1.1306655406951904,-115.2789077758789,-0.05776394555422806,-0.4670997489812887,0.13014416020984454,-0.45605555803825437
0.4489615261554718,1.5102037191390991,-116.93392181396484,-0.05776394555422806,-0.4670997489812887,0.13014416020984454,-0.45605555803825437
0.05910041555762291,2.0544612407684326,-118.7032241821289,-0.05776394555422806,-0.4670997489812887,0.13014416020984454,-0.45605555803825437
0.1483902782201767,1.9451141357421875,-120.61907958984375,-0.05776394555422806,-0.4670997489812887,0.13014416020984454,-0.45605555803825437
-0.3023334741592407,2.0262527465820312,-122.5947265625,-0.05776394555422806,-0.4670997489812887,0.13014416020984454,-0.45605555803825437
0.7160635590553284,0.5851122736930847,-124.62818145751953,-0.05776394555422806,-0.4670997489812887,0.13014416020984454,-0.45605555803825437
-0.35876765847206116,0.742946445941925,-126.67193603515625,-0.05776394555422806,-0.4670997489812887,0.13014416020984454,-0.45605555803825437
-0.3426663279533386,-0.22000440955162048,-128.74034118652344,-0.05776394555422806,-0.4670997489812887,0.13014416020984454,-0.45605555803825437
-0.15902981162071228,1.6231192350387573,-130.87158203125,-0.05776394555422806,-0.4670997489812887,0.13014416020984454,-0.45605555803825437
0.1847606897354126,1.1600956916809082,-133.06336975097656,-0.05776394555422806,-0.4670997489812887,0.13014416020984454,-0.45605555803825437
-0.641193687915802,1.7873347997665405,-135.27305603027344,-0.05776394555422806,-0.4670997489812887,0.13014416020984454,-0.45605555803825437
0.9747079014778137,0.9056768417358398,-137.4901885986328,-0.05776394555422806,-0.4670997489812887,0.13014416020984454,-0.45605555803825437
-1.2831027507781982,0.5753971934318542,-139.66204833984375,-0.05776394555422806,-0.4670997489812887,0.13014416020984454,-0.45605555803825437
0.6150269508361816,1.1010446548461914,-141.8316192626953,-0.05776394555422806,-0.4670997489812887,0.13014416020984454,-0.45605555803825437
-0.8571078777313232,0.32141393423080444,-143.98739624023438,-0.05776394555422806,-0.4670997489812887,0.13014416020984454,-0.45605555803825437
0.1091688945889473,1.2079588174819946,-146.13735961914062,-0.05776394555422806,-0.4670997489812887,0.13014416020984454,-0.45605555803825437
-0.38026997447013855,0.6061612963676453,-148.2937469482422,-0.05776394555422806,-0.4670997489812887,0.13014416020984454,-0.45605555803825437
1.1846181154251099,0.8827006816864014,-150.4623260498047,-0.05776394555422806,-0.4670997489812887,0.13014416020984454,-0.45605555803825437
-0.7650836110115051,-0.15439105033874512,-152.62045288085938,-0.05776394555422806,-0.4670997489812887,0.13014416020984454,-0.45605555803825437
0.9665647745132446,0.826268196105957,-154.85276794433594,-0.05776394555422806,-0.4670997489812887,0.13014416020984454,-0.45605555803825437
-0.7286070585250854,0.5473231077194214,-157.07347106933594,-0.05776394555422806,-0.4670997489812887,0.13014416020984454,-0.45605555803825437
0.7307356595993042,0.6490261554718018,-159.4263153076172,-0.05776394555422806,-0.4670997489812887,0.13014416020984454,-0.45605555803825437
-0.3254963159561157,0.7514972686767578,-161.78115844726562,-0.05776394555422806,-0.4670997489812887,0.13014416020984454,-0.45605555803825437
0.9850736856460571,0.3012474775314331,-164.22384643554688,-0.05776394555422806,-0.4670997489812887,0.13014416020984454,-0.45605555803825437
-0.8618555068969727,0.8549325466156006,-166.76002502441406,-0.05776394555422806,-0.4670997489812887,0.13014416020984454,-0.45605555803825437
-0.11846998333930969,1.327842116355896,-169.30516052246094,-0.05776394555422806,-0.4670997489812887,0.13014416020984454,-0.45605555803825437
0.2958536744117737,0.40886738896369934,-171.85366821289062,-0.05776394555422806,-0.4670997489812887,0.13014416020984454,-0.45605555803825437
0.8741838932037354,-0.26080936193466187,-174.4490509033203,-0.05776394555422806,-0.4670997489812887,0.13014416020984454,-0.45605555803825437
0.19321046769618988,0.10802070051431656,-177.02346801757812,-0.05776394555422806,-0.4670997489812887,0.13014416020984454,-0.45605555803825437
0.38657569885253906,1.1308075189590454,-179.55038452148438,-0.05776394555422806,-0.4670997489812887,0.13014416020984454,-0.45605555803825437
0.5052977800369263,-0.5295916795730591,177.9015350341797,-0.05776394555422806,-0.4670997489812887,0.13014416020984454,-0.45605555803825437
0.02983282320201397,0.7775436639785767,175.35076904296875,-0.05776394555422806,-0.4670997489812887,0.13014416020984454,-0.45605555803825437
0.40821656584739685,-0.495869904756546,172.79969787597656,-0.05776394555422806,-0.4670997489812887,0.13014416020984454,-0.45605555803825437
0.6326221227645874,0.33781927824020386,170.16287231445312,-0.05776394555422806,-0.4670997489812887,0.13014416020984454,-0.45605555803825437
-0.050887882709503174,-0.07748088240623474,167.44984436035156,-0.05776394555422806,-0.4670997489812887,0.13014416020984454,-0.45605555803825437
-0.33886149525642395,0.5575919151306152,164.8239288330078,-0.05776394555422806,-0.4670997489812887,0.13014416020984454,-0.45605555803825437
0.6538839340209961,-0.02651376836001873,162.72802734375,-0.05776394555422806,-0.4670997489812887,0.13014416020984454,-0.45605555803825437
-0.9883299469947815,-1.8843357563018799,161.01263427734375,-0.05776394555422806,-0.4670997489812887,0.13014416020984454,-0.45605555803825437
-0.44693735241889954,-1.5679545402526855,159.6160430908203,-0.05776394555422806,-0.4670997489812887,0.13014416020984454,-0.45605555803825437
-0.6841133236885071,-0.833197832107544,158.62973022460938,-0.05776394555422806,-0.4670997489812887,0.13014416020984454,-0.45605555803825437
-0.8056208491325378,-1.0039560794830322,158.06182861328125,-0.05776394555422806,-0.4670997489812887,0.13014416020984454,-0.45605555803825437
-0.47300103306770325,-0.7216566205024719,157.84266662597656,-0.05776394555422806,-0.4670997489812887,0.13014416020984454,-0.45605555803825437
-0.23435047268867493,-0.3704577088356018,157.91055297851562,-0.05776394555422806,-0.4670997489812887,0.13014416020984454,-0.45605555803825437
0.8008259534835815,0.18192686140537262,157.97804260253906,-0.05776394555422806,-0.4670997489812887,0.13014416020984454,-0.45605555803825437
1.0986329317092896,-0.3803049921989441,157.90969848632812,-0.05776394555422806,-0.4670997489812887,0.13014416020984454,-0.45605555803825437
-0.09089276939630508,0.039667751640081406,157.91395568847656,-0.05776394555422806,-0.4670997489812887,0.13014416020984454,-0.45605555803825437
0.11900525540113449,0.18577435612678528,157.9671630859375,-0.05776394555422806,-0.4670997489812887,0.13014416020984454,-0.45605555803825437
-0.7182411551475525,0.10249654203653336,157.9569854736328,-0.05776394555422806,-0.4670997489812887,0.13014416020984454,-0.45605555803825437
-0.31639546155929565,0.3692091405391693,157.94900512695312,-0.05776394555422806,-0.4670997489812887,0.13014416020984454,-0.45605555803825437
0.0037116159219294786,0.09152950346469879,157.9580535888672,-0.05776394555422806,-0.4670997489812887,0.13014416020984454,-0.45605555803825437
0.2096606343984604,-0.07936931401491165,157.94915771484375,-0.05776394555422806,-0.4670997489812887,0.13014416020984454,-0.45605555803825437
0.09933418780565262,0.19237017631530762,157.9481658935547,-0.05776394555422806,-0.4670997489812887,0.13014416020984454,-0.45605555803825437
-0.1839664727449417,0.06703955680131912,157.96127319335938,-0.05776394555422806,-0.4670997489812887,0.13014416020984454,-0.45605555803825437
-0.19857138395309448,0.12575262784957886,157.9549560546875,-0.05776394555422806,-0.4670997489812887,0.13014416020984454,-0.45605555803825437
-0.07101837545633316,0.16233670711517334,157.9542236328125,-0.05776394555422806,-0.4670997489812887,0.13014416020984454,-0.45605555803825437
0.06914990395307541,0.04232238233089447,157.95904541015625,-0.05776394555422806,-0.4670997489812887,0.13014416020984454,-0.45605555803825437
0.011364521458745003,0.06319428235292435,157.95506286621094,-0.05776394555422806,-0.4670997489812887,0.13014416020984454,-0.45605555803825437
-0.12208397686481476,0.15358655154705048,157.95680236816406,-0.05776394555422806,-0.4670997489812887,0.13014416020984454,-0.45605555803825437
-0.12431073933839798,0.07684610784053802,157.95790100097656,-0.05776394555422806,-0.4670997489812887,0.13014416020984454,-0.45605555803825437
-0.01414570678025484,0.10219094902276993,157.95437622070312,-0.05776394555422806,-0.4670997489812887,0.13014416020984454,-0.45605555803825437
-0.0026232802774757147,0.1112113744020462,157.95645141601562,-0.05776394555422806,-0.4670997489812887,0.13014416020984454,-0.45605555803825437
-0.05281113460659981,0.08264613151550293,157.9568328857422,-0.05776394555422806,-0.4670997489812887,0.13014416020984454,-0.45605555803825437
-0.07911241054534912,0.13983182609081268,157.9558563232422,-0.05560403757469954,-0.4746852250904258,0.1290447973335783,-0.45420157505820175
-0.08114565908908844,0.10974344611167908,157.95840454101562,-0.05346441998508674,-0.4822379197252707,0.12770931341995798,-0.45212178112318097
0,0.10021563619375229,157.95713806152344,-0.051341566543301964,-0.4897587022521636,0.12703309959421558,-0.45037212210396904
-0.28142067790031433,0.16520924866199493,157.94935607910156,-0.04924389131936367,-0.4972464720035592,0.12468792727837963,-0.44816024806350446
-0.6218737363815308,0.4103045165538788,157.96453857421875,-0.04722848797682692,-0.5046758432375887,0.11716047382603093,-0.44336430002003885
-3.338200330734253,1.055027961730957,158.062744140625,-0.045550818556609446,-0.5119634890380418,0.08415985660006606,-0.4311531960343319
-3.681941509246826,0.5847954750061035,158.15975952148438,-0.04463566412994036,-0.5190354990110628,0.02565867460022373,-0.4174880007281897
-0.7932930588722229,1.5926508903503418,158.1644744873047,-0.04451879973161157,-0.525842420803383,-0.01163494680076834,-0.39934261435021934
-1.223865032196045,0.7464024424552917,158.20553588867188,-0.044852795934615226,-0.5323356967833307,-0.028444597559670572,-0.3798505032435057
-0.6797918081283569,-0.05877139791846275,158.22091674804688,-0.04545907095229893,-0.5386187863481852,-0.04430840456237392,-0.37412024453903214
-1.5979456901550293,0.2939017415046692,158.3054656982422,-0.0463557205768304,-0.5448377952610867,-0.06328955038140213,-0.3721608250091471
-2.1279513835906982,0.9485393762588501,158.39707946777344,-0.047669289268863886,-0.5509541950447278,-0.09433869266261653,-0.36180714902778444
-1.3847289085388184,0.5693435072898865,158.4661865234375,-0.04948553694463871,-0.556878905661611,-0.12361102843036251,-0.34915812499821164
-1.3029003143310547,0.21690016984939575,158.46104431152344,-0.05173236167006627,-0.5626436074895577,-0.14600793862094477,-0.3426060943553843
0.4560324251651764,0.48095569014549255,158.500732421875,-0.054224637583829643,-0.5683052468496478,-0.15306517103066042,-0.3367906288554269
-2.865065336227417,0.673128068447113,158.61431884765625,-0.05694301771983108,-0.5738382792917804,-0.17314044528951242,-0.3271732642004885
0.3149615526199341,0.6962031126022339,158.66046142578125,-0.060005782348517916,-0.5791960745853268,-0.19439131015290811,-0.31576217102507725
-0.3298921585083008,-0.2388167828321457,158.6337432861328,-0.06324667436536419,-0.5844270144961774,-0.19451573186864451,-0.31195061827699316
-1.7563756704330444,-0.309565007686615,158.6610870361328,-0.06663348294018474,-0.5896642735362466,-0.2119012971098224,-0.31652046653131616
-0.8280038833618164,0.14333876967430115,158.67994689941406,-0.07034464202769532,-0.5949511581338528,-0.23343779339144624,-0.31790568518141876
-0.39827975630760193,1.1456137895584106,158.74136352539062,-0.07432043050364091,-0.6001600756258186,-0.24365682372202474,-0.3071644138544795
-0.2771163582801819,1.4789708852767944,158.78497314453125,-0.07842828007363215,-0.605097219698752,-0.24928512467692293,-0.2852928748975195
-0.45548903942108154,0,158.81307983398438,-0.08263390752642122,-0.6097493946355664,-0.2553901696577668,-0.2729681175202129
-0.7893021702766418,0.2702646851539612,158.775390625,-0.08697685418805745,-0.6142800948799898,-0.26576342973858114,-0.27071591181059657
-1.5718353986740112,-0.1879948228597641,158.6968536376953,-0.09157021257043316,-0.6187863135586182,-0.2854395761465032,-0.2700303296248116
0.8495521545410156,0.9069018959999084,158.6557159423828,-0.09637769739816189,-0.6232368949500637,-0.29145860318094485,-0.2640394373486437
-0.45297709107398987,0.43936100602149963,158.665771484375,-0.10120780084954799,-0.6275440617599007,-0.2881538109853863,-0.2528205798317986
-1.2450755834579468,-0.5538796782493591,158.7797088623047,-0.10612828469059137,-0.6317656907760021,-0.3023042499398191,-0.25377490210036413
-1.1738214492797852,-0.16493357717990875,158.9154052734375,-0.1113346678168618,-0.6360451900648574,-0.3224617252126335,-0.2597650125622747
-1.0755155086517334,-0.2964790165424347,158.94544982910156,-0.11686523385915093,-0.640406649482126,-0.3412061998620628,-0.2636101175099609
-0.360476016998291,0.6029735207557678,158.92724609375,-0.12265172549057768,-0.6447788671000549,-0.35317279590914635,-0.26105599664151646
0.42395952343940735,0.40739208459854126,158.78465270996094,-0.12853353017889393,-0.649059636099264,-0.3526437666888037,-0.2526362832635639
0.7691130042076111,1.744913935661316,158.6144561767578,-0.13432807403150962,-0.653120775124472,-0.34270149562507857,-0.23470039976139845
-0.522423505783081,-0.46488139033317566,158.61834716796875,-0.14002263441009255,-0.6569435573048475,-0.34064574980487417,-0.22403346188366394
-0.8740756511688232,0.20509201288223267,158.619140625,-0.14579704268162877,-0.6606954892652316,-0.35228324277947337,-0.2261983733624218
-1.1583988666534424,-0.38493767380714417,158.6669158935547,-0.15180957412502433,-0.6644779514366139,-0.36922053042799224,-0.2276970872034627
0.11694272607564926,-1.5326560735702515,158.77105712890625,-0.15803557297525322,-0.6684060691224617,-0.37789933159947386,-0.24367703509827435
0.3916686177253723,0.6321250796318054,158.8619384765625,-0.16429857493636937,-0.6725298899153453,-0.37366090373446537,-0.2511814600477614
0.23700715601444244,0.989830493927002,158.91087341308594,-0.17048259862543408,-0.6766036117790887,-0.3684219389533002,-0.23766516360143797
0,0.37189772725105286,158.89610290527344,-0.17660650544437698,-0.6804701333793086,-0.36644687931984654,-0.22631742842495417
-0.38224223256111145,0.4181794226169586,158.925048828125,-0.18274049803252448,-0.6841872240509836,-0.3696322312578558,-0.21973345217605408
-0.47123628854751587,0,159.04209899902344,-0.18896030456189908,-0.6878204080162361,-0.3767445522670944,-0.2162486236542461
-0.7204475998878479,0.11571354418992996,159.17266845703125,-0.19532213625860312,-0.691416516081016,-0.3866752513373891,-0.21528434411933
0.19428209960460663,0.07462358474731445,159.18630981445312,-0.20180326305174595,-0.6949913706268286,-0.39105996383974945,-0.2136982013781863
-0.3303828835487366,-0.21321365237236023,159.21786499023438,-0.20833038055907122,-0.6985626316267167,-0.39219413703928385,-0.214853118608395
-0.27892905473709106,-0.218516543507576,159.24916076660156,-0.21490926283877357,-0.7021734982004594,-0.3972717365249991,-0.21845087024072782
0.34144020080566406,1.3723269701004028,159.35035705566406,-0.22152611739571323,-0.7057342203137359,-0.396750810307761,-0.20883578335245426
0,0,159.486572265625,-0.22811491977578663,-0.7091195162189087,-0.39390547530104714,-0.19739972526828423
0.40690234303474426,0.8221886157989502,159.4654541015625,-0.2346517539236489,-0.712352415208394,-0.39051462244242424,-0.19054815346995965
-0.8877094388008118,-0.6292229294776917,159.42755126953125,-0.2411937203460064,-0.7155148173713433,-0.3945213482404748,-0.18894010608394918
0.6007773876190186,0.4076058864593506,159.46084594726562,-0.24778900198690193,-0.7186792092118409,-0.39691244866698977,-0.19078691477576867
-0.9454073905944824,-0.6613433361053467,159.6315155029297,-0.2544281421037806,-0.7218766117809958,-0.39978436535845197,-0.19290139352281865
-0.2144298404455185,-0.5972282886505127,159.69549560546875,-0.2611717591119104,-0.7251790358136508,-0.40944967561711865,-0.20338949039578413
-0.35370388627052307,-0.49875155091285706,159.6690673828125,-0.26803537410321765,-0.7286449703646614,-0.41418412333975235,-0.21252265572547888
-0.1368945986032486,0,159.55572509765625,-0.2749725121647742,-0.7322216501511216,-0.4182724440470338,-0.2166789186497527
0.6060490012168884,0.9342466592788696,159.39784240722656,-0.28191113939870993,-0.7357680872217232,-0.41436282402525343,-0.2088935298224288
-1.0424799919128418,1.0285595655441284,159.29669189453125,-0.2888474941734847,-0.739113340064262,-0.4179997489477197,-0.19253681128223712
0.5141353011131287,0.3029445707798004,159.2766876220703,-0.29585084725947447,-0.7422298213539434,-0.4224026213710506,-0.1814409434795377
-0.9716010093688965,-0.3683140277862549,159.27149963378906,-0.3029226594009542,-0.7452583766242279,-0.42621483560651535,-0.1819856889545915
0.33221474289894104,-1.674564003944397,159.30844116210938,-0.31007064181845656,-0.748433337970119,-0.43154305449376495,-0.19900967255234692
-0.22569887340068817,0.4255165159702301,159.33897399902344,-0.3172556291246375,-0.7518369052548786,-0.4306554222479462,-0.2094184016187983
0.4929172694683075,0.7284400463104248,159.38084411621094,-0.32441466266237634,-0.7552470760761446,-0.428428602280716,-0.19980209693312617
0.4387209415435791,0.7790088653564453,159.3751983642578,-0.331490442269068,-0.7584724270728309,-0.4206649505222836,-0.1872400226692356
-0.13993728160858154,0,159.38279724121094,-0.3384807759124995,-0.7615389962794462,-0.41817508668949194,-0.18074828212459854
-0.9573062062263489,0.22947163879871368,159.4038848876953,-0.3384807759124995,-0.7615389962794462,-0.41817508668949194,-0.18074828212459854
-0.04472314193844795,0.7616211175918579,159.3898468017578,-0.3384807759124995,-0.7615389962794462,-0.41817508668949194,-0.18074828212459854
-0.15271824598312378,0.33935272693634033,159.3992156982422,-0.3384807759124995,-0.7615389962794462,-0.41817508668949194,-0.18074828212459854
1.131435513496399,-0.5354952216148376,159.27499389648438,-0.3384807759124995,-0.7615389962794462,-0.41817508668949194,-0.18074828212459854
2.381267547607422,-1.4641430377960205,158.8748016357422,-0.3384807759124995,-0.7615389962794462,-0.41817508668949194,-0.18074828212459854
3.4953436851501465,-0.5733092427253723,158.27442932128906,-0.3384807759124995,-0.7615389962794462,-0.41817508668949194,-0.18074828212459854
1.1418070793151855,0.31630998849868774,157.44154357910156,-0.3384807759124995,-0.7615389962794462,-0.41817508668949194,-0.18074828212459854
1.6495537757873535,0.05354873463511467,156.43675231933594,-0.3384807759124995,-0.7615389962794462,-0.41817508668949194,-0.18074828212459854
1.8549760580062866,-0.3128299117088318,155.29348754882812,-0.3384807759124995,-0.7615389962794462,-0.41817508668949194,-0.18074828212459854
1.7078760862350464,0.475115567445755,153.9678955078125,-0.3384807759124995,-0.7615389962794462,-0.41817508668949194,-0.18074828212459854
1.7956777811050415,-0.48383453488349915,152.4361114501953,-0.3384807759124995,-0.7615389962794462,-0.41817508668949194,-0.18074828212459854
1.4929193258285522,0.16276893019676208,150.74737548828125,-0.3384807759124995,-0.7615389962794462,-0.41817508668949194,-0.18074828212459854
1.0593839883804321,-0.7657489776611328,148.95420837402344,-0.3384807759124995,-0.7615389962794462,-0.41817508668949194,-0.18074828212459854
0.6883929967880249,0.24896174669265747,147.08688354492188,-0.3384807759124995,-0.7615389962794462,-0.41817508668949194,-0.18074828212459854
1.6515189409255981,-0.3714688718318939,145.13954162597656,-0.3384807759124995,-0.7615389962794462,-0.41817508668949194,-0.18074828212459854
1.4770514965057373,-0.20646196603775024,143.129638671875,-0.3384807759124995,-0.7615389962794462,-0.41817508668949194,-0.18074828212459854
1.2274647951126099,0.5510528683662415,141.046142578125,-0.3384807759124995,-0.7615389962794462,-0.41817508668949194,-0.18074828212459854
0.9129831194877625,0.2275913655757904,138.93492126464844,-0.3384807759124995,-0.7615389962794462,-0.41817508668949194,-0.18074828212459854
0.0014606440672650933,-0.9730008244514465,136.7811279296875,-0.3384807759124995,-0.7615389962794462,-0.41817508668949194,-0.18074828212459854
1.3168437480926514,0.08819585293531418,134.63104248046875,-0.3384807759124995,-0.7615389962794462,-0.41817508668949194,-0.18074828212459854
0.5055994391441345,-0.3072277903556824,132.526611328125,-0.3384807759124995,-0.7615389962794462,-0.41817508668949194,-0.18074828212459854
1.070924162864685,-0.5959026217460632,130.4424591064453,-0.3384807759124995,-0.7615389962794462,-0.41817508668949194,-0.18074828212459854
0.9073726534843445,0.32155096530914307,128.39544677734375,-0.3384807759124995,-0.7615389962794462,-0.41817508668949194,-0.18074828212459854
1.4441391229629517,0.8520111441612244,126.353515625,-0.3384807759124995,-0.7615389962794462,-0.41817508668949194,-0.18074828212459854
0.1688435673713684,-0.7133901715278625,124.35279083251953,-0.3384807759124995,-0.7615389962794462,-0.41817508668949194,-0.18074828212459854
0.6752992868423462,-0.30168792605400085,122.28130340576172,-0.3384807759124995,-0.7615389962794462,-0.41817508668949194,-0.18074828212459854
0.3887360990047455,0.012396719306707382,120.21550750732422,-0.3384807759124995,-0.7615389962794462,-0.41817508668949194,-0.18074828212459854
0.9291684031486511,-1.0479931831359863,118.1186294555664,-0.3384807759124995,-0.7615389962794462,-0.41817508668949194,-0.18074828212459854
0.3071080446243286,-0.11589628458023071,115.96236419677734,-0.3384807759124995,-0.7615389962794462,-0.41817508668949194,-0.18074828212459854
0.23297062516212463,0.708855390548706,113.85578155517578,-0.3384807759124995,-0.7615389962794462,-0.41817508668949194,-0.18074828212459854
1.2586206197738647,-0.561948835849762,111.66615295410156,-0.3384807759124995,-0.7615389962794462,-0.41817508668949194,-0.18074828212459854
0.8169183135032654,-0.878594160079956,109.44515991210938,-0.3384807759124995,-0.7615389962794462,-0.41817508668949194,-0.18074828212459854
0.5461561679840088,-1.1323038339614868,107.14508056640625,-0.3384807759124995,-0.7615389962794462,-0.41817508668949194,-0.18074828212459854
1.0369640588760376,1.0581510066986084,104.86363220214844,-0.3384807759124995,-0.7615389962794462,-0.41817508668949194,-0.18074828212459854
-0.7636511921882629,-2.869865894317627,102.53801727294922,-0.3384807759124995,-0.7615389962794462,-0.41817508668949194,-0.18074828212459854
0.9934294819831848,0.654474675655365,100.28517150878906,-0.3384807759124995,-0.7615389962794462,-0.41817508668949194,-0.18074828212459854
-0.46527373790740967,-0.43980085849761963,98.06112670898438,-0.3384807759124995,-0.7615389962794462,-0.41817508668949194,-0.18074828212459854
0.6302228569984436,-0.0571955144405365,95.79420471191406,-0.3384807759124995,-0.7615389962794462,-0.41817508668949194,-0.18074828212459854
0.6783205270767212,0.6134436726570129,93.52916717529297,-0.3384807759124995,-0.7615389962794462,-0.41817508668949194,-0.18074828212459854
0.03170498460531235,-0.0903274342417717,91.17324829101562,-0.3384807759124995,-0.7615389962794462,-0.41817508668949194,-0.18074828212459854
0.8863364458084106,-1.31569504737854,88.77172088623047,-0.3384807759124995,-0.7615389962794462,-0.41817508668949194,-0.18074828212459854
0.3752824366092682,0.33877548575401306,86.35710906982422,-0.3384807759124995,-0.7615389962794462,-0.41817508668949194,-0.18074828212459854
0.3103317320346832,-0.6260536909103394,83.87818908691406,-0.3384807759124995,-0.7615389962794462,-0.41817508668949194,-0.18074828212459854
0.1952604055404663,0.5871773362159729,81.36570739746094,-0.3384807759124995,-0.7615389962794462,-0.41817508668949194,-0.18074828212459854
0.12457562983036041,-0.5978120565414429,78.94757080078125,-0.3384807759124995,-0.7615389962794462,-0.41817508668949194,-0.18074828212459854
0.7401214241981506,0.4217953383922577,76.90509033203125,-0.3384807759124995,-0.7615389962794462,-0.41817508668949194,-0.18074828212459854
-0.34881770610809326,0.21975135803222656,75.36092376708984,-0.3384807759124995,-0.7615389962794462,-0.41817508668949194,-0.18074828212459854
-1.7823916673660278,0.6048915982246399,74.13919830322266,-0.3384807759124995,-0.7615389962794462,-0.41817508668949194,-0.18074828212459854
-1.5364160537719727,0.6262437105178833,73.2190170288086,-0.3384807759124995,-0.7615389962794462,-0.41817508668949194,-0.18074828212459854
-0.4818267524242401,0.8836625218391418,72.74844360351562,-0.3384807759124995,-0.7615389962794462,-0.41817508668949194,-0.18074828212459854
-1.1708866357803345,0.5583769083023071,72.63939666748047,-0.3384807759124995,-0.7615389962794462,-0.41817508668949194,-0.18074828212459854
0.3620287775993347,-0.41370972990989685,72.70655059814453,-0.3384807759124995,-0.7615389962794462,-0.41817508668949194,-0.18074828212459854
-0.09330861270427704,-0.012842218391597271,72.6822280883789,-0.3384807759124995,-0.7615389962794462,-0.41817508668949194,-0.18074828212459854
0.18745304644107819,-0.018965572118759155,72.69137573242188,-0.3384807759124995,-0.7615389962794462,-0.41817508668949194,-0.18074828212459854
0.17370569705963135,0.13561196625232697,72.69213104248047,-0.3384807759124995,-0.7615389962794462,-0.41817508668949194,-0.18074828212459854
0.08777773380279541,0.1591433733701706,72.70419311523438,-0.3384807759124995,-0.7615389962794462,-0.41817508668949194,-0.18074828212459854
0.14918199181556702,0.08315504342317581,72.69645690917969,-0.3384807759124995,-0.7615389962794462,-0.41817508668949194,-0.18074828212459854
0.11051905155181885,-0.033729780465364456,72.70222473144531,-0.3384807759124995,-0.7615389962794462,-0.41817508668949194,-0.18074828212459854
0.08159264177083969,-0.026812436059117317,72.7021713256836,-0.3384807759124995,-0.7615389962794462,-0.41817508668949194,-0.18074828212459854
0.11837194114923477,-0.0034507678356021643,72.70069885253906,-0.3384807759124995,-0.7615389962794462,-0.41817508668949194,-0.18074828212459854
0.15655407309532166,0.09511750191450119,72.70347595214844,-0.3384807759124995,-0.7615389962794462,-0.41817508668949194,-0.18074828212459854
0.11392730474472046,0.07574350386857986,72.70411682128906,-0.3384807759124995,-0.7615389962794462,-0.41817508668949194,-0.18074828212459854
0.11088783293962479,0.023707186803221703,72.7035140991211,-0.3384807759124995,-0.7615389962794462,-0.41817508668949194,-0.18074828212459854
0.11170344054698944,-0.003318366827443242,72.70467376708984,-0.3384807759124995,-0.7615389962794462,-0.41817508668949194,-0.18074828212459854
0.11129633337259293,0.02776976116001606,72.70441436767578,-0.3384807759124995,-0.7615389962794462,-0.41817508668949194,-0.18074828212459854
0.1231687143445015,0.05406385660171509,72.70413208007812,-0.3384807759124995,-0.7615389962794462,-0.41817508668949194,-0.18074828212459854
0.12595245242118835,0.06242873892188072,72.70458221435547,-0.3384807759124995,-0.7615389962794462,-0.41817508668949194,-0.18074828212459854
0.10334645211696625,0.043353017419576645,72.70468139648438,-0.3384807759124995,-0.7615389962794462,-0.41817508668949194,-0.18074828212459854
0.13409191370010376,0.022203881293535233,72.70531463623047,-0.3384807759124995,-0.7615389962794462,-0.41817508668949194,-0.18074828212459854
0.11769915372133255,0.03897218033671379,72.70712280273438,-0.3384807759124995,-0.7615389962794462,-0.41817508668949194,-0.18074828212459854
0.10971743613481522,0.03325086459517479,72.70746612548828,-0.3384807759124995,-0.7615389962794462,-0.41817508668949194,-0.18074828212459854
0.13099390268325806,0.03687383979558945,72.70854949951172,-0.3384807759124995,-0.7615389962794462,-0.41817508668949194,-0.18074828212459854
0.12552747130393982,0,72.710205078125,-0.345432546706353,-0.7645489069648704,-0.416037408572932,-0.18044100012630196
0.12967932224273682,0,72.71095275878906,-0.35234878082190557,-0.7675562569669755,-0.4139106852933763,-0.18044100012630196
0,0.38750723004341125,72.7112045288086,-0.35923828673497277,-0.770536696744772,-0.41283002427468685,-0.17721177320927353
0.5710288882255554,1.6945523023605347,72.79951477050781,-0.3660791323556463,-0.7733456388307318,-0.40807145020614055,-0.1598612771059073
0.7152027487754822,2.8216469287872314,72.9032974243164,-0.3727910015509569,-0.7756963685025561,-0.3973528532311319,-0.12222628351300927
1.0526765584945679,1.2743948698043823,72.7464828491211,-0.3792907797084709,-0.7774490258806485,-0.38262052567054816,-0.08809260185807916
0.7742534875869751,0.8195568323135376,72.64636993408203,-0.3855409183275577,-0.7787718225989694,-0.36739610861986866,-0.07064300434042982
-0.23197324573993683,1.7956537008285522,72.74696350097656,-0.39162652845442725,-0.7797675941620639,-0.3628771066044767,-0.0488495832309124
0.3171434700489044,1.8058079481124878,72.93340301513672,-0.39766856563225816,-0.7803316523791803,-0.3621673547352353,-0.018837402823070403
0.45996803045272827,1.5483028888702393,73.03858184814453,-0.403650722134755,-0.7804126847292189,-0.3556914255643884,0.009113520818452323
0.7556784152984619,0.8078529238700867,73.16101837158203,-0.4094944926687621,-0.7800971707841377,-0.3455610385164618,0.02874815259128837
0.26116910576820374,1.6051664352416992,73.38208770751953,-0.4151832288995179,-0.7794504641187889,-0.33708730917423957,0.048856647250553255
0.897670567035675,0.9880877733230591,73.50371551513672,-0.42072087574181055,-0.7784560995667961,-0.3274303119008739,0.07046709898859291
0.17321884632110596,1.296143651008606,73.55166625976562,-0.4261036802864531,-0.7771230207347409,-0.3185062334562341,0.08950236085802345
0.6483991146087646,0.6809790730476379,73.65936279296875,-0.4313550607078813,-0.77549401453127,-0.3116594171151518,0.10597838355849215
-0.36260080337524414,0.39633333683013916,73.75389099121094,-0.43652953722152044,-0.7736528947768314,-0.30927776452153916,0.11495598697414029
0.43369829654693604,1.1809221506118774,73.74830627441406,-0.44167922930429804,-0.7716274300295234,-0.30868528541177503,0.12809978270282377
-0.20970188081264496,1.5133424997329712,73.75172424316406,-0.44680842875451277,-0.7693053319393135,-0.3068186486139893,0.15055198812236417
-0.3893546760082245,0.8133305907249451,73.73835754394531,-0.4519636740478585,-0.7666345576171034,-0.3118107865874965,0.1699409305428468
1.3782250881195068,1.1520864963531494,73.60570526123047,-0.4570918489345868,-0.7636657214770088,-0.30357019981990246,0.1863194062684976
0.987825334072113,0,73.60777282714844,-0.4619870432078219,-0.7604803920325094,-0.2838531129683056,0.19592012707144052
-0.504481315612793,0.9711154103279114,73.73363494873047,-0.4666843628671229,-0.757147618011157,-0.2798252461478113,0.20401275549083978
-0.6161543726921082,0.6690757870674133,73.81999206542969,-0.4714259388923854,-0.7536335032531573,-0.28916387688368544,0.21768101546913415
0.7741388082504272,0.16679438948631287,73.83145141601562,-0.47623436569908856,-0.7499474397886332,-0.28784733992069944,0.22464660027374853
1.4379736185073853,0.6170766949653625,73.84420013427734,-0.4808782024459087,-0.746148894292095,-0.26941306969771767,0.2311788593108458
0.4165593981742859,-0.21783551573753357,73.84188842773438,-0.48523963325915664,-0.74226818822169,-0.25395862789203705,0.23450586913774438
-0.3959474563598633,0.7288355231285095,73.84647369384766,-0.48947084567250904,-0.73832427095777,-0.25378686171025017,0.23876420253266917
-0.8997194170951843,0.9258428812026978,73.7819595336914,-0.4937906035672254,-0.7342299593597025,-0.2645840856557089,0.25255318923542924
0.06460647284984589,0.7785584330558777,73.63931274414062,-0.49825833228261535,-0.7299023783367329,-0.2715433601910867,0.2667565335209174
1.2862765789031982,0.228688582777977,73.54500579833984,-0.5026902436294284,-0.7253864884019513,-0.260286001426478,0.2751502586528662
0.5724254846572876,-0.36921486258506775,73.42362213134766,-0.5068992671210113,-0.7208104095271679,-0.24479681756347396,0.2739792063211404
0,0,73.49005126953125,-0.5109394623106347,-0.7162697293428284,-0.2400266051913299,0.2709024157995982
