faccX,faccY,yaw,posX,posY,velX,velY
0,0,-102.28167724609375,0.0,0.0,0.0,0.0
0,0,-102.28257751464844,0.0,0.0,0.0,0.0
0,0,-102.28241729736328,0.0,0.0,0.0,0.0
0,-0.06239863485097885,-102.28437042236328,0.0,-4.333238531317976e-06,0.0,-0.0005199886237581571
-0.07815098017454147,-0.6428762078285217,-102.26798248291016,-5.427151401009824e-06,-6.19771352244748e-05,-0.0006512581681211789,-0.006397278979420662
-0.641749918460846,-2.04905366897583,-102.3084945678711,-6.627457216382027e-05,-0.00035553802632623245,-0.006650432323416075,-0.02883002795279026
-0.5401935577392578,-2.65876841545105,-102.35015106201172,-0.00025919451895687316,-0.0011629705814023812,-0.01649996129175027,-0.0680618786563476
0.12290235608816147,-2.7958643436431885,-102.36202239990234,-0.0005631724294895927,-0.002676129167278608,-0.019977387972176075,-0.11351715164879958
0.3268376886844635,-0.8013463616371155,-102.25067138671875,-0.0008648969481388727,-0.0048178879937364,-0.016229554265737533,-0.14349390752613544
-1.2127588987350464,-0.5215778946876526,-102.21797943115234,-0.001196911825488011,-0.007301322859194544,-0.023612231016159058,-0.15451827632884185
-0.659979522228241,-0.7113816142082214,-102.35257720947266,-0.0017205002883242237,-0.00996224965279301,-0.03921838452418645,-0.16479293890297414
-0.05083557590842247,-0.860892653465271,-102.60206604003906,-0.002423502189986822,-0.012817984347542128,-0.04514184367532532,-0.1778952244669199
0,-1.5260100364685059,-102.79678344726562,-0.0031793964995692177,-0.01594866188656953,-0.04556547347456217,-0.19778608021636807
-0.25768229365348816,-1.1315114498138428,-102.89874267578125,-0.003956715661204524,-0.019429646660056383,-0.04771282592167457,-0.21993209260205432
0.06355191767215729,-1.0107643604278564,-102.99797821044922,-0.004765410702675581,-0.023243950690246297,-0.04933057905485233,-0.23778439102073515
-0.5881711840629578,-0.9309387803077698,-103.15528106689453,-0.005624018913755815,-0.027341864369809635,-0.05370240627477567,-0.25396525052686536
0.6111488342285156,-0.807314932346344,-103.14124298095703,-0.006517463348185024,-0.03169533060863615,-0.053510925856729355,-0.2684506981323163
-0.3350760340690613,-0.7545887231826782,-103.18128204345703,-0.007390140390230551,-0.03627797444247538,-0.0512103191887339,-0.2814665619283915
-2.069467544555664,-0.2815200388431549,-103.1873779296875,-0.008410627903002833,-0.041041035805311474,-0.07124818234393995,-0.2901008016119401
1.8441410064697266,-1.5666528940200806,-103.07841491699219,-0.009613745284991133,-0.04600439450807042,-0.0731259034946561,-0.3055022427191337
-0.2594491243362427,-0.11153139173984528,-103.10218811035156,-0.01072246229586502,-0.05121263912878932,-0.0599201378102104,-0.31948711176713307
-0.7187485694885254,-0.41726550459861755,-103.08528900146484,-0.011789061654773024,-0.05657414633159837,-0.06807178525875013,-0.3238937525699536
0,-1.0765348672866821,-103.01283264160156,-0.012973504504188896,-0.06207611167803408,-0.0740613566711545,-0.3363420890023311
-0.20074106752872467,0.7000517845153809,-102.88835144042969,-0.014221800800619855,-0.06770795781993205,-0.07573419890056055,-0.3394794480254253
0.345470130443573,0,-102.89208221435547,-0.015473986819593444,-0.07331733391309779,-0.07452812337627014,-0.3336456831544638
-0.06951586157083511,-0.11686916649341583,-102.97232818603516,-0.016696958718304004,-0.07888621121334534,-0.07222850446899733,-0.3346195928752423
0.3290627896785736,-1.7811291217803955,-102.92998504638672,-0.01788274303389092,-0.08459500986461839,-0.07006561340143284,-0.35043624527752404
0.324984610080719,-0.2859335243701935,-102.96060943603516,-0.019005083298931517,-0.09057915996967092,-0.06461521840343874,-0.3676617673287789
-0.34920617938041687,0.9052988290786743,-103.10398864746094,-0.020083685659079087,-0.0966638446123236,-0.06481706481426956,-0.3625003897895416
-1.1433199644088745,-0.7674461603164673,-103.27946472167969,-0.021267617721524502,-0.10269594467348525,-0.07725478267918032,-0.3613516175498565
0.9366213083267212,-0.3800213932991028,-103.37088775634766,-0.021267617721524502,-0.10269594467348525,-0.07725478267918032,-0.3613516175498565
-0.12504474818706512,-0.709155261516571,-103.4035415649414,-0.02249883794950114,-0.10879410890034506,-0.07049164467801652,-0.37042808967332047
-0.2705759108066559,0.9210458397865295,-103.32831573486328,-0.023701172351009315,-0.11495319577140943,-0.0737884835029642,-0.36866233485440414
0.33524006605148315,0,-103.17644500732422,-0.024926489843055604,-0.12103360650233098,-0.07324961554259064,-0.36098695285618304
-0.19415706396102905,-0.4537024199962616,-103.03463745117188,-0.026137519338064723,-0.12708156282910044,-0.07207392385850353,-0.3647678063561519
0.5083011388778687,-0.055191848427057266,-103.09008026123047,-0.027316935841615,-0.13319636614812125,-0.06945605656752987,-0.3690085919263462
-1.0362286567687988,0.16300563514232635,-103.25213623046875,-0.028511198417594034,-0.1393390222783718,-0.07385545254995429,-0.368110143703719
-0.4968701899051666,-0.6444439888000488,-103.45282745361328,-0.02984858782444563,-0.14550762455910446,-0.08663127627223734,-0.37212212998419997
0.8436462879180908,-0.9116612076759338,-103.58940124511719,-0.031268360755509796,-0.15181772291970752,-0.08374147545546297,-0.3850896732881665
-0.2602567672729492,-0.4591006636619568,-103.67210388183594,-0.03262353885194493,-0.15833107593779766,-0.07887989611675346,-0.39651268888264896
0.4270555078983307,-0.3516739308834076,-103.64027404785156,-0.033926620541347395,-0.16499592454379636,-0.07748990661154195,-0.40326914383719364
-1.6136164665222168,-0.23790143430233002,-103.60882568359375,-0.0353005190514442,-0.17175801967477639,-0.08737791460007434,-0.4081822718804081
0.49593088030815125,0,-103.53703308105469,-0.036834434682710304,-0.1785775784723875,-0.09669196115185821,-0.41016478383292754
0,0.24863791465759277,-103.48499298095703,-0.03841152772410877,-0.18539639168108507,-0.09255920381595695,-0.40809280121078095
0.49245068430900574,0.2372807413339615,-103.4754409790039,-0.03991998315685326,-0.1921641940168209,-0.08845544811338191,-0.404043479077518
-0.5994402766227722,-0.14813895523548126,-103.59825134277344,-0.041401670458209194,-0.1988920615996338,-0.08934702804932997,-0.40330063086003065
-0.3010951280593872,-0.25631099939346313,-103.85831451416016,-0.0429533247732454,-0.2056418255830391,-0.09685148975501463,-0.4066710471486052
0.19542384147644043,-0.5590864419937134,-103.98394012451172,-0.0429533247732454,-0.2056418255830391,-0.09685148975501463,-0.4066710471486052
0.6322921514511108,0.11833798140287399,-104.03833770751953,-0.044510035991875675,-0.21245028390083465,-0.08995385648061838,-0.41034395098686216
-0.3789227306842804,1.3527203798294067,-104.13011169433594,-0.04599167183455495,-0.21918719291997454,-0.08784244464089479,-0.3980851313099265
0.5727130174636841,1.500969648361206,-104.27022552490234,-0.04744225491976574,-0.22562377218984897,-0.08622752558439975,-0.37430438107500474
-0.14014318585395813,0.5008867383003235,-104.30419158935547,-0.04884934077453284,-0.23172316073646979,-0.08262277698765204,-0.357622244519492
0,0.08876843750476837,-104.19251251220703,-0.05023611922334467,-0.23764258320236376,-0.08379063686976836,-0.3527084513877829
-1.0592738389968872,-0.7894062399864197,-104.1529769897461,-0.051706190521104485,-0.24356971279511025,-0.09261791886140908,-0.35854709974179666
0.7408846616744995,-0.8498603105545044,-104.18647003173828,-0.05327193286166425,-0.24965933574570554,-0.09527116200576231,-0.3722076543296377
0,-0.5622323751449585,-104.27650451660156,-0.05480833523803289,-0.25596085864326196,-0.08909712315847482,-0.3839750933771332
0.35852012038230896,-0.44642966985702515,-104.19286346435547,-0.05626839006009204,-0.2624304895082282,-0.08610945548862224,-0.3923806104188164
0.05154695734381676,0,-104.1882553100586,-0.05767507077117143,-0.26900116840894855,-0.08269222984090453,-0.39610085766762493
-0.3757486343383789,-0.14868123829364777,-104.33122253417969,-0.05907578860720002,-0.27561317445606826,-0.08539391048252588,-0.39733986798673865
-0.31593045592308044,-0.2387995719909668,-104.47647094726562,-0.060547053718732494,-0.28226241397878366,-0.09115790290137138,-0.40056887473911046
0.8391329050064087,0.5632416009902954,-104.46022033691406,-0.06203001859701345,-0.2889160311946439,-0.08679788249234364,-0.39786519116411606
-1.611194372177124,0,-104.35954284667969,-0.06353026535155049,-0.29550800371397706,-0.0932317280520996,-0.3931715111558636
1.1785228252410889,0.19713740050792694,-104.23907470703125,-0.06511417412095603,-0.302047172135984,-0.09683732427656656,-0.39152869948496416
-0.10220526903867722,-0.7562757730484009,-104.16600036621094,-0.0666533852508292,-0.308611479514382,-0.08786801130821313,-0.3961881859228014
-0.42940250039100647,0.39011144638061523,-104.3056869506836,-0.0666533852508292,-0.308611479514382,-0.08786801130821313,-0.3961881859228014
-0.3285748362541199,-0.35765886306762695,-104.56932067871094,-0.06817048942101088,-0.31521236229480976,-0.09418448911358919,-0.3959177477285265
0.4065363109111786,0.2763771712779999,-104.75468444824219,-0.06973481691494174,-0.3218166359855484,-0.0935348101581137,-0.3965950951601067
1.0060862302780151,-0.5664138197898865,-104.82077026367188,-0.07119563162999439,-0.32844669567214124,-0.08176295564820375,-0.3990120672310391
-0.41923457384109497,1.1556144952774048,-104.74563598632812,-0.07251759397021189,-0.33505598007908305,-0.07687252517789608,-0.39410206160197647
-1.2770570516586304,0.11169558018445969,-104.72403717041016,-0.07391660075272541,-0.34153634012832,-0.09100828872372713,-0.3835411443064609
0.9764689803123474,-0.3065527677536011,-104.62557983398438,-0.0754542797364088,-0.34794222428256444,-0.09351318931827948,-0.38516495420287045
-0.05410022661089897,-0.169694185256958,-104.66629791259766,-0.07694877950603975,-0.3543947128910158,-0.08582678303743407,-0.3891336788112918
-0.34222859144210815,0.1540738344192505,-104.70491027832031,-0.078406748724584,-0.3608813589511233,-0.0891295231878758,-0.38926384840160605
0,-0.7805514931678772,-104.75828552246094,-0.07991600665212097,-0.3674125951507854,-0.09198142811656003,-0.3944844955578446
-0.22621022164821625,0,-104.9544906616211,-0.08146473949723365,-0.37404154170821946,-0.09386651329696183,-0.4009890913342436
-0.1728169023990631,0.4537888467311859,-105.10932159423828,-0.08305689160246407,-0.38069318011610054,-0.09719173933068916,-0.3972075176114837
0.6794794201850891,0.630392849445343,-105.19758605957031,-0.08464156902757375,-0.38723801501405747,-0.09296955168247227,-0.38817267014334594
-0.8445686101913452,0.0974210649728775,-105.17634582519531,-0.08620252608269872,-0.39365701688350085,-0.0943452949325244,-0.38210755418986075
1.130862832069397,-1.532313585281372,-105.19097900390625,-0.08775506612172149,-0.4001251214339088,-0.09195950975020731,-0.3940649918590982
-1.4932254552841187,0,-105.25518035888672,-0.08931288868861485,-0.40679928196387166,-0.09497919827699665,-0.406834271736443
-0.9103658199310303,0.7671741843223572,-105.21489715576172,-0.08931288868861485,-0.40679928196387166,-0.09497919827699665,-0.406834271736443
0.6282232999801636,-0.09021448343992233,-105.1338119506836,-0.09091546855711694,-0.41353284206914,-0.09733038594325387,-0.401192940895756
0.9151551127433777,-0.22366297245025635,-105.10784149169922,-0.09243046259973203,-0.4202411881296172,-0.08446889917055769,-0.4038085863615075
0.5321998596191406,0.9085659980773926,-105.1015853881836,-0.09373776682393838,-0.4269237685255293,-0.07240760773420338,-0.398101061147948
0.4607832133769989,0.060023579746484756,-105.1541976928711,-0.09487560312832814,-0.4334915230462018,-0.06413274879256889,-0.39002948133274906
0,-0.5921734571456909,-105.29623413085938,-0.09591248344060867,-0.4400289692543448,-0.0602928886810939,-0.3944640636444091
-0.9284864068031311,-0.21246397495269775,-105.50202178955078,-0.09698184314132156,-0.44665924791453626,-0.06803027540445332,-0.40116937557856236
0.44701942801475525,0.7029991745948792,-105.52354431152344,-0.09814911627158943,-0.45331133922975936,-0.07204250022768978,-0.39708158224821083
-0.5086746215820312,-0.35144707560539246,-105.3500747680664,-0.09935410621938198,-0.45990495226035527,-0.07255629350741707,-0.39415198142329844
-0.2785756587982178,-0.2327726185321808,-105.13382720947266,-0.10061804793619868,-0.46651472276283645,-0.07911671251058582,-0.39902047887444486
-0.49068257212638855,0,-105.00019073486328,-0.10199008052185599,-0.4731812288425864,-0.08552719776829087,-0.40096025069554636
1.180328369140625,0.1881808042526245,-105.1229248046875,-0.10336764174875707,-0.47985083157610575,-0.07978014945983891,-0.3993920773267745
-0.5401125550270081,-0.13813331723213196,-105.33950805664062,-0.10465285147488539,-0.4865038906782867,-0.07444501767555878,-0.3989750149349371
0.15150050818920135,-0.41584888100624084,-105.49740600585938,-0.10592058871717511,-0.49319194524652443,-0.07768345139920717,-0.4035915332535902
0.6300125122070312,-0.6447146534919739,-105.57623291015625,-0.10716104116963437,-0.4999921210462022,-0.07117084289590522,-0.412429562707742
-0.22478525340557098,0.6225094199180603,-105.54959106445312,-0.10831908110270491,-0.5068674891214405,-0.06779394907255971,-0.41261460632085795
-1.8887616395950317,0.2922896444797516,-105.56119537353516,-0.10831908110270491,-0.5068674891214405,-0.06779394907255971,-0.41261460632085795
1.3595508337020874,-0.06857112795114517,-105.46672821044922,-0.10831908110270491,-0.5068674891214405,-0.06779394907255971,-0.41261460632085795
-0.13291189074516296,0.11195934563875198,-105.48889923095703,-0.10831908110270491,-0.5068674891214405,-0.06779394907255971,-0.41261460632085795
0.5241843461990356,0.7705101370811462,-105.58226776123047,-0.10831908110270491,-0.5068674891214405,-0.06779394907255971,-0.41261460632085795
0.27726292610168457,1.813610315322876,-105.9358901977539,-0.10831908110270491,-0.5068674891214405,-0.06779394907255971,-0.41261460632085795
0.06439421325922012,2.640458822250366,-106.58876037597656,-0.10831908110270491,-0.5068674891214405,-0.06779394907255971,-0.41261460632085795
0.13447435200214386,2.3302035331726074,-107.45014190673828,-0.10831908110270491,-0.5068674891214405,-0.06779394907255971,-0.41261460632085795
0.4103711247444153,2.254918098449707,-108.52656555175781,-0.10831908110270491,-0.5068674891214405,-0.06779394907255971,-0.41261460632085795
0.04493657499551773,1.3684968948364258,-109.86027526855469,-0.10831908110270491,-0.5068674891214405,-0.06779394907255971,-0.41261460632085795
-0.05021994933485985,1.0481905937194824,-111.44700622558594,-0.10831908110270491,-0.5068674891214405,-0.06779394907255971,-0.41261460632085795
0.6144040822982788,1.95170259475708,-113.10953521728516,-0.10831908110270491,-0.5068674891214405,-0.06779394907255971,-0.41261460632085795
-0.3332878649234772,1.1836367845535278,-114.8160400390625,-0.10831908110270491,-0.5068674891214405,-0.06779394907255971,-0.41261460632085795
-0.05623609945178032,1.5631552934646606,-116.5152816772461,-0.10831908110270491,-0.5068674891214405,-0.06779394907255971,-0.41261460632085795
-0.49030768871307373,0.8422799706459045,-118.1540756225586,-0.10831908110270491,-0.5068674891214405,-0.06779394907255971,-0.41261460632085795
-0.252027690410614,0.9772442579269409,-119.68876647949219,-0.10831908110270491,-0.5068674891214405,-0.06779394907255971,-0.41261460632085795
-0.26077860593795776,0.36532697081565857,-121.16195678710938,-0.10831908110270491,-0.5068674891214405,-0.06779394907255971,-0.41261460632085795
0.31114038825035095,0.656779944896698,-122.59678649902344,-0.10831908110270491,-0.5068674891214405,-0.06779394907255971,-0.41261460632085795
0.1303592473268509,0.9777979850769043,-123.99980163574219,-0.10831908110270491,-0.5068674891214405,-0.06779394907255971,-0.41261460632085795
-0.33108124136924744,0.2463720142841339,-125.35689544677734,-0.10831908110270491,-0.5068674891214405,-0.06779394907255971,-0.41261460632085795
0.07285944372415543,0.5844441056251526,-126.65969848632812,-0.10831908110270491,-0.5068674891214405,-0.06779394907255971,-0.41261460632085795
-0.6705891489982605,0.5578406453132629,-127.93370819091797,-0.10831908110270491,-0.5068674891214405,-0.06779394907255971,-0.41261460632085795
-0.19817578792572021,0.3084881901741028,-129.1707000732422,-0.10831908110270491,-0.5068674891214405,-0.06779394907255971,-0.41261460632085795
0.23366211354732513,0.5642878413200378,-130.31483459472656,-0.10831908110270491,-0.5068674891214405,-0.06779394907255971,-0.41261460632085795
-0.10292381793260574,1.2574039697647095,-131.45533752441406,-0.10831908110270491,-0.5068674891214405,-0.06779394907255971,-0.41261460632085795
-0.28356942534446716,0.641090989112854,-132.63327026367188,-0.10831908110270491,-0.5068674891214405,-0.06779394907255971,-0.41261460632085795
-0.046227287501096725,1.2506922483444214,-133.87721252441406,-0.10831908110270491,-0.5068674891214405,-0.06779394907255971,-0.41261460632085795
0.08887728303670883,0.6926038861274719,-135.18673706054688,-0.10831908110270491,-0.5068674891214405,-0.06779394907255971,-0.41261460632085795
-0.26617515087127686,0.315930038690567,-136.6191864013672,-0.10831908110270491,-0.5068674891214405,-0.06779394907255971,-0.41261460632085795
-0.7084209322929382,0.5904306173324585,-138.02903747558594,-0.10831908110270491,-0.5068674891214405,-0.06779394907255971,-0.41261460632085795
0.7075055241584778,0.3750803470611572,-139.4541015625,-0.10831908110270491,-0.5068674891214405,-0.06779394907255971,-0.41261460632085795
-0.37493419647216797,0.948765218257904,-140.83924865722656,-0.10831908110270491,-0.5068674891214405,-0.06779394907255971,-0.41261460632085795
0.5198032855987549,-0.140112966299057,-142.160888671875,-0.10831908110270491,-0.5068674891214405,-0.06779394907255971,-0.41261460632085795
-0.13124313950538635,-0.10452282428741455,-143.55787658691406,-0.10831908110270491,-0.5068674891214405,-0.06779394907255971,-0.41261460632085795
-0.13751648366451263,0.8806344866752625,-144.90280151367188,-0.10831908110270491,-0.5068674891214405,-0.06779394907255971,-0.41261460632085795
0.6726471185684204,0.07731041312217712,-146.310546875,-0.10831908110270491,-0.5068674891214405,-0.06779394907255971,-0.41261460632085795
-0.17902496457099915,0.2018595039844513,-147.83262634277344,-0.10831908110270491,-0.5068674891214405,-0.06779394907255971,-0.41261460632085795
0.2752459645271301,0.4073437452316284,-149.35435485839844,-0.10831908110270491,-0.5068674891214405,-0.06779394907255971,-0.41261460632085795
-0.6669759750366211,1.193121314048767,-150.9532928466797,-0.10831908110270491,-0.5068674891214405,-0.06779394907255971,-0.41261460632085795
-0.12842556834220886,1.170392632484436,-152.64044189453125,-0.10831908110270491,-0.5068674891214405,-0.06779394907255971,-0.41261460632085795
-0.4441644549369812,0.8717160224914551,-154.41477966308594,-0.10831908110270491,-0.5068674891214405,-0.06779394907255971,-0.41261460632085795
1.3953653573989868,0.10029731690883636,-156.22402954101562,-0.10831908110270491,-0.5068674891214405,-0.06779394907255971,-0.41261460632085795
-0.09297028928995132,0.5316618084907532,-158.15447998046875,-0.10831908110270491,-0.5068674891214405,-0.06779394907255971,-0.41261460632085795
0.041339755058288574,0.3948574662208557,-160.06028747558594,-0.10831908110270491,-0.5068674891214405,-0.06779394907255971,-0.41261460632085795
0.03208722546696663,0.6346641182899475,-162.04010009765625,-0.10831908110270491,-0.5068674891214405,-0.06779394907255971,-0.41261460632085795
0.42841964960098267,0.6790840029716492,-164.02590942382812,-0.10831908110270491,-0.5068674891214405,-0.06779394907255971,-0.41261460632085795
0.40289297699928284,-0.5242570638656616,-166.09815979003906,-0.10831908110270491,-0.5068674891214405,-0.06779394907255971,-0.41261460632085795
0.10074139386415482,1.1633760929107666,-168.20826721191406,-0.10831908110270491,-0.5068674891214405,-0.06779394907255971,-0.41261460632085795
0.9039961695671082,-0.10043928772211075,-170.29330444335938,-0.10831908110270491,-0.5068674891214405,-0.06779394907255971,-0.41261460632085795
0.11006344109773636,0.7804386615753174,-172.4263916015625,-0.10831908110270491,-0.5068674891214405,-0.06779394907255971,-0.41261460632085795
0.42868176102638245,-0.32283487915992737,-174.58920288085938,-0.10831908110270491,-0.5068674891214405,-0.06779394907255971,-0.41261460632085795
0.3331212103366852,0.8480857014656067,-176.72567749023438,-0.10831908110270491,-0.5068674891214405,-0.06779394907255971,-0.41261460632085795
0.6760832071304321,-0.42150673270225525,-178.8679962158203,-0.10831908110270491,-0.5068674891214405,-0.06779394907255971,-0.41261460632085795
0.5534741282463074,0.759178876876831,178.91336059570312,-0.10831908110270491,-0.5068674891214405,-0.06779394907255971,-0.41261460632085795
0.23789861798286438,-0.22390015423297882,176.62173461914062,-0.10831908110270491,-0.5068674891214405,-0.06779394907255971,-0.41261460632085795
-0.352106511592865,1.2312403917312622,174.364013671875,-0.10831908110270491,-0.5068674891214405,-0.06779394907255971,-0.41261460632085795
-0.16630427539348602,0.14091798663139343,172.085205078125,-0.10831908110270491,-0.5068674891214405,-0.06779394907255971,-0.41261460632085795
0.23256459832191467,0.7237294912338257,169.80630493164062,-0.10831908110270491,-0.5068674891214405,-0.06779394907255971,-0.41261460632085795
-0.17013351619243622,0.4916119873523712,167.5614013671875,-0.10831908110270491,-0.5068674891214405,-0.06779394907255971,-0.41261460632085795
1.2339152097702026,-1.4568531513214111,165.2834014892578,-0.10831908110270491,-0.5068674891214405,-0.06779394907255971,-0.41261460632085795
0.5626536011695862,-3.512965440750122,163.6798095703125,-0.10831908110270491,-0.5068674891214405,-0.06779394907255971,-0.41261460632085795
-0.8366596102714539,3.8553311824798584,162.3828125,-0.10831908110270491,-0.5068674891214405,-0.06779394907255971,-0.41261460632085795
-0.8811867237091064,-4.380599498748779,161.64544677734375,-0.10831908110270491,-0.5068674891214405,-0.06779394907255971,-0.41261460632085795
-1.3570228815078735,0.4522865414619446,161.19796752929688,-0.10831908110270491,-0.5068674891214405,-0.06779394907255971,-0.41261460632085795
1.0850656032562256,-0.6021086573600769,161.106201171875,-0.10831908110270491,-0.5068674891214405,-0.06779394907255971,-0.41261460632085795
1.0437766313552856,-0.06750355660915375,161.13719177246094,-0.10831908110270491,-0.5068674891214405,-0.06779394907255971,-0.41261460632085795
1.3901286125183105,-1.2260435819625854,161.05477905273438,-0.10831908110270491,-0.5068674891214405,-0.06779394907255971,-0.41261460632085795
2.163954257965088,0.708367645740509,160.95571899414062,-0.10831908110270491,-0.5068674891214405,-0.06779394907255971,-0.41261460632085795
0.017818909138441086,0.09296813607215881,161.00479125976562,-0.10831908110270491,-0.5068674891214405,-0.06779394907255971,-0.41261460632085795
-0.5946893095970154,0.07438356429338455,161.0750732421875,-0.10831908110270491,-0.5068674891214405,-0.06779394907255971,-0.41261460632085795
-0.522952139377594,0.537255048751831,161.058349609375,-0.10831908110270491,-0.5068674891214405,-0.06779394907255971,-0.41261460632085795
-0.3409635126590729,0.3462076485157013,161.0620880126953,-0.10831908110270491,-0.5068674891214405,-0.06779394907255971,-0.41261460632085795
0.16480249166488647,0.128416508436203,161.0646514892578,-0.10831908110270491,-0.5068674891214405,-0.06779394907255971,-0.41261460632085795
0.37359845638275146,0.060974277555942535,161.03977966308594,-0.10831908110270491,-0.5068674891214405,-0.06779394907255971,-0.41261460632085795
0.2809411585330963,0.15151475369930267,161.05157470703125,-0.10831908110270491,-0.5068674891214405,-0.06779394907255971,-0.41261460632085795
-0.08726268261671066,0.1892625093460083,161.0511016845703,-0.10831908110270491,-0.5068674891214405,-0.06779394907255971,-0.41261460632085795
-0.1413099318742752,0.26982659101486206,161.0498809814453,-0.10831908110270491,-0.5068674891214405,-0.06779394907255971,-0.41261460632085795
0.06415500491857529,0.2078431248664856,161.054443359375,-0.10831908110270491,-0.5068674891214405,-0.06779394907255971,-0.41261460632085795
0.22578465938568115,0.09377752244472504,161.05233764648438,-0.10831908110270491,-0.5068674891214405,-0.06779394907255971,-0.41261460632085795
0.10209787636995316,0.21465185284614563,161.05197143554688,-0.10831908110270491,-0.5068674891214405,-0.06779394907255971,-0.41261460632085795
-0.06625156849622726,0.2143513560295105,161.052734375,-0.10831908110270491,-0.5068674891214405,-0.06779394907255971,-0.41261460632085795
0.00331394886597991,0.1952294260263443,161.05189514160156,-0.10831908110270491,-0.5068674891214405,-0.06779394907255971,-0.41261460632085795
0.13765659928321838,0.1714806854724884,161.05313110351562,-0.10831908110270491,-0.5068674891214405,-0.06779394907255971,-0.41261460632085795
0.11259526759386063,0.16191242635250092,161.05303955078125,-0.10831908110270491,-0.5068674891214405,-0.06779394907255971,-0.41261460632085795
-0.0031722066923975945,0.1999581754207611,161.05247497558594,-0.10831908110270491,-0.5068674891214405,-0.06779394907255971,-0.41261460632085795
0.006262419279664755,0.19007240235805511,161.05352783203125,-0.10831908110270491,-0.5068674891214405,-0.06779394907255971,-0.41261460632085795
0.08233767002820969,0.17462272942066193,161.0530548095703,-0.10831908110270491,-0.5068674891214405,-0.06779394907255971,-0.41261460632085795
0.09506586194038391,0.17648765444755554,161.05227661132812,-0.1094366605641942,-0.5137200165612418,-0.06631558630615476,-0.40968868645528944
-0.19739502668380737,0.1693515032529831,161.0591583251953,-0.11054902652795952,-0.520524144727323,-0.06716832934568329,-0.40680669347445164
-0.4885776937007904,0.5267861485481262,161.0904541015625,-0.11171613567819205,-0.5272559133927444,-0.0728847686822216,-0.4010055463761091
-1.0865517854690552,0.659180223941803,161.0525360107422,-0.11304026581450476,-0.5338569803898121,-0.08601084767530365,-0.39112249327202636
-3.103489637374878,1.2838271856307983,160.9166717529297,-0.1147647550412351,-0.5402407575409034,-0.12092785953233642,-0.37493076485892135
-2.021906852722168,0.9600231051445007,160.94171142578125,-0.11713614967858633,-0.546333780685026,-0.1636394969498118,-0.35623201243579383
-0.8726445436477661,-0.5412687659263611,160.94476318359375,-0.12006448514138666,-0.5522419007298436,-0.18776075858622793,-0.35274239294230936
-0.4173975884914398,1.1366971731185913,160.97947692871094,-0.12328341737700013,-0.5580795914172715,-0.19851110968738797,-0.3477804895490408
-0.6485443711280823,0.05004139989614487,161.03074645996094,-0.12666595961898572,-0.5637935205088517,-0.20739395935088398,-0.33789100144058465
-1.5887259244918823,0.478889524936676,160.9628448486328,-0.13027789160091852,-0.5693883058853035,-0.22603787848105034,-0.33348324373364446
-0.8593980073928833,1.0719209909439087,161.0335693359375,-0.13421519818198357,-0.574838664772817,-0.2464389112467567,-0.3205598227679729
-0.4682265520095825,-0.5648813843727112,161.2172088623047,-0.13841470951938803,-0.5801461174018269,-0.25750244924177723,-0.3163344927132129
-1.146768569946289,0.5639197826385498,161.27162170410156,-0.1428185694457757,-0.5854184257249453,-0.27096074192474284,-0.31634250606099756
-0.2411954253911972,1.0957462787628174,161.25132751464844,-0.14743096819975318,-0.5905755462383646,-0.28252710855255525,-0.3025119555493195
-1.057976484298706,-0.22871632874011993,161.18272399902344,-0.152229973613802,-0.5955572017509906,-0.2933535411333044,-0.295286705965797
-0.32793670892715454,0.7727789878845215,161.23875427246094,-0.15721544327110887,-0.6004408647213133,-0.3049028177435199,-0.290752850472927
-1.487549066543579,0.5943275690078735,161.3231201171875,-0.15721544327110887,-0.6004408647213133,-0.3049028177435199,-0.290752850472927
0.05693609267473221,0.1510605812072754,161.3336181640625,-0.16239650502335287,-0.6052349824965416,-0.3168245925257603,-0.2845412825544674
0.387493371963501,0.5943039059638977,161.3223419189453,-0.16764605174151567,-0.6099255757830625,-0.313121013653775,-0.27832991182804095
1.4796206951141357,0.16552618145942688,161.2090301513672,-0.1727350746033093,-0.6145116416685699,-0.29756172976146134,-0.27199799443284656
0.5554459691047668,-0.34779947996139526,161.00625610351562,-0.17755311269209623,-0.6190575994437355,-0.2806028408929705,-0.27351693858702963
0.09151715785264969,0.4861598312854767,161.00770568847656,-0.18218489871205146,-0.6236066067291218,-0.2752114815016587,-0.272363935659329
-1.694655179977417,0.14995184540748596,161.06161499023438,-0.18688308576639331,-0.6281018312347847,-0.2885709650193651,-0.26706300502022096
-2.420886993408203,0.8987918496131897,161.00595092773438,-0.19197840338986785,-0.6324800518951897,-0.3228671497975786,-0.258323474228382
0.2711591422557831,0.6900759935379028,160.9320526123047,-0.19750880920949085,-0.6366751050876662,-0.34078154855718207,-0.24508290886878953
-0.22812213003635406,-0.6643814444541931,160.97479248046875,-0.20318551300403975,-0.640758035891793,-0.3404229067886868,-0.24486878762642528
-0.3499208092689514,0.7362044453620911,161.02114868164062,-0.20889936998796962,-0.6448341946438371,-0.3452399312828977,-0.24427026261885945
-0.38426220417022705,0.15880434215068817,160.981689453125,-0.2147043537741734,-0.648843212299463,-0.3513581230615575,-0.23681185605625296
-0.5920061469078064,0.2576293349266052,160.95188903808594,-0.22062811890513534,-0.6527611575617146,-0.35949369265387443,-0.23334157541394218
-0.7393547892570496,1.898767113685608,160.90737915039062,-0.2267121360699336,-0.6565004340652378,-0.3705883671219149,-0.2153716050088404
-0.38619503378868103,-0.05421345680952072,160.9399871826172,-0.2329667720374548,-0.6599618668114354,-0.3799679489806293,-0.20000032453487301
-0.1717289686203003,0.6991012096405029,160.96058654785156,-0.23933831590952148,-0.6632504216819589,-0.3846173156673708,-0.19462625992794816
0.39146900177001953,-1.6212420463562012,160.9202423095703,-0.23933831590952148,-0.6632504216819589,-0.3846173156673708,-0.19462625992794816
-0.8680269122123718,0.5447260737419128,160.8348846435547,-0.24578169880331394,-0.6665689507344118,-0.3885886315877237,-0.20359722636640057
-0.4764215648174286,0.195224791765213,160.72018432617188,-0.2523515404740142,-0.6699108523637471,-0.3997923688963054,-0.19743096915384117
-1.7957974672317505,0.8063287138938904,160.65733337402344,-0.2591725396106227,-0.6731318161895293,-0.4187275274967152,-0.18908468994001532
1.1936720609664917,-0.6084759831428528,160.67282104492188,-0.2661931459998919,-0.6762694879155607,-0.4237452392155924,-0.18743591718375666
0.20052291452884674,0.7410669922828674,160.6873321533203,-0.2731587475579646,-0.6793842121596553,-0.41212694775313125,-0.18633099210758985
1.0795233249664307,0.24572427570819855,160.5554962158203,-0.27993863792055185,-0.6824212015233935,-0.40145989575733726,-0.17810773154099763
0,0.23919227719306946,160.49569702148438,-0.286554669285607,-0.6853559889551253,-0.3924638680492837,-0.1740667602668204
0.1433205008506775,0.16856293380260468,160.48306274414062,-0.293085780940536,-0.688228785292142,-0.3912695305421947,-0.17066880017518976
-1.5631734132766724,-0.20316648483276367,160.39743041992188,-0.29970554067960214,-0.691075668319439,-0.4031016381457447,-0.1709571631004411
-0.5749484300613403,1.2800942659378052,160.26275634765625,-0.3065723819989297,-0.6938501677196474,-0.42091932017356143,-0.16198276492456576
0.5129833817481995,0.40664607286453247,160.26119995117188,-0.3135920071301775,-0.6964327457226399,-0.42143569557617094,-0.14792659543454628
0.06503938138484955,-0.20011717081069946,160.30899047851562,-0.32057579492011834,-0.6988838466950175,-0.4166188392167289,-0.14620552125076433
-0.4787178635597229,-0.4030771851539612,160.3750457763672,-0.3275481699127704,-0.7013624938794721,-0.42006615990151946,-0.15123214088380316
0.8971162438392639,0.7648935317993164,160.45114135742188,-0.3345202171347208,-0.7038579034256851,-0.4165795067325233,-0.14821700466175852
-0.3874734938144684,-0.14950408041477203,160.46278381347656,-0.3345202171347208,-0.7038579034256851,-0.4165795067325233,-0.14821700466175852
0,-0.11823546141386032,160.42835998535156,-0.3414901167951111,-0.7063467798604525,-0.41980845251431054,-0.15044816751033047
1.1508935689926147,0.5728079676628113,160.40594482421875,-0.3484070011725029,-0.7088226817838018,-0.41021767277270543,-0.1466600632915892
1.4032676219940186,0.9240029454231262,160.29039001464844,-0.3550665900804517,-0.7111630709696973,-0.3889329961811502,-0.13418663901587305
0.426786333322525,-0.8771570920944214,160.19711303710938,-0.36142171960324054,-0.7133962617690363,-0.3736825465535123,-0.13379625690480051
0.18772010505199432,0.7733187079429626,160.1823272705078,-0.36760708798757863,-0.7156334103830156,-0.36856165956705794,-0.13466157677272933
-1.8115569353103638,0.5710992813110352,160.11451721191406,-0.373862548760242,-0.7177844076355296,-0.38209363315254435,-0.12345809352894602
-1.391883134841919,-0.5018365383148193,160.0038299560547,-0.3804532370954339,-0.7198372326149707,-0.40878896707048007,-0.12288090400397755
0.4476034641265869,-0.1831454634666443,159.9888916015625,-0.38733196152374155,-0.7219328158762718,-0.41665796432644114,-0.1285890873521564
0.34638696908950806,0.26231783628463745,159.9713897705078,-0.39422112270465337,-0.7240704692506954,-0.4100413773829737,-0.12792931757867312
0.05115833878517151,0.5395487546920776,159.91220092773438,-0.40102753834798943,-0.7261469393637443,-0.4067284998173514,-0.1212470959872005
-0.12401383370161057,1.2731690406799316,159.8744659423828,-0.4078114060876478,-0.7280418411166302,-0.40733562894165504,-0.10614111435910042
0.5221415162086487,1.4991776943206787,159.8439483642578,-0.4145726854809457,-0.7296183356104624,-0.4040178982540964,-0.083038224900762
0.1747526079416275,-1.0189396142959595,159.7722930908203,-0.4212579216932258,-0.7309689561588067,-0.39821044721951077,-0.07903624090055601
-0.8326597213745117,-0.28203728795051575,159.55795288085938,-0.42794045047420604,-0.7323765724586943,-0.4036930064981181,-0.0898777150859433
-0.9222862720489502,-0.38457271456718445,159.416748046875,-0.43479053849871796,-0.7339208267380792,-0.41831755644331364,-0.09543279844025747
-0.7592953443527222,-0.032947372645139694,159.34422302246094,-0.43479053849871796,-0.7339208267380792,-0.41831755644331364,-0.09543279844025747
-0.21054986119270325,0.8484264016151428,159.37318420410156,-0.43479053849871796,-0.7339208267380792,-0.41831755644331364,-0.09543279844025747
1.3564469814300537,0.42959845066070557,159.45346069335938,-0.43479053849871796,-0.7339208267380792,-0.41831755644331364,-0.09543279844025747
2.821695327758789,-0.6975628137588501,159.47215270996094,-0.43479053849871796,-0.7339208267380792,-0.41831755644331364,-0.09543279844025747
2.519674062728882,-1.128669023513794,159.58273315429688,-0.43479053849871796,-0.7339208267380792,-0.41831755644331364,-0.09543279844025747
1.367330551147461,-0.5295449495315552,159.93783569335938,-0.43479053849871796,-0.7339208267380792,-0.41831755644331364,-0.09543279844025747
0.9254406690597534,-0.3379700183868408,160.51148986816406,-0.43479053849871796,-0.7339208267380792,-0.41831755644331364,-0.09543279844025747
0.1837013214826584,-0.4492126405239105,161.40101623535156,-0.43479053849871796,-0.7339208267380792,-0.41831755644331364,-0.09543279844025747
0.909503698348999,-0.9609796404838562,162.47816467285156,-0.43479053849871796,-0.7339208267380792,-0.41831755644331364,-0.09543279844025747
1.1782937049865723,-1.0095903873443604,163.62660217285156,-0.43479053849871796,-0.7339208267380792,-0.41831755644331364,-0.09543279844025747
2.0738108158111572,-0.5615310668945312,164.7047882080078,-0.43479053849871796,-0.7339208267380792,-0.41831755644331364,-0.09543279844025747
-0.251491904258728,-0.2037094086408615,165.86734008789062,-0.43479053849871796,-0.7339208267380792,-0.41831755644331364,-0.09543279844025747
1.7164368629455566,-0.3216429054737091,167.07357788085938,-0.43479053849871796,-0.7339208267380792,-0.41831755644331364,-0.09543279844025747
0.6201362013816833,0.05491677299141884,168.36709594726562,-0.43479053849871796,-0.7339208267380792,-0.41831755644331364,-0.09543279844025747
1.5854123830795288,-0.15957209467887878,169.68177795410156,-0.43479053849871796,-0.7339208267380792,-0.41831755644331364,-0.09543279844025747
-0.12107860296964645,-0.34606271982192993,170.97373962402344,-0.43479053849871796,-0.7339208267380792,-0.41831755644331364,-0.09543279844025747
1.0343679189682007,-0.2762995660305023,172.31317138671875,-0.43479053849871796,-0.7339208267380792,-0.41831755644331364,-0.09543279844025747
0.10663457959890366,-0.6453769207000732,173.64688110351562,-0.43479053849871796,-0.7339208267380792,-0.41831755644331364,-0.09543279844025747
1.2829176187515259,-0.6685158014297485,174.95870971679688,-0.43479053849871796,-0.7339208267380792,-0.41831755644331364,-0.09543279844025747
-0.544620156288147,-0.5887614488601685,176.3448486328125,-0.43479053849871796,-0.7339208267380792,-0.41831755644331364,-0.09543279844025747
1.1215636730194092,-0.9031040668487549,177.66116333007812,-0.43479053849871796,-0.7339208267380792,-0.41831755644331364,-0.09543279844025747
0.31027206778526306,-0.07836685329675674,178.98904418945312,-0.43479053849871796,-0.7339208267380792,-0.41831755644331364,-0.09543279844025747
0.7321184873580933,-0.9084675908088684,-179.53639221191406,-0.43479053849871796,-0.7339208267380792,-0.41831755644331364,-0.09543279844025747
0.7397794723510742,-0.2664494216442108,-178.07662963867188,-0.43479053849871796,-0.7339208267380792,-0.41831755644331364,-0.09543279844025747
0.6064246296882629,0.2110639065504074,-176.66436767578125,-0.43479053849871796,-0.7339208267380792,-0.41831755644331364,-0.09543279844025747
-0.2777025103569031,0.05510121211409569,-175.19248962402344,-0.43479053849871796,-0.7339208267380792,-0.41831755644331364,-0.09543279844025747
0.3348558843135834,-0.3421209454536438,-173.624267578125,-0.43479053849871796,-0.7339208267380792,-0.41831755644331364,-0.09543279844025747
0.5174934267997742,0.43384850025177,-172.12109375,-0.43479053849871796,-0.7339208267380792,-0.41831755644331364,-0.09543279844025747
0.707128643989563,1.4018588066101074,-170.64195251464844,-0.43479053849871796,-0.7339208267380792,-0.41831755644331364,-0.09543279844025747
-0.8159722685813904,-0.8729557991027832,-169.07931518554688,-0.43479053849871796,-0.7339208267380792,-0.41831755644331364,-0.09543279844025747
1.3507570028305054,0.36974987387657166,-167.5025634765625,-0.43479053849871796,-0.7339208267380792,-0.41831755644331364,-0.09543279844025747
0.12413083761930466,-0.6786097288131714,-165.95095825195312,-0.43479053849871796,-0.7339208267380792,-0.41831755644331364,-0.09543279844025747
0.5663682222366333,1.1083729267120361,-164.37033081054688,-0.43479053849871796,-0.7339208267380792,-0.41831755644331364,-0.09543279844025747
-0.08084160834550858,-0.7674496173858643,-162.63970947265625,-0.43479053849871796,-0.7339208267380792,-0.41831755644331364,-0.09543279844025747
0.5041704177856445,0.5716995596885681,-160.81924438476562,-0.43479053849871796,-0.7339208267380792,-0.41831755644331364,-0.09543279844025747
0.5194671154022217,0.7387687563896179,-158.9822235107422,-0.43479053849871796,-0.7339208267380792,-0.41831755644331364,-0.09543279844025747
0.22282323241233826,-0.3350512981414795,-157.09288024902344,-0.43479053849871796,-0.7339208267380792,-0.41831755644331364,-0.09543279844025747
-0.2873532772064209,0.023302776739001274,-155.2352752685547,-0.43479053849871796,-0.7339208267380792,-0.41831755644331364,-0.09543279844025747
0.37016093730926514,0.13394439220428467,-153.36627197265625,-0.43479053849871796,-0.7339208267380792,-0.41831755644331364,-0.09543279844025747
0.6267834305763245,0.6034151911735535,-151.50621032714844,-0.43479053849871796,-0.7339208267380792,-0.41831755644331364,-0.09543279844025747
-0.22303757071495056,-0.8963518738746643,-149.63095092773438,-0.43479053849871796,-0.7339208267380792,-0.41831755644331364,-0.09543279844025747
0.8715320229530334,-0.7193165421485901,-147.79713439941406,-0.43479053849871796,-0.7339208267380792,-0.41831755644331364,-0.09543279844025747
0.25042054057121277,0.41534170508384705,-145.8816680908203,-0.43479053849871796,-0.7339208267380792,-0.41831755644331364,-0.09543279844025747
0.838992178440094,-0.08239220827817917,-143.93138122558594,-0.43479053849871796,-0.7339208267380792,-0.41831755644331364,-0.09543279844025747
0.015309961512684822,0.6045680642127991,-141.9928741455078,-0.43479053849871796,-0.7339208267380792,-0.41831755644331364,-0.09543279844025747
0.3293692171573639,-0.4225965142250061,-140.02999877929688,-0.43479053849871796,-0.7339208267380792,-0.41831755644331364,-0.09543279844025747
-0.2404070645570755,0.012640752829611301,-138.00888061523438,-0.43479053849871796,-0.7339208267380792,-0.41831755644331364,-0.09543279844025747
0.5768123865127563,-0.28819870948791504,-135.9671630859375,-0.43479053849871796,-0.7339208267380792,-0.41831755644331364,-0.09543279844025747
0.5422056317329407,1.5500706434249878,-133.9856719970703,-0.43479053849871796,-0.7339208267380792,-0.41831755644331364,-0.09543279844025747
-0.021098071709275246,0.6003126502037048,-132.04608154296875,-0.43479053849871796,-0.7339208267380792,-0.41831755644331364,-0.09543279844025747
0.5963002443313599,-0.6124758124351501,-130.0729217529297,-0.43479053849871796,-0.7339208267380792,-0.41831755644331364,-0.09543279844025747
0.1894056648015976,0.644127368927002,-128.1184539794922,-0.43479053849871796,-0.7339208267380792,-0.41831755644331364,-0.09543279844025747
-0.04331166669726372,-0.47122907638549805,-126.10881805419922,-0.43479053849871796,-0.7339208267380792,-0.41831755644331364,-0.09543279844025747
1.0502790212631226,0.7545329332351685,-124.08972930908203,-0.43479053849871796,-0.7339208267380792,-0.41831755644331364,-0.09543279844025747
0.2734178304672241,-0.6615007519721985,-122.06961822509766,-0.43479053849871796,-0.7339208267380792,-0.41831755644331364,-0.09543279844025747
0.41515102982521057,0.7756685018539429,-120.01675415039062,-0.43479053849871796,-0.7339208267380792,-0.41831755644331364,-0.09543279844025747
0.656995415687561,-0.7450292706489563,-117.9872817993164,-0.43479053849871796,-0.7339208267380792,-0.41831755644331364,-0.09543279844025747
-0.20967510342597961,0.36563214659690857,-115.91765594482422,-0.43479053849871796,-0.7339208267380792,-0.41831755644331364,-0.09543279844025747
0.5646530985832214,0.340875506401062,-113.7995376586914,-0.43479053849871796,-0.7339208267380792,-0.41831755644331364,-0.09543279844025747
-0.08906324952840805,0.4143774211406708,-111.76653289794922,-0.43479053849871796,-0.7339208267380792,-0.41831755644331364,-0.09543279844025747
0.5496270060539246,-0.26636022329330444,-109.67945098876953,-0.43479053849871796,-0.7339208267380792,-0.41831755644331364,-0.09543279844025747
-0.4197741448879242,0.6128154397010803,-107.54434967041016,-0.43479053849871796,-0.7339208267380792,-0.41831755644331364,-0.09543279844025747
0.420754075050354,0.18560495972633362,-105.3735122680664,-0.43479053849871796,-0.7339208267380792,-0.41831755644331364,-0.09543279844025747
0.6966050863265991,0.9266201853752136,-103.21526336669922,-0.43479053849871796,-0.7339208267380792,-0.41831755644331364,-0.09543279844025747
0.16996224224567413,-0.2360333353281021,-101.07080841064453,-0.43479053849871796,-0.7339208267380792,-0.41831755644331364,-0.09543279844025747
0.3758244514465332,-0.30935201048851013,-98.88764953613281,-0.43479053849871796,-0.7339208267380792,-0.41831755644331364,-0.09543279844025747
-0.4630579352378845,0.46248942613601685,-96.67524719238281,-0.43479053849871796,-0.7339208267380792,-0.41831755644331364,-0.09543279844025747
0.22919385135173798,1.0811048746109009,-94.77091217041016,-0.43479053849871796,-0.7339208267380792,-0.41831755644331364,-0.09543279844025747
-0.5360041260719299,0.13998277485370636,-93.17936706542969,-0.43479053849871796,-0.7339208267380792,-0.41831755644331364,-0.09543279844025747
-1.2203431129455566,1.0056623220443726,-91.92973327636719,-0.43479053849871796,-0.7339208267380792,-0.41831755644331364,-0.09543279844025747
-1.1218019723892212,0.18347908556461334,-91.07054901123047,-0.43479053849871796,-0.7339208267380792,-0.41831755644331364,-0.09543279844025747
-1.6231822967529297,0.9030206799507141,-90.52180480957031,-0.43479053849871796,-0.7339208267380792,-0.41831755644331364,-0.09543279844025747
-0.6985585689544678,-0.5586664080619812,-90.31139373779297,-0.43479053849871796,-0.7339208267380792,-0.41831755644331364,-0.09543279844025747
-0.6081522703170776,-0.23275403678417206,-90.34525299072266,-0.43479053849871796,-0.7339208267380792,-0.41831755644331364,-0.09543279844025747
0.5341855883598328,-0.18239209055900574,-90.33354949951172,-0.43479053849871796,-0.7339208267380792,-0.41831755644331364,-0.09543279844025747
-0.3124150037765503,0.18596355617046356,-90.34422302246094,-0.43479053849871796,-0.7339208267380792,-0.41831755644331364,-0.09543279844025747
0.2118237018585205,0.15009014308452606,-90.33345794677734,-0.43479053849871796,-0.7339208267380792,-0.41831755644331364,-0.09543279844025747
-0.05046667531132698,-0.07494927942752838,-90.34374237060547,-0.43479053849871796,-0.7339208267380792,-0.41831755644331364,-0.09543279844025747
0.06655815988779068,-0.179659903049469,-90.33953094482422,-0.43479053849871796,-0.7339208267380792,-0.41831755644331364,-0.09543279844025747
0.01199903804808855,-0.03990902751684189,-90.34029388427734,-0.43479053849871796,-0.7339208267380792,-0.41831755644331364,-0.09543279844025747
0.04145326092839241,0.06907811760902405,-90.340087890625,-0.43479053849871796,-0.7339208267380792,-0.41831755644331364,-0.09543279844025747
-0.0025464098434895277,0.033639661967754364,-90.34034729003906,-0.43479053849871796,-0.7339208267380792,-0.41831755644331364,-0.09543279844025747
0.04924878105521202,-0.06391967087984085,-90.33990478515625,-0.43479053849871796,-0.7339208267380792,-0.41831755644331364,-0.09543279844025747
0.01609104685485363,-0.09427634626626968,-90.34040069580078,-0.43479053849871796,-0.7339208267380792,-0.41831755644331364,-0.09543279844025747
0.024482306092977524,-0.010526828467845917,-90.34052276611328,-0.43479053849871796,-0.7339208267380792,-0.41831755644331364,-0.09543279844025747
0.02931123785674572,0.037146713584661484,-90.3411865234375,-0.43479053849871796,-0.7339208267380792,-0.41831755644331364,-0.09543279844025747
0.005260824225842953,-0.02646700106561184,-90.34134674072266,-0.43479053849871796,-0.7339208267380792,-0.41831755644331364,-0.09543279844025747
0.01879125088453293,-0.06648194789886475,-90.3406753540039,-0.43479053849871796,-0.7339208267380792,-0.41831755644331364,-0.09543279844025747
0.012815998867154121,-0.044316332787275314,-90.340576171875,-0.43479053849871796,-0.7339208267380792,-0.41831755644331364,-0.09543279844025747
0.02580273151397705,-0.014447513967752457,-90.34111785888672,-0.43479053849871796,-0.7339208267380792,-0.41831755644331364,-0.09543279844025747
0.018690213561058044,-0.021778834983706474,-90.34230041503906,-0.43479053849871796,-0.7339208267380792,-0.41831755644331364,-0.09543279844025747
0.022315023466944695,-0.04444808140397072,-90.34284210205078,-0.43479053849871796,-0.7339208267380792,-0.41831755644331364,-0.09543279844025747
0.031728532165288925,-0.05041355639696121,-90.34368133544922,-0.43479053849871796,-0.7339208267380792,-0.41831755644331364,-0.09543279844025747
0.026326840743422508,-0.02442474104464054,-90.34356689453125,-0.43479053849871796,-0.7339208267380792,-0.41831755644331364,-0.09543279844025747
0.022314056754112244,-0.012682710774242878,-90.34434509277344,-0.43479053849871796,-0.7339208267380792,-0.41831755644331364,-0.09543279844025747
0,0,-90.3449478149414,-0.4417609481854986,-0.7355122541225539,-0.4181316059703627,-0.09553848769670949
0,-0.08452799916267395,-90.3464126586914,-0.44872980828500464,-0.7371104322507743,-0.4181316059703627,-0.09624288768973177
0,-0.7483400106430054,-90.35274505615234,-0.4556986683845107,-0.738772318435173,-0.4181316059703627,-0.10318345443811243
-0.08236458152532578,-2.2033374309539795,-90.38810729980469,-0.46267324824662265,-0.7406970202759191,-0.41881797748307376,-0.12778076645142064
0,-1.9772429466247559,-90.39993286132812,-0.4696592676339465,-0.7431170177985524,-0.4195043489957848,-0.16261893626457677
0.11010067909955978,-1.540887713432312,-90.40290832519531,-0.4766433609033832,-0.7460716480321327,-0.4185868433366218,-0.19193669176505235
0.22204260528087616,-0.9274337887763977,-90.43705749511719,-0.48359674278646714,-0.7494420041103147,-0.4158189826334515,-0.2125060376167916
-0.35685399174690247,-1.278688907623291,-90.52427673339844,-0.49053642106552925,-0.7531369743689557,-0.41694241085400174,-0.23089039342012235
0,-1.8763577938079834,-90.59790802001953,-0.4975102427736339,-0.7572042480580016,-0.41991619411855924,-0.257182449265383
0.7029266357421875,-1.4479806423187256,-90.61711120605469,-0.5044600316592389,-0.7617214790482667,-0.414058472154041,-0.2848852695664389
-0.30824384093284607,-0.9979857802391052,-90.71085357666016,-0.5113335976677222,-0.7666394256537183,-0.41076944886396316,-0.30526832308775415
-0.4003601670265198,-1.0776132345199585,-90.85721588134766,-0.5182289637604521,-0.7718713698589836,-0.4166744822636245,-0.3225649815440797
0.7656720280647278,-0.7655628323554993,-90.9778823852539,-0.5251481695856071,-0.7773754512226958,-0.4136302167549728,-0.33792478210137517
0.32702311873435974,-0.7802723050117493,-91.06316375732422,-0.5251481695856071,-0.7773754512226958,-0.4136302167549728,-0.33792478210137517
-0.4992782175540924,-1.2437148094177246,-90.97784423828125,-0.5320539686911635,-0.7831480855851096,-0.41506567591180393,-0.35479134138828744
0.46480563282966614,1.4270678758621216,-90.93042755126953,-0.538974123885855,-0.7890485417564114,-0.4153529474511741,-0.3532633991679175
-0.4356421232223511,0.9992021322250366,-91.04480743408203,-0.5458946477663185,-0.7947677741030928,-0.4151099182044465,-0.33304448243385787
1.4280892610549927,0.9014472365379333,-91.15966796875,-0.552744226462932,-0.8001865259374931,-0.40683952538917445,-0.31720573769416643
-1.391377329826355,-1.0715402364730835,-91.10841369628906,-0.5595223357797495,-0.8054851002462802,-0.4065335926289358,-0.31862317936029266
-0.9728660583496094,-1.8786853551864624,-91.0932846069336,-0.5664620792255218,-0.8110003633461503,-0.4262356208637355,-0.3432083926241222
0.5366897583007812,-1.9730695486068726,-91.11318969726562,-0.5735962962607541,-0.8169879862026491,-0.4298704233641424,-0.3753063501557333
0.6724119186401367,-0.7410989999771118,-91.1117172241211,-0.5806768379225912,-0.823431575965563,-0.4197945760563014,-0.3979244213939332
0,0.28311529755592346,-91.15615844726562,-0.5876267189180684,-0.8300954540792412,-0.4141911434009669,-0.4017409522474431
-0.15067404508590698,-0.9857767224311829,-91.101806640625,-0.594540368116771,-0.8368399325489816,-0.4154467604433495,-0.4075964641214036
-0.22091148793697357,0.34370797872543335,-90.95982360839844,-0.6014902853417312,-0.8436777950582067,-0.4185433065518735,-0.4129470369856182
0.05667011812329292,-1.3173941373825073,-90.92044067382812,-0.6014902853417312,-0.8436777950582067,-0.4185433065518735,-0.4129470369856182
0.0781254693865776,-0.3093179762363434,-90.9708023071289,-0.6084566463129076,-0.850673211793635,-0.41742000998929124,-0.4265029712657753
0.6816856861114502,1.0006647109985352,-91.01103210449219,-0.6153608818158196,-0.8577335844581505,-0.411088250360141,-0.42074174847609036
0.7698529362678528,0,-90.99707794189453,-0.6221115513619345,-0.8646764563278215,-0.3989920951736468,-0.4124028758844359
-0.4479079246520996,1.4518898725509644,-91.0480728149414,-0.6287390623223553,-0.8714490119069683,-0.3963092200768489,-0.40030379361317786
-0.5547492504119873,0.7947506308555603,-91.11190032958984,-0.6354138449607933,-0.8779647250988959,-0.4046646965357163,-0.3815817894181235
-0.43819358944892883,-1.7308032512664795,-91.15013122558594,-0.6422272109336011,-0.8843894252433931,-0.4129392202012239,-0.3893822279215478
0.35441645979881287,-1.6000484228134155,-91.1327896118164,-0.6491153491265139,-0.8911104381861189,-0.4136373629483082,-0.4171393252055469
0.17454788088798523,-0.9037821888923645,-91.16573333740234,-0.6559725715408825,-0.898236637398691,-0.4092293267759182,-0.4380045803030951
-0.45981454849243164,-0.9889398813247681,-91.24202728271484,-0.6628128705057315,-0.9056681527697299,-0.4116065490059553,-0.45377726422157116
-0.2893981635570526,1.0304582118988037,-91.19371032714844,-0.6697250083163897,-0.9132282239560218,-0.4178499882730343,-0.4534312781334542
0.4789307117462158,-0.7978728413581848,-91.1182632446289,-0.6766760128050938,-0.9207692601630696,-0.41627055037145794,-0.45149306671228234
0.5729489922523499,-0.6058806777000427,-91.1220703125,-0.6766760128050938,-0.9207692601630696,-0.41627055037145794,-0.45149306671228234
0.18446804583072662,-0.31124168634414673,-91.33506774902344,-0.6835612569058623,-0.928357833661333,-0.40995874172076563,-0.45913575307931725
-1.3699342012405396,0.11267516016960144,-91.52469635009766,-0.6904762266397786,-0.9360238855547504,-0.41983762634918076,-0.4607904741307718
1.098577857017517,-0.2620246112346649,-91.63019561767578,-0.6974923646028359,-0.9437140982799205,-0.4220989292177059,-0.4620350528896473
0.4027422368526459,-0.23128673434257507,-91.66216278076172,-0.7044230884166123,-0.9514489402270797,-0.40958792843545455,-0.4661459807694576
-0.5738590955734253,0.49830418825149536,-91.65922546386719,-0.7112614370057254,-0.959199497027827,-0.41101390225812773,-0.4639208353202166
-0.8452309370040894,-0.1700202077627182,-91.70204162597656,-0.7182102166289566,-0.9669087134511856,-0.42283965252960704,-0.46118513548281015
-0.49142396450042725,-1.1485977172851562,-91.71724700927734,-0.7253503674281656,-0.9746867030651385,-0.43397844337547803,-0.4721736181915424
0.13498640060424805,-0.3270421326160431,-91.84465026855469,-0.7326080940930275,-0.9826587383579073,-0.43694875640794617,-0.4844706169407191
0.7771735191345215,-0.4805801808834076,-91.98705291748047,-0.7398272289276225,-0.9907893335231345,-0.4293474237434564,-0.4912008028865478
0.17148827016353607,-0.6828395128250122,-92.02944946289062,-0.7469171400324234,-0.9990568066055289,-0.42144190883263927,-0.5008959670007846
0.30012059211730957,0.06152690201997757,-92.02328491210938,-0.7469171400324234,-0.9990568066055289,-0.42144190883263927,-0.5008959670007846
0.5424710512161255,-0.5057939887046814,-92.01358795166016,-0.7469171400324234,-0.9990568066055289,-0.42144190883263927,-0.5008959670007846
-0.04085322469472885,0.5250775218009949,-91.98237609863281,-0.7469171400324234,-0.9990568066055289,-0.42144190883263927,-0.5008959670007846
0.3451082408428192,0.6612213850021362,-91.97515106201172,-0.7469171400324234,-0.9990568066055289,-0.42144190883263927,-0.5008959670007846
-0.461357057094574,2.082520008087158,-91.67160034179688,-0.7469171400324234,-0.9990568066055289,-0.42144190883263927,-0.5008959670007846
-0.9347843527793884,2.5458247661590576,-91.13653564453125,-0.7469171400324234,-0.9990568066055289,-0.42144190883263927,-0.5008959670007846
0.5731361508369446,1.961294412612915,-90.38188934326172,-0.7469171400324234,-0.9990568066055289,-0.42144190883263927,-0.5008959670007846
0.8035497069358826,1.1324703693389893,-89.3110580444336,-0.7469171400324234,-0.9990568066055289,-0.42144190883263927,-0.5008959670007846
-0.5095124840736389,1.4332062005996704,-88.02430725097656,-0.7469171400324234,-0.9990568066055289,-0.42144190883263927,-0.5008959670007846
0.06966420263051987,1.2829190492630005,-86.5933609008789,-0.7469171400324234,-0.9990568066055289,-0.42144190883263927,-0.5008959670007846
0.08201491087675095,1.0091309547424316,-85.1501693725586,-0.7469171400324234,-0.9990568066055289,-0.42144190883263927,-0.5008959670007846
0.7562440633773804,-0.16576705873012543,-83.70358276367188,-0.7469171400324234,-0.9990568066055289,-0.42144190883263927,-0.5008959670007846
0.16783027350902557,1.9203284978866577,-82.25559997558594,-0.7469171400324234,-0.9990568066055289,-0.42144190883263927,-0.5008959670007846
0.16777803003787994,0.10614433139562607,-80.82849884033203,-0.7469171400324234,-0.9990568066055289,-0.42144190883263927,-0.5008959670007846
1.2559179067611694,0.7733989953994751,-79.44485473632812,-0.7469171400324234,-0.9990568066055289,-0.42144190883263927,-0.5008959670007846
-0.1797197461128235,0.2356458604335785,-78.06005096435547,-0.7469171400324234,-0.9990568066055289,-0.42144190883263927,-0.5008959670007846
-0.24062669277191162,1.1857528686523438,-76.65148162841797,-0.7469171400324234,-0.9990568066055289,-0.42144190883263927,-0.5008959670007846
0.46920838952064514,0.0787462368607521,-75.23135375976562,-0.7469171400324234,-0.9990568066055289,-0.42144190883263927,-0.5008959670007846
-1.1596227884292603,1.0987634658813477,-73.77328491210938,-0.7469171400324234,-0.9990568066055289,-0.42144190883263927,-0.5008959670007846
0.8684265613555908,-0.15935437381267548,-72.30358123779297,-0.7469171400324234,-0.9990568066055289,-0.42144190883263927,-0.5008959670007846
-0.38438647985458374,0.5362159013748169,-70.81554412841797,-0.7469171400324234,-0.9990568066055289,-0.42144190883263927,-0.5008959670007846
0.4662958085536957,0.21940875053405762,-69.25914001464844,-0.7469171400324234,-0.9990568066055289,-0.42144190883263927,-0.5008959670007846
-0.37198835611343384,0.8907760381698608,-67.63444519042969,-0.7469171400324234,-0.9990568066055289,-0.42144190883263927,-0.5008959670007846
0.6030765175819397,0.33276471495628357,-65.9692153930664,-0.7469171400324234,-0.9990568066055289,-0.42144190883263927,-0.5008959670007846
0.26061904430389404,0.6248643398284912,-64.27001953125,-0.7469171400324234,-0.9990568066055289,-0.42144190883263927,-0.5008959670007846
0.4121743142604828,0.3579685091972351,-62.578834533691406,-0.7469171400324234,-0.9990568066055289,-0.42144190883263927,-0.5008959670007846
0.25735318660736084,0.5511904358863831,-60.89731979370117,-0.7469171400324234,-0.9990568066055289,-0.42144190883263927,-0.5008959670007846
0.36973777413368225,0.7762765288352966,-59.23444747924805,-0.7469171400324234,-0.9990568066055289,-0.42144190883263927,-0.5008959670007846
0.24494947493076324,0.11519850045442581,-57.53282928466797,-0.7469171400324234,-0.9990568066055289,-0.42144190883263927,-0.5008959670007846
0.4624392092227936,0.7413274049758911,-55.864784240722656,-0.7469171400324234,-0.9990568066055289,-0.42144190883263927,-0.5008959670007846
0.6503819227218628,0.41684624552726746,-54.23070526123047,-0.7469171400324234,-0.9990568066055289,-0.42144190883263927,-0.5008959670007846
-0.8366258144378662,0.23134452104568481,-52.520084381103516,-0.7469171400324234,-0.9990568066055289,-0.42144190883263927,-0.5008959670007846
0.6353200078010559,0.4689503610134125,-50.72959518432617,-0.7469171400324234,-0.9990568066055289,-0.42144190883263927,-0.5008959670007846
0.0706481859087944,-0.25516101717948914,-48.9341926574707,-0.7469171400324234,-0.9990568066055289,-0.42144190883263927,-0.5008959670007846
0.004488217178732157,0.6331697702407837,-47.039894104003906,-0.7469171400324234,-0.9990568066055289,-0.42144190883263927,-0.5008959670007846
-0.27558645606040955,0.21957625448703766,-45.14946746826172,-0.7469171400324234,-0.9990568066055289,-0.42144190883263927,-0.5008959670007846
0.033319342881441116,-0.26395541429519653,-43.20792770385742,-0.7469171400324234,-0.9990568066055289,-0.42144190883263927,-0.5008959670007846
0.6439619064331055,0.6212291121482849,-41.26169967651367,-0.7469171400324234,-0.9990568066055289,-0.42144190883263927,-0.5008959670007846
-0.10992471873760223,-0.04478002339601517,-39.3235969543457,-0.7469171400324234,-0.9990568066055289,-0.42144190883263927,-0.5008959670007846
-0.2580854296684265,0.286764919757843,-37.37709045410156,-0.7469171400324234,-0.9990568066055289,-0.42144190883263927,-0.5008959670007846
0.33438724279403687,0.4594000279903412,-35.39145278930664,-0.7469171400324234,-0.9990568066055289,-0.42144190883263927,-0.5008959670007846
-0.6873851418495178,-0.36572733521461487,-33.38527297973633,-0.7469171400324234,-0.9990568066055289,-0.42144190883263927,-0.5008959670007846
0.26515287160873413,1.2161834239959717,-31.40031623840332,-0.7469171400324234,-0.9990568066055289,-0.42144190883263927,-0.5008959670007846
0.017620211467146873,-0.37462303042411804,-29.435558319091797,-0.7469171400324234,-0.9990568066055289,-0.42144190883263927,-0.5008959670007846
-0.07710583508014679,1.1828840970993042,-27.416542053222656,-0.7469171400324234,-0.9990568066055289,-0.42144190883263927,-0.5008959670007846
0.5062845945358276,0.13825669884681702,-25.364429473876953,-0.7469171400324234,-0.9990568066055289,-0.42144190883263927,-0.5008959670007846
-1.1328397989273071,0.005974794737994671,-23.34419822692871,-0.7469171400324234,-0.9990568066055289,-0.42144190883263927,-0.5008959670007846
0.46193960309028625,0.7148841023445129,-21.38957977294922,-0.7469171400324234,-0.9990568066055289,-0.42144190883263927,-0.5008959670007846
-1.7239669561386108,-1.147728681564331,-19.534128189086914,-0.7469171400324234,-0.9990568066055289,-0.42144190883263927,-0.5008959670007846
0.6309232115745544,-0.01445564441382885,-17.71693992614746,-0.7469171400324234,-0.9990568066055289,-0.42144190883263927,-0.5008959670007846
0.8861547112464905,-0.46035394072532654,-15.93098258972168,-0.7469171400324234,-0.9990568066055289,-0.42144190883263927,-0.5008959670007846
-0.48591041564941406,-0.02615368366241455,-14.17381763458252,-0.7469171400324234,-0.9990568066055289,-0.42144190883263927,-0.5008959670007846
-1.0183206796646118,-0.33830204606056213,-12.320667266845703,-0.7469171400324234,-0.9990568066055289,-0.42144190883263927,-0.5008959670007846
0.8026242852210999,-0.3891957998275757,-10.671443939208984,-0.7469171400324234,-0.9990568066055289,-0.42144190883263927,-0.5008959670007846
-1.373624563217163,-0.46478694677352905,-9.246569633483887,-0.7469171400324234,-0.9990568066055289,-0.42144190883263927,-0.5008959670007846
1.0135846138000488,-0.19658590853214264,-8.380058288574219,-0.7469171400324234,-0.9990568066055289,-0.42144190883263927,-0.5008959670007846
-0.8633357882499695,-1.7532716989517212,-7.83087158203125,-0.7469171400324234,-0.9990568066055289,-0.42144190883263927,-0.5008959670007846
0.5940071940422058,-0.6920995712280273,-7.696641445159912,-0.7469171400324234,-0.9990568066055289,-0.42144190883263927,-0.5008959670007846
0.4778132140636444,-0.8278537392616272,-7.747159004211426,-0.7469171400324234,-0.9990568066055289,-0.42144190883263927,-0.5008959670007846
0.7549334764480591,0.2830847203731537,-7.803767204284668,-0.7469171400324234,-0.9990568066055289,-0.42144190883263927,-0.5008959670007846
0.622884213924408,-0.020993154495954514,-7.8028950691223145,-0.7469171400324234,-0.9990568066055289,-0.42144190883263927,-0.5008959670007846
0.004370516631752253,-0.13075773417949677,-7.766851425170898,-0.7469171400324234,-0.9990568066055289,-0.42144190883263927,-0.5008959670007846
-0.10388293862342834,0.030330972746014595,-7.784704685211182,-0.7469171400324234,-0.9990568066055289,-0.42144190883263927,-0.5008959670007846
-0.07277987897396088,-0.17546455562114716,-7.804718017578125,-0.7469171400324234,-0.9990568066055289,-0.42144190883263927,-0.5008959670007846
0.10897061228752136,0.08494268357753754,-7.789988040924072,-0.7469171400324234,-0.9990568066055289,-0.42144190883263927,-0.5008959670007846
0.2055462896823883,-0.11216828972101212,-7.793344974517822,-0.7469171400324234,-0.9990568066055289,-0.42144190883263927,-0.5008959670007846
0.2699662148952484,-0.07132397592067719,-7.80080509185791,-0.7469171400324234,-0.9990568066055289,-0.42144190883263927,-0.5008959670007846
0.19942188262939453,-0.0269229207187891,-7.79536247253418,-0.7469171400324234,-0.9990568066055289,-0.42144190883263927,-0.5008959670007846
0.0861283466219902,-0.09737645834684372,-7.796602249145508,-0.7469171400324234,-0.9990568066055289,-0.42144190883263927,-0.5008959670007846
0.09381364285945892,-0.027500709518790245,-7.79884147644043,-0.7469171400324234,-0.9990568066055289,-0.42144190883263927,-0.5008959670007846
0.15404166281223297,-0.07461563497781754,-7.7961835861206055,-0.7469171400324234,-0.9990568066055289,-0.42144190883263927,-0.5008959670007846
0.21460998058319092,-0.07146327942609787,-7.79725456237793,-0.7469171400324234,-0.9990568066055289,-0.42144190883263927,-0.5008959670007846
0.1959679126739502,-0.06662795692682266,-7.797006130218506,-0.7469171400324234,-0.9990568066055289,-0.42144190883263927,-0.5008959670007846
0.14054827392101288,-0.05375243350863457,-7.798486232757568,-0.7469171400324234,-0.9990568066055289,-0.42144190883263927,-0.5008959670007846
0.11853258311748505,-0.0395742766559124,-7.799445152282715,-0.7469171400324234,-0.9990568066055289,-0.42144190883263927,-0.5008959670007846
0.1454245150089264,-0.06066764146089554,-7.797450065612793,-0.7469171400324234,-0.9990568066055289,-0.42144190883263927,-0.5008959670007846
0.18427608907222748,-0.05881073698401451,-7.797891139984131,-0.7469171400324234,-0.9990568066055289,-0.42144190883263927,-0.5008959670007846
0.17647747695446014,-0.0632258877158165,-7.798252582550049,-0.7469171400324234,-0.9990568066055289,-0.42144190883263927,-0.5008959670007846
0.15226028859615326,-0.055077094584703445,-7.7978835105896,-0.7469171400324234,-0.9990568066055289,-0.42144190883263927,-0.5008959670007846
0.1450820416212082,-0.041766420006752014,-7.798293590545654,-0.7469171400324234,-0.9990568066055289,-0.42144190883263927,-0.5008959670007846
0.1482304185628891,-0.06621985882520676,-7.79729700088501,-0.7469171400324234,-0.9990568066055289,-0.42144190883263927,-0.5008959670007846
0.16985203325748444,-0.06709156185388565,-7.797184467315674,-0.7539190827871465,-1.0074143304597558,-0.41879122173413613,-0.5020068955064437
0.1689537912607193,-0.06500949710607529,-7.797103404998779,-0.7608754083004572,-1.0157902857361798,-0.4159678398631511,-0.5031077376644434
0.22316700220108032,-0.07063345611095428,-7.794193744659424,-0.7677809750208526,-1.0241848343467828,-0.4127001665843028,-0.5042380956079187
0.8975532054901123,-0.19275090098381042,-7.787113189697266,-0.7745814833383903,-1.0326070931872686,-0.4033608315202095,-0.5064329652503751
1.899183988571167,-0.612657904624939,-7.7948784828186035,-0.7811099460030284,-1.0411035737751644,-0.3800546882363655,-0.5131447052971146
2.9182846546173096,-0.46758490800857544,-7.920806407928467,-0.7871096443734131,-1.0497310023921047,-0.33990911620979486,-0.5221467287357273
1.5358613729476929,0.43290725350379944,-8.041525840759277,-0.7924654806138843,-1.0584358560414853,-0.3027912326467532,-0.5224357091899338
0.7603970170021057,-0.1020779088139534,-8.040414810180664,-0.7973525387698059,-1.0671201436012696,-0.2836557460638382,-0.519678797984185
1.623216986656189,-0.5846344232559204,-8.049726486206055,-0.8019146057872826,-1.0758291452573998,-0.2637922960333524,-0.5254014007514339
1.3742649555206299,-0.1565495878458023,-8.182999610900879,-0.8061029855862983,-1.0846373063818058,-0.23881327984854558,-0.5315779341772816
1.3585532903671265,-0.3041786253452301,-8.257858276367188,-0.8061029855862983,-1.0846373063818058,-0.23881327984854558,-0.5315779341772816
0.551142156124115,0,-8.260210990905762,-0.8099505891777677,-1.0935180621337428,-0.22289915112778524,-0.5341127560551585
0,0.24507664144039154,-8.311042785644531,-0.8136273012690556,-1.1024029221901177,-0.21830629982675095,-0.532070450709822
-1.862599492073059,-0.9195280075073242,-8.392873764038086,-0.8173950867864509,-1.1113175999357028,-0.2338279622606931,-0.5376908787603797
0.3201654851436615,0.6121452450752258,-8.424522399902344,-0.8213993329634992,-1.120300460606878,-0.24668157898510476,-0.5402524017806472
1.6403177976608276,0,-8.449185371398926,-0.825374547940834,-1.1292621572167587,-0.23034421829506735,-0.5351511914050203
1.9281716346740723,-1.4309475421905518,-8.58376693725586,-0.8289658064796174,-1.1382807150972722,-0.20060680635894318,-0.5470757542566083
1.3577913045883179,0.3494986891746521,-8.517959594726562,-0.8320810613814843,-1.1474737449496752,-0.17322378186508994,-0.5560878280317407
1.365864872932434,0.23886533081531525,-8.430960655212402,-0.8347789816224636,-1.1567010168043717,-0.150526647052417,-0.5511847945318243
-0.5503722429275513,-0.14935822784900665,-8.346111297607422,-0.837231127640698,-1.1658812142755295,-0.14373087513570965,-0.5504389020071051
1.9141247272491455,0.26774582266807556,-8.37513256072998,-0.8395319371926597,-1.1750469746148966,-0.13236627109969637,-0.5494523387169462
0.6964187622070312,-0.6498488187789917,-8.383393287658691,-0.8415567539686647,-1.184231048523798,-0.1106117420208949,-0.5526365303512039
1.3529630899429321,0.23342427611351013,-8.305307388305664,-0.8415567539686647,-1.184231048523798,-0.1106117420208949,-0.5526365303512039
1.0231471061706543,0.5124315023422241,-8.310524940490723,-0.8432352753498384,-1.193389861822814,-0.09081082371994834,-0.5464210655307394
-1.459216594696045,-1.5346335172653198,-8.496464729309082,-0.844779071681874,-1.202567865832696,-0.09444473612432659,-0.5549394156550985
-0.44306111335754395,1.222860336303711,-8.7144775390625,-0.8464852532358943,-1.2118385070089588,-0.1102970503581065,-0.5575375254964453
-1.6369237899780273,-0.6639955043792725,-8.80423641204834,-0.8484679808045944,-1.2210919890427936,-0.12763025788590293,-0.5528803185637416
0,0.23412802815437317,-8.867711067199707,-0.8507088270325524,-1.230336512926927,-0.14127128946905315,-0.5564625475322825
0.841861367225647,-0.394622802734375,-8.949079513549805,-0.853004885928757,-1.2396220341895887,-0.1342557780755061,-0.5578000039871158
2.230118751525879,-0.6934093832969666,-9.16030502319336,-0.8550291502773244,-1.248994258713404,-0.10865594375257671,-0.5668669388707104
1.389625072479248,-0.7361680269241333,-9.29771614074707,-0.8565887115743115,-1.2585413172369588,-0.07849141188586732,-0.5787800839558862
0.9921164512634277,0.6303613781929016,-9.281977653503418,-0.8577315030554827,-1.2681949996534967,-0.05864356585467836,-0.5796618060286465
1.2360312938690186,0.50798100233078,-9.179166793823242,-0.8585541633374265,-1.2777769781997712,-0.04007566797857464,-0.5701756195242824
0.153359055519104,0.19361717998981476,-9.092695236206055,-0.8591256056961397,-1.287231183095848,-0.028497415067006954,-0.5643289680049441
0.16211289167404175,-1.0300495624542236,-9.174107551574707,-0.8591256056961397,-1.287231183095848,-0.028497415067006954,-0.5643289680049441
0,0.5029184222221375,-9.270471572875977,-0.8595893047742236,-1.2966732722251133,-0.027146474303056604,-0.5687217275068782
0.17992213368415833,-0.2068662792444229,-9.364883422851562,-0.8600292514199909,-1.3061314085069655,-0.02564712318902195,-0.5662546263153972
-0.46033063530921936,0.5460488796234131,-9.426243782043457,-0.8604761762857541,-1.3155454312649737,-0.027983860702564128,-0.5634281046455724
0.21207252144813538,-0.9867835640907288,-9.4657621383667,-0.8609598141109261,-1.3249665062510434,-0.03005267831807316,-0.5671008936828
0.5880851745605469,-0.47953128814697266,-9.530250549316406,-0.8614051255762267,-1.3345200152327177,-0.02338469751800081,-0.5793201841181143
1.2522510290145874,0.12904393672943115,-9.607986450195312,-0.8616670694096118,-1.3441996910340903,-0.008048562488208023,-0.5822409120465938
1.253110647201538,-1.2686296701431274,-9.61438274383545,-0.8616272286680113,-1.3539828441330206,0.01282945148025969,-0.5917374598250412
0.07361062616109848,1.805025577545166,-9.553831100463867,-0.8613212710549124,-1.3638078854143127,0.023885462091614997,-0.5872674939300242
0.23972256481647491,-0.1909218579530716,-9.46333122253418,-0.8609014207706787,-1.3734835864437305,0.02649657201642811,-0.5738166296000901
0.07564689218997955,-0.36820992827415466,-9.377419471740723,-0.8604379105803349,-1.383086025533331,0.02912465082481523,-0.5784760611519836
0.32411596179008484,0.26666727662086487,-9.349321365356445,-0.8599247384239505,-1.392734344792229,0.03245600794131576,-0.579322249915761
0.678999662399292,-0.5416820049285889,-9.369251251220703,-0.8599247384239505,-1.392734344792229,0.03245600794131576,-0.579322249915761
-0.46683087944984436,-0.3854178190231323,-9.371485710144043,-0.8593690710150015,-1.402454097556377,0.03422408113256116,-0.5870480817820253
-0.24864952266216278,-0.08797550946474075,-9.41268253326416,-0.8588483558018277,-1.4122711067894447,0.028261744448294435,-0.5909930261860908
-1.5378546714782715,0.6444545984268188,-9.642541885375977,-0.8585013895189493,-1.422082346178035,0.013374209497124149,-0.5863557004447402
-0.9149833917617798,-0.24125108122825623,-9.695943832397461,-0.8584488220039445,-1.4318269409411974,-0.007066107696542943,-0.5829956711347521
0.6684321165084839,-0.3849412500858307,-9.744436264038086,-0.8585837120818905,-1.4415870210386734,-0.009120701656987076,-0.5882139405623695
0,-0.6104359030723572,-9.830345153808594,-0.8586893048791939,-1.4514597101281266,-0.0035504340194163772,-0.5965087501720211
2.8625991344451904,0.06456481665372849,-9.832332611083984,-0.8585496871729589,-1.4614394303453282,0.020304558767626876,-0.6010576758921763
0.608158528804779,0.24572277069091797,-9.761988639831543,-0.8579702530224395,-1.4714355105277432,0.04922753929470995,-0.5984719459976375
-0.5135354995727539,0.17286184430122375,-9.617426872253418,-0.8571432229904976,-1.4813809745849962,0.05001606453831016,-0.594983740872703
0.5160125494003296,-0.29964861273765564,-9.595252990722656,-0.85630944989751,-1.4913061749029048,0.05003670662020662,-0.5960402972763399
0.42392483353614807,0.14421142637729645,-9.556124687194824,-0.8554102313578027,-1.5012509741065634,0.05786951814467727,-0.5973356071626762
0.30282291769981384,-0.4628279507160187,-9.661507606506348,-0.8554102313578027,-1.5012509741065634,0.05786951814467727,-0.5973356071626762
0.1127990111708641,-0.09734661877155304,-9.856558799743652,-0.8544168767547754,-1.5112454685710446,0.06133303421859959,-0.6020037285750727
-0.8865723609924316,-0.13694705069065094,-9.991421699523926,-0.853448393778203,-1.5212951344410084,0.05488492297008653,-0.603956175820591
-0.8559089303016663,-0.12348038703203201,-10.095466613769531,-0.8526546507072637,-1.5313791559434156,0.040364245542635714,-0.60612640446828
-0.12993307411670685,0.35678720474243164,-10.165946006774902,-0.8520503745318598,-1.5414650608222125,0.03214889550581594,-0.60418218098736
0,0.3252065181732178,-10.066744804382324,-0.8515235827369099,-1.551487403163466,0.03106611988817672,-0.5984988999630629
0.8504384160041809,-0.9232472777366638,-9.93915843963623,-0.8509467558487733,-1.56150391543782,0.03815310668821156,-0.603482572959425
1.2243400812149048,0.31622254848480225,-9.897656440734863,-0.8501667888972185,-1.571604112815564,0.05544292749837061,-0.6085411123698572
0.9318286180496216,0.9843143820762634,-9.900354385375977,-0.8490930061681301,-1.5816561496237727,0.07341099999224167,-0.5977033046151816
-0.3517744839191437,-0.6008440256118774,-9.922428131103516,-0.8478292079645003,-1.5915912414814934,0.07824478444332898,-0.5945077183113118
0.5487058162689209,-0.7982790470123291,-10.05677604675293,-0.8465114524368095,-1.6015968647778365,0.07988587887957713,-0.6061670772498469
0.16850104928016663,0.4153941571712494,-10.115057945251465,-0.8465114524368095,-1.6015968647778365,0.07988587887957713,-0.6061670772498469
0.25746259093284607,-0.4118330180644989,-10.11691665649414,-0.8451504403138017,-1.6116994020973403,0.08343557588135224,-0.606137401090624
-0.4104068875312805,0.3552917540073395,-10.103080749511719,-0.843770468514154,-1.621805618592188,0.08216104007636528,-0.6066085782911003
-1.1463041305541992,-1.0819854736328125,-10.190701484680176,-0.8425092227780261,-1.6319662264053472,0.06918844825898628,-0.6126643592879792
-1.4512253999710083,0.7493643164634705,-10.312287330627441,-0.841536465968885,-1.6422003977516169,0.04754236883794288,-0.6154362022643904
0,0.172769233584404,-10.348372459411621,-0.8408448726965839,-1.65239363073727,0.035448823838184484,-0.6077517560139915
1.2451030015945435,-0.5467094779014587,-10.409433364868164,-0.8401675934797257,-1.6625487947433586,0.045824682184805676,-0.6108679247166335
1.0044732093811035,0.7294936776161194,-10.425874710083008,-0.839247628206439,-1.6727172334747666,0.06457115060960274,-0.6093447230523447
0.8841944932937622,0.20936603844165802,-10.290446281433105,-0.8380402848835932,-1.6828077802675794,0.08031004813189328,-0.6015208920851965
-0.3140406906604767,-0.7818947434425354,-10.210741996765137,-0.8366621900673232,-1.6928728874068466,0.08506132982050399,-0.6062919646268705
0.4112139642238617,-0.514644980430603,-10.29213809967041,-0.8352377530929841,-1.7030677909647856,0.08587110710019887,-0.6170964623258134
-0.3331773579120636,0.07842228561639786,-10.423487663269043,-0.8352377530929841,-1.7030677909647856,0.08587110710019887,-0.6170964623258134
0.11586309969425201,-0.768204391002655,-10.591628074645996,-0.8338216592425792,-1.7134006335386454,0.08406015494838377,-0.6228446465373655
0,0.30475011467933655,-10.705610275268555,-0.8324126106115163,-1.723813561972346,0.08502568077916921,-0.6267067655067264
-0.24302683770656586,0.42756062746047974,-10.70223617553711,-0.8310123927955931,-1.734207819818143,0.0830004571316145,-0.6206041759888946
-0.9902002811431885,-0.7940710186958313,-10.721488952636719,-0.8297146926155419,-1.7445766748617937,0.07272356447453321,-0.6236584292491892
-0.5458369851112366,0.22117120027542114,-10.799148559570312,-0.828609302462234,-1.7550107667255594,0.059923253922413,-0.6284325944026926
1.0774856805801392,-0.4183511435985565,-10.82520580291748,-0.8275736615152306,-1.7654983363505574,0.06435365971798719,-0.6300757605970521
1.4668874740600586,0.7304190397262573,-10.82321834564209,-0.8263244079397475,-1.7759779276454994,0.08555676933998885,-0.6274751947959879
0.9694640636444092,-0.8355672359466553,-10.710440635681152,-0.8247292707050737,-1.7864431495168367,0.10585969882085941,-0.6283514297644912
-0.09576926380395889,0.35075482726097107,-10.57649040222168,-0.8229042691414038,-1.7969493408746258,0.11314048881952983,-0.6323915331702052
-0.07004640251398087,-0.34099850058555603,-10.69696044921875,-0.8210301093045727,-1.80748852223811,0.11175869160021366,-0.6323102304479101
0.8597579002380371,-0.08970993757247925,-10.96648120880127,-0.8210301093045727,-1.80748852223811,0.11175869160021366,-0.6323102304479101
-0.19571444392204285,0.09643076360225677,-11.077441215515137,-0.8210301093045727,-1.80748852223811,0.11175869160021366,-0.6323102304479101
0.11250485479831696,0.6684220433235168,-11.026073455810547,-0.8210301093045727,-1.80748852223811,0.11175869160021366,-0.6323102304479101
-2.6069092750549316,0.08927146345376968,-10.831432342529297,-0.8210301093045727,-1.80748852223811,0.11175869160021366,-0.6323102304479101
-1.5944880247116089,0.13627532124519348,-10.574461936950684,-0.8210301093045727,-1.80748852223811,0.11175869160021366,-0.6323102304479101
-2.5446536540985107,-0.627065122127533,-10.166109085083008,-0.8210301093045727,-1.80748852223811,0.11175869160021366,-0.6323102304479101
0.2099311649799347,1.7978341579437256,-9.52061939239502,-0.8210301093045727,-1.80748852223811,0.11175869160021366,-0.6323102304479101
-0.6506431698799133,0.5936492681503296,-8.646071434020996,-0.8210301093045727,-1.80748852223811,0.11175869160021366,-0.6323102304479101
-0.7009762525558472,0.4387712776660919,-7.600247859954834,-0.8210301093045727,-1.80748852223811,0.11175869160021366,-0.6323102304479101
-1.451630711555481,0.468049556016922,-6.442739963531494,-0.8210301093045727,-1.80748852223811,0.11175869160021366,-0.6323102304479101
-0.7419143319129944,0.3816002309322357,-5.228599548339844,-0.8210301093045727,-1.80748852223811,0.11175869160021366,-0.6323102304479101
-1.6200127601623535,-0.036015234887599945,-4.088504791259766,-0.8210301093045727,-1.80748852223811,0.11175869160021366,-0.6323102304479101
0.03767002001404762,0.49364423751831055,-2.8070473670959473,-0.8210301093045727,-1.80748852223811,0.11175869160021366,-0.6323102304479101
-0.8104740977287292,-0.1068207249045372,-1.5680137872695923,-0.8210301093045727,-1.80748852223811,0.11175869160021366,-0.6323102304479101
-0.272086501121521,0.19867150485515594,-0.3305124044418335,-0.8210301093045727,-1.80748852223811,0.11175869160021366,-0.6323102304479101
-0.200762078166008,0.04184630513191223,0.8974388241767883,-0.8210301093045727,-1.80748852223811,0.11175869160021366,-0.6323102304479101
-0.8332541584968567,0.5284962058067322,2.0155959129333496,-0.8210301093045727,-1.80748852223811,0.11175869160021366,-0.6323102304479101
-0.6245221495628357,0.4330756366252899,3.0853159427642822,-0.8210301093045727,-1.80748852223811,0.11175869160021366,-0.6323102304479101
-0.21416376531124115,0.5739827752113342,4.242167949676514,-0.8210301093045727,-1.80748852223811,0.11175869160021366,-0.6323102304479101
-0.48703914880752563,0.836634635925293,5.4514994621276855,-0.8210301093045727,-1.80748852223811,0.11175869160021366,-0.6323102304479101
-0.6587672829627991,0.4800706207752228,6.655704498291016,-0.8210301093045727,-1.80748852223811,0.11175869160021366,-0.6323102304479101
-1.307210087776184,0.11319862306118011,7.866788387298584,-0.8210301093045727,-1.80748852223811,0.11175869160021366,-0.6323102304479101
0.7425581812858582,0.4209109842777252,9.186427116394043,-0.8210301093045727,-1.80748852223811,0.11175869160021366,-0.6323102304479101
-0.5651425123214722,-0.17225904762744904,10.558279037475586,-0.8210301093045727,-1.80748852223811,0.11175869160021366,-0.6323102304479101
0.16247233748435974,0.4744289815425873,11.858641624450684,-0.8210301093045727,-1.80748852223811,0.11175869160021366,-0.6323102304479101
-0.32151851058006287,-0.39349785447120667,13.152145385742188,-0.8210301093045727,-1.80748852223811,0.11175869160021366,-0.6323102304479101
0.08009236305952072,1.0693392753601074,14.602155685424805,-0.8210301093045727,-1.80748852223811,0.11175869160021366,-0.6323102304479101
-0.4986962378025055,0.07955842465162277,16.193279266357422,-0.8210301093045727,-1.80748852223811,0.11175869160021366,-0.6323102304479101
-1.0025696754455566,-0.687846839427948,17.822179794311523,-0.8210301093045727,-1.80748852223811,0.11175869160021366,-0.6323102304479101
-0.8926679491996765,0.49552246928215027,19.463729858398438,-0.8210301093045727,-1.80748852223811,0.11175869160021366,-0.6323102304479101
-0.2190738469362259,0.6107667684555054,21.24468421936035,-0.8210301093045727,-1.80748852223811,0.11175869160021366,-0.6323102304479101
-0.6781641244888306,0.12316170334815979,23.123741149902344,-0.8210301093045727,-1.80748852223811,0.11175869160021366,-0.6323102304479101
-0.9017659425735474,-1.2795767784118652,24.982267379760742,-0.8210301093045727,-1.80748852223811,0.11175869160021366,-0.6323102304479101
-0.2528511583805084,-0.13395489752292633,26.847314834594727,-0.8210301093045727,-1.80748852223811,0.11175869160021366,-0.6323102304479101
-0.14674846827983856,0.15883904695510864,28.743560791015625,-0.8210301093045727,-1.80748852223811,0.11175869160021366,-0.6323102304479101
0.07304486632347107,0.006478774361312389,30.72661018371582,-0.8210301093045727,-1.80748852223811,0.11175869160021366,-0.6323102304479101
-0.915372371673584,-0.5472463965415955,32.678627014160156,-0.8210301093045727,-1.80748852223811,0.11175869160021366,-0.6323102304479101
0.7678954005241394,-0.6476514935493469,34.528167724609375,-0.8210301093045727,-1.80748852223811,0.11175869160021366,-0.6323102304479101
-0.45684176683425903,-0.24399107694625854,36.396202087402344,-0.8210301093045727,-1.80748852223811,0.11175869160021366,-0.6323102304479101
0.18029232323169708,1.2834208011627197,38.2932014465332,-0.8210301093045727,-1.80748852223811,0.11175869160021366,-0.6323102304479101
0.3028751015663147,-0.9333891868591309,40.13613510131836,-0.8210301093045727,-1.80748852223811,0.11175869160021366,-0.6323102304479101
-0.5633676052093506,0.45587533712387085,42.08047103881836,-0.8210301093045727,-1.80748852223811,0.11175869160021366,-0.6323102304479101
-0.365987628698349,-0.3601192533969879,44.06721878051758,-0.8210301093045727,-1.80748852223811,0.11175869160021366,-0.6323102304479101
0.2937265932559967,0.4396076500415802,46.07193374633789,-0.8210301093045727,-1.80748852223811,0.11175869160021366,-0.6323102304479101
-0.06670786440372467,-1.1518467664718628,48.16904067993164,-0.8210301093045727,-1.80748852223811,0.11175869160021366,-0.6323102304479101
0.13923156261444092,0.14246763288974762,50.350589752197266,-0.8210301093045727,-1.80748852223811,0.11175869160021366,-0.6323102304479101
-0.40125516057014465,1.2956652641296387,52.5156135559082,-0.8210301093045727,-1.80748852223811,0.11175869160021366,-0.6323102304479101
-0.06567105650901794,-0.17275601625442505,54.74931335449219,-0.8210301093045727,-1.80748852223811,0.11175869160021366,-0.6323102304479101
-0.21576842665672302,-0.5484700798988342,57.01599884033203,-0.8210301093045727,-1.80748852223811,0.11175869160021366,-0.6323102304479101
0.43103334307670593,0.030782494693994522,59.22761154174805,-0.8210301093045727,-1.80748852223811,0.11175869160021366,-0.6323102304479101
-0.09958049654960632,0.013963809236884117,61.47972106933594,-0.8210301093045727,-1.80748852223811,0.11175869160021366,-0.6323102304479101
0.9469715356826782,-1.7083739042282104,63.728187561035156,-0.8210301093045727,-1.80748852223811,0.11175869160021366,-0.6323102304479101
-0.16189223527908325,0.6873592138290405,65.86070251464844,-0.8210301093045727,-1.80748852223811,0.11175869160021366,-0.6323102304479101
1.3551782369613647,-0.9590880870819092,67.8397445678711,-0.8210301093045727,-1.80748852223811,0.11175869160021366,-0.6323102304479101
1.019590139389038,-2.441602945327759,69.81031036376953,-0.8210301093045727,-1.80748852223811,0.11175869160021366,-0.6323102304479101
-0.6298990845680237,2.7389748096466064,71.48169708251953,-0.8210301093045727,-1.80748852223811,0.11175869160021366,-0.6323102304479101
0.11649754643440247,-0.905157208442688,73.30238342285156,-0.8210301093045727,-1.80748852223811,0.11175869160021366,-0.6323102304479101
0.6612693071365356,1.0595167875289917,75.15754699707031,-0.8210301093045727,-1.80748852223811,0.11175869160021366,-0.6323102304479101
-0.8781309127807617,-1.0620379447937012,76.86532592773438,-0.8210301093045727,-1.80748852223811,0.11175869160021366,-0.6323102304479101
0.1382245123386383,0.3801274299621582,78.12369537353516,-0.8210301093045727,-1.80748852223811,0.11175869160021366,-0.6323102304479101
1.233522891998291,-0.9215602278709412,79.04940032958984,-0.8210301093045727,-1.80748852223811,0.11175869160021366,-0.6323102304479101
1.6522637605667114,0.013267474249005318,79.76293182373047,-0.8210301093045727,-1.80748852223811,0.11175869160021366,-0.6323102304479101
1.0468552112579346,-0.7996156811714172,80.06731414794922,-0.8210301093045727,-1.80748852223811,0.11175869160021366,-0.6323102304479101
0.9280226230621338,-0.3868991732597351,80.01712036132812,-0.8210301093045727,-1.80748852223811,0.11175869160021366,-0.6323102304479101
0.020707057788968086,0.27235499024391174,79.93302154541016,-0.8210301093045727,-1.80748852223811,0.11175869160021366,-0.6323102304479101
-0.19631130993366241,0.08806461840867996,79.94203186035156,-0.8210301093045727,-1.80748852223811,0.11175869160021366,-0.6323102304479101
0.31218016147613525,0.3168896436691284,79.93546295166016,-0.8210301093045727,-1.80748852223811,0.11175869160021366,-0.6323102304479101
0.1002008318901062,0.1648774892091751,79.93245697021484,-0.8210301093045727,-1.80748852223811,0.11175869160021366,-0.6323102304479101
0.15569119155406952,0.016586951911449432,79.9360580444336,-0.8210301093045727,-1.80748852223811,0.11175869160021366,-0.6323102304479101
0.08389037847518921,-0.01705167442560196,79.9272689819336,-0.8210301093045727,-1.80748852223811,0.11175869160021366,-0.6323102304479101
0.18296761810779572,0.1181231439113617,79.93257141113281,-0.8210301093045727,-1.80748852223811,0.11175869160021366,-0.6323102304479101
0.07898736745119095,0.1692429780960083,79.92911529541016,-0.8210301093045727,-1.80748852223811,0.11175869160021366,-0.6323102304479101
0.1794407069683075,0.067512147128582,79.93121337890625,-0.8210301093045727,-1.80748852223811,0.11175869160021366,-0.6323102304479101
0.08337186276912689,0.028126565739512444,79.9306411743164,-0.8210301093045727,-1.80748852223811,0.11175869160021366,-0.6323102304479101
0.13999150693416595,0.060036685317754745,79.93031311035156,-0.8210301093045727,-1.80748852223811,0.11175869160021366,-0.6323102304479101
0.12518858909606934,0.1404387205839157,79.92989349365234,-0.8210301093045727,-1.80748852223811,0.11175869160021366,-0.6323102304479101
0.127043679356575,0.0913289487361908,79.92920684814453,-0.8210301093045727,-1.80748852223811,0.11175869160021366,-0.6323102304479101
0.11504136770963669,0.05347764864563942,79.92810821533203,-0.8210301093045727,-1.80748852223811,0.11175869160021366,-0.6323102304479101
0.13029034435749054,0.08869879692792892,79.9270248413086,-0.8210301093045727,-1.80748852223811,0.11175869160021366,-0.6323102304479101
0.1340050995349884,0.11414506286382675,79.9275894165039,-0.8210301093045727,-1.80748852223811,0.11175869160021366,-0.6323102304479101
0.12858213484287262,0.08546406775712967,79.92687225341797,-0.8210301093045727,-1.80748852223811,0.11175869160021366,-0.6323102304479101
0.11961274594068527,0.06878996640443802,79.92574310302734,-0.8210301093045727,-1.80748852223811,0.11175869160021366,-0.6323102304479101
0.10637053102254868,0.06321629136800766,79.9255142211914,-0.8210301093045727,-1.80748852223811,0.11175869160021366,-0.6323102304479101
0.12526042759418488,0.09477494657039642,79.92496490478516,-0.8210301093045727,-1.80748852223811,0.11175869160021366,-0.6323102304479101
0.11829926073551178,0.08866626024246216,79.92557525634766,-0.8210301093045727,-1.80748852223811,0.11175869160021366,-0.6323102304479101
0.12238901853561401,0.06893843412399292,79.9251480102539,-0.8191507499807308,-1.8180160813084665,0.11376442726080638,-0.6309968579948564
0.12776298820972443,0.0805860310792923,79.92484283447266,-0.8172373045259156,-1.8285223119649638,0.11584902731701753,-0.629750820784829
0.12461987137794495,0.12941598892211914,79.9242935180664,-0.8152889608164939,-1.8390035755044332,0.11795221781358144,-0.6280008039514839
0.2522469758987427,0.46500882506370544,79.91084289550781,-0.8132969192107623,-1.8494289760693199,0.1210927748742205,-0.6230472638349354
1.0433050394058228,1.661129117012024,79.83796691894531,-0.8111887374062402,-1.8596654486650357,0.13188904166842522,-0.605329447650971
-0.05711759626865387,2.2600128650665283,79.67510986328125,-0.8089221014726597,-1.8694819712660187,0.14010727036123496,-0.5726532644669831
-0.1030346229672432,2.42458438873291,79.70016479492188,-0.8065981019818639,-1.8787008730867323,0.13877266853426914,-0.5336149540186544
-0.2599567174911499,1.3736622333526611,79.77830505371094,-0.8043104319049357,-1.8873306885271761,0.13574774069711587,-0.501962898834608
1.2579435110092163,1.349005937576294,79.8003158569336,-0.801978664921545,-1.8955076626625496,0.14406429730976641,-0.47927399741020005
0,0.9117744565010071,79.78052520751953,-0.7994902361114511,-1.9033385639809086,0.15454715990150988,-0.46043416079288924
0.501506507396698,1.191168189048767,79.70368957519531,-0.7968796232723011,-1.9108664289770714,0.15872638079648238,-0.44290963874664113
0.7505174279212952,1.3113502264022827,79.66822052001953,-0.7968796232723011,-1.9108664289770714,0.15872638079648238,-0.44290963874664113
-0.744881808757782,0.4132920205593109,79.70945739746094,-0.7942337922299179,-1.9181284894668098,0.15877334428951165,-0.42853762002196116
0.0682489201426506,0.36937636137008667,79.74189758300781,-0.7916345582201354,-1.9252164311628752,0.15313473688438556,-0.42201538350588286
0.4739097058773041,0.820884644985199,79.74168395996094,-0.789044662700811,-1.932167363873643,0.15765272543455186,-0.4120965417862555
0.20892933011054993,0.5678687691688538,79.6267318725586,-0.7863696978994026,-1.9389391983607642,0.16334305073445066,-0.40052359666830506
1.109332799911499,0.4259098470211029,79.56377410888672,-0.7835557677392435,-1.9455455792346672,0.1743285684846344,-0.3922421082000554
-0.3985278606414795,1.4937940835952759,79.516357421875,-0.780600930143717,-1.9519496349317087,0.18025194297855124,-0.3762445754449189
0,0.9554314017295837,79.41432189941406,-0.7776244066399524,-1.958050292752643,0.17693087747320557,-0.3558343630672117
0.7516882419586182,0.08252515643835068,79.34591674804688,-0.7746233581097074,-1.9639087851538906,0.18319494615619406,-0.34718472508247894
0.23587439954280853,-0.05190907046198845,79.30191802978516,-0.771501528268111,-1.9696930711215168,0.19142463483537261,-0.3469295910326759
-0.14584164321422577,2.0879452228546143,79.25782012939453,-0.7683048654127764,-1.9753338395725897,0.19217490780477747,-0.32996262309607066
0.9962020516395569,-0.21179969608783722,79.29850769042969,-0.7650428974765562,-1.9807029287403877,0.19926124454165522,-0.31432807703968085
-0.05543764680624008,0.6668981909751892,79.34070587158203,-0.7616565458727486,-1.9859101259622374,0.2071009479152662,-0.3105355895822863
-0.17345596849918365,1.387046217918396,79.31278228759766,-0.7582207587974459,-1.9909430840935467,0.20519350112105433,-0.29341938617483976
1.0033186674118042,0.3617602586746216,79.1274185180664,-0.7547432377580038,-1.9957119623022528,0.21210902361199283,-0.27884599886989797
0.41834378242492676,0.18558241426944733,79.02278137207031,-0.7511093608054541,-2.000321385708908,0.2239562106939656,-0.2742848099286974
-0.2980729937553406,1.0981642007827759,79.04181671142578,-0.7511093608054541,-2.000321385708908,0.2239562106939656,-0.2742848099286974
-0.20113149285316467,0,79.00009155273438,-0.7474114242721247,-2.0048165378048872,0.2197961733055614,-0.26513344158884095
0.6666716933250427,0.35058972239494324,78.99967956542969,-0.7437158255364437,-2.009211081989535,0.22367567497616037,-0.26221186056888307
-0.5391772389411926,-0.05197468400001526,79.0077896118164,-0.7399790438386199,-2.013560542510239,0.22473812876269245,-0.259723401915592
0.7686021327972412,-0.6238769292831421,78.97016143798828,-0.7362174760749461,-2.0179362000153103,0.2266500028781595,-0.26535549869295166
0,0.4910922050476074,78.8388671875,-0.7323866008788659,-2.022368012821598,0.23305502065146985,-0.26646203806158114
0.25316542387008667,1.0293387174606323,78.71505737304688,-0.7284847696024616,-2.0267034613085615,0.23516473251705391,-0.25379178037401245
-0.4458223879337311,1.0223002433776855,78.59711456298828,-0.7245787363496817,-2.030790849386959,0.23355925781652354,-0.23669478903369315
-0.7284184694290161,1.3355200290679932,78.41799926757812,-0.7207676265567232,-2.034572025018601,0.22377391733850063,-0.2170462867633125
1.769716501235962,-0.6038752198219299,78.42915344238281,-0.7169657489044283,-2.038138654464014,0.23245140093689184,-0.21094924668626197
0.492403507232666,-0.27317577600479126,78.6124038696289,-0.7129344672215587,-2.041715381561273,0.25130240100746376,-0.21825800498481798
0.08433036506175995,0.5795111060142517,78.74951934814453,-0.7087060429080806,-2.0453317416908807,0.2561085166099173,-0.2157052105680725
-0.410177081823349,0.1267031580209732,78.69087219238281,-0.7044601958754682,-2.0488777858764573,0.2533931273035707,-0.20982009170111227
-0.15105970203876495,-0.4428115785121918,78.65055084228516,-0.7002759518637324,-2.0523967393784543,0.24871615410471978,-0.2124543285385391
0.06781347095966339,0.7151837944984436,78.6325912475586,-0.696136463616923,-2.0559187301168755,0.24802243551239395,-0.210184560071987
-0.3272177577018738,0.5534392595291138,78.59796905517578,-0.6920207705449625,-2.0593337072948787,0.2458607331228755,-0.199612701288424
0.1710083782672882,0.27870485186576843,78.53018951416016,-0.6879339395331531,-2.062602797864172,0.24455898829425396,-0.1926781670268
0.5215337872505188,0.6096563339233398,78.48014831542969,-0.6838098631889767,-2.065752408898939,0.25033017300690236,-0.18527515714522408
0.8068354725837708,0.1526983231306076,78.45515441894531,-0.6795454457735954,-2.068787386889064,0.2613999168388548,-0.17892220166977452
1.0531328916549683,0.1130235344171524,78.40672302246094,-0.6750596160232091,-2.071750970676786,0.2768996532075109,-0.1767078528568765
0.011231592856347561,0.41929125785827637,78.42234802246094,-0.6750596160232091,-2.071750970676786,0.2768996532075109,-0.1767078528568765
-0.3187877833843231,0.7045208811759949,78.25508117675781,-0.6704659798718705,-2.0746180590480785,0.27433668495311114,-0.16734275169825757
-0.09101088345050812,-0.6357290148735046,78.0064697265625,-0.6659221600300711,-2.0774023276967784,0.2709216960628209,-0.16676948614573683
1.1927410364151,-0.26101353764533997,77.82623291015625,-0.6613302893906238,-2.08024409292091,0.2801027806708592,-0.17424234075006054
-1.017594337463379,-0.8828995227813721,77.74540710449219,-0.6566497467475712,-2.083227570340385,0.28156233649545687,-0.18377494958694982
0.4006233513355255,0,77.7455825805664,-0.6519998863466835,-2.086351798633694,0.2764209116110581,-0.1911324456101279
0.2790576219558716,0.8071897625923157,77.75782775878906,-0.6473456710855762,-2.089481284549238,0.2820849197218197,-0.18440586425519195
-0.23793962597846985,0.70635986328125,77.76628112792969,-0.6426414003404919,-2.09244960800725,0.2824275696882981,-0.17179295070624556
0.5265938639640808,0.559914231300354,77.68456268310547,-0.6379142287458268,-2.095224888151342,0.2848330216715115,-0.16124066658473218
0.4042988717556,-0.37695664167404175,77.66751098632812,-0.6331023663890989,-2.097899527206252,0.29259046113584214,-0.1597160200045129
-0.4326916038990021,0.3608296513557434,77.66693878173828,-0.6282278304210115,-2.100562580802877,0.2923538550346471,-0.15985041159049873
0.500932514667511,-0.11532016843557358,77.70297241210938,-0.6233505272182973,-2.103209705059738,0.29292252929105134,-0.15780449923283066
0.19950182735919952,0.440184086561203,77.67583465576172,-0.6184198437896946,-2.1058172200526375,0.2987594821412739,-0.1550972999151171
-0.32908719778060913,0.1413596272468567,77.56739807128906,-0.6134495180713971,-2.1083617900710974,0.29767960405442884,-0.15025110230004993
0,0.5939818024635315,77.4347915649414,-0.6085110446147803,-2.1108149097323685,0.29493721073959045,-0.14412325705246337
-0.37191280722618103,0.6316744089126587,77.44344329833984,-0.6036212517140668,-2.1131318490018973,0.29183793734603897,-0.13390945529099513
0.1850200891494751,-0.4714968502521515,77.48125457763672,-0.5987702647526103,-2.1153525498151735,0.29028049802873307,-0.13257464230215757
2.049039363861084,-0.13026075065135956,77.49456787109375,-0.5937771134345612,-2.1176039159091613,0.3088976601371544,-0.1375892889763535
-0.6404847502708435,-0.19193245470523834,77.6068344116211,-0.5885310028063315,-2.1199194452535837,0.3206356152504064,-0.14027423235432515
0.06607289612293243,0.4420297145843506,77.61734008789062,-0.583226965597585,-2.1222399812608863,0.3158488497991738,-0.1381900885219992
-1.2484594583511353,-0.2720277011394501,77.49718475341797,-0.583226965597585,-2.1222399812608863,0.3158488497991738,-0.1381900885219992
-0.08839010447263718,0.15042081475257874,77.42686462402344,-0.5780556548761282,-2.1245515943255855,0.3047084367756424,-0.1392034792418898
0.2668866515159607,-0.34179574251174927,77.39287567138672,-0.5729647853363228,-2.126884942238489,0.30619590800100344,-0.14079827030654957
0.14827556908130646,-0.46406593918800354,77.36736297607422,-0.567832689493209,-2.1292875426937163,0.30965559317264735,-0.1475137843207142
0.7454012036323547,-1.6575772762298584,77.22161102294922,-0.5626097020533375,-2.1318934421001323,0.31710289961192784,-0.16519414444919636
0.19610999524593353,-0.33502671122550964,77.03833770751953,-0.5572592710043277,-2.134785053117859,0.3249488262692469,-0.1817991776779911
0,0.06889171153306961,76.99463653564453,-0.5518298384835038,-2.137833521009693,0.32658307622962973,-0.18401696934209474
0.5576431751251221,0.592930018901825,77.07869720458984,-0.5463480619925152,-2.1408545106563364,0.33123010268900577,-0.1785017882551373
-0.2774204909801483,0.19154970347881317,76.9829330444336,-0.5408081003724106,-2.14377506270209,0.3335652917235472,-0.17196445723529866
0.47612443566322327,0.424295037984848,76.71305084228516,-0.5352348799586374,-2.14659836999341,0.3352211579292395,-0.16683241772310148
0.3443309962749481,1.1860307455062866,76.62083435058594,-0.5295908845881544,-2.149267082109386,0.3420582865287243,-0.1534130361940087
-0.6894798278808594,-0.40918514132499695,76.57376861572266,-0.5239138818148705,-2.151770018434551,0.3391820462653417,-0.14693932282583128
0.35779666900634766,-0.8703005909919739,76.56188201904297,-0.5182838812631478,-2.1543078603241703,0.3364180199413874,-0.1576017039284727
0.2811520993709564,-0.2243041694164276,76.51318359375,-0.5126325428218763,-2.1570105696091177,0.3417425930111983,-0.16672341026520937
0.5013061165809631,0.34096574783325195,76.47679901123047,-0.5068824955622486,-2.159781191615037,0.348263078144131,-0.16575123044506918
0.8504620790481567,0.9738742113113403,76.41072082519531,-0.50098423813515,-2.1624524037919586,0.359527813107707,-0.1547942307855309
-0.1324141025543213,0.08086621761322021,76.37981414794922,-0.49494224347387616,-2.1649590617752645,0.36551154624515564,-0.14600472721115956
-0.6071716547012329,0.21523258090019226,76.36421966552734,-0.4889017444918219,-2.167371911478887,0.35934833160135937,-0.1435372372235478
0.5140584111213684,-0.3909512460231781,76.37823486328125,-0.4889017444918219,-2.167371911478887,0.35934833160135937,-0.1435372372235478
0.5217546224594116,0.6329358220100403,76.29668426513672,-0.4889017444918219,-2.167371911478887,0.35934833160135937,-0.1435372372235478
-0.3335493803024292,0.3026892840862274,76.1983413696289,-0.4889017444918219,-2.167371911478887,0.35934833160135937,-0.1435372372235478
-0.9064992666244507,-0.7663372159004211,76.24779510498047,-0.4889017444918219,-2.167371911478887,0.35934833160135937,-0.1435372372235478
-0.2328163981437683,-2.7545948028564453,76.616455078125,-0.4889017444918219,-2.167371911478887,0.35934833160135937,-0.1435372372235478
0.46312302350997925,-2.9738762378692627,77.21029663085938,-0.4889017444918219,-2.167371911478887,0.35934833160135937,-0.1435372372235478
-1.8536757230758667,-0.7418107986450195,77.92180633544922,-0.4889017444918219,-2.167371911478887,0.35934833160135937,-0.1435372372235478
-1.0964986085891724,-1.19281005859375,78.73047637939453,-0.4889017444918219,-2.167371911478887,0.35934833160135937,-0.1435372372235478
0.7145169377326965,-0.8130728602409363,79.79055786132812,-0.4889017444918219,-2.167371911478887,0.35934833160135937,-0.1435372372235478
-0.36047038435935974,-1.2122339010238647,81.05833435058594,-0.4889017444918219,-2.167371911478887,0.35934833160135937,-0.1435372372235478
-0.6407561302185059,-1.1330045461654663,82.45919799804688,-0.4889017444918219,-2.167371911478887,0.35934833160135937,-0.1435372372235478
0.8163070678710938,-2.5372581481933594,83.80844116210938,-0.4889017444918219,-2.167371911478887,0.35934833160135937,-0.1435372372235478
-1.3112672567367554,0.3366864323616028,85.17416381835938,-0.4889017444918219,-2.167371911478887,0.35934833160135937,-0.1435372372235478
0.4759897291660309,-1.4951802492141724,86.46745300292969,-0.4889017444918219,-2.167371911478887,0.35934833160135937,-0.1435372372235478
-1.083317756652832,-0.42405644059181213,87.78243255615234,-0.4889017444918219,-2.167371911478887,0.35934833160135937,-0.1435372372235478
0.3541843295097351,-0.9293811321258545,88.96624755859375,-0.4889017444918219,-2.167371911478887,0.35934833160135937,-0.1435372372235478
-0.09712067246437073,-0.5675176382064819,90.08837127685547,-0.4889017444918219,-2.167371911478887,0.35934833160135937,-0.1435372372235478
-0.9878858923912048,-0.01682024449110031,91.15001678466797,-0.4889017444918219,-2.167371911478887,0.35934833160135937,-0.1435372372235478
-0.17406980693340302,-0.9327913522720337,92.0542984008789,-0.4889017444918219,-2.167371911478887,0.35934833160135937,-0.1435372372235478
0.44177141785621643,-0.5771704316139221,93.02198791503906,-0.4889017444918219,-2.167371911478887,0.35934833160135937,-0.1435372372235478
-1.1355819702148438,-0.3418447971343994,93.98894500732422,-0.4889017444918219,-2.167371911478887,0.35934833160135937,-0.1435372372235478
-0.31109121441841125,-0.04785529896616936,94.89044952392578,-0.4889017444918219,-2.167371911478887,0.35934833160135937,-0.1435372372235478
0.9597760438919067,-1.166857361793518,95.72838592529297,-0.4889017444918219,-2.167371911478887,0.35934833160135937,-0.1435372372235478
-1.718563437461853,0.9995004534721375,96.64015197753906,-0.4889017444918219,-2.167371911478887,0.35934833160135937,-0.1435372372235478
0.48320192098617554,-0.5238246321678162,97.41612243652344,-0.4889017444918219,-2.167371911478887,0.35934833160135937,-0.1435372372235478
1.1976197957992554,-1.225379228591919,98.07429504394531,-0.4889017444918219,-2.167371911478887,0.35934833160135937,-0.1435372372235478
-0.03582318127155304,-0.2683143615722656,98.63216400146484,-0.4889017444918219,-2.167371911478887,0.35934833160135937,-0.1435372372235478
-0.20502378046512604,-0.018536590039730072,99.23485565185547,-0.4889017444918219,-2.167371911478887,0.35934833160135937,-0.1435372372235478
0.2433442324399948,-0.5660977363586426,99.83187103271484,-0.4889017444918219,-2.167371911478887,0.35934833160135937,-0.1435372372235478
-0.9447011947631836,0.7997158169746399,100.4923324584961,-0.4889017444918219,-2.167371911478887,0.35934833160135937,-0.1435372372235478
0.5714476108551025,-0.6398158073425293,101.22688293457031,-0.4889017444918219,-2.167371911478887,0.35934833160135937,-0.1435372372235478
-0.05242412909865379,0.4725359380245209,101.89071655273438,-0.4889017444918219,-2.167371911478887,0.35934833160135937,-0.1435372372235478
0.8246530294418335,-1.0939595699310303,102.50676727294922,-0.4889017444918219,-2.167371911478887,0.35934833160135937,-0.1435372372235478
-0.0032838056795299053,0.36601126194000244,103.1569595336914,-0.4889017444918219,-2.167371911478887,0.35934833160135937,-0.1435372372235478
-0.6323351263999939,0.229326531291008,103.77897644042969,-0.4889017444918219,-2.167371911478887,0.35934833160135937,-0.1435372372235478
0.35126250982284546,0.26005321741104126,104.31736755371094,-0.4889017444918219,-2.167371911478887,0.35934833160135937,-0.1435372372235478
0.5656527876853943,-0.08021819591522217,104.74498748779297,-0.4889017444918219,-2.167371911478887,0.35934833160135937,-0.1435372372235478
0.05190378800034523,-0.2595093548297882,105.15998077392578,-0.4889017444918219,-2.167371911478887,0.35934833160135937,-0.1435372372235478
-0.11046235263347626,0.1553339660167694,105.57588958740234,-0.4889017444918219,-2.167371911478887,0.35934833160135937,-0.1435372372235478
0.3807625472545624,-0.4901445806026459,105.99933624267578,-0.4889017444918219,-2.167371911478887,0.35934833160135937,-0.1435372372235478
0.08214805275201797,0.01185612939298153,106.41178131103516,-0.4889017444918219,-2.167371911478887,0.35934833160135937,-0.1435372372235478
-0.23894526064395905,0.014028514735400677,106.82133483886719,-0.4889017444918219,-2.167371911478887,0.35934833160135937,-0.1435372372235478
0.3281504809856415,0.25766369700431824,107.21698760986328,-0.4889017444918219,-2.167371911478887,0.35934833160135937,-0.1435372372235478
0.15852725505828857,-0.09606048464775085,107.5947494506836,-0.4889017444918219,-2.167371911478887,0.35934833160135937,-0.1435372372235478
0.16739551723003387,0.2688966989517212,107.98385620117188,-0.4889017444918219,-2.167371911478887,0.35934833160135937,-0.1435372372235478
-0.10556432604789734,-0.019833169877529144,108.40491485595703,-0.4889017444918219,-2.167371911478887,0.35934833160135937,-0.1435372372235478
-0.2891325354576111,0.3022114932537079,108.83866882324219,-0.4889017444918219,-2.167371911478887,0.35934833160135937,-0.1435372372235478
-0.02572578564286232,-0.3160795569419861,109.35133361816406,-0.4889017444918219,-2.167371911478887,0.35934833160135937,-0.1435372372235478
-0.4717857837677002,0.42120516300201416,109.85629272460938,-0.4889017444918219,-2.167371911478887,0.35934833160135937,-0.1435372372235478
0.4403899013996124,-0.4677061438560486,110.3385238647461,-0.4889017444918219,-2.167371911478887,0.35934833160135937,-0.1435372372235478
-0.1895938366651535,0.48869454860687256,110.87506103515625,-0.4889017444918219,-2.167371911478887,0.35934833160135937,-0.1435372372235478
0.10744623839855194,-0.40623244643211365,111.43221282958984,-0.4889017444918219,-2.167371911478887,0.35934833160135937,-0.1435372372235478
-0.4652979373931885,0.5323498845100403,111.96392059326172,-0.4889017444918219,-2.167371911478887,0.35934833160135937,-0.1435372372235478
0.4702095687389374,0.08068647235631943,112.52269744873047,-0.4889017444918219,-2.167371911478887,0.35934833160135937,-0.1435372372235478
0.5650703310966492,0.3689149022102356,113.05723571777344,-0.4889017444918219,-2.167371911478887,0.35934833160135937,-0.1435372372235478
-0.4052955210208893,0.18640203773975372,113.61944580078125,-0.4889017444918219,-2.167371911478887,0.35934833160135937,-0.1435372372235478
-0.15735232830047607,0.05662974715232849,114.1218490600586,-0.4889017444918219,-2.167371911478887,0.35934833160135937,-0.1435372372235478
0.22502781450748444,0.17654448747634888,114.6205062866211,-0.4889017444918219,-2.167371911478887,0.35934833160135937,-0.1435372372235478
0.28743186593055725,-0.009304404258728027,115.12593078613281,-0.4889017444918219,-2.167371911478887,0.35934833160135937,-0.1435372372235478
-0.5725106000900269,-0.19017939269542694,115.67102813720703,-0.4889017444918219,-2.167371911478887,0.35934833160135937,-0.1435372372235478
-0.46578195691108704,0.13162803649902344,116.22065734863281,-0.4889017444918219,-2.167371911478887,0.35934833160135937,-0.1435372372235478
0.3889176845550537,-0.2312012016773224,116.81731414794922,-0.4889017444918219,-2.167371911478887,0.35934833160135937,-0.1435372372235478
-0.5702331066131592,0.28211575746536255,117.47294616699219,-0.4889017444918219,-2.167371911478887,0.35934833160135937,-0.1435372372235478
-0.3381090760231018,0.21496708691120148,118.14977264404297,-0.4889017444918219,-2.167371911478887,0.35934833160135937,-0.1435372372235478
0.46666139364242554,-0.4693492650985718,118.83960723876953,-0.4889017444918219,-2.167371911478887,0.35934833160135937,-0.1435372372235478
-0.0387551486492157,-0.14494778215885162,119.5685043334961,-0.4889017444918219,-2.167371911478887,0.35934833160135937,-0.1435372372235478
-0.08465282618999481,-0.4315267503261566,120.30329132080078,-0.4889017444918219,-2.167371911478887,0.35934833160135937,-0.1435372372235478
0.01000464428216219,-0.12025777995586395,121.04171752929688,-0.4889017444918219,-2.167371911478887,0.35934833160135937,-0.1435372372235478
-0.3433361053466797,0.6173015832901001,121.85391235351562,-0.4889017444918219,-2.167371911478887,0.35934833160135937,-0.1435372372235478
-0.005460437387228012,-0.03297027200460434,122.67005920410156,-0.4889017444918219,-2.167371911478887,0.35934833160135937,-0.1435372372235478
-0.3309961259365082,0.3279350996017456,123.4139404296875,-0.4889017444918219,-2.167371911478887,0.35934833160135937,-0.1435372372235478
0.11603212356567383,0.515048623085022,124.21630859375,-0.4889017444918219,-2.167371911478887,0.35934833160135937,-0.1435372372235478
-0.6512093544006348,-0.11095839738845825,125.13471984863281,-0.4889017444918219,-2.167371911478887,0.35934833160135937,-0.1435372372235478
0.14914293587207794,-0.3540666103363037,125.94947052001953,-0.4889017444918219,-2.167371911478887,0.35934833160135937,-0.1435372372235478
0.07658238708972931,0.3444230258464813,126.77466583251953,-0.4889017444918219,-2.167371911478887,0.35934833160135937,-0.1435372372235478
0.16395971179008484,-0.07393378764390945,127.6058578491211,-0.4889017444918219,-2.167371911478887,0.35934833160135937,-0.1435372372235478
-0.9671404361724854,0.15439473092556,128.49635314941406,-0.4889017444918219,-2.167371911478887,0.35934833160135937,-0.1435372372235478
-0.12222706526517868,0.0812244638800621,129.3638153076172,-0.4889017444918219,-2.167371911478887,0.35934833160135937,-0.1435372372235478
-0.09803391247987747,-0.23946627974510193,130.29644775390625,-0.4889017444918219,-2.167371911478887,0.35934833160135937,-0.1435372372235478
0.09363096952438354,0.11437305808067322,131.27415466308594,-0.4889017444918219,-2.167371911478887,0.35934833160135937,-0.1435372372235478
0.6248378157615662,-0.357502818107605,132.25636291503906,-0.4889017444918219,-2.167371911478887,0.35934833160135937,-0.1435372372235478
-0.5567702054977417,0.13171102106571198,133.18641662597656,-0.4889017444918219,-2.167371911478887,0.35934833160135937,-0.1435372372235478
0.2293868064880371,0.4535900056362152,134.1260528564453,-0.4889017444918219,-2.167371911478887,0.35934833160135937,-0.1435372372235478
-0.09269651770591736,0.15209899842739105,135.11917114257812,-0.4889017444918219,-2.167371911478887,0.35934833160135937,-0.1435372372235478
-0.5987918972969055,-0.1615966260433197,136.1070098876953,-0.4889017444918219,-2.167371911478887,0.35934833160135937,-0.1435372372235478
0.4565862715244293,-0.12337301671504974,137.05335998535156,-0.4889017444918219,-2.167371911478887,0.35934833160135937,-0.1435372372235478
0.8949326872825623,-0.08224749565124512,137.997802734375,-0.4889017444918219,-2.167371911478887,0.35934833160135937,-0.1435372372235478
-0.9099565744400024,0.15437671542167664,138.9482879638672,-0.4889017444918219,-2.167371911478887,0.35934833160135937,-0.1435372372235478
-0.6126668453216553,0.12613259255886078,139.93301391601562,-0.4889017444918219,-2.167371911478887,0.35934833160135937,-0.1435372372235478
0.7987866401672363,-0.10759690403938293,140.98976135253906,-0.4889017444918219,-2.167371911478887,0.35934833160135937,-0.1435372372235478
-0.318928062915802,0.33212605118751526,141.99891662597656,-0.4889017444918219,-2.167371911478887,0.35934833160135937,-0.1435372372235478
0.23078083992004395,-0.27024805545806885,142.88528442382812,-0.4889017444918219,-2.167371911478887,0.35934833160135937,-0.1435372372235478
-0.5978721380233765,0.16816440224647522,143.8294677734375,-0.4889017444918219,-2.167371911478887,0.35934833160135937,-0.1435372372235478
-0.3687329590320587,0.012088539078831673,144.90591430664062,-0.4889017444918219,-2.167371911478887,0.35934833160135937,-0.1435372372235478
0.016730083152651787,-0.07476796954870224,145.9761199951172,-0.4889017444918219,-2.167371911478887,0.35934833160135937,-0.1435372372235478
-0.21744827926158905,-0.578736424446106,147.02810668945312,-0.4889017444918219,-2.167371911478887,0.35934833160135937,-0.1435372372235478
-0.03848270699381828,0.15408624708652496,148.0275421142578,-0.4889017444918219,-2.167371911478887,0.35934833160135937,-0.1435372372235478
0.44831836223602295,0.2740567922592163,149.06338500976562,-0.4889017444918219,-2.167371911478887,0.35934833160135937,-0.1435372372235478
-0.8090921640396118,-0.49256131052970886,150.12442016601562,-0.4889017444918219,-2.167371911478887,0.35934833160135937,-0.1435372372235478
-0.20122823119163513,-0.2849423289299011,151.2045135498047,-0.4889017444918219,-2.167371911478887,0.35934833160135937,-0.1435372372235478
0.870680034160614,0.21154412627220154,152.2782440185547,-0.4889017444918219,-2.167371911478887,0.35934833160135937,-0.1435372372235478
-0.3499498665332794,-0.3178941011428833,153.30174255371094,-0.4889017444918219,-2.167371911478887,0.35934833160135937,-0.1435372372235478
0.1513599008321762,-0.022698821499943733,154.3137969970703,-0.4889017444918219,-2.167371911478887,0.35934833160135937,-0.1435372372235478
-0.8211171627044678,0.060401108115911484,155.3704376220703,-0.4889017444918219,-2.167371911478887,0.35934833160135937,-0.1435372372235478
0.293923944234848,0.009158394299447536,156.47657775878906,-0.4889017444918219,-2.167371911478887,0.35934833160135937,-0.1435372372235478
-0.07482675462961197,-0.05587216839194298,157.53065490722656,-0.4889017444918219,-2.167371911478887,0.35934833160135937,-0.1435372372235478
0.36067140102386475,0.19621491432189941,158.56626892089844,-0.4889017444918219,-2.167371911478887,0.35934833160135937,-0.1435372372235478
0.7019634246826172,0.4062744677066803,159.49557495117188,-0.4889017444918219,-2.167371911478887,0.35934833160135937,-0.1435372372235478
1.3917573690414429,0.6694067716598511,160.18324279785156,-0.4889017444918219,-2.167371911478887,0.35934833160135937,-0.1435372372235478
1.852117896080017,0.812505304813385,160.54225158691406,-0.4889017444918219,-2.167371911478887,0.35934833160135937,-0.1435372372235478
1.8989903926849365,0.8757648468017578,160.6183624267578,-0.4889017444918219,-2.167371911478887,0.35934833160135937,-0.1435372372235478
0.8533151745796204,-1.176639199256897,160.55386352539062,-0.4889017444918219,-2.167371911478887,0.35934833160135937,-0.1435372372235478
0.12620510160923004,0.0937136635184288,160.53469848632812,-0.4889017444918219,-2.167371911478887,0.35934833160135937,-0.1435372372235478
-0.5263996720314026,0.490519642829895,160.53639221191406,-0.4889017444918219,-2.167371911478887,0.35934833160135937,-0.1435372372235478
-0.8623124957084656,-0.03303281217813492,160.5273895263672,-0.4889017444918219,-2.167371911478887,0.35934833160135937,-0.1435372372235478
-0.21099834144115448,0.28372126817703247,160.53099060058594,-0.4889017444918219,-2.167371911478887,0.35934833160135937,-0.1435372372235478
0.19989733397960663,-0.022418884560465813,160.5523223876953,-0.4889017444918219,-2.167371911478887,0.35934833160135937,-0.1435372372235478
0.33860641717910767,-0.10198746621608734,160.549560546875,-0.4889017444918219,-2.167371911478887,0.35934833160135937,-0.1435372372235478
0.029900966212153435,0.08108934015035629,160.54052734375,-0.4889017444918219,-2.167371911478887,0.35934833160135937,-0.1435372372235478
-0.25714436173439026,0.16318470239639282,160.5445098876953,-0.4889017444918219,-2.167371911478887,0.35934833160135937,-0.1435372372235478
-0.27704018354415894,0.060524262487888336,160.54331970214844,-0.4889017444918219,-2.167371911478887,0.35934833160135937,-0.1435372372235478
0.0002697109302971512,0.10914746671915054,160.53997802734375,-0.4889017444918219,-2.167371911478887,0.35934833160135937,-0.1435372372235478
0.11567036062479019,0.01249128021299839,160.5455322265625,-0.4889017444918219,-2.167371911478887,0.35934833160135937,-0.1435372372235478
-0.03526477515697479,0.06240968033671379,160.54220581054688,-0.4889017444918219,-2.167371911478887,0.35934833160135937,-0.1435372372235478
-0.1635211706161499,0.11960214376449585,160.54226684570312,-0.4889017444918219,-2.167371911478887,0.35934833160135937,-0.1435372372235478
-0.1411217451095581,0.09419278800487518,160.54476928710938,-0.4889017444918219,-2.167371911478887,0.35934833160135937,-0.1435372372235478
-0.03166210651397705,0.03586317226290703,160.5432891845703,-0.4889017444918219,-2.167371911478887,0.35934833160135937,-0.1435372372235478
0.02795589156448841,0.06891337037086487,160.5444793701172,-0.4889017444918219,-2.167371911478887,0.35934833160135937,-0.1435372372235478
-0.05941338092088699,0.051845256239175797,160.54470825195312,-0.4889017444918219,-2.167371911478887,0.35934833160135937,-0.1435372372235478
-0.10997390747070312,0.09688637405633926,160.54428100585938,-0.4889017444918219,-2.167371911478887,0.35934833160135937,-0.1435372372235478
-0.0945076122879982,0.0859544426202774,160.54421997070312,-0.4889017444918219,-2.167371911478887,0.35934833160135937,-0.1435372372235478
-0.03347545862197876,0.05458112433552742,160.5446014404297,-0.4889017444918219,-2.167371911478887,0.35934833160135937,-0.1435372372235478
-0.039867814630270004,0.06625723093748093,160.5449981689453,-0.4889017444918219,-2.167371911478887,0.35934833160135937,-0.1435372372235478
