faccX,faccY,yaw,posX,posY,velX,velY
0,0,-102.82172393798828,0.0,0.0,0.0,0.0
0,0,-102.82111358642578,0.0,0.0,0.0,0.0
0,0,-102.82160949707031,0.0,0.0,0.0,0.0
0,-0.08235861361026764,-102.82508087158203,0.0,-5.719348167379697e-06,0.0,-0.0006863217800855637
-0.08441971242427826,-0.8982850909233093,-102.8607406616211,-5.862480029463768e-06,-8.525830176141528e-05,-0.0007034976035356522,-0.008858352651198706
-0.6007315516471863,-2.1201012134552,-102.75909423828125,-6.5167388982243e-05,-0.00044250767264101247,-0.0064130914707978565,-0.034011571854352954
0.13876470923423767,-2.7250237464904785,-102.60919189453125,-0.0002041332775519954,-0.0013458342146542338,-0.010262815157572429,-0.07438761318723361
-0.5776224136352539,-1.3541100025177002,-102.728515625,-0.000405656426317162,-0.002868900944789251,-0.013919962694247563,-0.10838039442896844
-0.38037601113319397,-0.9774404764175415,-102.777587890625,-0.0007041834729413192,-0.004837154079642561,-0.021903282900651296,-0.12780998175342878
-0.16889408230781555,-0.9788340926170349,-102.79022979736328,-0.001107381944441133,-0.007103172842827108,-0.026480533679326373,-0.14411226982871692
-0.5062533020973206,-1.1883349418640137,-102.79197692871094,-0.0015956094074580404,-0.009655541856255796,-0.032106761882702506,-0.16217201178272567
0,-1.7095363140106201,-102.88787841796875,-0.002165878584815396,-0.012559649778736961,-0.03632553940018018,-0.18632093891501428
-0.7686704397201538,-0.6056157946586609,-102.92314147949219,-0.0028246841331322986,-0.01582577321264479,-0.042731126397848124,-0.20561387315392496
0.867194652557373,-1.4593030214309692,-102.92913818359375,-0.003530027613871627,-0.019396068238549762,-0.041910091290871296,-0.2228215299546719
-0.827679455280304,-0.2717086374759674,-102.93798065185547,-0.00422578502446413,-0.02322996954744061,-0.04158079798022905,-0.23724662711222969
0.24734286963939667,-0.5014286041259766,-102.90670776367188,-0.004959099475915232,-0.027237770085533464,-0.04641693619390328,-0.24368943745891256
-0.6823707222938538,-1.4764819145202637,-102.86107635498047,-0.0057629253466924026,-0.031436615606976887,-0.05004216829935709,-0.2601720251142979
0,-0.17675668001174927,-102.76398468017578,-0.006644348340729872,-0.03588762426127991,-0.05572859098513921,-0.2739490134020647
0.6265115737915039,-1.0616123676300049,-102.58364868164062,-0.007529650442302227,-0.04053943900184499,-0.050507661203543344,-0.284268755465746
0.5704102516174316,-1.2753841876983643,-102.61746978759766,-0.008288325224485662,-0.045439543020394116,-0.04053331265846888,-0.30374372676014905
-1.6413213014602661,0.7423921227455139,-102.71068572998047,-0.009038249258365896,-0.05053895180424055,-0.049457571407159166,-0.3081853273014228
0.097333624958992,-0.6548988819122314,-102.82498168945312,-0.009969763481575581,-0.055669298006428614,-0.06232413537800312,-0.30745621696114545
0.21877457201480865,-0.6714033484458923,-102.86701202392578,-0.010986547113085787,-0.06088567261066702,-0.059689900403221446,-0.3185087355474631
-0.6432088613510132,-0.44056978821754456,-102.96074676513672,-0.012010853389898936,-0.06627137189317081,-0.06322685281435649,-0.32777517835299175
-0.9690706133842468,-0.14890697598457336,-103.02775573730469,-0.013176598122550382,-0.07177522741879026,-0.07666251510381698,-0.33268748472134274
-0.23360636830329895,-0.15613649785518646,-103.00499725341797,-0.014537825942453411,-0.07734120240538485,-0.08668482328454653,-0.3352295136700074
0.2100326269865036,-0.8756914138793945,-103.01063537597656,-0.015984210062565077,-0.08300001568264431,-0.08688127112885316,-0.34382807960112893
1.0423544645309448,-0.5610652565956116,-103.04900360107422,-0.01734525992224614,-0.08883025844477944,-0.07644471203287442,-0.3558010518550873
-0.053031425923109055,0.17509977519512177,-103.08187866210938,-0.01855063546733517,-0.09478707913412815,-0.06820035337780912,-0.3590174308667581
-1.0370792150497437,-0.19822120666503906,-103.10292053222656,-0.019763010151477325,-0.10077230863687064,-0.07728460871924957,-0.3592101094623407
0.6612710356712341,-0.8876208662986755,-103.05763244628906,-0.019763010151477325,-0.10077230863687064,-0.07728460871924957,-0.3592101094623407
0.5527998208999634,-0.619147539138794,-103.10120391845703,-0.02096677648731404,-0.10686378048939837,-0.06716735158115625,-0.3717665128409863
-0.9402644634246826,-0.2184765636920929,-103.2112045288086,-0.02211313961384197,-0.11311805737722251,-0.07039622360219558,-0.37874671369791035
-0.5291286706924438,-0.3987753689289093,-103.41638946533203,-0.02338845119708114,-0.11947336732306414,-0.08264116638650497,-0.3838904798030854
1.118767499923706,0.9949485659599304,-103.60086822509766,-0.024724856829270718,-0.1258301410699884,-0.07772750947624445,-0.3789223698278269
-1.2197970151901245,0.41392481327056885,-103.68524169921875,-0.026027331259101626,-0.13204767547133897,-0.0785694221034646,-0.3671817583342394
0.19591990113258362,0.7163347005844116,-103.69412994384766,-0.02740792420485781,-0.1380888811995586,-0.08710173138727743,-0.35776292905211454
-0.2459467500448227,-1.1769108772277832,-103.78189086914062,-0.02886309381470912,-0.14408358114047184,-0.08751862179487943,-0.361601063857476
0.2243742048740387,-0.19748909771442413,-103.92609405517578,-0.03032323560470508,-0.15020570998080077,-0.08769839300463596,-0.3730543969819944
0.12411095947027206,-1.1076512336730957,-103.94343566894531,-0.03176067512948066,-0.15651391800906925,-0.08479434996843337,-0.3839305664102237
0.35682493448257446,-0.8498498201370239,-103.76013946533203,-0.033140515969652264,-0.16304869835575422,-0.08078655085215965,-0.4002430751919747
0.21748623251914978,-0.07992815971374512,-103.66273498535156,-0.03444707576392425,-0.1697839841908879,-0.07600062446047862,-0.4079912250240645
-0.3466038703918457,0.9654955863952637,-103.71334075927734,-0.03572271934089561,-0.17652234020332497,-0.07707660477608441,-0.4006114964683852
0,0.07285620272159576,-103.82231903076172,-0.037031399133718675,-0.18312709071466493,-0.07996497036268313,-0.3919585648924113
0.3357093930244446,-0.43896400928497314,-103.91110229492188,-0.038340835487470026,-0.18968515761610535,-0.07716739208747943,-0.39500946328043945
-1.1926026344299316,-0.7024659514427185,-103.93865203857422,-0.03968646516402562,-0.19634791464027432,-0.08430816909919182,-0.40452137961983686
-0.712737500667572,-0.25275689363479614,-103.97956848144531,-0.04122391660283836,-0.2031562725537353,-0.10018600355833769,-0.4124815699954828
1.7486023902893066,-0.42719703912734985,-103.98624420166016,-0.04122391660283836,-0.2031562725537353,-0.10018600355833769,-0.4124815699954828
-0.29599103331565857,0,-103.91943359375,-0.042792807540131934,-0.21006063184804386,-0.08808090891689062,-0.416041545321544
-0.8335212469100952,2.088524341583252,-103.84001159667969,-0.044339261041540234,-0.21684962119079298,-0.09749351125210523,-0.3986371758083503
1.991352915763855,2.413623332977295,-103.904052734375,-0.045883747918738255,-0.22318092497686545,-0.08784491401165723,-0.36111927852034575
0.28514179587364197,-0.2805567979812622,-104.03726959228516,-0.04718973990840216,-0.2290514499983854,-0.06887412474801141,-0.3433437240620455
-0.8344561457633972,-0.7348200082778931,-104.12612915039062,-0.04837578881738914,-0.23484435767763193,-0.07345174433042603,-0.35180519744753846
-0.8286495804786682,-0.6235806345939636,-104.17898559570312,-0.049715478009440824,-0.24080211101306812,-0.08731095871577657,-0.3631252028048039
-0.9946856498718262,-0.7078605890274048,-104.23486328125,-0.05129728115681144,-0.24694665892256634,-0.10250541896869736,-0.374220546334982
-0.3326879143714905,-0.3790909945964813,-104.29752349853516,-0.053097883526028844,-0.25325915077701217,-0.11356686533739166,-0.38327847619851435
0.33758795261383057,-0.06347762793302536,-104.31302642822266,-0.05499032433455187,-0.25967785931244086,-0.11352603168537216,-0.3869665480529269
0.522378146648407,0.2403232604265213,-104.31261444091797,-0.05682270499463709,-0.2661150208332887,-0.10635964752485351,-0.38549283444881444
0.8156084418296814,-0.5074099898338318,-104.35843658447266,-0.058502450051407,-0.2725584490969778,-0.09520975928753611,-0.3877185571938754
-0.5890535116195679,-0.1079273372888565,-104.38655853271484,-0.06007354639160135,-0.27906315680903704,-0.09332180153578516,-0.3928463682532311
-0.1561279594898224,-0.8681677579879761,-104.39332580566406,-0.061680658463802586,-0.28567838066154067,-0.09953164712836342,-0.4009804940472047
-0.3599757254123688,0.7163423299789429,-104.47994232177734,-0.06337535978294907,-0.2923719323281614,-0.103832511169215,-0.40224570594728
-0.15949611365795135,0.05459458380937576,-104.74553680419922,-0.0651419760690381,-0.299022490141603,-0.10816144316146767,-0.39582123166571065
0.9700615406036377,0.3577413856983185,-104.95014953613281,-0.06688837752263578,-0.3055908762270379,-0.10140673127025361,-0.39238509858647985
-1.4373111724853516,-0.1668384075164795,-104.94965362548828,-0.06688837752263578,-0.3055908762270379,-0.10140673127025361,-0.39238509858647985
-0.43390288949012756,0.32305899262428284,-104.9293212890625,-0.06870843513144385,-0.3121197792184023,-0.11700018178671594,-0.39108326037724817
0.9923833012580872,-1.2802287340164185,-105.04727935791016,-0.07061965479929412,-0.3187043036789531,-0.11234617835531627,-0.3990596748888493
0.4490509331226349,0.41562896966934204,-105.08995819091797,-0.07239199150560628,-0.3254153399107358,-0.10033422640214358,-0.40626467292507495
0.44234350323677063,0.5407469272613525,-104.9782485961914,-0.07400232622089482,-0.33212000279997794,-0.09290593943248186,-0.3982948737839858
-0.6161050796508789,0.3432563841342926,-104.88927459716797,-0.0755628253209094,-0.33869686157753076,-0.0943539525692661,-0.3909281795223554
0.6673659682273865,-0.4109664261341095,-104.93276977539062,-0.07713183141313491,-0.34521703332248665,-0.0939267784977952,-0.3914924298723539
0,-0.25818711519241333,-105.01525115966797,-0.07865093286252682,-0.351788376149618,-0.08836539542923365,-0.39706870938340827
-0.31890255212783813,-0.5054901838302612,-105.06818389892578,-0.08014583546357848,-0.35845922111844025,-0.09102291669696563,-0.4034326868752639
-0.5556830763816833,-0.22972719371318817,-105.12628936767578,-0.08172361918828551,-0.3652341559953574,-0.09831113026787831,-0.40955949835479266
-0.842940092086792,0.0741502195596695,-105.21229553222656,-0.0834592646350049,-0.3720709515911424,-0.10996632333844894,-0.4108559731394053
1.2462496757507324,0.6563102602958679,-105.16716003417969,-0.08526402908066906,-0.37886782472125363,-0.10660541014124944,-0.4047688024739425
0.2865988612174988,-0.5050729513168335,-105.10555267333984,-0.08693433810128931,-0.38560346883825136,-0.09383167233318085,-0.40350849156578383
-1.5327327251434326,0.5425642728805542,-105.0678482055664,-0.08858473638072607,-0.3923260068003503,-0.1042161211992303,-0.40319606388608614
1.0257940292358398,0,-105.05107116699219,-0.09035687581015127,-0.3990082631239461,-0.10844061033179357,-0.39867469494541485
1.123396396636963,-1.0605003833770752,-105.1452865600586,-0.0920149699805511,-0.4057264872329931,-0.09053069011618689,-0.4075121981402238
-1.2062702178955078,0.5876891613006592,-105.29224395751953,-0.0920149699805511,-0.4057264872329931,-0.09053069011618689,-0.4075121981402238
-1.3029109239578247,-0.09125382453203201,-105.43436431884766,-0.09369806350622736,-0.41248388252583235,-0.11144053296496466,-0.4033752370004853
-0.24443863332271576,-0.05431181937456131,-105.49882507324219,-0.09566286055267681,-0.4192169118677784,-0.12433511260896916,-0.4045882840330402
0,0.39749184250831604,-105.4898452758789,-0.09775208733458482,-0.42593621798894477,-0.1263721012199918,-0.40172845050692557
0.2761567533016205,0.9188085794448853,-105.50677490234375,-0.09983911146927207,-0.43254028241253567,-0.12407079494247829,-0.3907592803239822
1.4381687641143799,-0.1384555846452713,-105.62142181396484,-0.10178790766849283,-0.43899874590440763,-0.10978474896401162,-0.3842563387006521
-0.4470597803592682,-0.08566106855869293,-105.75130462646484,-0.10354882647179892,-0.4454185818725577,-0.10152550743271903,-0.38612397747735183
-0.3477599024772644,-0.2691035568714142,-105.75983428955078,-0.10529611407365233,-0.45187861792950174,-0.10814900478969014,-0.38908034935593605
0.24281446635723114,-0.45351743698120117,-105.74320220947266,-0.10710588536432217,-0.4584134724322293,-0.10902355009069041,-0.3951021909713745
-1.0553967952728271,0.5592853426933289,-105.88017272949219,-0.10897937386089726,-0.46499116395496665,-0.11579506949832037,-0.3942207917571068
0.40852445363998413,0,-106.17237854003906,-0.11095421337626044,-0.4715226712243425,-0.12118567234526073,-0.3895600805679957
-0.5391303300857544,0.3789926767349243,-106.2686538696289,-0.11298304443454574,-0.4779890202979247,-0.12227405464897548,-0.3864018082618713
-0.27182209491729736,0,-106.24710083007812,-0.11507726148598721,-0.4844027314997382,-0.1290319915240009,-0.38324353595574695
1.057797908782959,-1.2611277103424072,-106.30912780761719,-0.11717321302431322,-0.4908777020788856,-0.1224821930751204,-0.3937529335419337
0.15940530598163605,-0.7924877405166626,-106.34673309326172,-0.11913005490787323,-0.49758286315533856,-0.11233883295208211,-0.41086639563242594
0.2281521111726761,0.5998135805130005,-106.2188491821289,-0.12097545508088334,-0.5044440165658792,-0.10910918780912951,-0.41247201363245645
-0.877571702003479,1.1461896896362305,-106.13166046142578,-0.12097545508088334,-0.5044440165658792,-0.10910918780912951,-0.41247201363245645
1.3053290843963623,-0.11923297494649887,-106.1781005859375,-0.12097545508088334,-0.5044440165658792,-0.10910918780912951,-0.41247201363245645
-0.23824189603328705,0.13069269061088562,-106.28826904296875,-0.12097545508088334,-0.5044440165658792,-0.10910918780912951,-0.41247201363245645
0.077374167740345,-0.17069339752197266,-106.40709686279297,-0.12097545508088334,-0.5044440165658792,-0.10910918780912951,-0.41247201363245645
-0.17729859054088593,1.4662352800369263,-106.6356430053711,-0.12097545508088334,-0.5044440165658792,-0.10910918780912951,-0.41247201363245645
0.5565603375434875,2.814185857772827,-107.14715576171875,-0.12097545508088334,-0.5044440165658792,-0.10910918780912951,-0.41247201363245645
-0.511509120464325,2.003791093826294,-107.86125183105469,-0.12097545508088334,-0.5044440165658792,-0.10910918780912951,-0.41247201363245645
-0.03266270086169243,1.8010468482971191,-108.84245300292969,-0.12097545508088334,-0.5044440165658792,-0.10910918780912951,-0.41247201363245645
0.512751042842865,2.4621641635894775,-110.125,-0.12097545508088334,-0.5044440165658792,-0.10910918780912951,-0.41247201363245645
0.9258818030357361,2.1489808559417725,-111.6311264038086,-0.12097545508088334,-0.5044440165658792,-0.10910918780912951,-0.41247201363245645
0.4156738817691803,2.1957273483276367,-113.19877624511719,-0.12097545508088334,-0.5044440165658792,-0.10910918780912951,-0.41247201363245645
0.22176852822303772,1.6506060361862183,-114.85018157958984,-0.12097545508088334,-0.5044440165658792,-0.10910918780912951,-0.41247201363245645
-0.9083725214004517,1.5852116346359253,-116.54488372802734,-0.12097545508088334,-0.5044440165658792,-0.10910918780912951,-0.41247201363245645
-0.16600896418094635,0.7865199446678162,-118.22142028808594,-0.12097545508088334,-0.5044440165658792,-0.10910918780912951,-0.41247201363245645
-0.6663962006568909,0.7038373351097107,-119.81583404541016,-0.12097545508088334,-0.5044440165658792,-0.10910918780912951,-0.41247201363245645
-0.4376671612262726,0.4038045108318329,-121.32626342773438,-0.12097545508088334,-0.5044440165658792,-0.10910918780912951,-0.41247201363245645
0.08894926309585571,0.460547536611557,-122.77177429199219,-0.12097545508088334,-0.5044440165658792,-0.10910918780912951,-0.41247201363245645
0.04552953317761421,0.9396809935569763,-124.13842010498047,-0.12097545508088334,-0.5044440165658792,-0.10910918780912951,-0.41247201363245645
0.1594811975955963,0.32727691531181335,-125.44290161132812,-0.12097545508088334,-0.5044440165658792,-0.10910918780912951,-0.41247201363245645
-0.16029717028141022,0.1654677540063858,-126.66253662109375,-0.12097545508088334,-0.5044440165658792,-0.10910918780912951,-0.41247201363245645
0.12971708178520203,0.41199833154678345,-127.8169937133789,-0.12097545508088334,-0.5044440165658792,-0.10910918780912951,-0.41247201363245645
-0.11472488194704056,0.48337799310684204,-128.9318084716797,-0.12097545508088334,-0.5044440165658792,-0.10910918780912951,-0.41247201363245645
0.19316723942756653,0.7501954436302185,-130.04302978515625,-0.12097545508088334,-0.5044440165658792,-0.10910918780912951,-0.41247201363245645
-0.37980398535728455,0.46292582154273987,-131.18606567382812,-0.12097545508088334,-0.5044440165658792,-0.10910918780912951,-0.41247201363245645
0.05739728361368179,-0.3037588894367218,-132.3720703125,-0.12097545508088334,-0.5044440165658792,-0.10910918780912951,-0.41247201363245645
5.753537698183209e-05,0.22638460993766785,-133.65660095214844,-0.12097545508088334,-0.5044440165658792,-0.10910918780912951,-0.41247201363245645
0.003503179643303156,-0.7194962501525879,-134.92086791992188,-0.12097545508088334,-0.5044440165658792,-0.10910918780912951,-0.41247201363245645
-0.2613164484500885,0.8728424310684204,-136.1963348388672,-0.12097545508088334,-0.5044440165658792,-0.10910918780912951,-0.41247201363245645
-1.115897536277771,0.9580707550048828,-137.4987335205078,-0.12097545508088334,-0.5044440165658792,-0.10910918780912951,-0.41247201363245645
0.3590693771839142,0.6419007182121277,-138.7719268798828,-0.12097545508088334,-0.5044440165658792,-0.10910918780912951,-0.41247201363245645
-0.36714792251586914,1.232222080230713,-140.01148986816406,-0.12097545508088334,-0.5044440165658792,-0.10910918780912951,-0.41247201363245645
0.3079979717731476,0.4701271057128906,-141.26919555664062,-0.12097545508088334,-0.5044440165658792,-0.10910918780912951,-0.41247201363245645
0.22509194910526276,0.3441331684589386,-142.5556182861328,-0.12097545508088334,-0.5044440165658792,-0.10910918780912951,-0.41247201363245645
-0.507513165473938,0.9881387948989868,-143.8332061767578,-0.12097545508088334,-0.5044440165658792,-0.10910918780912951,-0.41247201363245645
0.4448404908180237,0.417202353477478,-145.11434936523438,-0.12097545508088334,-0.5044440165658792,-0.10910918780912951,-0.41247201363245645
-0.4917218089103699,0.6083202958106995,-146.4974822998047,-0.12097545508088334,-0.5044440165658792,-0.10910918780912951,-0.41247201363245645
0.9396088123321533,0.24558492004871368,-147.88626098632812,-0.12097545508088334,-0.5044440165658792,-0.10910918780912951,-0.41247201363245645
-0.034602221101522446,0.37582120299339294,-149.30349731445312,-0.12097545508088334,-0.5044440165658792,-0.10910918780912951,-0.41247201363245645
0.49577152729034424,0.13840684294700623,-150.7461395263672,-0.12097545508088334,-0.5044440165658792,-0.10910918780912951,-0.41247201363245645
0.25643691420555115,-0.46161291003227234,-152.30459594726562,-0.12097545508088334,-0.5044440165658792,-0.10910918780912951,-0.41247201363245645
0.3625987768173218,1.7449469566345215,-153.8785400390625,-0.12097545508088334,-0.5044440165658792,-0.10910918780912951,-0.41247201363245645
0.02725212462246418,-0.07596445083618164,-155.47067260742188,-0.12097545508088334,-0.5044440165658792,-0.10910918780912951,-0.41247201363245645
0.5132176280021667,0.7956664562225342,-157.16490173339844,-0.12097545508088334,-0.5044440165658792,-0.10910918780912951,-0.41247201363245645
-0.12845635414123535,0.019348887726664543,-158.9339141845703,-0.12097545508088334,-0.5044440165658792,-0.10910918780912951,-0.41247201363245645
0.23167230188846588,0.8119316101074219,-160.73974609375,-0.12097545508088334,-0.5044440165658792,-0.10910918780912951,-0.41247201363245645
-0.10527416318655014,-0.10646218061447144,-162.59954833984375,-0.12097545508088334,-0.5044440165658792,-0.10910918780912951,-0.41247201363245645
0.9152446389198303,-0.0028514184523373842,-164.55934143066406,-0.12097545508088334,-0.5044440165658792,-0.10910918780912951,-0.41247201363245645
0.03686795383691788,0.7453891634941101,-166.55506896972656,-0.12097545508088334,-0.5044440165658792,-0.10910918780912951,-0.41247201363245645
-0.08223357051610947,-0.13870440423488617,-168.54974365234375,-0.12097545508088334,-0.5044440165658792,-0.10910918780912951,-0.41247201363245645
-0.3983144760131836,1.5084022283554077,-170.55181884765625,-0.12097545508088334,-0.5044440165658792,-0.10910918780912951,-0.41247201363245645
0.22122253477573395,0.7879909873008728,-172.4838409423828,-0.12097545508088334,-0.5044440165658792,-0.10910918780912951,-0.41247201363245645
1.266068696975708,0.6474420428276062,-174.30589294433594,-0.12097545508088334,-0.5044440165658792,-0.10910918780912951,-0.41247201363245645
0.10581664741039276,-0.572979748249054,-176.31143188476562,-0.12097545508088334,-0.5044440165658792,-0.10910918780912951,-0.41247201363245645
0.2372996211051941,1.3398101329803467,-178.33737182617188,-0.12097545508088334,-0.5044440165658792,-0.10910918780912951,-0.41247201363245645
0.5190832018852234,0.43045535683631897,179.69100952148438,-0.12097545508088334,-0.5044440165658792,-0.10910918780912951,-0.41247201363245645
-0.3968908488750458,-0.04534539207816124,177.66339111328125,-0.12097545508088334,-0.5044440165658792,-0.10910918780912951,-0.41247201363245645
0.5511419177055359,-0.5088057518005371,175.57275390625,-0.12097545508088334,-0.5044440165658792,-0.10910918780912951,-0.41247201363245645
0.5008046627044678,0.12254363298416138,173.5845489501953,-0.12097545508088334,-0.5044440165658792,-0.10910918780912951,-0.41247201363245645
0.09388118237257004,-0.045802097767591476,171.76943969726562,-0.12097545508088334,-0.5044440165658792,-0.10910918780912951,-0.41247201363245645
0.1623319387435913,-0.3989356756210327,169.87765502929688,-0.12097545508088334,-0.5044440165658792,-0.10910918780912951,-0.41247201363245645
0.5498138666152954,0.297433078289032,167.94833374023438,-0.12097545508088334,-0.5044440165658792,-0.10910918780912951,-0.41247201363245645
-0.27342578768730164,0.10508287698030472,166.3253936767578,-0.12097545508088334,-0.5044440165658792,-0.10910918780912951,-0.41247201363245645
-0.8324085474014282,-0.22736255824565887,165.1861114501953,-0.12097545508088334,-0.5044440165658792,-0.10910918780912951,-0.41247201363245645
-0.4396623373031616,-1.1755833625793457,164.48410034179688,-0.12097545508088334,-0.5044440165658792,-0.10910918780912951,-0.41247201363245645
0.23688353598117828,-1.2419536113739014,164.0811004638672,-0.12097545508088334,-0.5044440165658792,-0.10910918780912951,-0.41247201363245645
0.619823694229126,-0.23109866678714752,163.84754943847656,-0.12097545508088334,-0.5044440165658792,-0.10910918780912951,-0.41247201363245645
0.6276025176048279,-0.21273069083690643,163.6885528564453,-0.12097545508088334,-0.5044440165658792,-0.10910918780912951,-0.41247201363245645
1.2243138551712036,-0.17539387941360474,163.62156677246094,-0.12097545508088334,-0.5044440165658792,-0.10910918780912951,-0.41247201363245645
1.1506751775741577,0.059860870242118835,163.64083862304688,-0.12097545508088334,-0.5044440165658792,-0.10910918780912951,-0.41247201363245645
0.2344602644443512,0.0410233773291111,163.67027282714844,-0.12097545508088334,-0.5044440165658792,-0.10910918780912951,-0.41247201363245645
-0.34725987911224365,0.34774887561798096,163.69610595703125,-0.12097545508088334,-0.5044440165658792,-0.10910918780912951,-0.41247201363245645
-0.930019736289978,0.3998875617980957,163.68959045410156,-0.12097545508088334,-0.5044440165658792,-0.10910918780912951,-0.41247201363245645
-0.16451117396354675,0.26835930347442627,163.6989288330078,-0.12097545508088334,-0.5044440165658792,-0.10910918780912951,-0.41247201363245645
0.482867568731308,0.03482664003968239,163.690673828125,-0.12097545508088334,-0.5044440165658792,-0.10910918780912951,-0.41247201363245645
0.47667187452316284,0.12734149396419525,163.68736267089844,-0.12097545508088334,-0.5044440165658792,-0.10910918780912951,-0.41247201363245645
-0.07686757296323776,0.18315990269184113,163.6938934326172,-0.12097545508088334,-0.5044440165658792,-0.10910918780912951,-0.41247201363245645
-0.27325204014778137,0.2535654902458191,163.69406127929688,-0.12097545508088334,-0.5044440165658792,-0.10910918780912951,-0.41247201363245645
-0.02026134356856346,0.21023252606391907,163.69369506835938,-0.12097545508088334,-0.5044440165658792,-0.10910918780912951,-0.41247201363245645
0.27190127968788147,0.16931994259357452,163.6943359375,-0.12097545508088334,-0.5044440165658792,-0.10910918780912951,-0.41247201363245645
0.17312870919704437,0.14390122890472412,163.69363403320312,-0.12097545508088334,-0.5044440165658792,-0.10910918780912951,-0.41247201363245645
-0.09218798577785492,0.2315424680709839,163.69454956054688,-0.12097545508088334,-0.5044440165658792,-0.10910918780912951,-0.41247201363245645
-0.06678103655576706,0.19814342260360718,163.6952667236328,-0.12097545508088334,-0.5044440165658792,-0.10910918780912951,-0.41247201363245645
0.1111384779214859,0.1775583028793335,163.69447326660156,-0.12097545508088334,-0.5044440165658792,-0.10910918780912951,-0.41247201363245645
0.14444924890995026,0.15141060948371887,163.6949920654297,-0.12097545508088334,-0.5044440165658792,-0.10910918780912951,-0.41247201363245645
0.02071302942931652,0.18510161340236664,163.69525146484375,-0.12097545508088334,-0.5044440165658792,-0.10910918780912951,-0.41247201363245645
-0.032687652856111526,0.21127791702747345,163.6957244873047,-0.12097545508088334,-0.5044440165658792,-0.10910918780912951,-0.41247201363245645
0.062363773584365845,0.16894729435443878,163.69659423828125,-0.12097545508088334,-0.5044440165658792,-0.10910918780912951,-0.41247201363245645
0.10026965290307999,0.17933565378189087,163.6958465576172,-0.12097545508088334,-0.5044440165658792,-0.10910918780912951,-0.41247201363245645
0.045489054173231125,0.19883906841278076,163.69496154785156,-0.12097545508088334,-0.5044440165658792,-0.10910918780912951,-0.41247201363245645
0,0.19807201623916626,163.69439697265625,-0.12279078258227347,-0.5112909868566526,-0.10873011235768591,-0.4091644212603569
0,0.19658905267715454,163.69276428222656,-0.12460295112156823,-0.5180829868589838,-0.10873011235768591,-0.4058755790193876
-0.5679336190223694,0.4016018211841583,163.684326171875,-0.12645455949551732,-0.5248060388097332,-0.11346289251620566,-0.40089065507054333
-0.6695436835289001,0.48931747674942017,163.6968994140625,-0.12843154362790904,-0.5314256803318858,-0.12377520337079957,-0.3934663275877635
-2.674656629562378,0.8824857473373413,163.71615600585938,-0.1307266998169426,-0.5378881883455646,-0.15164353931322688,-0.3820346340537072
-2.1612424850463867,0.2067047506570816,163.8755645751953,-0.1335899184662331,-0.5441797940174323,-0.19194269860163327,-0.3729580465704203
-1.7581348419189453,0.4202999174594879,164.00624084472656,-0.13706114242396625,-0.5503522194694312,-0.22460417632634436,-0.3677330076694489
0,1.4632153511047363,164.04605102539062,-0.14092663806009414,-0.5563503032591607,-0.23925530000900225,-0.35203704709808037
-0.7756150960922241,0.7607054114341736,163.9932403564453,-0.14496808855302837,-0.562063148435619,-0.24571875914310412,-0.3335043740769228
-1.326750636100769,0.24940475821495056,163.86595153808594,-0.1492093988257046,-0.5675514081306754,-0.26323847357804575,-0.32508678932984675
-1.381781816482544,0.40902435779571533,163.86976623535156,-0.15378479925010144,-0.5729237970420055,-0.28580957734957335,-0.31959988002975787
-0.7016206979751587,-0.11845730990171432,163.93421936035156,-0.15869297293609833,-0.5782302834419533,-0.3031712649700542,-0.3171784879639745
-0.3465094268321991,0.7664024829864502,163.9337921142578,-0.16381861416648863,-0.5834715953821108,-0.3119056826767822,-0.31177894485493507
-0.2991584241390228,0,163.8939208984375,-0.169061880256308,-0.5886146887350412,-0.3172862481015424,-0.30539225749671467
-1.316034197807312,0.5241954922676086,163.8132781982422,-0.17446215054563555,-0.5936681572285789,-0.33074618661776184,-0.3010239617278179
-1.164313554763794,0.029703620821237564,163.85263061523438,-0.17446215054563555,-0.5936681572285789,-0.33074618661776184,-0.3010239617278179
-1.1314895153045654,0,163.90411376953125,-0.18013401775801965,-0.59868316050593,-0.3498778788683315,-0.3007764315543076
0.9173125624656677,-0.0837249606847763,163.89622497558594,-0.1859801891386612,-0.603701915265216,-0.35166268680865564,-0.30147413956001406
1.6243242025375366,0.8057138323783875,163.5733184814453,-0.19166473136568024,-0.6086763461417931,-0.33048238043362893,-0.295457565629234
0.06352239102125168,-0.5981723666191101,163.3572235107422,-0.19705555947057693,-0.6135862263004915,-0.31641699215397234,-0.2937280534145733
-0.7407016754150391,0.4361397624015808,163.364013671875,-0.20237620234567047,-0.6184929461215829,-0.3220601528572539,-0.29507832511638604
-0.3537573218345642,0.8368614315986633,163.3563232421875,-0.20781987565698926,-0.6233225153461616,-0.3311806445010006,-0.28446998183305067
-2.404366970062256,0.5461694002151489,163.23997497558594,-0.21353108947449878,-0.6279676379022809,-0.35416501360014074,-0.2729447249012689
-1.3892086744308472,1.7336758375167847,163.1592559814453,-0.2196972824542576,-0.6323583940646819,-0.3857781439709166,-0.25394601458683613
0.11325419694185257,-0.4272451400756836,163.2832489013672,-0.22621552613693183,-0.6365001032871401,-0.3964110979499915,-0.2430590921081603
-0.2657759487628937,0.14056895673274994,163.35911560058594,-0.2328329695577526,-0.6405709962238971,-0.3976821125485002,-0.24544806030268473
0.5619372725486755,0.23444229364395142,163.3736114501953,-0.23944043800829803,-0.644635754780999,-0.395214101516952,-0.24232296654954555
-0.778979480266571,0,163.29086303710938,-0.2460424120757832,-0.6486581901753217,-0.39702278658126783,-0.2403692807691793
-0.2638099491596222,0.9726377725601196,163.01564025878906,-0.2527318744514034,-0.6525968005650469,-0.4057126984931528,-0.23226396599784496
-1.2013165950775146,-0.3350498378276825,162.78848266601562,-0.25959549765852796,-0.656423589725099,-0.41792208636179556,-0.22695073320840797
-0.5303384065628052,-0.5819212198257446,162.8206787109375,-0.25959549765852796,-0.656423589725099,-0.41792208636179556,-0.22695073320840797
-0.5315250158309937,0.4371000826358795,162.91848754882812,-0.2666346062800019,-0.660216158968655,-0.4267709482150772,-0.2281575760183235
-0.16734373569488525,0.790188193321228,162.9833221435547,-0.27379598796910914,-0.66393355688313,-0.4325948544777929,-0.21793017371868095
1.6594232320785522,0.5367480516433716,163.08033752441406,-0.2809022855787124,-0.6674735780947633,-0.4201608586745957,-0.2068723716773093
0.6654755473136902,-0.25720763206481934,163.11627197265625,-0.28774351525249786,-0.6709020384269143,-0.40078670217966034,-0.20454286818082135
-0.40741974115371704,0.49713605642318726,163.1375732421875,-0.2944053730800644,-0.674294424533792,-0.39863623712832724,-0.20254346464450163
-0.3185177445411682,0.6994633078575134,163.0775604248047,-0.30109972269093205,-0.6775870517664586,-0.40468571617578464,-0.19257180327549578
-0.6447888016700745,0,162.98446655273438,-0.3079113809151265,-0.6807480079802267,-0.412713270727545,-0.18674294237668318
-1.2580645084381104,0.913955807685852,162.98846435546875,-0.31492207801823197,-0.6837969211998599,-0.4285703816451132,-0.1791266439793011
-0.2519163489341736,-0.5299733281135559,163.02883911132812,-0.32216977749407916,-0.6867556998162113,-0.4411535554565489,-0.1759267899828653
0.3501143753528595,0,162.85842895507812,-0.32951551744429813,-0.6897246166859337,-0.4403352385697265,-0.18034323438381158
0.6888677477836609,-0.12733250856399536,162.76780700683594,-0.336782286550798,-0.6927391797943141,-0.4316770542102555,-0.18140433862184488
-0.7474512457847595,0.7922459244728088,162.73463439941406,-0.34398097241944126,-0.6957164108952401,-0.4321652500269313,-0.17586339348927144
-0.38094910979270935,0.7714563608169556,162.77662658691406,-0.3512620877223608,-0.6985388770169161,-0.4415685863234102,-0.16283254111185674
-0.46934083104133606,0.26200398802757263,162.83741760253906,-0.3512620877223608,-0.6985388770169161,-0.4415685863234102,-0.16283254111185674
1.324286937713623,1.1658318042755127,162.7208251953125,-0.35856219290367647,-0.7011535974387593,-0.43444403543447446,-0.15093390950933103
1.0004675388336182,-0.3157120645046234,162.455078125,-0.36564148554449083,-0.7036101265042085,-0.41507108146324745,-0.14384957834457363
2.3935868740081787,-0.7555045485496521,162.2570037841797,-0.3723236386790976,-0.7060820095191913,-0.3867872946895658,-0.15277638345335925
0.3285309672355652,0,162.19406127929688,-0.3785810576293929,-0.7086807481703966,-0.36410297934586794,-0.15907225469127304
-1.1043850183486938,0.11435090750455856,162.3138885498047,-0.3847033193720403,-0.7113240113800078,-0.3705684297718107,-0.15811933046206839
-1.9690548181533813,0.1055683121085167,162.25088500976562,-0.39109289319021645,-0.7139440613863469,-0.396180428409328,-0.15628667029862608
-0.8296077251434326,-0.4478851556777954,162.16262817382812,-0.3978902518958786,-0.716572611227683,-0.41950261627013474,-0.15913931066170342
0.09730006009340286,0.4793757200241089,162.13673400878906,-0.40493281686600935,-0.7192227462272984,-0.42560518014555165,-0.1588768892921508
-0.43777766823768616,0.47246038913726807,162.04147338867188,-0.41204988081344524,-0.7218045946523647,-0.428442493546754,-0.15094492171580598
0.18844963610172272,1.9797964096069336,161.96275329589844,-0.4192079034859006,-0.7241500477366042,-0.430520227147887,-0.13050944839293763
-0.06801769882440567,-0.13992010056972504,161.962646484375,-0.42637487727605444,-0.7261974360216922,-0.429516627670576,-0.11517714581762756
0.4404672384262085,0.4856777787208557,161.8889617919922,-0.4335076231858695,-0.7280930441687811,-0.42641288150722767,-0.1122958318330348
-0.08197539299726486,0,161.88951110839844,-0.44058960927727964,-0.729930913742476,-0.42342544946198646,-0.108248517010361
-0.9560787677764893,-1.404660701751709,161.79786682128906,-0.4477187871961443,-0.7318326015747147,-0.4320759008017677,-0.11995402285829192
-0.9030746817588806,0.32857561111450195,161.57469177246094,-0.4477187871961443,-0.7318326015747147,-0.4320759008017677,-0.11995402285829192
1.0906498432159424,0.064557284116745,161.59828186035156,-0.4477187871961443,-0.7318326015747147,-0.4320759008017677,-0.11995402285829192
-0.2766340374946594,0.33318352699279785,161.74720764160156,-0.4477187871961443,-0.7318326015747147,-0.4320759008017677,-0.11995402285829192
1.3456543684005737,0.18889367580413818,161.92518615722656,-0.4477187871961443,-0.7318326015747147,-0.4320759008017677,-0.11995402285829192
2.706848621368408,-0.0038439466152340174,162.233154296875,-0.4477187871961443,-0.7318326015747147,-0.4320759008017677,-0.11995402285829192
1.9058830738067627,0.2705892324447632,162.69317626953125,-0.4477187871961443,-0.7318326015747147,-0.4320759008017677,-0.11995402285829192
0.29311928153038025,-1.7314352989196777,163.28955078125,-0.4477187871961443,-0.7318326015747147,-0.4320759008017677,-0.11995402285829192
0.5068932771682739,-0.7312894463539124,164.07310485839844,-0.4477187871961443,-0.7318326015747147,-0.4320759008017677,-0.11995402285829192
1.237180233001709,-1.4195398092269897,165.04232788085938,-0.4477187871961443,-0.7318326015747147,-0.4320759008017677,-0.11995402285829192
1.3193767070770264,-0.7290384769439697,166.1435546875,-0.4477187871961443,-0.7318326015747147,-0.4320759008017677,-0.11995402285829192
1.1405386924743652,-0.9311432242393494,167.34043884277344,-0.4477187871961443,-0.7318326015747147,-0.4320759008017677,-0.11995402285829192
1.7022731304168701,-0.8293673992156982,168.5371856689453,-0.4477187871961443,-0.7318326015747147,-0.4320759008017677,-0.11995402285829192
0.6738172769546509,-0.6826134920120239,169.90391540527344,-0.4477187871961443,-0.7318326015747147,-0.4320759008017677,-0.11995402285829192
1.5257954597473145,0.1545005440711975,171.38780212402344,-0.4477187871961443,-0.7318326015747147,-0.4320759008017677,-0.11995402285829192
0.6441713571548462,-0.737454891204834,173.0029296875,-0.4477187871961443,-0.7318326015747147,-0.4320759008017677,-0.11995402285829192
1.1772578954696655,-0.2516401410102844,174.59901428222656,-0.4477187871961443,-0.7318326015747147,-0.4320759008017677,-0.11995402285829192
0.5820334553718567,-0.5822531580924988,176.17967224121094,-0.4477187871961443,-0.7318326015747147,-0.4320759008017677,-0.11995402285829192
-0.28864753246307373,-0.7504872679710388,177.80397033691406,-0.4477187871961443,-0.7318326015747147,-0.4320759008017677,-0.11995402285829192
1.9482983350753784,0.29365798830986023,179.40797424316406,-0.4477187871961443,-0.7318326015747147,-0.4320759008017677,-0.11995402285829192
-0.12070666253566742,-0.5713966488838196,-178.9600830078125,-0.4477187871961443,-0.7318326015747147,-0.4320759008017677,-0.11995402285829192
0.7678844332695007,0.06656821072101593,-177.3870849609375,-0.4477187871961443,-0.7318326015747147,-0.4320759008017677,-0.11995402285829192
0.2760092616081238,0.40962937474250793,-175.84085083007812,-0.4477187871961443,-0.7318326015747147,-0.4320759008017677,-0.11995402285829192
-0.23022082448005676,-0.7341089844703674,-174.2647705078125,-0.4477187871961443,-0.7318326015747147,-0.4320759008017677,-0.11995402285829192
0.20599094033241272,-0.3808920085430145,-172.78485107421875,-0.4477187871961443,-0.7318326015747147,-0.4320759008017677,-0.11995402285829192
0.6354766488075256,0.6170668601989746,-171.35540771484375,-0.4477187871961443,-0.7318326015747147,-0.4320759008017677,-0.11995402285829192
0.013188708573579788,-0.6737697124481201,-169.89218139648438,-0.4477187871961443,-0.7318326015747147,-0.4320759008017677,-0.11995402285829192
-0.27759119868278503,-0.38873711228370667,-168.38983154296875,-0.4477187871961443,-0.7318326015747147,-0.4320759008017677,-0.11995402285829192
0.6824683547019958,0.1388062685728073,-166.9488067626953,-0.4477187871961443,-0.7318326015747147,-0.4320759008017677,-0.11995402285829192
0.4132172167301178,0.5332328081130981,-165.5789031982422,-0.4477187871961443,-0.7318326015747147,-0.4320759008017677,-0.11995402285829192
-0.23398472368717194,-0.6336668133735657,-164.1041717529297,-0.4477187871961443,-0.7318326015747147,-0.4320759008017677,-0.11995402285829192
-0.08103915303945541,-0.7833432555198669,-162.6090545654297,-0.4477187871961443,-0.7318326015747147,-0.4320759008017677,-0.11995402285829192
1.0581811666488647,1.3278380632400513,-161.05117797851562,-0.4477187871961443,-0.7318326015747147,-0.4320759008017677,-0.11995402285829192
1.6258468627929688,0.7552744150161743,-159.40234375,-0.4477187871961443,-0.7318326015747147,-0.4320759008017677,-0.11995402285829192
0.3997747004032135,-0.0460030660033226,-157.67086791992188,-0.4477187871961443,-0.7318326015747147,-0.4320759008017677,-0.11995402285829192
0.7050037980079651,-0.6545882225036621,-155.95045471191406,-0.4477187871961443,-0.7318326015747147,-0.4320759008017677,-0.11995402285829192
0.7514175772666931,0.6732922792434692,-154.23287963867188,-0.4477187871961443,-0.7318326015747147,-0.4320759008017677,-0.11995402285829192
0.5969537496566772,-0.754497766494751,-152.49276733398438,-0.4477187871961443,-0.7318326015747147,-0.4320759008017677,-0.11995402285829192
0.011992116458714008,-0.013699679635465145,-150.680419921875,-0.4477187871961443,-0.7318326015747147,-0.4320759008017677,-0.11995402285829192
0.6415848731994629,0.6335811614990234,-148.80247497558594,-0.4477187871961443,-0.7318326015747147,-0.4320759008017677,-0.11995402285829192
0.43934541940689087,0.0784808024764061,-146.947998046875,-0.4477187871961443,-0.7318326015747147,-0.4320759008017677,-0.11995402285829192
0.21901299059391022,-0.4006727337837219,-145.0958251953125,-0.4477187871961443,-0.7318326015747147,-0.4320759008017677,-0.11995402285829192
0.23188161849975586,-0.07754086703062057,-143.19384765625,-0.4477187871961443,-0.7318326015747147,-0.4320759008017677,-0.11995402285829192
0.5126690864562988,0.4849303662776947,-141.40029907226562,-0.4477187871961443,-0.7318326015747147,-0.4320759008017677,-0.11995402285829192
0.0423365980386734,0.9483005404472351,-139.5618133544922,-0.4477187871961443,-0.7318326015747147,-0.4320759008017677,-0.11995402285829192
1.1443032026290894,-0.4565361440181732,-137.68646240234375,-0.4477187871961443,-0.7318326015747147,-0.4320759008017677,-0.11995402285829192
0.7517054080963135,-0.43778690695762634,-135.79666137695312,-0.4477187871961443,-0.7318326015747147,-0.4320759008017677,-0.11995402285829192
0.4017869830131531,1.6172574758529663,-133.8765411376953,-0.4477187871961443,-0.7318326015747147,-0.4320759008017677,-0.11995402285829192
0.5400992631912231,0.15664269030094147,-131.98855590820312,-0.4477187871961443,-0.7318326015747147,-0.4320759008017677,-0.11995402285829192
-0.2358090728521347,1.5330805778503418,-130.07559204101562,-0.4477187871961443,-0.7318326015747147,-0.4320759008017677,-0.11995402285829192
0.2657807469367981,-1.0577720403671265,-128.12228393554688,-0.4477187871961443,-0.7318326015747147,-0.4320759008017677,-0.11995402285829192
0.4720439314842224,-0.11746560037136078,-126.19509887695312,-0.4477187871961443,-0.7318326015747147,-0.4320759008017677,-0.11995402285829192
0.18082723021507263,0.9697524309158325,-124.23294830322266,-0.4477187871961443,-0.7318326015747147,-0.4320759008017677,-0.11995402285829192
0.04357028752565384,-0.3901613652706146,-122.20169067382812,-0.4477187871961443,-0.7318326015747147,-0.4320759008017677,-0.11995402285829192
0.6749406456947327,-0.05372937396168709,-120.13491821289062,-0.4477187871961443,-0.7318326015747147,-0.4320759008017677,-0.11995402285829192
0.12263235449790955,0.5344165563583374,-118.0467758178711,-0.4477187871961443,-0.7318326015747147,-0.4320759008017677,-0.11995402285829192
0.35461315512657166,-0.277893990278244,-115.93011474609375,-0.4477187871961443,-0.7318326015747147,-0.4320759008017677,-0.11995402285829192
-0.01927322894334793,0.1504909247159958,-113.83116912841797,-0.4477187871961443,-0.7318326015747147,-0.4320759008017677,-0.11995402285829192
0.2922225296497345,1.182279109954834,-111.76929473876953,-0.4477187871961443,-0.7318326015747147,-0.4320759008017677,-0.11995402285829192
-0.1390146166086197,0.8093591928482056,-109.747314453125,-0.4477187871961443,-0.7318326015747147,-0.4320759008017677,-0.11995402285829192
-0.31030166149139404,-0.45966580510139465,-107.66291046142578,-0.4477187871961443,-0.7318326015747147,-0.4320759008017677,-0.11995402285829192
0.5807210206985474,-0.5917922258377075,-105.65633392333984,-0.4477187871961443,-0.7318326015747147,-0.4320759008017677,-0.11995402285829192
-1.4177088737487793,4.0019330978393555,-103.86988067626953,-0.4477187871961443,-0.7318326015747147,-0.4320759008017677,-0.11995402285829192
1.1235239505767822,-1.5634194612503052,-102.1550064086914,-0.4477187871961443,-0.7318326015747147,-0.4320759008017677,-0.11995402285829192
0.22832004725933075,0.24963977932929993,-100.3060302734375,-0.4477187871961443,-0.7318326015747147,-0.4320759008017677,-0.11995402285829192
-0.1637648642063141,0.9027105569839478,-98.39009857177734,-0.4477187871961443,-0.7318326015747147,-0.4320759008017677,-0.11995402285829192
0.6238740086555481,0.6429740786552429,-96.51853942871094,-0.4477187871961443,-0.7318326015747147,-0.4320759008017677,-0.11995402285829192
-0.7874864339828491,-0.5134455561637878,-94.90715026855469,-0.4477187871961443,-0.7318326015747147,-0.4320759008017677,-0.11995402285829192
-1.4681915044784546,0.4058578312397003,-93.59151458740234,-0.4477187871961443,-0.7318326015747147,-0.4320759008017677,-0.11995402285829192
-1.8223755359649658,0.27214545011520386,-92.67784881591797,-0.4477187871961443,-0.7318326015747147,-0.4320759008017677,-0.11995402285829192
-1.4914493560791016,-0.06893262267112732,-92.2659683227539,-0.4477187871961443,-0.7318326015747147,-0.4320759008017677,-0.11995402285829192
-0.8754632472991943,-0.4881533086299896,-92.20762634277344,-0.4477187871961443,-0.7318326015747147,-0.4320759008017677,-0.11995402285829192
0.6687429547309875,-0.37701550126075745,-92.29914093017578,-0.4477187871961443,-0.7318326015747147,-0.4320759008017677,-0.11995402285829192
-0.356585830450058,0.22358863055706024,-92.27424621582031,-0.4477187871961443,-0.7318326015747147,-0.4320759008017677,-0.11995402285829192
0.07392197102308273,0.36314764618873596,-92.24524688720703,-0.4477187871961443,-0.7318326015747147,-0.4320759008017677,-0.11995402285829192
0.15072447061538696,0.35658973455429077,-92.25794219970703,-0.4477187871961443,-0.7318326015747147,-0.4320759008017677,-0.11995402285829192
-0.17211772501468658,-0.0902400091290474,-92.26493072509766,-0.4477187871961443,-0.7318326015747147,-0.4320759008017677,-0.11995402285829192
0.16931408643722534,-0.269028902053833,-92.25444793701172,-0.4477187871961443,-0.7318326015747147,-0.4320759008017677,-0.11995402285829192
0.0413626953959465,-0.1453469842672348,-92.2597427368164,-0.4477187871961443,-0.7318326015747147,-0.4320759008017677,-0.11995402285829192
-0.025338584557175636,0.06132077798247337,-92.25945281982422,-0.4477187871961443,-0.7318326015747147,-0.4320759008017677,-0.11995402285829192
0.031301382929086685,0.14702554047107697,-92.25202178955078,-0.4477187871961443,-0.7318326015747147,-0.4320759008017677,-0.11995402285829192
0.05300416424870491,0.00042352735181339085,-92.25485229492188,-0.4477187871961443,-0.7318326015747147,-0.4320759008017677,-0.11995402285829192
-0.009244943037629128,-0.13449923694133759,-92.25353240966797,-0.4477187871961443,-0.7318326015747147,-0.4320759008017677,-0.11995402285829192
0.06694275885820389,-0.08813976496458054,-92.25152587890625,-0.4477187871961443,-0.7318326015747147,-0.4320759008017677,-0.11995402285829192
0.018491268157958984,0.02357822097837925,-92.2530288696289,-0.4477187871961443,-0.7318326015747147,-0.4320759008017677,-0.11995402285829192
-0.0010962088126689196,0.03957996144890785,-92.25049591064453,-0.4477187871961443,-0.7318326015747147,-0.4320759008017677,-0.11995402285829192
0.0379602313041687,-0.024504119530320168,-92.24806213378906,-0.4477187871961443,-0.7318326015747147,-0.4320759008017677,-0.11995402285829192
0.020060064271092415,-0.08105696737766266,-92.2498550415039,-0.4477187871961443,-0.7318326015747147,-0.4320759008017677,-0.11995402285829192
0.014325769618153572,-0.04195559769868851,-92.2469482421875,-0.4477187871961443,-0.7318326015747147,-0.4320759008017677,-0.11995402285829192
0.013669926673173904,0.03421282768249512,-92.24778747558594,-0.4477187871961443,-0.7318326015747147,-0.4320759008017677,-0.11995402285829192
0.007414652965962887,0.016959257423877716,-92.24738311767578,-0.4477187871961443,-0.7318326015747147,-0.4320759008017677,-0.11995402285829192
0.0257741566747427,-0.038128774613142014,-92.24697875976562,-0.4477187871961443,-0.7318326015747147,-0.4320759008017677,-0.11995402285829192
0.01894599199295044,-0.04340601712465286,-92.24545288085938,-0.4477187871961443,-0.7318326015747147,-0.4320759008017677,-0.11995402285829192
0.018146641552448273,-0.011039761826395988,-92.24626922607422,-0.4477187871961443,-0.7318326015747147,-0.4320759008017677,-0.11995402285829192
0,0,-92.24530029296875,-0.45491879202606594,-0.7338326019391465,-0.4319246787888307,-0.12004602087351188
0,-0.5182816982269287,-92.26521301269531,-0.46211753667254646,-0.7358693607383041,-0.4319246787888307,-0.12436503502540294
-0.07677853107452393,-0.9938300251960754,-92.3152847290039,-0.4693216131614627,-0.7380471190806319,-0.4325644998811184,-0.13696596605392797
-0.7768867611885071,-2.078575611114502,-92.50363159179688,-0.4765903038047774,-0.7405432466840522,-0.43967837731664366,-0.1625693463565161
0.508933961391449,-2.2318873405456543,-92.67363739013672,-0.48393688459337403,-0.7435520734949705,-0.4419113173149525,-0.19848987095368406
0.6318014860153198,-1.8282641172409058,-92.65541076660156,-0.4912228554758867,-0.7471421929732116,-0.43240518858656274,-0.23232446643523874
-0.2627471089363098,-1.2488915920257568,-92.64857482910156,-0.49840397984281004,-0.751227958782498,-0.42932973544423764,-0.2579674306791276
0.08561336994171143,-0.5987735390663147,-92.67167663574219,-0.5055717763876442,-0.7556557260390315,-0.4308058499358593,-0.27336464010489486
0.10450274497270584,-0.7262476086616516,-92.66258239746094,-0.512738671378595,-0.7603038187315942,-0.42922154897823916,-0.28440648300262794
0.29613131284713745,-0.927558958530426,-92.5674819946289,-0.5198645420519948,-0.7651587744599153,-0.42588293182974046,-0.2981882043958953
0.21093851327896118,-1.221787929534912,-92.48651123046875,-0.526927377733454,-0.7702778380670736,-0.4216573499453563,-0.3160994284631064
-0.4301917552947998,-1.4423155784606934,-92.36043548583984,-0.5339702261521277,-0.7757311690628473,-0.4234844602954883,-0.33830029102973647
0.2589530050754547,-0.09806233644485474,-92.31465911865234,-0.5410401920702622,-0.7814764779352114,-0.4249114498806495,-0.35113677365394935
-0.8087340593338013,-0.16092932224273682,-92.34513092041016,-0.5410401920702622,-0.7814764779352114,-0.4249114498806495,-0.35113677365394935
0.5780254006385803,-0.6593051552772522,-92.34024047851562,-0.5481380710029047,-0.7873857182237161,-0.426834022036443,-0.35797206096661593
0,-1.6062663793563843,-92.39630126953125,-0.5552118307173566,-0.7935092505963981,-0.42201714369778814,-0.3768518237552296
0.9158839583396912,0.9538532495498657,-92.34938049316406,-0.5621818467263239,-0.7998354207929996,-0.4143847773782907,-0.38228859983695057
-1.0370266437530518,0.4810228943824768,-92.36653900146484,-0.5690966723691158,-0.8061072532802869,-0.41539429975673536,-0.3703312986375144
-0.13717050850391388,1.3359689712524414,-92.45608520507812,-0.5761014521673015,-0.812153261600243,-0.4251792760255434,-0.3551896997572234
-0.5678335428237915,-0.5894972681999207,-92.4710693359375,-0.5832367320490693,-0.8180212516168182,-0.4310543097866076,-0.34896910223178573
0.6450323462486267,-1.582470417022705,-92.48880767822266,-0.5904156095174972,-0.8239882344099329,-0.43041098642473397,-0.3670688329419743
-0.1057041808962822,-2.2563185691833496,-92.56888580322266,-0.5975516726130933,-0.8303726308607856,-0.42591658504679775,-0.39905874116035805
1.01015043258667,-0.9056289196014404,-92.52693939208984,-0.6045874735963948,-0.8372431895668461,-0.41837953294937785,-0.42540830356689796
-0.5417495369911194,-0.6310502886772156,-92.5424575805664,-0.6115279379722458,-0.8444400417935359,-0.4144761921527483,-0.43821396363588677
-1.0891441106796265,0.5161461234092712,-92.62310791015625,-0.6185491310114354,-0.8517515873100554,-0.4280669725500045,-0.43917149834645297
0.6857671141624451,-1.2252269983291626,-92.7545166015625,-0.6185491310114354,-0.8517515873100554,-0.4280669725500045,-0.43917149834645297
0.4570796489715576,-0.9350653290748596,-92.85359954833984,-0.6256042161953845,-0.8592211325830105,-0.4185432495238878,-0.4571739344081531
-0.17140041291713715,0.8024995923042297,-92.92388153076172,-0.6325600981849455,-0.8668499041104221,-0.41616258922343424,-0.4582786488812417
0.15475700795650482,1.6083215475082397,-93.0152587890625,-0.6394972971306806,-0.8743204634570669,-0.41630128426477286,-0.4381884727161378
-0.30951595306396484,0.6119588017463684,-93.16289520263672,-0.6464463990173926,-0.8814694185336377,-0.4175909421406684,-0.4196861364723494
-0.06451712548732758,-0.9452782273292542,-93.24116516113281,-0.6534322225724143,-0.8884873346571757,-0.42070788446192914,-0.4224637983522068
-0.5190027952194214,-1.106565237045288,-93.4217300415039,-0.6604845428634956,-0.8956708870925162,-0.4255705504678187,-0.4395624938886613
-0.28941184282302856,-1.1126420497894287,-93.6429672241211,-0.6676335252767122,-0.9031510402744685,-0.4323073391181725,-0.4580558879456173
1.436517596244812,-0.7681177854537964,-93.74727630615234,-0.674758987473583,-0.910915913395454,-0.42274812450632426,-0.47372888657264417
-0.46204736828804016,-0.549526035785675,-93.92943572998047,-0.6817371180050803,-0.9189028978814731,-0.41462753927335116,-0.48470925174963975
-0.7585793137550354,0.16870231926441193,-94.14855194091797,-0.688732342734778,-0.9270078315020588,-0.4247994282903768,-0.4878827827206503
-0.028688527643680573,-0.2199735939502716,-94.3364486694336,-0.688732342734778,-0.9270078315020588,-0.4247994282903768,-0.4878827827206503
-0.2580920159816742,-0.4986385703086853,-94.40691375732422,-0.6958322485218138,-0.9351891148365876,-0.42718926615392144,-0.49387121742280826
1.2664716243743896,0.2475212663412094,-94.38480377197266,-0.7028820432626852,-0.9434377404952988,-0.4187861027506488,-0.49596386162253725
-0.5268214344978333,1.662253737449646,-94.20185852050781,-0.7098104470453435,-0.9515711815915223,-0.41262235116834417,-0.48004906992428015
-0.11393187195062637,0.6352754831314087,-94.23497009277344,-0.7167319829888747,-0.9594124487832755,-0.4179619620554147,-0.4609029930861047
-0.6475774645805359,0.1523454338312149,-94.30970764160156,-0.723750898282613,-0.9670394694376993,-0.42430787319317437,-0.4543394854447495
0.41660040616989136,-1.087807536125183,-94.40656280517578,-0.7308387362426666,-0.9746767568411043,-0.4262326820132631,-0.4621350029638659
1.4222452640533447,-1.2634655237197876,-94.4586181640625,-0.7378149166602332,-0.9825422897418802,-0.4109089680947361,-0.48172894512924064
-0.24212467670440674,-0.7320817708969116,-94.37201690673828,-0.7445814466432463,-0.9907096851672714,-0.4010746298668283,-0.49835850591771313
-0.9659621119499207,0.09739823639392853,-94.3368148803711,-0.7513499187235723,-0.9990597355113515,-0.41114201977228104,-0.5036475353719047
0.17587032914161682,-0.5667212009429932,-94.49844360351562,-0.7582571532046942,-1.0074864529734213,-0.41772611796235026,-0.5075585600764801
-1.3887330293655396,-0.9068179130554199,-94.6142349243164,-0.7582571532046942,-1.0074864529734213,-0.41772611796235026,-0.5075585600764801
1.924000859260559,0.13079984486103058,-94.5641098022461,-0.7582571532046942,-1.0074864529734213,-0.41772611796235026,-0.5075585600764801
-0.02244853787124157,-0.8439866304397583,-94.50366973876953,-0.7582571532046942,-1.0074864529734213,-0.41772611796235026,-0.5075585600764801
-0.8324788808822632,0.7803527116775513,-94.40736389160156,-0.7582571532046942,-1.0074864529734213,-0.41772611796235026,-0.5075585600764801
0.7341272234916687,2.396359920501709,-94.10169982910156,-0.7582571532046942,-1.0074864529734213,-0.41772611796235026,-0.5075585600764801
-0.30799058079719543,2.2853856086730957,-93.55845642089844,-0.7582571532046942,-1.0074864529734213,-0.41772611796235026,-0.5075585600764801
0.028254255652427673,0.6073476076126099,-92.82158660888672,-0.7582571532046942,-1.0074864529734213,-0.41772611796235026,-0.5075585600764801
-0.24665045738220215,1.842761516571045,-91.82719421386719,-0.7582571532046942,-1.0074864529734213,-0.41772611796235026,-0.5075585600764801
0.6052666306495667,0.6235127449035645,-90.63400268554688,-0.7582571532046942,-1.0074864529734213,-0.41772611796235026,-0.5075585600764801
0.33418694138526917,0.8457462787628174,-89.36434173583984,-0.7582571532046942,-1.0074864529734213,-0.41772611796235026,-0.5075585600764801
0.14759711921215057,0.9666619896888733,-88.02775573730469,-0.7582571532046942,-1.0074864529734213,-0.41772611796235026,-0.5075585600764801
0.47607919573783875,1.0150679349899292,-86.65950775146484,-0.7582571532046942,-1.0074864529734213,-0.41772611796235026,-0.5075585600764801
1.102936029434204,1.0054787397384644,-85.29583740234375,-0.7582571532046942,-1.0074864529734213,-0.41772611796235026,-0.5075585600764801
1.2074625492095947,0.5418923497200012,-83.866943359375,-0.7582571532046942,-1.0074864529734213,-0.41772611796235026,-0.5075585600764801
0.5453311204910278,1.076065182685852,-82.40541076660156,-0.7582571532046942,-1.0074864529734213,-0.41772611796235026,-0.5075585600764801
0.8690096139907837,0.8451398611068726,-80.94256591796875,-0.7582571532046942,-1.0074864529734213,-0.41772611796235026,-0.5075585600764801
0.9316543340682983,0.34006085991859436,-79.4446792602539,-0.7582571532046942,-1.0074864529734213,-0.41772611796235026,-0.5075585600764801
0.7896264791488647,0.8012876510620117,-77.9738540649414,-0.7582571532046942,-1.0074864529734213,-0.41772611796235026,-0.5075585600764801
0.22262606024742126,0.2451351284980774,-76.44667053222656,-0.7582571532046942,-1.0074864529734213,-0.41772611796235026,-0.5075585600764801
0.32949817180633545,0.6513238549232483,-74.93083953857422,-0.7582571532046942,-1.0074864529734213,-0.41772611796235026,-0.5075585600764801
1.1696579456329346,0.5743358731269836,-73.42084503173828,-0.7582571532046942,-1.0074864529734213,-0.41772611796235026,-0.5075585600764801
-0.1626238226890564,0.5492714643478394,-71.96479034423828,-0.7582571532046942,-1.0074864529734213,-0.41772611796235026,-0.5075585600764801
1.1678285598754883,0.3282020390033722,-70.4530029296875,-0.7582571532046942,-1.0074864529734213,-0.41772611796235026,-0.5075585600764801
0.04778885841369629,1.1076480150222778,-68.9797592163086,-0.7582571532046942,-1.0074864529734213,-0.41772611796235026,-0.5075585600764801
-0.7362147569656372,-0.0759042277932167,-67.4708480834961,-0.7582571532046942,-1.0074864529734213,-0.41772611796235026,-0.5075585600764801
0.7578792572021484,0.4579017758369446,-65.95597839355469,-0.7582571532046942,-1.0074864529734213,-0.41772611796235026,-0.5075585600764801
-0.03961572423577309,-0.06495674699544907,-64.44804382324219,-0.7582571532046942,-1.0074864529734213,-0.41772611796235026,-0.5075585600764801
-1.2263368368148804,1.0311877727508545,-62.96393585205078,-0.7582571532046942,-1.0074864529734213,-0.41772611796235026,-0.5075585600764801
0.22712472081184387,0.023986294865608215,-61.573097229003906,-0.7582571532046942,-1.0074864529734213,-0.41772611796235026,-0.5075585600764801
-0.042045336216688156,-0.38055112957954407,-60.11520004272461,-0.7582571532046942,-1.0074864529734213,-0.41772611796235026,-0.5075585600764801
-0.0889262780547142,0.472027063369751,-58.582733154296875,-0.7582571532046942,-1.0074864529734213,-0.41772611796235026,-0.5075585600764801
-0.7044561505317688,0.7007603049278259,-57.15697479248047,-0.7582571532046942,-1.0074864529734213,-0.41772611796235026,-0.5075585600764801
-0.16568922996520996,0.24938489496707916,-55.79914093017578,-0.7582571532046942,-1.0074864529734213,-0.41772611796235026,-0.5075585600764801
0.3117034137248993,-0.25377124547958374,-54.39577865600586,-0.7582571532046942,-1.0074864529734213,-0.41772611796235026,-0.5075585600764801
-0.46016424894332886,-0.2090233415365219,-52.835411071777344,-0.7582571532046942,-1.0074864529734213,-0.41772611796235026,-0.5075585600764801
0.146292045712471,1.3820682764053345,-51.23873519897461,-0.7582571532046942,-1.0074864529734213,-0.41772611796235026,-0.5075585600764801
-0.1753474771976471,-0.14088928699493408,-49.63488006591797,-0.7582571532046942,-1.0074864529734213,-0.41772611796235026,-0.5075585600764801
0.11453980952501297,1.0746021270751953,-47.922630310058594,-0.7582571532046942,-1.0074864529734213,-0.41772611796235026,-0.5075585600764801
-0.9255611300468445,-1.1535139083862305,-46.15639877319336,-0.7582571532046942,-1.0074864529734213,-0.41772611796235026,-0.5075585600764801
-0.9092016220092773,0.6639069318771362,-44.339656829833984,-0.7582571532046942,-1.0074864529734213,-0.41772611796235026,-0.5075585600764801
1.1952017545700073,-0.046525988727808,-42.576324462890625,-0.7582571532046942,-1.0074864529734213,-0.41772611796235026,-0.5075585600764801
-1.8962702751159668,-0.44775158166885376,-40.77745056152344,-0.7582571532046942,-1.0074864529734213,-0.41772611796235026,-0.5075585600764801
0.5976590514183044,0.5182867050170898,-38.936790466308594,-0.7582571532046942,-1.0074864529734213,-0.41772611796235026,-0.5075585600764801
-0.032958436757326126,-0.4183273911476135,-37.068992614746094,-0.7582571532046942,-1.0074864529734213,-0.41772611796235026,-0.5075585600764801
0.3399684429168701,0.7983234524726868,-35.20260238647461,-0.7582571532046942,-1.0074864529734213,-0.41772611796235026,-0.5075585600764801
0.7430238127708435,0.30964356660842896,-33.307334899902344,-0.7582571532046942,-1.0074864529734213,-0.41772611796235026,-0.5075585600764801
-0.07993985712528229,0.4474524259567261,-31.353675842285156,-0.7582571532046942,-1.0074864529734213,-0.41772611796235026,-0.5075585600764801
-0.2237701565027237,0.3177172541618347,-29.460603713989258,-0.7582571532046942,-1.0074864529734213,-0.41772611796235026,-0.5075585600764801
0.6373713612556458,0.3670309782028198,-27.49764060974121,-0.7582571532046942,-1.0074864529734213,-0.41772611796235026,-0.5075585600764801
-0.09735671430826187,1.2353969812393188,-25.563966751098633,-0.7582571532046942,-1.0074864529734213,-0.41772611796235026,-0.5075585600764801
-0.5748366713523865,0.49837806820869446,-23.514877319335938,-0.7582571532046942,-1.0074864529734213,-0.41772611796235026,-0.5075585600764801
-0.22025209665298462,0.8055601716041565,-21.42336654663086,-0.7582571532046942,-1.0074864529734213,-0.41772611796235026,-0.5075585600764801
0.6136242151260376,0.842236340045929,-19.415058135986328,-0.7582571532046942,-1.0074864529734213,-0.41772611796235026,-0.5075585600764801
0.227550208568573,0.3903180658817291,-17.34382438659668,-0.7582571532046942,-1.0074864529734213,-0.41772611796235026,-0.5075585600764801
0.24291788041591644,-0.009144906885921955,-15.170857429504395,-0.7582571532046942,-1.0074864529734213,-0.41772611796235026,-0.5075585600764801
-0.6711755394935608,-0.32362672686576843,-12.969717025756836,-0.7582571532046942,-1.0074864529734213,-0.41772611796235026,-0.5075585600764801
-0.17125867307186127,-0.17841845750808716,-10.802908897399902,-0.7582571532046942,-1.0074864529734213,-0.41772611796235026,-0.5075585600764801
-0.5710160136222839,-0.4219990074634552,-8.844767570495605,-0.7582571532046942,-1.0074864529734213,-0.41772611796235026,-0.5075585600764801
0.05705094709992409,-0.9324396252632141,-7.15962553024292,-0.7582571532046942,-1.0074864529734213,-0.41772611796235026,-0.5075585600764801
-0.533452570438385,-1.5560799837112427,-5.773523330688477,-0.7582571532046942,-1.0074864529734213,-0.41772611796235026,-0.5075585600764801
0.09637948870658875,-1.1810792684555054,-4.838043212890625,-0.7582571532046942,-1.0074864529734213,-0.41772611796235026,-0.5075585600764801
-0.2993181645870209,-1.287989616394043,-4.335517406463623,-0.7582571532046942,-1.0074864529734213,-0.41772611796235026,-0.5075585600764801
0.06627153605222702,-1.6624599695205688,-4.167629718780518,-0.7582571532046942,-1.0074864529734213,-0.41772611796235026,-0.5075585600764801
0.8144012093544006,-0.2299107164144516,-4.256682395935059,-0.7582571532046942,-1.0074864529734213,-0.41772611796235026,-0.5075585600764801
0.6770646572113037,0.5611547827720642,-4.376245498657227,-0.7582571532046942,-1.0074864529734213,-0.41772611796235026,-0.5075585600764801
0.07486141473054886,-0.29241979122161865,-4.304041385650635,-0.7582571532046942,-1.0074864529734213,-0.41772611796235026,-0.5075585600764801
0.12905582785606384,-0.09119196981191635,-4.267506122589111,-0.7582571532046942,-1.0074864529734213,-0.41772611796235026,-0.5075585600764801
-0.02563735470175743,0.012543215416371822,-4.317742347717285,-0.7582571532046942,-1.0074864529734213,-0.41772611796235026,-0.5075585600764801
-0.030322780832648277,-0.021636316552758217,-4.307847023010254,-0.7582571532046942,-1.0074864529734213,-0.41772611796235026,-0.5075585600764801
0.045993831008672714,-0.11032062023878098,-4.294824600219727,-0.7582571532046942,-1.0074864529734213,-0.41772611796235026,-0.5075585600764801
0.22906702756881714,0.117878258228302,-4.314586162567139,-0.7582571532046942,-1.0074864529734213,-0.41772611796235026,-0.5075585600764801
0.3134405314922333,-0.22422657907009125,-4.304486274719238,-0.7582571532046942,-1.0074864529734213,-0.41772611796235026,-0.5075585600764801
0.24539346992969513,0.09482888877391815,-4.304623126983643,-0.7582571532046942,-1.0074864529734213,-0.41772611796235026,-0.5075585600764801
0.1127835288643837,-0.08499803394079208,-4.306407451629639,-0.7582571532046942,-1.0074864529734213,-0.41772611796235026,-0.5075585600764801
0.09433142095804214,-0.05987934395670891,-4.304551124572754,-0.7582571532046942,-1.0074864529734213,-0.41772611796235026,-0.5075585600764801
0.13625244796276093,-0.0073455017991364,-4.30483865737915,-0.7582571532046942,-1.0074864529734213,-0.41772611796235026,-0.5075585600764801
0.20403259992599487,-0.07958856225013733,-4.308315277099609,-0.7582571532046942,-1.0074864529734213,-0.41772611796235026,-0.5075585600764801
0.21062427759170532,-0.010676421225070953,-4.305515766143799,-0.7582571532046942,-1.0074864529734213,-0.41772611796235026,-0.5075585600764801
0.15293151140213013,-0.05104486644268036,-4.306655406951904,-0.7582571532046942,-1.0074864529734213,-0.41772611796235026,-0.5075585600764801
0.14153753221035004,-0.05088714882731438,-4.306739330291748,-0.7582571532046942,-1.0074864529734213,-0.41772611796235026,-0.5075585600764801
0.145051047205925,-0.053309012204408646,-4.305196762084961,-0.7582571532046942,-1.0074864529734213,-0.41772611796235026,-0.5075585600764801
0.1760507971048355,-0.03908227011561394,-4.306395053863525,-0.7582571532046942,-1.0074864529734213,-0.41772611796235026,-0.5075585600764801
0.1898842751979828,-0.06390883773565292,-4.305436611175537,-0.7582571532046942,-1.0074864529734213,-0.41772611796235026,-0.5075585600764801
0.16481024026870728,-0.04118191450834274,-4.307066917419434,-0.7582571532046942,-1.0074864529734213,-0.41772611796235026,-0.5075585600764801
0.1444416642189026,-0.038559284061193466,-4.306832313537598,-0.7582571532046942,-1.0074864529734213,-0.41772611796235026,-0.5075585600764801
0.1460016369819641,-0.051014285534620285,-4.307538986206055,-0.7651990854970389,-1.015951982694807,-0.4153057571190097,-0.5083050064897786
0.17502327263355255,-0.052263807505369186,-4.307032585144043,-0.772098554719188,-1.0244309048927642,-0.4126305495388804,-0.5091656572651119
0.37343916296958923,-0.10862555354833603,-4.308859348297119,-0.7789376428756969,-1.0329281720528114,-0.40806002924218754,-0.5105064019405594
1.384096622467041,-0.33065974712371826,-4.389430046081543,-0.7856165922668558,-1.0414671180088118,-0.3934138976968823,-0.5141671127794932
2.4811880588531494,-0.061101675033569336,-4.52922248840332,-0.7919050680144899,-1.0500637755427864,-0.361203192019214,-0.5174317912974706
2.492733955383301,-0.2523285150527954,-4.440677165985107,-0.7975797099638214,-1.0587094047165002,-0.31975384190057693,-0.5200437095481903
1.2421878576278687,0,-4.369747161865234,-0.8026495710918163,-1.067394322689182,-0.28862949345881717,-0.5221464471736303
1.3414777517318726,-0.1223079264163971,-4.341846466064453,-0.8072806414265911,-1.0761052570814102,-0.2670989467141527,-0.5231656798937669
1.1404160261154175,-0.2306860238313675,-4.248244762420654,-0.8115599368039209,-1.084849198548407,-0.24641649856542527,-0.5261072961458316
2.0802953243255615,0.3224855959415436,-4.20452356338501,-0.8154432179362308,-1.0936112785138854,-0.21957723731175044,-0.5253422997115802
0.570568323135376,-0.5875748991966248,-4.1500396728515625,-0.8154432179362308,-1.0936112785138854,-0.21957723731175044,-0.5253422997115802
0.9788147807121277,-0.08544538170099258,-4.093325614929199,-0.818995242509215,-1.1024137210285851,-0.20666571144635457,-0.5309508020523936
-1.0025192499160767,0.34256646037101746,-4.080474376678467,-0.8224413171770156,-1.1112450454323286,-0.2068632486897208,-0.5288081263968101
-0.9251888394355774,0,-4.17660665512085,-0.8260229066058271,-1.120034724868083,-0.22292748276765126,-0.5259534058937183
0.22248581051826477,-0.8116470575332642,-4.2221455574035645,-0.8297871634734072,-1.1288569793453072,-0.2287833413419622,-0.5327171313731621
1.1720798015594482,0.5915535688400269,-4.24704647064209,-0.8335033743282678,-1.1377508824715747,-0.2171619612413146,-0.5345512437789391
2.464128255844116,0,-4.410898208618164,-0.8368702259005256,-1.1466189897589432,-0.18686022742961822,-0.5296216307052722
2.054901123046875,-0.3009968101978302,-4.47688102722168,-0.8396707415397073,-1.155466919493628,-0.1492016492721933,-0.5321299374569208
0.2126658707857132,0.9848326444625854,-4.413620471954346,-0.8419999657641166,-1.164288263184975,-0.13030525765692172,-0.5264313055047145
0.5961258411407471,-1.015048623085022,-4.422117233276367,-0.8441155539672927,-1.173064216608569,-0.12356532672420122,-0.5266831053265681
1.4988688230514526,0.31816479563713074,-4.523282051086426,-0.8460294903387938,-1.1818906630742512,-0.10610703785593288,-0.5324904705553005
0.41347625851631165,-0.32554277777671814,-4.6527910232543945,-0.8476651392279505,-1.1907660166100436,-0.09017082884286817,-0.5325519537397971
1.8091917037963867,-0.5858736038208008,-4.733312606811523,-0.8476651392279505,-1.1907660166100436,-0.09017082884286817,-0.5325519537397971
0.2434803694486618,0.5324131846427917,-4.812562942504883,-0.8490254397035785,-1.1996455950348164,-0.07306522823249277,-0.5329974572329472
0.6386603116989136,-0.9493253231048584,-4.945558071136475,-0.8501819337379292,-1.2085578382205364,-0.0657140558895963,-0.5364717250534644
-1.8421151638031006,0.23037268221378326,-4.9051079750061035,-0.8513607412563741,-1.2175489609048227,-0.07574284632379787,-0.5424629970608901
-1.808149814605713,0.0541452020406723,-4.918917179107666,-0.8528766126519379,-1.2265702526694309,-0.10616172114387132,-0.540092014692103
0.748607873916626,0.11077003180980682,-5.006831645965576,-0.8547195539724391,-1.2355603338008374,-0.11499123731628037,-0.5387177210766824
0.21779769659042358,-0.571852445602417,-5.269970417022705,-0.8565689630964253,-1.2445709820975177,-0.10693785756205496,-0.5425600745249541
2.7181854248046875,-1.1034854650497437,-5.580502510070801,-0.858147373005696,-1.253729992916729,-0.08247133155042903,-0.5565212237803888
1.4432066679000854,1.2188574075698853,-5.684480667114258,-0.8592329096362098,-1.2629973347059493,-0.04779306411122259,-0.5555597909260543
0.39002469182014465,0.6539570093154907,-5.648008823394775,-0.8599021529714163,-1.2721266079979887,-0.03251613611355401,-0.5399530041186762
0.3002829849720001,0,-5.512853145599365,-0.8603961505401982,-1.2810804110520975,-0.026763572140286136,-0.5345033623743805
0.28311142325401306,-1.4339380264282227,-5.420241832733154,-0.8608016965752985,-1.290088379454617,-0.021901952071736026,-0.546452845927949
-0.12046406418085098,0.3599609434604645,-5.430723667144775,-0.8608016965752985,-1.290088379454617,-0.021901952071736026,-0.546452845927949
0.2450512796640396,0,-5.5341267585754395,-0.8611580772198633,-1.299170929599009,-0.020863725276042785,-0.5434531713991118
0.3741384744644165,-0.36514198780059814,-5.660497665405273,-0.8614628066859829,-1.3082538395381471,-0.01570381065830565,-0.5464960212974501
0.94809490442276,0,-5.76507568359375,-0.8616327151011985,-1.3173874636422573,-0.004685199167579181,-0.5495388711957885
0,0,-5.772740840911865,-0.8616449618300733,-1.3265464448288538,0.0032155917026104857,-0.5495388711957885
1.0726920366287231,-0.11999428272247314,-5.753245830535889,-0.8615168761324862,-1.3357137589517505,0.012154692007849846,-0.550538823551809
0.4122880697250366,-0.07036775350570679,-5.683650016784668,-0.8612111743138585,-1.3449026255967964,0.02452952622746451,-0.5521251738537105
0.3444684147834778,0.24348409473896027,-5.666562557220459,-0.8607497963430877,-1.3540926898595504,0.03083583026503546,-0.5506825376767668
-0.3545837998390198,-0.6339977383613586,-5.670730113983154,-0.860236568295966,-1.3632978511571925,0.03075153538957261,-0.5539368180402867
0.6067854762077332,-0.14858928322792053,-5.815831661224365,-0.8597065287008364,-1.3725844777788077,0.03285321602597856,-0.5604583765535307
1.0477341413497925,-0.06993173062801361,-5.929438591003418,-0.8590440779047397,-1.3819406257917732,0.04664087950562461,-0.5622793850023301
0,0,-5.988476276397705,-0.8581939705976077,-1.391316805245328,0.05537199735020621,-0.5628621494242302
0.3608681559562683,-0.22351518273353577,-6.0708794593811035,-0.8581939705976077,-1.391316805245328,0.05537199735020621,-0.5628621494242302
0.11793539673089981,-0.6371498703956604,-6.120983600616455,-0.8572378537283899,-1.4007576094755325,0.05936202695593261,-0.5700343582003068
-0.6706801652908325,0.28178679943084717,-6.075551986694336,-0.85628687166583,-1.4102828601032436,0.0547558205512665,-0.5729957171250135
-1.0964467525482178,0.3548792600631714,-6.078182220458984,-0.8554969918037143,-1.4197885758011957,0.04002976290260775,-0.56769016662923
-0.6411982178688049,0.4714369773864746,-6.119572162628174,-0.8549504988782831,-1.4291926955063043,0.02554938814913256,-0.5608041979838163
1.4249130487442017,-0.585239589214325,-6.175815582275391,-0.8544702511014313,-1.4385473350985227,0.0320803450730942,-0.5617525530823817
1.0159046649932861,-0.41838088631629944,-6.280346393585205,-0.8537660774534257,-1.447979573516252,0.05242049268757326,-0.5701160570451369
0.7854989171028137,0.9460694193840027,-6.299275875091553,-0.8527673051043205,-1.457444862763319,0.06743218920504077,-0.565718652602906
0.996458888053894,0.24821004271507263,-6.239532947540283,-0.8515196882144339,-1.4667905708996105,0.08228183758134666,-0.5557663237520803
-0.24163731932640076,-0.37943750619888306,-6.247769832611084,-0.8500959060902499,-1.4760624559804427,0.08857201732074244,-0.5568598859477788
0,-0.4532150328159332,-6.357478618621826,-0.8486364861709685,-1.4854012771725595,0.08655837299302242,-0.5637986571062356
0.14103001356124878,-1.1649298667907715,-6.55666446685791,-0.8471840528701431,-1.4949102926312472,0.08773362310603283,-0.5772831979362915
-0.41665157675743103,0.0894550010561943,-6.628840923309326,-0.8471840528701431,-1.4949102926312472,0.08773362310603283,-0.5772831979362915
1.0495942831039429,0.4823645353317261,-6.659027099609375,-0.8456778714637685,-1.5044919695734917,0.09300814565892043,-0.5725180351330588
0.7461962103843689,1.838801622390747,-6.7751922607421875,-0.8440030280296276,-1.513872744731423,0.10797306643798969,-0.5531749838187048
-0.7623992562294006,-0.2723039984703064,-6.743768692016602,-0.8422046021338447,-1.5229835432378516,0.10783804105594776,-0.5401208369527011
-0.46414634585380554,-0.5999116897583008,-6.614610195159912,-0.8404924782275014,-1.532046127720968,0.09761682770525437,-0.5473893010212728
-0.584602415561676,-1.4957393407821655,-6.624808311462402,-0.8389383608741788,-1.5413148140595545,0.0888772546934587,-0.56485305960911
-0.3220268487930298,0.3513847291469574,-6.659646987915039,-0.8375200336615347,-1.5508085007899588,0.08132201082383615,-0.5743893480394034
0.34570932388305664,-0.30435770750045776,-6.656192302703857,-0.8361630221981451,-1.5603783908252233,0.08151936478291971,-0.5739974561923493
1.2825257778167725,-0.43730175495147705,-6.746954917907715,-0.8346912942363672,-1.5699965192244327,0.09508799063041828,-0.5801779517127821
1.2623344659805298,0.5827659964561462,-6.931267738342285,-0.8329297679867077,-1.5796560500695414,0.11629515932872914,-0.5789657497002432
0.8305227160453796,-0.3144848346710205,-7.021877765655518,-0.8308461780269215,-1.589286848594977,0.1337356358456117,-0.5767300733520337
-0.7059977650642395,-0.25155842304229736,-6.951066017150879,-0.8286086031967876,-1.598938325043741,0.13477334377045455,-0.5814471004996448
0.19481131434440613,-0.08475232869386673,-6.863074779510498,-0.8286086031967876,-1.598938325043741,0.13477334377045455,-0.5814471004996448
0.8473665714263916,0,-6.885100364685059,-0.8262900073363237,-1.60863499563045,0.1434581594852112,-0.582153369905427
0.5809853672981262,-0.35858920216560364,-6.931614875793457,-0.8237998469047143,-1.6183624538234687,0.15536109230791553,-0.585141613256807
-1.0111277103424072,0.24490298330783844,-7.071989059448242,-0.8212403663622938,-1.628122708920725,0.15177657278254653,-0.5860889984139551
-1.4493145942687988,-0.07839721441268921,-7.271729469299316,-0.8188816208648494,-1.6378792959936732,0.13127288691078648,-0.5847014503398289
-2.3475167751312256,-0.24633823335170746,-7.443193435668945,-0.8169574082614335,-1.647646871238765,0.09963262549911961,-0.5874075790711989
0.3641640543937683,0.12266695499420166,-7.510987281799316,-0.8154345973309438,-1.6574455858398376,0.0831046861596408,-0.5884381730575114
1.0965685844421387,-0.4014779329299927,-7.49315881729126,-0.8139480794616973,-1.6672722505975972,0.09527745814994003,-0.590761597873643
1.9651272296905518,-0.8113577365875244,-7.423499584197998,-0.8121475040609947,-1.6772025019280967,0.1207915899343791,-0.600868561786289
1.618504524230957,0.7187491059303284,-7.345012187957764,-0.8098854475791771,-1.687223409112775,0.150655187883725,-0.601640300375099
0.2585747539997101,0.7525535225868225,-7.211239337921143,-0.8072441750534601,-1.6971485736587129,0.1662975152023139,-0.589379445137456
-0.7688117623329163,-0.1630353182554245,-7.155670642852783,-0.8072441750534601,-1.6971485736587129,0.1662975152023139,-0.589379445137456
0.1228829100728035,0,-7.211585521697998,-0.8045174059703841,-1.706982886308105,0.16091477476681296,-0.5907380727895846
0.4349929988384247,0.05685411021113396,-7.3137922286987305,-0.8017967516750406,-1.7168245726525,0.16556374067440652,-0.5902642885378251
-0.33884039521217346,0,-7.348341941833496,-0.7990306787329932,-1.726658362592699,0.16636501237129195,-0.5897905042860656
-0.06847913563251495,-0.6060466766357422,-7.42069149017334,-0.7962862146053359,-1.7365302909055664,0.1629706829475862,-0.5948408932580301
0,-0.3722931146621704,-7.579823017120361,-0.7935747920517395,-1.7465122460564848,0.16240002348398191,-0.6029937248521794
0.7146320939064026,-0.9715697765350342,-7.833998203277588,-0.7908184977649296,-1.7566554652825765,0.16835529093320192,-0.6141925822788228
-0.059640973806381226,0.6284428834915161,-7.841315746307373,-0.7879670907549249,-1.7669158365770183,0.17381355026736878,-0.6170519730541855
1.6298675537109375,0.8406203985214233,-7.849440574645996,-0.7849611547379753,-1.7770980178444482,0.1868987717665734,-0.604809779037411
0.8316423892974854,0.4498929977416992,-7.862430572509766,-0.7816752370180458,-1.7870885618425534,0.20741135462497692,-0.5940555007352183
0.3536283075809479,-0.6191614270210266,-7.790709495544434,-0.7781360706425685,-1.7970012416068404,0.2172886104322972,-0.5954660709792127
-0.33314600586891174,-0.39042574167251587,-7.699371814727783,-0.7781360706425685,-1.7970012416068404,0.2172886104322972,-0.5954660709792127
-0.3335309624671936,0,-7.663439750671387,-0.7745608908137203,-1.806952789021888,0.21173296902949632,-0.5987196188264836
-0.26954567432403564,-0.6129492521286011,-7.730166435241699,-0.7710738883185614,-1.8169740152559495,0.2067073303895694,-0.6038275292608887
-0.6905623078346252,-0.3569857180118561,-7.8302321434021,-0.7676954403108296,-1.8271051640054463,0.19870643053824721,-0.6119103206787259
0.22800390422344208,0.7171549797058105,-7.944451808929443,-0.7644157885798873,-1.8372786575958076,0.1948517771748207,-0.6089089101646096
0,-0.7035802006721497,-7.991477012634277,-0.761152425355847,-1.8474261967388959,0.19675180971001605,-0.6087957870059957
-0.06000734120607376,-0.32074207067489624,-7.997995376586914,-0.7578773957038194,-1.8576439266800615,0.19625174853329877,-0.6173318059338877
1.1487138271331787,-0.1003909781575203,-8.00363540649414,-0.7545309286111862,-1.8679620354629063,0.2053243025826913,-0.6208412480074912
1.0675907135009766,0.6345751285552979,-7.9467597007751465,-0.7509549468639306,-1.878272293474809,0.22379350708797593,-0.616389713420843
0.31683245301246643,-0.14991416037082672,-7.821455478668213,-0.7471289145814565,-1.888511798353477,0.2353303668089213,-0.6123508720193058
-0.7813466191291809,-1.0776333808898926,-7.918463706970215,-0.7432389997295104,-1.8988028925774973,0.23145941542461534,-0.6225804348631452
-0.10581035912036896,0.19050352275371552,-8.198220252990723,-0.7432389997295104,-1.8988028925774973,0.23145941542461534,-0.6225804348631452
0.005498664919286966,0.26240989565849304,-8.363252639770508,-0.7432389997295104,-1.8988028925774973,0.23145941542461534,-0.6225804348631452
-0.041696202009916306,-0.03927461802959442,-8.356431007385254,-0.7432389997295104,-1.8988028925774973,0.23145941542461534,-0.6225804348631452
-1.5530798435211182,-0.5151156187057495,-8.203516960144043,-0.7432389997295104,-1.8988028925774973,0.23145941542461534,-0.6225804348631452
-2.9536235332489014,0.6750732660293579,-7.994565963745117,-0.7432389997295104,-1.8988028925774973,0.23145941542461534,-0.6225804348631452
-1.666429877281189,-0.17167235910892487,-7.553645610809326,-0.7432389997295104,-1.8988028925774973,0.23145941542461534,-0.6225804348631452
-1.0815305709838867,0.03748692572116852,-6.923298358917236,-0.7432389997295104,-1.8988028925774973,0.23145941542461534,-0.6225804348631452
0.2533334791660309,1.8897135257720947,-6.166130065917969,-0.7432389997295104,-1.8988028925774973,0.23145941542461534,-0.6225804348631452
-1.0436891317367554,0.5151052474975586,-5.309685230255127,-0.7432389997295104,-1.8988028925774973,0.23145941542461534,-0.6225804348631452
-1.4162436723709106,1.6986174583435059,-4.51769495010376,-0.7432389997295104,-1.8988028925774973,0.23145941542461534,-0.6225804348631452
-0.5259125232696533,0.6720279455184937,-3.721287727355957,-0.7432389997295104,-1.8988028925774973,0.23145941542461534,-0.6225804348631452
-1.7105993032455444,0.33747598528862,-2.8966727256774902,-0.7432389997295104,-1.8988028925774973,0.23145941542461534,-0.6225804348631452
-0.12249595671892166,0.4216146469116211,-2.059492826461792,-0.7432389997295104,-1.8988028925774973,0.23145941542461534,-0.6225804348631452
-1.2799991369247437,-0.35471317172050476,-1.1675958633422852,-0.7432389997295104,-1.8988028925774973,0.23145941542461534,-0.6225804348631452
-1.6383423805236816,-0.22869503498077393,-0.27290257811546326,-0.7432389997295104,-1.8988028925774973,0.23145941542461534,-0.6225804348631452
-0.921183705329895,0.2917262017726898,0.6218098998069763,-0.7432389997295104,-1.8988028925774973,0.23145941542461534,-0.6225804348631452
0.5721931457519531,0.7995063066482544,1.5701367855072021,-0.7432389997295104,-1.8988028925774973,0.23145941542461534,-0.6225804348631452
-0.6010515093803406,-0.11548766493797302,2.5919625759124756,-0.7432389997295104,-1.8988028925774973,0.23145941542461534,-0.6225804348631452
-0.8341689705848694,-0.3617769479751587,3.6386172771453857,-0.7432389997295104,-1.8988028925774973,0.23145941542461534,-0.6225804348631452
0.20291882753372192,0.028252940624952316,4.6868577003479,-0.7432389997295104,-1.8988028925774973,0.23145941542461534,-0.6225804348631452
-0.559281051158905,0.5372671484947205,5.827962398529053,-0.7432389997295104,-1.8988028925774973,0.23145941542461534,-0.6225804348631452
-0.6040664315223694,0.5674775838851929,6.929014205932617,-0.7432389997295104,-1.8988028925774973,0.23145941542461534,-0.6225804348631452
-0.8133655190467834,-0.1421787440776825,7.994649410247803,-0.7432389997295104,-1.8988028925774973,0.23145941542461534,-0.6225804348631452
-0.49394044280052185,0.341249018907547,9.140969276428223,-0.7432389997295104,-1.8988028925774973,0.23145941542461534,-0.6225804348631452
-0.19736996293067932,0.2546442747116089,10.384103775024414,-0.7432389997295104,-1.8988028925774973,0.23145941542461534,-0.6225804348631452
-0.7951161861419678,-0.31186386942863464,11.661377906799316,-0.7432389997295104,-1.8988028925774973,0.23145941542461534,-0.6225804348631452
-0.6093900203704834,-0.13915947079658508,12.949397087097168,-0.7432389997295104,-1.8988028925774973,0.23145941542461534,-0.6225804348631452
-0.6264433264732361,0.18539823591709137,14.23081111907959,-0.7432389997295104,-1.8988028925774973,0.23145941542461534,-0.6225804348631452
0.04859708622097969,0.46315160393714905,15.592317581176758,-0.7432389997295104,-1.8988028925774973,0.23145941542461534,-0.6225804348631452
-0.46476179361343384,-0.4838930368423462,17.060091018676758,-0.7432389997295104,-1.8988028925774973,0.23145941542461534,-0.6225804348631452
-0.011757095344364643,0.7377038598060608,18.57143211364746,-0.7432389997295104,-1.8988028925774973,0.23145941542461534,-0.6225804348631452
-0.7737353444099426,-0.2191241979598999,20.082529067993164,-0.7432389997295104,-1.8988028925774973,0.23145941542461534,-0.6225804348631452
0.5109900236129761,1.161965012550354,21.67720603942871,-0.7432389997295104,-1.8988028925774973,0.23145941542461534,-0.6225804348631452
0.06930974125862122,-2.8188698291778564,23.287261962890625,-0.7432389997295104,-1.8988028925774973,0.23145941542461534,-0.6225804348631452
0.2866192162036896,1.5615458488464355,24.940610885620117,-0.7432389997295104,-1.8988028925774973,0.23145941542461534,-0.6225804348631452
0.6488308906555176,-0.3916657269001007,26.46868324279785,-0.7432389997295104,-1.8988028925774973,0.23145941542461534,-0.6225804348631452
-0.28933095932006836,-2.274226427078247,28.052236557006836,-0.7432389997295104,-1.8988028925774973,0.23145941542461534,-0.6225804348631452
0.003460224950686097,1.0078909397125244,29.60786247253418,-0.7432389997295104,-1.8988028925774973,0.23145941542461534,-0.6225804348631452
-0.0632810890674591,-1.6797306537628174,31.19147300720215,-0.7432389997295104,-1.8988028925774973,0.23145941542461534,-0.6225804348631452
-0.21698035299777985,1.128312110900879,32.87102508544922,-0.7432389997295104,-1.8988028925774973,0.23145941542461534,-0.6225804348631452
0.15324853360652924,-1.0377928018569946,34.577938079833984,-0.7432389997295104,-1.8988028925774973,0.23145941542461534,-0.6225804348631452
-0.16499453783035278,-0.04810883104801178,36.29598617553711,-0.7432389997295104,-1.8988028925774973,0.23145941542461534,-0.6225804348631452
0.21727000176906586,-1.2312207221984863,37.95572280883789,-0.7432389997295104,-1.8988028925774973,0.23145941542461534,-0.6225804348631452
-0.051063574850559235,0.24181990325450897,39.59247589111328,-0.7432389997295104,-1.8988028925774973,0.23145941542461534,-0.6225804348631452
-0.06852348148822784,0.3752618432044983,41.20747375488281,-0.7432389997295104,-1.8988028925774973,0.23145941542461534,-0.6225804348631452
0.18341372907161713,-0.8993502259254456,42.880958557128906,-0.7432389997295104,-1.8988028925774973,0.23145941542461534,-0.6225804348631452
0.3097320795059204,-0.014933871105313301,44.5136604309082,-0.7432389997295104,-1.8988028925774973,0.23145941542461534,-0.6225804348631452
-0.2423405945301056,-0.3459329307079315,46.165592193603516,-0.7432389997295104,-1.8988028925774973,0.23145941542461534,-0.6225804348631452
-0.11449027061462402,0.8404141664505005,47.74314880371094,-0.7432389997295104,-1.8988028925774973,0.23145941542461534,-0.6225804348631452
0.050306521356105804,-0.22129103541374207,49.383121490478516,-0.7432389997295104,-1.8988028925774973,0.23145941542461534,-0.6225804348631452
0.08668886125087738,0.03241251781582832,51.02964401245117,-0.7432389997295104,-1.8988028925774973,0.23145941542461534,-0.6225804348631452
-0.8047250509262085,0.06300477683544159,52.65857696533203,-0.7432389997295104,-1.8988028925774973,0.23145941542461534,-0.6225804348631452
0.6389198303222656,-0.6448805928230286,54.299495697021484,-0.7432389997295104,-1.8988028925774973,0.23145941542461534,-0.6225804348631452
-0.1897890269756317,0.8004783987998962,55.920249938964844,-0.7432389997295104,-1.8988028925774973,0.23145941542461534,-0.6225804348631452
-0.005648867227137089,0.9356591105461121,57.50177764892578,-0.7432389997295104,-1.8988028925774973,0.23145941542461534,-0.6225804348631452
-0.29190507531166077,-0.5408846735954285,59.0576286315918,-0.7432389997295104,-1.8988028925774973,0.23145941542461534,-0.6225804348631452
0.2949216365814209,-0.15843282639980316,60.66840362548828,-0.7432389997295104,-1.8988028925774973,0.23145941542461534,-0.6225804348631452
-0.631891131401062,0.6962842345237732,62.30110168457031,-0.7432389997295104,-1.8988028925774973,0.23145941542461534,-0.6225804348631452
-0.08905628323554993,-0.40912213921546936,64.02819061279297,-0.7432389997295104,-1.8988028925774973,0.23145941542461534,-0.6225804348631452
0.5081804394721985,-0.42635074257850647,65.71446990966797,-0.7432389997295104,-1.8988028925774973,0.23145941542461534,-0.6225804348631452
-0.6014279127120972,0.7078917026519775,67.51476287841797,-0.7432389997295104,-1.8988028925774973,0.23145941542461534,-0.6225804348631452
-0.2451901137828827,0.43514129519462585,69.3492431640625,-0.7432389997295104,-1.8988028925774973,0.23145941542461534,-0.6225804348631452
-0.919761061668396,0.48233503103256226,71.14676666259766,-0.7432389997295104,-1.8988028925774973,0.23145941542461534,-0.6225804348631452
0.45710790157318115,-0.3189504146575928,72.97796630859375,-0.7432389997295104,-1.8988028925774973,0.23145941542461534,-0.6225804348631452
-0.04207167774438858,-0.6335768103599548,74.87960052490234,-0.7432389997295104,-1.8988028925774973,0.23145941542461534,-0.6225804348631452
0.3907288610935211,-0.14798811078071594,76.71603393554688,-0.7432389997295104,-1.8988028925774973,0.23145941542461534,-0.6225804348631452
0.45954766869544983,-0.423076868057251,78.21366882324219,-0.7432389997295104,-1.8988028925774973,0.23145941542461534,-0.6225804348631452
1.8305201530456543,-0.3136831521987915,79.32888793945312,-0.7432389997295104,-1.8988028925774973,0.23145941542461534,-0.6225804348631452
1.1970022916793823,-0.5744316577911377,80.0680160522461,-0.7432389997295104,-1.8988028925774973,0.23145941542461534,-0.6225804348631452
1.3050264120101929,-0.22166776657104492,80.42129516601562,-0.7432389997295104,-1.8988028925774973,0.23145941542461534,-0.6225804348631452
1.3008896112442017,-0.1657809168100357,80.4275894165039,-0.7432389997295104,-1.8988028925774973,0.23145941542461534,-0.6225804348631452
-0.21736711263656616,0.9968074560165405,80.33274841308594,-0.7432389997295104,-1.8988028925774973,0.23145941542461534,-0.6225804348631452
0.11487822979688644,0.5343005657196045,80.37800598144531,-0.7432389997295104,-1.8988028925774973,0.23145941542461534,-0.6225804348631452
0.12000518292188644,0.10236691683530807,80.36370849609375,-0.7432389997295104,-1.8988028925774973,0.23145941542461534,-0.6225804348631452
0.1463812291622162,-0.28814661502838135,80.36663818359375,-0.7432389997295104,-1.8988028925774973,0.23145941542461534,-0.6225804348631452
0.02534438483417034,-0.23415571451187134,80.37283325195312,-0.7432389997295104,-1.8988028925774973,0.23145941542461534,-0.6225804348631452
0.10937464237213135,0.08107981830835342,80.3600845336914,-0.7432389997295104,-1.8988028925774973,0.23145941542461534,-0.6225804348631452
0.20694339275360107,0.34646210074424744,80.36424255371094,-0.7432389997295104,-1.8988028925774973,0.23145941542461534,-0.6225804348631452
0.08417858183383942,0.2599422037601471,80.36324310302734,-0.7432389997295104,-1.8988028925774973,0.23145941542461534,-0.6225804348631452
0.1440349966287613,-0.02563992515206337,80.3647689819336,-0.7432389997295104,-1.8988028925774973,0.23145941542461534,-0.6225804348631452
0.06574242562055588,-0.08812660723924637,80.3648452758789,-0.7432389997295104,-1.8988028925774973,0.23145941542461534,-0.6225804348631452
0.11361284554004669,0.05346370488405228,80.36241149902344,-0.7432389997295104,-1.8988028925774973,0.23145941542461534,-0.6225804348631452
0.1434011459350586,0.20858125388622284,80.3629150390625,-0.7432389997295104,-1.8988028925774973,0.23145941542461534,-0.6225804348631452
0.1298653930425644,0.1574493646621704,80.36293029785156,-0.7432389997295104,-1.8988028925774973,0.23145941542461534,-0.6225804348631452
0.1085621565580368,0.032078132033348083,80.36497497558594,-0.7432389997295104,-1.8988028925774973,0.23145941542461534,-0.6225804348631452
0.1118054911494255,0.004200716502964497,80.36483001708984,-0.7432389997295104,-1.8988028925774973,0.23145941542461534,-0.6225804348631452
0.11921795457601547,0.09153417497873306,80.36528778076172,-0.7432389997295104,-1.8988028925774973,0.23145941542461534,-0.6225804348631452
0.12504182755947113,0.15143132209777832,80.36422729492188,-0.7432389997295104,-1.8988028925774973,0.23145941542461534,-0.6225804348631452
0.1147657185792923,0.1070508137345314,80.3654556274414,-0.7432389997295104,-1.8988028925774973,0.23145941542461534,-0.6225804348631452
0.10206575691699982,0.05276327207684517,80.36673736572266,-0.7432389997295104,-1.8988028925774973,0.23145941542461534,-0.6225804348631452
0.12167108058929443,0.06154387444257736,80.36600494384766,-0.7432389997295104,-1.8988028925774973,0.23145941542461534,-0.6225804348631452
0.12219653278589249,0.1157122254371643,80.36593627929688,-0.7432389997295104,-1.8988028925774973,0.23145941542461534,-0.6225804348631452
0.11400652676820755,0.10085877031087875,80.3656234741211,-0.7432389997295104,-1.8988028925774973,0.23145941542461534,-0.6225804348631452
0.11235026270151138,0.07191288471221924,80.36538696289062,-0.7393656235842758,-1.9091672351269509,0.23334572200352968,-0.621140671071286
0.12537026405334473,0.062455225735902786,80.36458587646484,-0.7354600198476368,-1.9195102485260245,0.2353267263931535,-0.6200209368175517
0.15336129069328308,0.23213975131511688,80.36111450195312,-0.7315185513831157,-1.9298234728217996,0.23764948934937538,-0.6175659786754598
0.22232016921043396,0.9141066074371338,80.36431884765625,-0.727531637570355,-1.9400366386914771,0.24078016818190637,-0.6080139256858578
1.2790254354476929,2.143819570541382,80.3614273071289,-0.7234143746558886,-1.9499578481349928,0.25329138155405745,-0.5825312075360368
-0.3076944649219513,2.014070510864258,80.34905242919922,-0.7191253980903678,-1.9593779592271625,0.2613858063084386,-0.5478821235243232
0.14216893911361694,1.6297045946121216,80.38329315185547,-0.7147804628134082,-1.9682562880146877,0.2600064269267025,-0.5175173309786867
0.4968494772911072,1.3207499980926514,80.45388793945312,-0.7104026460857129,-1.9766766841842836,0.2653315803967419,-0.49293020937281357
0.6493253111839294,1.0062158107757568,80.4184341430664,-0.7059008576076786,-1.9847305928259924,0.27488303696736716,-0.4735388276322435
0.2583872973918915,1.2271100282669067,80.32779693603516,-0.7012564380604047,-1.9924678145477075,0.282447308705499,-0.45492777897355463
0.5160402655601501,1.9828613996505737,80.33199310302734,-0.7012564380604047,-1.9924678145477075,0.282447308705499,-0.45492777897355463
-0.25966551899909973,1.5014941692352295,80.27731323242188,-0.6965311791134685,-1.9998079750605386,0.28458376492684107,-0.42589148256617293
-0.09710679948329926,-0.44145944714546204,80.1056900024414,-0.691812892220138,-2.006832552914274,0.28161066227282106,-0.41705785988209154
-0.5157111883163452,-0.46809151768684387,80.12501525878906,-0.6871619379869659,-2.013846680507089,0.276503845707824,-0.4246374512556941
-0.3893611431121826,-1.0898956060409546,80.06237030029297,-0.6826163928037403,-2.021032164911609,0.26896157627925293,-0.4376206772867591
0.9300061464309692,0.8371323347091675,79.98043823242188,-0.6780961550738557,-2.028343395871342,0.2734669513069095,-0.4397270378811906
0.26181164383888245,1.5071996450424194,79.85553741455078,-0.6734556074277496,-2.0355093790041012,0.28339876622582494,-0.4201909380499274
0.22809696197509766,2.2774877548217773,79.6290283203125,-0.6686982732263599,-2.042249735791054,0.28748133794094144,-0.3886518763843924
0.21584263443946838,2.148190498352051,79.6039810180664,-0.6638760884553709,-2.0484199282965454,0.2911808345777295,-0.3517712242746105
0.6165886521339417,-0.5364559888839722,79.62368774414062,-0.6589652668175079,-2.0541708560268535,0.2981177619658412,-0.3383401033623765
0.8750362396240234,0.9334149360656738,79.56686401367188,-0.6538930523894829,-2.0597822911560053,0.3105479693971576,-0.3350321121358623
0.2396618276834488,0.4815827012062073,79.44035339355469,-0.6486398433115228,-2.0652678959667923,0.3198371199580532,-0.3232404651585966
0.5913712382316589,1.1722016334533691,79.26396179199219,-0.6432515140159778,-2.0705403909184175,0.32676239550734576,-0.30945892903643346
-0.09877149760723114,-0.08990734815597534,79.20064544677734,-0.6377712657755342,-2.0756228804103234,0.33086739334588267,-0.30043980999228853
-0.3572008013725281,1.0070977210998535,79.29867553710938,-0.6377712657755342,-2.0756228804103234,0.33086739334588267,-0.30043980999228853
0.48508575558662415,0.7419780492782593,79.30770874023438,-0.6322479283201713,-2.0805087469816965,0.3319331012976668,-0.28586417857247093
-1.0112580060958862,-0.5005401372909546,79.24319458007812,-0.6267522497048289,-2.0852563834362385,0.3275483325434229,-0.2838521959725767
0.2718709111213684,-0.3180646598339081,79.14701843261719,-0.6213444571551451,-2.090044100924471,0.32138677341863525,-0.2906739026152839
0.44594311714172363,-1.2616640329360962,79.14140319824219,-0.615938162735094,-2.094998369349501,0.32736855698749434,-0.3038383083883673
-0.20215390622615814,-0.1398077756166458,79.04650115966797,-0.6104650903123222,-2.1001596655871233,0.32940013374512406,-0.3155172401263068
0.1238747239112854,0.6299978494644165,79.00602722167969,-0.6049805241375642,-2.1053842452785445,0.32874780722583347,-0.311432322844242
1.5411350727081299,1.5127615928649902,78.88525390625,-0.5993857683368129,-2.1104259812535644,0.34262288886432857,-0.2935759941581636
0.3492758572101593,1.8613802194595337,78.79167175292969,-0.5935441083189409,-2.1150845990859,0.35837631328031433,-0.2654581457221259
-0.4320242404937744,-0.3588598370552063,78.77179718017578,-0.5875769161797748,-2.1194045598213793,0.35768674341961754,-0.25293714253542315
0.5861589312553406,-0.19422245025634766,78.83882904052734,-0.581604766658145,-2.123658587355811,0.35897119917596393,-0.2575461615963528
0,-0.17380070686340332,78.97650909423828,-0.5755812078572085,-2.1279765805461057,0.3638558569364251,-0.26061302123901736
-0.0903041660785675,2.362328290939331,79.08350372314453,-0.569523214697579,-2.1321681498178617,0.3631033222191037,-0.24237529137171795
0.14085717499256134,0,79.1002426147461,-0.563467982034975,-2.1360436874316306,0.363524597293387,-0.22268922228055688
-0.7811322212219238,-0.3426552712917328,79.13841247558594,-0.5574537022916288,-2.1397789699745906,0.3581889719081423,-0.22554468287465465
0.3862137496471405,0.5758452415466309,79.21632385253906,-0.5574537022916288,-2.1397789699745906,0.3581889719081423,-0.22554468287465465
-0.6002925634384155,0.2759247124195099,79.25296020507812,-0.5514987526774509,-2.1434788973312537,0.356404981793215,-0.2184465999249368
0.07848376780748367,-0.6761260032653809,79.26029968261719,-0.5455949063694827,-2.147147465752978,0.35205657516295724,-0.22178161068198574
0.9914970993995667,-1.5760077238082886,79.22219848632812,-0.5396529925565441,-2.151000224106502,0.3609730823896827,-0.24054939174093298
0.07641500234603882,-0.7439591884613037,79.24693298339844,-0.5335626139540948,-2.1551704894488695,0.3698723499042294,-0.2598824493431796
0.14549969136714935,0.16444756090641022,79.34492492675781,-0.5273826640464053,-2.1595421074676135,0.37172163901850597,-0.26471171290613704
1.4623361825942993,1.4004511833190918,79.28895568847656,-0.5210756481270717,-2.163845295825478,0.38512027130151805,-0.2516708900375912
0.16815185546875,1.3372268676757812,79.23213958740234,-0.5145437486027366,-2.167849694128119,0.3987076716187101,-0.22885690627930058
-0.5830074548721313,0.5016798377037048,79.26776123046875,-0.50792743015905,-2.1715362740449002,0.39525054162368195,-0.21353268373447154
0.1211419552564621,0.12892475724220276,79.33995819091797,-0.5013719951250174,-2.1750513601213814,0.391401662460218,-0.20827764544325564
-1.3521640300750732,0.8138515949249268,79.36387634277344,-0.49493412172809836,-2.1784571836320907,0.3811431451700629,-0.2004211758418629
-0.8991467952728271,0.36526575684547424,79.40284729003906,-0.48873807700480204,-2.18171565341336,0.3623822216254971,-0.19059519791044288
0.6301192045211792,0.34731876850128174,79.48066711425781,-0.48271705578262375,-2.1848427550087184,0.36014032503590004,-0.18465699353255324
0.732210099697113,0.31839483976364136,79.47371673583984,-0.4766201108303436,-2.187874141455909,0.37149306923771913,-0.17910938013034555
0.8302240371704102,0,79.3648452758789,-0.4703200573057658,-2.1908371870386536,0.38451335371161516,-0.17645608979898186
2.104809522628784,0.10790687054395676,79.21222686767578,-0.4703200573057658,-2.1908371870386536,0.38451335371161516,-0.17645608979898186
-0.8195071816444397,0.5660364627838135,79.02961730957031,-0.46382224430355945,-2.1937313202482667,0.3952242065531514,-0.17083989535458377
-0.512080729007721,0.17457397282123566,78.84772491455078,-0.45732764557702443,-2.1965272205572592,0.38412764063105004,-0.1646681417245417
0.24829621613025665,-0.8002882599830627,78.82465362548828,-0.45094383660212345,-2.1993151419670545,0.38192943635707116,-0.16988242745089024
-1.0988802909851074,0.2719576358795166,78.78233337402344,-0.44463741433470383,-2.2021832053845767,0.37484123573328076,-0.17428518265175313
0.562109112739563,0.25689971446990967,78.61461639404297,-0.43842733618208285,-2.2050512322238873,0.37036814258123457,-0.1698780380655079
0.5629695653915405,1.052103042602539,78.45093536376953,-0.43217640334196983,-2.2077916298890714,0.3797437982323271,-0.15896968175657084
0.7537314295768738,-0.06885168701410294,78.37672424316406,-0.4257559024690027,-2.2103728432408762,0.39071630652373057,-0.15077592046000055
0.5532673597335815,-0.463017076253891,78.28604125976562,-0.41915320022212726,-2.2129227105793254,0.4016079631013177,-0.1552081601539005
0.24289566278457642,0.09183580428361893,78.25923919677734,-0.41240444507165264,-2.215535289725777,0.40824265495563566,-0.15830133742031943
-0.3655303418636322,0.05922640860080719,78.34123229980469,-0.4056089171195503,-2.218163154917999,0.4072206992966435,-0.15704248564628254
-0.07466424256563187,0,78.37010955810547,-0.3988524745329694,-2.2207764167337287,0.40355241109306633,-0.1565489322412758
0.0920286700129509,1.021169900894165,78.30147552490234,-0.39212539515173445,-2.2233146510279655,0.4036971146551273,-0.14803918306715777
1.081101655960083,0.6083664298057556,78.27085876464844,-0.3853156425237342,-2.225668808500564,0.41347320070490257,-0.13445971364465842
-2.128971815109253,-0.33430957794189453,78.35554504394531,-0.3784971912730378,-2.227890772002151,0.4047409493786595,-0.13217590654579292
0.8234617114067078,0.4476429224014282,78.40777587890625,-0.3718421692072617,-2.230085833406771,0.3938616985144716,-0.13123146200863015
0.692950427532196,0.01944691315293312,78.4455337524414,-0.3718421692072617,-2.230085833406771,0.3938616985144716,-0.13123146200863015
0.6627593040466309,0.16752378642559052,78.41840362548828,-0.3718421692072617,-2.230085833406771,0.3938616985144716,-0.13123146200863015
1.183478832244873,-0.5829014778137207,78.38947296142578,-0.3718421692072617,-2.230085833406771,0.3938616985144716,-0.13123146200863015
-0.6903005838394165,-0.1380241960287094,78.41436767578125,-0.3718421692072617,-2.230085833406771,0.3938616985144716,-0.13123146200863015
-0.6935515403747559,-1.4869905710220337,78.60865783691406,-0.3718421692072617,-2.230085833406771,0.3938616985144716,-0.13123146200863015
-0.26806867122650146,-2.6190638542175293,79.08939361572266,-0.3718421692072617,-2.230085833406771,0.3938616985144716,-0.13123146200863015
-0.3919268250465393,-1.1275827884674072,79.77965545654297,-0.3718421692072617,-2.230085833406771,0.3938616985144716,-0.13123146200863015
-0.906251072883606,-1.0554215908050537,80.60311889648438,-0.3718421692072617,-2.230085833406771,0.3938616985144716,-0.13123146200863015
-0.4765397906303406,-0.011493944562971592,81.59558868408203,-0.3718421692072617,-2.230085833406771,0.3938616985144716,-0.13123146200863015
0.14530256390571594,-1.0115082263946533,82.65464782714844,-0.3718421692072617,-2.230085833406771,0.3938616985144716,-0.13123146200863015
0.27680328488349915,-2.396130323410034,83.80856323242188,-0.3718421692072617,-2.230085833406771,0.3938616985144716,-0.13123146200863015
0.06443843245506287,-2.1609323024749756,85.18731689453125,-0.3718421692072617,-2.230085833406771,0.3938616985144716,-0.13123146200863015
-1.0576633214950562,-2.0861480236053467,86.67555236816406,-0.3718421692072617,-2.230085833406771,0.3938616985144716,-0.13123146200863015
0.7161872386932373,-0.8185478448867798,88.24783325195312,-0.3718421692072617,-2.230085833406771,0.3938616985144716,-0.13123146200863015
-1.2484796047210693,0.34429696202278137,89.70634460449219,-0.3718421692072617,-2.230085833406771,0.3938616985144716,-0.13123146200863015
0.6560482978820801,-1.5603703260421753,91.02561950683594,-0.3718421692072617,-2.230085833406771,0.3938616985144716,-0.13123146200863015
-0.004860495217144489,-0.37249982357025146,92.33053588867188,-0.3718421692072617,-2.230085833406771,0.3938616985144716,-0.13123146200863015
-1.3316271305084229,-0.75822913646698,93.52495574951172,-0.3718421692072617,-2.230085833406771,0.3938616985144716,-0.13123146200863015
0.4936888813972473,-0.22223767638206482,94.65272521972656,-0.3718421692072617,-2.230085833406771,0.3938616985144716,-0.13123146200863015
-0.525144636631012,-0.38437509536743164,95.66949462890625,-0.3718421692072617,-2.230085833406771,0.3938616985144716,-0.13123146200863015
0.005721332039684057,-0.455326646566391,96.58277130126953,-0.3718421692072617,-2.230085833406771,0.3938616985144716,-0.13123146200863015
0.4303475022315979,-1.162645936012268,97.40625,-0.3718421692072617,-2.230085833406771,0.3938616985144716,-0.13123146200863015
-0.10768334567546844,-0.1580955982208252,98.20759582519531,-0.3718421692072617,-2.230085833406771,0.3938616985144716,-0.13123146200863015
0.5829932689666748,-0.3916533589363098,98.99010467529297,-0.3718421692072617,-2.230085833406771,0.3938616985144716,-0.13123146200863015
0.14821098744869232,-0.3795212507247925,99.67264556884766,-0.3718421692072617,-2.230085833406771,0.3938616985144716,-0.13123146200863015
-0.1432948261499405,-1.0726360082626343,100.33172607421875,-0.3718421692072617,-2.230085833406771,0.3938616985144716,-0.13123146200863015
0.5286557078361511,0.37776097655296326,100.99878692626953,-0.3718421692072617,-2.230085833406771,0.3938616985144716,-0.13123146200863015
0.7332019805908203,-0.09783022850751877,101.59803009033203,-0.3718421692072617,-2.230085833406771,0.3938616985144716,-0.13123146200863015
-0.0048855687491595745,0.08839944005012512,102.1332015991211,-0.3718421692072617,-2.230085833406771,0.3938616985144716,-0.13123146200863015
0.12741544842720032,-0.6269925832748413,102.6495132446289,-0.3718421692072617,-2.230085833406771,0.3938616985144716,-0.13123146200863015
-0.5625985860824585,-0.00985388271510601,103.21017456054688,-0.3718421692072617,-2.230085833406771,0.3938616985144716,-0.13123146200863015
0.4080350697040558,0.05436710640788078,103.86309814453125,-0.3718421692072617,-2.230085833406771,0.3938616985144716,-0.13123146200863015
-0.9537607431411743,1.3318583965301514,104.5445327758789,-0.3718421692072617,-2.230085833406771,0.3938616985144716,-0.13123146200863015
0.5141714215278625,-1.0580192804336548,105.4732437133789,-0.3718421692072617,-2.230085833406771,0.3938616985144716,-0.13123146200863015
-2.619464159011841,0.5150484442710876,106.6059799194336,-0.3718421692072617,-2.230085833406771,0.3938616985144716,-0.13123146200863015
1.6959104537963867,-0.7714601755142212,107.92678833007812,-0.3718421692072617,-2.230085833406771,0.3938616985144716,-0.13123146200863015
-1.8786942958831787,-0.44203421473503113,109.34317779541016,-0.3718421692072617,-2.230085833406771,0.3938616985144716,-0.13123146200863015
0.6047340631484985,-0.13190233707427979,110.81788635253906,-0.3718421692072617,-2.230085833406771,0.3938616985144716,-0.13123146200863015
-0.5436391830444336,-0.2837260067462921,112.3747787475586,-0.3718421692072617,-2.230085833406771,0.3938616985144716,-0.13123146200863015
-0.7861542105674744,-0.027117395773530006,113.90335083007812,-0.3718421692072617,-2.230085833406771,0.3938616985144716,-0.13123146200863015
-0.12657175958156586,-0.41662946343421936,115.53397369384766,-0.3718421692072617,-2.230085833406771,0.3938616985144716,-0.13123146200863015
-0.18756723403930664,-0.12250212579965591,117.17305755615234,-0.3718421692072617,-2.230085833406771,0.3938616985144716,-0.13123146200863015
-0.4841175973415375,-0.6087309718132019,118.82014465332031,-0.3718421692072617,-2.230085833406771,0.3938616985144716,-0.13123146200863015
-1.3005454540252686,-0.5559829473495483,120.42669677734375,-0.3718421692072617,-2.230085833406771,0.3938616985144716,-0.13123146200863015
0.448077917098999,0.015851857140660286,122.1012191772461,-0.3718421692072617,-2.230085833406771,0.3938616985144716,-0.13123146200863015
0.8588266968727112,-0.6627725958824158,123.73220825195312,-0.3718421692072617,-2.230085833406771,0.3938616985144716,-0.13123146200863015
-0.6104726195335388,0.3178008496761322,125.3427963256836,-0.3718421692072617,-2.230085833406771,0.3938616985144716,-0.13123146200863015
-0.12814725935459137,-0.7022475600242615,126.9207763671875,-0.3718421692072617,-2.230085833406771,0.3938616985144716,-0.13123146200863015
-0.41705408692359924,0.14713115990161896,128.5237579345703,-0.3718421692072617,-2.230085833406771,0.3938616985144716,-0.13123146200863015
1.3257347345352173,-0.13764318823814392,130.1651611328125,-0.3718421692072617,-2.230085833406771,0.3938616985144716,-0.13123146200863015
-0.5157827138900757,0.65595942735672,131.7906036376953,-0.3718421692072617,-2.230085833406771,0.3938616985144716,-0.13123146200863015
0.46240586042404175,-0.2233964502811432,133.40182495117188,-0.3718421692072617,-2.230085833406771,0.3938616985144716,-0.13123146200863015
0.5846128463745117,-0.20484688878059387,134.98182678222656,-0.3718421692072617,-2.230085833406771,0.3938616985144716,-0.13123146200863015
-0.03153999522328377,0.42828506231307983,136.5931396484375,-0.3718421692072617,-2.230085833406771,0.3938616985144716,-0.13123146200863015
-0.4507732391357422,-0.2338484525680542,138.22235107421875,-0.3718421692072617,-2.230085833406771,0.3938616985144716,-0.13123146200863015
-0.21307016909122467,-0.6142527461051941,139.89601135253906,-0.3718421692072617,-2.230085833406771,0.3938616985144716,-0.13123146200863015
1.2650818824768066,0.44084861874580383,141.6566162109375,-0.3718421692072617,-2.230085833406771,0.3938616985144716,-0.13123146200863015
-1.2840508222579956,-0.393279105424881,143.44435119628906,-0.3718421692072617,-2.230085833406771,0.3938616985144716,-0.13123146200863015
1.305691123008728,0.16166731715202332,145.25845336914062,-0.3718421692072617,-2.230085833406771,0.3938616985144716,-0.13123146200863015
-0.2803860008716583,0.3058939576148987,147.1464385986328,-0.3718421692072617,-2.230085833406771,0.3938616985144716,-0.13123146200863015
-0.13265496492385864,-0.43559730052948,148.9930419921875,-0.3718421692072617,-2.230085833406771,0.3938616985144716,-0.13123146200863015
-0.9144333004951477,-0.4321569800376892,150.88827514648438,-0.3718421692072617,-2.230085833406771,0.3938616985144716,-0.13123146200863015
-0.4424840211868286,0.3173566460609436,152.86325073242188,-0.3718421692072617,-2.230085833406771,0.3938616985144716,-0.13123146200863015
1.3422232866287231,-0.45930302143096924,154.811767578125,-0.3718421692072617,-2.230085833406771,0.3938616985144716,-0.13123146200863015
-0.7597442269325256,0.10963790863752365,156.77000427246094,-0.3718421692072617,-2.230085833406771,0.3938616985144716,-0.13123146200863015
0.7020620107650757,-0.14812424778938293,158.76336669921875,-0.3718421692072617,-2.230085833406771,0.3938616985144716,-0.13123146200863015
-0.23023168742656708,0.5515522956848145,160.8828887939453,-0.3718421692072617,-2.230085833406771,0.3938616985144716,-0.13123146200863015
0.1412668526172638,-0.5724062919616699,163.01422119140625,-0.3718421692072617,-2.230085833406771,0.3938616985144716,-0.13123146200863015
0.05966586992144585,-0.02235930971801281,164.8783721923828,-0.3718421692072617,-2.230085833406771,0.3938616985144716,-0.13123146200863015
0.6839123368263245,1.4945366382598877,166.3743896484375,-0.3718421692072617,-2.230085833406771,0.3938616985144716,-0.13123146200863015
0.3769589364528656,1.255447268486023,167.5538787841797,-0.3718421692072617,-2.230085833406771,0.3938616985144716,-0.13123146200863015
0.6633111834526062,1.0849028825759888,168.30206298828125,-0.3718421692072617,-2.230085833406771,0.3938616985144716,-0.13123146200863015
0.680497407913208,2.226651906967163,168.5727996826172,-0.3718421692072617,-2.230085833406771,0.3938616985144716,-0.13123146200863015
0.5846912860870361,0.4278126358985901,168.44967651367188,-0.3718421692072617,-2.230085833406771,0.3938616985144716,-0.13123146200863015
-0.1639154851436615,-0.6647727489471436,168.35110473632812,-0.3718421692072617,-2.230085833406771,0.3938616985144716,-0.13123146200863015
0.15496240556240082,0.3427339792251587,168.3933868408203,-0.3718421692072617,-2.230085833406771,0.3938616985144716,-0.13123146200863015
-0.09522692114114761,-0.06085243448615074,168.3856201171875,-0.3718421692072617,-2.230085833406771,0.3938616985144716,-0.13123146200863015
-0.23042912781238556,0.18231286108493805,168.36964416503906,-0.3718421692072617,-2.230085833406771,0.3938616985144716,-0.13123146200863015
-0.12845344841480255,0.04474177211523056,168.37863159179688,-0.3718421692072617,-2.230085833406771,0.3938616985144716,-0.13123146200863015
-0.001578876399435103,0.07351312786340714,168.37237548828125,-0.3718421692072617,-2.230085833406771,0.3938616985144716,-0.13123146200863015
-0.024121824651956558,0.06748486310243607,168.37342834472656,-0.3718421692072617,-2.230085833406771,0.3938616985144716,-0.13123146200863015
-0.10346665233373642,0.09511376917362213,168.37281799316406,-0.3718421692072617,-2.230085833406771,0.3938616985144716,-0.13123146200863015
-0.12153252959251404,0.055797215551137924,168.3704071044922,-0.3718421692072617,-2.230085833406771,0.3938616985144716,-0.13123146200863015
-0.049882303923368454,0.11529341340065002,168.37054443359375,-0.3718421692072617,-2.230085833406771,0.3938616985144716,-0.13123146200863015
-0.031822193413972855,0.051406703889369965,168.37112426757812,-0.3718421692072617,-2.230085833406771,0.3938616985144716,-0.13123146200863015
-0.06923654675483704,0.10280421376228333,168.37049865722656,-0.3718421692072617,-2.230085833406771,0.3938616985144716,-0.13123146200863015
-0.10684629529714584,0.08278555423021317,168.369384765625,-0.3718421692072617,-2.230085833406771,0.3938616985144716,-0.13123146200863015
-0.05498766526579857,0.0684385597705841,168.3689727783203,-0.3718421692072617,-2.230085833406771,0.3938616985144716,-0.13123146200863015
-0.04990387707948685,0.08055321872234344,168.3685302734375,-0.3718421692072617,-2.230085833406771,0.3938616985144716,-0.13123146200863015
-0.07517969608306885,0.09131187945604324,168.36924743652344,-0.3718421692072617,-2.230085833406771,0.3938616985144716,-0.13123146200863015
-0.0925881490111351,0.07288536429405212,168.36785888671875,-0.3718421692072617,-2.230085833406771,0.3938616985144716,-0.13123146200863015
-0.060712140053510666,0.07865490764379501,168.3678436279297,-0.3718421692072617,-2.230085833406771,0.3938616985144716,-0.13123146200863015
-0.05702023208141327,0.07328175753355026,168.3675079345703,-0.3718421692072617,-2.230085833406771,0.3938616985144716,-0.13123146200863015
-0.06323185563087463,0.07301055639982224,168.36781311035156,-0.3718421692072617,-2.230085833406771,0.3938616985144716,-0.13123146200863015
-0.07911335676908493,0.07554146647453308,168.36732482910156,-0.3718421692072617,-2.230085833406771,0.3938616985144716,-0.13123146200863015
-0.07053010165691376,0.08679534494876862,168.366943359375,-0.365288199472189,-2.232261751050566,0.39261466969425496,-0.1298786552467693
-0.1417023241519928,0.09853845089673996,168.36575317382812,-0.3587593600068548,-2.2344135249021897,0.3908460661458474,-0.12833420694805675
-0.6810466647148132,0.47757822275161743,168.37669372558594,-0.3523023942508731,-2.2365124202489874,0.38398982457195735,-0.12353323466765377
-2.1609292030334473,0.6731327772140503,168.2564697265625,-0.3460999232766008,-2.2384913970073397,0.3603066923407218,-0.11394397633460654
-2.0304818153381348,-0.10461056977510452,168.19622802734375,-0.3403858819471979,-2.240350982570733,0.3253782671876253,-0.10920629127261533
-1.5928443670272827,0,168.2894287109375,-0.3352145307011795,-2.2421783520481777,0.29518388233458015,-0.1100780460207412
-0.9987121224403381,0.4313165545463562,168.29998779296875,-0.330474768529594,-2.243983033610013,0.2735875782556833,-0.10648374139952156
-0.7676064968109131,0.867621898651123,168.29432678222656,-0.32603763657389173,-2.2456675585740884,0.25886825642858957,-0.09565925428954257
-1.2429088354110718,0.11838098615407944,168.36865234375,-0.32186278475370844,-2.247193407056358,0.24211396199340637,-0.08744256358283255
-1.6741832494735718,-0.38837486505508423,168.44483947753906,-0.3180301278930464,-2.248669532690996,0.21780486128603435,-0.08969251257367425
-1.239669919013977,0.4716933071613312,168.41946411132812,-0.3146023977860908,-2.250158621897633,0.1935227515486381,-0.08899819222278886
-0.6294761896133423,0.6694754958152771,168.4320831298828,-0.3115068204067126,-2.251562677267806,0.17794653397674376,-0.0794884521979838
0.05316469818353653,-0.687377393245697,168.4073486328125,-0.30858106647178285,-2.2528887279917607,0.1731439382148287,-0.07963763467657063
-1.6995179653167725,0.6782572865486145,168.35301208496094,-0.3058096642561977,-2.2542166552437797,0.15942432765538508,-0.07971363556571298
-1.3932615518569946,0.4499019980430603,168.37986755371094,-0.3033673684839672,-2.255466871441778,0.13365116501227037,-0.07031230819411569
-0.589406430721283,-0.47359925508499146,168.34149169921875,-0.301277534343664,-2.2566403888878632,0.11712893182411806,-0.07050978533613178
-0.19697003066539764,1.07612943649292,168.2935028076172,-0.2993799949564139,-2.25777370960309,0.11057579464589572,-0.06548870049106571
-0.8595250844955444,0.05886070430278778,168.1846466064453,-0.29761043276197957,-2.25878636918483,0.1017716686862212,-0.05603044931776815
-1.5733765363693237,0.2808411419391632,168.07664489746094,-0.29608318978532483,-2.259696619600804,0.0814974885123473,-0.053199600599085226
-0.7292599081993103,0.1875533014535904,167.8977813720703,-0.2948848036187696,-2.2605507522188866,0.06230885147427535,-0.04929631357081228
-0.8174922466278076,2.3504459857940674,167.81031799316406,-0.29395373610495024,-2.2611961074945635,0.049419250184049364,-0.028146319510415133
-1.133026123046875,-1.324345350265503,167.7957305908203,-0.29326553459977683,-2.2615939558311586,0.033164930436760345,-0.01959548088101043
-1.5439963340759277,-1.1792576313018799,167.7781982421875,-0.29289869009646435,-2.26209440849734,0.01085640996073699,-0.04045883906073862
0.6828309297561646,-0.8341241478919983,167.68284606933594,-0.2927775530835298,-2.262908540660796,0.0036800315914056313,-0.05723702055402094
-1.2518507242202759,2.047459363937378,167.53050231933594,-0.2927557344871775,-2.26377823161336,-0.00106180002912863,-0.047125893753642775
0.21747905015945435,0.8819682598114014,167.5996551513672,-0.2928452625205839,-2.264360230702049,-0.009681563979635476,-0.022713996889069613
-0.7560579180717468,-0.31942760944366455,167.58026123046875,-0.2930440232305162,-2.2646997319939244,-0.014169721212237913,-0.018026158136005138
0.3872973322868347,1.6479010581970215,167.4677734375,-0.293305793624733,-2.26490791286225,-0.017242726093778846,-0.006955546063060498
-0.6610584259033203,-0.1961907297372818,167.3439483642578,-0.2936121835800194,-2.2649230254127133,-0.019524068540582893,0.0051420400074373325
-0.7364193797111511,-1.2207531929016113,167.24188232421875,-0.2940346317921968,-2.2649357236294394,-0.031169716920703486,-0.006665826014553443
-0.6142467856407166,-0.3238610029220581,167.07008361816406,-0.2946479233356913,-2.265154085604392,-0.042425268298635715,-0.019537610979750687
-0.8537351489067078,0.6499783396720886,167.08993530273438,-0.2954569543305677,-2.26545706541678,-0.05465845108653092,-0.016819966506833768
-0.6480931639671326,0.2865819036960602,167.24462890625,-0.29647222214818164,-2.2656723592861043,-0.06717368702714625,-0.009015297812099195
