faccX,faccY,yaw,posX,posY,velX,velY
0,0,-163.6205596923828,0.0,0.0,0.0,0.0
0,0,-163.62168884277344,0.0,0.0,0.0,0.0
0,0,-163.6233673095703,0.0,0.0,0.0,0.0
-0.709976077079773,-0.14463214576244354,-163.6523895263672,-4.93038942416509e-05,-1.0043899011280801e-05,-0.005916467308998108,-0.001205267881353696
-1.383851408958435,-0.08894184231758118,-163.62945556640625,-0.0002933163692553838,-4.635211287273301e-05,-0.023365029692649843,-0.003151717782020569
-1.9634991884231567,-0.8841278553009033,-163.45703125,-0.0009151884333954917,-0.000166455027129915,-0.05125961800416311,-0.011260631928841271
-2.6101109981536865,-0.6611380577087402,-163.2775115966797,-0.0020871272186438247,-0.0004614423587918281,-0.0893730362256368,-0.0241378478705883
-2.080386161804199,-0.5492623448371887,-163.29779052734375,-0.0039024067918459575,-0.0009477954068117671,-0.12846051255861918,-0.034224517891804376
-1.5085840225219727,-0.49293631315231323,-163.3481903076172,-0.006292649375067817,-0.0015905789451466667,-0.15836859742800394,-0.04290950670838356
-1.0826553106307983,-0.10554885119199753,-163.30877685546875,-0.00911207317478127,-0.0023472988600325255,-0.17996225853761036,-0.047896883077919485
-1.0862252712249756,0.5203627347946167,-163.32164001464844,-0.012262060857481426,-0.0031167737249698907,-0.19803626338640848,-0.04444010071456433
-0.9347516894340515,-0.6258271336555481,-163.30763244628906,-0.015703010869522888,-0.003864765986800194,-0.21487773805856702,-0.04531897070507209
-1.7758841514587402,-0.4651917815208435,-163.3423309326172,-0.01947254510389434,-0.004695847367660867,-0.23746637006600696,-0.05441079499820869
-1.2272789478302002,-1.086923599243164,-163.2847442626953,-0.023638870931333964,-0.005710479741295179,-0.26249272922674816,-0.06734508983790875
-0.9670747518539429,-0.5244809985160828,-163.22296142578125,-0.028166135425368943,-0.0069448010023269394,-0.2807790100574493,-0.08077346148590248
-0.9776159524917603,-0.4340741038322449,-163.11297607421875,-0.03298083355857266,-0.008357591686977282,-0.29698476592699685,-0.08876142067213855
-1.1592849493026733,-0.6354780793190002,-162.9394989013672,-0.03807897555331389,-0.00991122315534287,-0.3147922734419505,-0.09767435553173226
-1.3016078472137451,-0.3059382438659668,-162.8189697265625,-0.04349640877710448,-0.011604505214426254,-0.33529971341292064,-0.10551949155827366
-0.3590938448905945,0.5700619220733643,-162.79324340820312,-0.04920006384038263,-0.013344821484966412,-0.3491388941804568,-0.10331846090654534
0.2643570005893707,-0.444929838180542,-162.79124450683594,-0.055025624357577824,-0.015058106105360722,-0.349928367882967,-0.10227569354077182
-0.9356261491775513,-1.230635643005371,-162.77493286132812,-0.06090437973539034,-0.016879059711678163,-0.3555222774545352,-0.11623873921732109
-1.0472360849380493,0.6039473414421082,-162.7451171875,-0.06696744979255728,-0.01885989205290874,-0.3720461294054985,-0.12146114173034828
-0.3267592191696167,0.4723187983036041,-162.7974853515625,-0.0732636349565453,-0.020809503710932202,-0.3834960902730624,-0.11249225723246734
-0.30790889263153076,0,-162.8314208984375,-0.07969931063552697,-0.022651574748257797,-0.38878499120473864,-0.10855626724660397
-1.480082631111145,-1.3477518558502197,-162.8994598388672,-0.08630322656697698,-0.024554439747913017,-0.4036849205692609,-0.11978753271202247
0.062964528799057,0,-162.85130310058594,-0.09312971955579188,-0.02664449250532521,-0.4154942380885283,-0.13101879817744097
-0.499161034822464,-0.40543365478515625,-162.816650390625,-0.10008491494796343,-0.02885629425653153,-0.4191292089720567,-0.13439741196731728
0,0.5400099158287048,-162.7841033935547,-0.10710506572491593,-0.031086905548969906,-0.42328888426224387,-0.1332759431252877
-0.9864278435707092,0.3136547803878784,-162.76522827148438,-0.1142283823962013,-0.03324888899715411,-0.4315091162919998,-0.12616207065681617
-0.14172755181789398,0.944125235080719,-162.69786071777344,-0.12149854512574773,-0.03526424434036017,-0.4409104112535715,-0.1156805705279112
-0.7203837633132935,-0.32813525199890137,-162.62960815429688,-0.12890692082130248,-0.03714947676700023,-0.44809467221299804,-0.11054732066889605
-0.22869965434074402,-1.3122994899749756,-162.72927856445312,-0.1364410739288562,-0.03910585119078557,-0.45600370069344837,-0.12421761018534502
0.4058927595615387,0.7141332626342773,-162.88795471191406,-0.14402883053032892,-0.04121768401521776,-0.4545270914832751,-0.12920232874651752
-1.3987784385681152,0,-162.9757537841797,-0.15167323244942563,-0.04332146357331012,-0.4628011388083299,-0.12325121822456521
0.4848102629184723,-0.7538293600082397,-162.88861083984375,-0.1594500547750957,-0.04542799980483122,-0.47041754027207694,-0.1295331295579672
-0.6298513412475586,-0.20908595621585846,-162.76963806152344,-0.16730041941006982,-0.04765375441664624,-0.47162621592481935,-0.1375574238598347
0.6469377279281616,0.6281659007072449,-162.72518920898438,-0.17515966978751954,-0.04991727537372047,-0.4714838293691477,-0.13406509098907313
-1.1332162618637085,-0.3820871114730835,-162.7592315673828,-0.18305150295297307,-0.05213460475206376,-0.47553615048527725,-0.1320144344121218
0.7317331433296204,-0.30822405219078064,-162.82211303710938,-0.19100498623318143,-0.05438278360085356,-0.478881843139728,-0.13776702744265398
-0.668829619884491,0.7523005604743958,-162.89620971679688,-0.19898198198527098,-0.05664806207848921,-0.4783576471110186,-0.13406638987362385
0.9369097352027893,1.3229016065597534,-162.8635711669922,-0.2069359927624464,-0.05873839064811668,-0.4761236461500328,-0.1167730384816726
-0.3587423264980316,-1.2115761041641235,-162.78953552246094,-0.21483123635045356,-0.060676877018478195,-0.4713055844108265,-0.11584532596170902
-0.7229166626930237,-1.4289605617523193,-162.70687866210938,-0.22276144463155004,-0.0627910030529731,-0.48031940932075196,-0.13784979817767937
-0.4322258532047272,-0.7534424662590027,-162.53915405273438,-0.2308469863504999,-0.06524005545510188,-0.4899455969532332,-0.1560364900777737
-0.14125710725784302,0.41443362832069397,-162.50428771972656,-0.23905257150530815,-0.06786420590347715,-0.49472462162375463,-0.1588615637272596
0.15879110991954803,0.6214207410812378,-162.57945251464844,-0.24729676422663033,-0.07043996430105634,-0.49457850493490707,-0.1502294439822435
-0.08177212625741959,-0.06775309145450592,-162.60781860351562,-0.25553439076834666,-0.07290533922509188,-0.493936680071056,-0.14561554690202072
-0.09738290309906006,0.385183185338974,-162.64768981933594,-0.263779110091014,-0.07531022125027247,-0.49542963864902667,-0.14297029611965015
0.33344921469688416,0.1345357894897461,-162.67208862304688,-0.2720198772413035,-0.07765696792345908,-0.49346241938571145,-0.13863930466274416
0.7355495691299438,-0.8588755130767822,-162.69656372070312,-0.2801700148710774,-0.08001792437086502,-0.48455409618715456,-0.14467546902596945
-0.7265536189079285,0,-162.63803100585938,-0.28824529175543123,-0.08248882632081707,-0.48447912993530445,-0.15183276496827597
-0.5222985148429871,0.2752992808818817,-162.5878448486328,-0.2964066697636412,-0.08500025439800488,-0.49488623104989543,-0.14953860429426027
-0.2700439393520355,0.36724820733070374,-162.6071014404297,-0.3047097973960141,-0.08744794311622779,-0.501489084834854,-0.14418404189248873
-0.15166229009628296,0,-162.56605529785156,-0.31309723396475114,-0.0898255071333713,-0.50500330341359,-0.14112364016473286
-0.1712050586938858,0.4145534634590149,-162.54563903808594,-0.32153637703197696,-0.09214877936782108,-0.5076938646535081,-0.13766902796924108
0.5267768502235413,-0.5951165556907654,-162.67959594726562,-0.32997324895734587,-0.09445580227093564,-0.504730766390761,-0.13917372040450565
0.39665526151657104,0.47347381711006165,-162.85748291015625,-0.33832130116720993,-0.09678381169007884,-0.4970354987929267,-0.1401874098926782
-0.06635772436857224,-0.3330400586128235,-162.8954620361328,-0.3465822888181234,-0.09911051617728339,-0.4942830193166934,-0.13901712857186788
-0.6175263524055481,-0.337546706199646,-162.7940673828125,-0.35486783108984427,-0.10147403684548206,-0.49998205328981105,-0.1446053516119718
0.5845580697059631,0.5550348162651062,-162.66639709472656,-0.3632031547754175,-0.10386902269803816,-0.5002567889789743,-0.14279295069475964
-0.46550917625427246,-0.22696591913700104,-162.5950927734375,-0.37153250064079957,-0.10622612264731693,-0.4992647148668769,-0.1400590432186921
-0.536683976650238,-0.36843881011009216,-162.5824432373047,-0.37992317596864367,-0.10860178758493728,-0.5076163244744145,-0.1450207492957512
0.8181942701339722,1.1445024013519287,-162.68031311035156,-0.3883638987172809,-0.11096490676825245,-0.50527040536205,-0.13855355270206923
0.24348129332065582,0.7221930623054504,-162.70211791992188,-0.3883638987172809,-0.11096490676825245,-0.50527040536205,-0.13855355270206923
-0.09974939376115799,-0.5466582179069519,-162.63214111328125,-0.3883638987172809,-0.11096490676825245,-0.50527040536205,-0.13855355270206923
-0.06656397134065628,-1.993963360786438,-162.53253173828125,-0.3883638987172809,-0.11096490676825245,-0.50527040536205,-0.13855355270206923
1.342240571975708,0.5183683037757874,-162.48541259765625,-0.3883638987172809,-0.11096490676825245,-0.50527040536205,-0.13855355270206923
2.847804546356201,0.677069365978241,-162.9671173095703,-0.3883638987172809,-0.11096490676825245,-0.50527040536205,-0.13855355270206923
2.46293044090271,2.0034615993499756,-163.78651428222656,-0.3883638987172809,-0.11096490676825245,-0.50527040536205,-0.13855355270206923
1.6326888799667358,1.3626599311828613,-164.7050323486328,-0.3883638987172809,-0.11096490676825245,-0.50527040536205,-0.13855355270206923
2.5089221000671387,2.045997142791748,-165.7566375732422,-0.3883638987172809,-0.11096490676825245,-0.50527040536205,-0.13855355270206923
0.7190173864364624,0.12725992500782013,-166.95033264160156,-0.3883638987172809,-0.11096490676825245,-0.50527040536205,-0.13855355270206923
0.8903255462646484,1.0206645727157593,-168.24667358398438,-0.3883638987172809,-0.11096490676825245,-0.50527040536205,-0.13855355270206923
0.7887492179870605,1.4939281940460205,-169.62098693847656,-0.3883638987172809,-0.11096490676825245,-0.50527040536205,-0.13855355270206923
1.7718950510025024,0.08548123389482498,-171.09584045410156,-0.3883638987172809,-0.11096490676825245,-0.50527040536205,-0.13855355270206923
1.7568135261535645,0.4576485753059387,-172.6172637939453,-0.3883638987172809,-0.11096490676825245,-0.50527040536205,-0.13855355270206923
0.28936153650283813,0.3104866147041321,-174.1993408203125,-0.3883638987172809,-0.11096490676825245,-0.50527040536205,-0.13855355270206923
1.7513344287872314,0.30822843313217163,-175.8302001953125,-0.3883638987172809,-0.11096490676825245,-0.50527040536205,-0.13855355270206923
0.5386398434638977,0.336194783449173,-177.52828979492188,-0.3883638987172809,-0.11096490676825245,-0.50527040536205,-0.13855355270206923
1.875365972518921,-0.9094313383102417,-179.30572509765625,-0.3883638987172809,-0.11096490676825245,-0.50527040536205,-0.13855355270206923
0.619017481803894,1.6455692052841187,178.8325653076172,-0.3883638987172809,-0.11096490676825245,-0.50527040536205,-0.13855355270206923
2.1786949634552,-0.007516841869801283,176.8876190185547,-0.3883638987172809,-0.11096490676825245,-0.50527040536205,-0.13855355270206923
1.063777208328247,0.8168512582778931,174.83677673339844,-0.3883638987172809,-0.11096490676825245,-0.50527040536205,-0.13855355270206923
0.5329564809799194,-0.13770896196365356,172.78025817871094,-0.3883638987172809,-0.11096490676825245,-0.50527040536205,-0.13855355270206923
0.4020194411277771,0.500114917755127,170.69696044921875,-0.3883638987172809,-0.11096490676825245,-0.50527040536205,-0.13855355270206923
1.6774603128433228,0.29132765531539917,168.65040588378906,-0.3883638987172809,-0.11096490676825245,-0.50527040536205,-0.13855355270206923
0.33980798721313477,0.9969543814659119,166.5712890625,-0.3883638987172809,-0.11096490676825245,-0.50527040536205,-0.13855355270206923
1.0573726892471313,0.35620275139808655,164.54946899414062,-0.3883638987172809,-0.11096490676825245,-0.50527040536205,-0.13855355270206923
0.9707975387573242,-0.4199945032596588,162.48983764648438,-0.3883638987172809,-0.11096490676825245,-0.50527040536205,-0.13855355270206923
-0.1855117380619049,1.0174176692962646,160.49896240234375,-0.3883638987172809,-0.11096490676825245,-0.50527040536205,-0.13855355270206923
1.7121864557266235,0.06007518991827965,158.4945526123047,-0.3883638987172809,-0.11096490676825245,-0.50527040536205,-0.13855355270206923
0.6860755681991577,0.5656412839889526,156.4675750732422,-0.3883638987172809,-0.11096490676825245,-0.50527040536205,-0.13855355270206923
1.188373327255249,-0.7767441272735596,154.4023895263672,-0.3883638987172809,-0.11096490676825245,-0.50527040536205,-0.13855355270206923
-0.11204291135072708,1.3012452125549316,152.21678161621094,-0.3883638987172809,-0.11096490676825245,-0.50527040536205,-0.13855355270206923
0.7072336077690125,0.14641641080379486,149.9939727783203,-0.3883638987172809,-0.11096490676825245,-0.50527040536205,-0.13855355270206923
0.39922696352005005,0.49934622645378113,147.75645446777344,-0.3883638987172809,-0.11096490676825245,-0.50527040536205,-0.13855355270206923
0.17652161419391632,-0.1611849069595337,145.4878692626953,-0.3883638987172809,-0.11096490676825245,-0.50527040536205,-0.13855355270206923
1.131479263305664,0.03989911824464798,143.18258666992188,-0.3883638987172809,-0.11096490676825245,-0.50527040536205,-0.13855355270206923
0.6846854090690613,0.20133820176124573,140.88148498535156,-0.3883638987172809,-0.11096490676825245,-0.50527040536205,-0.13855355270206923
0.8903467655181885,-1.2897768020629883,138.5687713623047,-0.3883638987172809,-0.11096490676825245,-0.50527040536205,-0.13855355270206923
-0.2110947072505951,-0.4953087866306305,136.24281311035156,-0.3883638987172809,-0.11096490676825245,-0.50527040536205,-0.13855355270206923
0.579996645450592,0.5383809208869934,133.94964599609375,-0.3883638987172809,-0.11096490676825245,-0.50527040536205,-0.13855355270206923
1.3497631549835205,0.26904296875,131.73867797851562,-0.3883638987172809,-0.11096490676825245,-0.50527040536205,-0.13855355270206923
-0.8140415549278259,-1.0211961269378662,129.52685546875,-0.3883638987172809,-0.11096490676825245,-0.50527040536205,-0.13855355270206923
0.6407746076583862,-0.691516101360321,127.20736694335938,-0.3883638987172809,-0.11096490676825245,-0.50527040536205,-0.13855355270206923
1.125417947769165,0.20963913202285767,124.86931610107422,-0.3883638987172809,-0.11096490676825245,-0.50527040536205,-0.13855355270206923
1.1725411415100098,0.07163897901773453,122.59431457519531,-0.3883638987172809,-0.11096490676825245,-0.50527040536205,-0.13855355270206923
-0.9639929533004761,-2.2337915897369385,120.36969757080078,-0.3883638987172809,-0.11096490676825245,-0.50527040536205,-0.13855355270206923
-0.1924554854631424,0.6130176186561584,118.11997985839844,-0.3883638987172809,-0.11096490676825245,-0.50527040536205,-0.13855355270206923
1.1409275531768799,1.3081724643707275,115.81663513183594,-0.3883638987172809,-0.11096490676825245,-0.50527040536205,-0.13855355270206923
1.133081316947937,-1.362837314605713,113.58326721191406,-0.3883638987172809,-0.11096490676825245,-0.50527040536205,-0.13855355270206923
-0.30485254526138306,-1.952138066291809,111.40232849121094,-0.3883638987172809,-0.11096490676825245,-0.50527040536205,-0.13855355270206923
-0.7412470579147339,-0.4169226884841919,109.1888427734375,-0.3883638987172809,-0.11096490676825245,-0.50527040536205,-0.13855355270206923
0.21828128397464752,0.870313823223114,106.92967224121094,-0.3883638987172809,-0.11096490676825245,-0.50527040536205,-0.13855355270206923
0.5740295052528381,-0.295230895280838,104.5540771484375,-0.3883638987172809,-0.11096490676825245,-0.50527040536205,-0.13855355270206923
0.6775853633880615,-0.7301625609397888,102.24148559570312,-0.3883638987172809,-0.11096490676825245,-0.50527040536205,-0.13855355270206923
0.32088929414749146,0.17420260608196259,99.95269012451172,-0.3883638987172809,-0.11096490676825245,-0.50527040536205,-0.13855355270206923
-0.8026448488235474,-0.21799786388874054,97.87977600097656,-0.3883638987172809,-0.11096490676825245,-0.50527040536205,-0.13855355270206923
-1.206108570098877,0.020265603438019753,96.0592041015625,-0.3883638987172809,-0.11096490676825245,-0.50527040536205,-0.13855355270206923
-1.041581153869629,-0.5751336216926575,94.66386413574219,-0.3883638987172809,-0.11096490676825245,-0.50527040536205,-0.13855355270206923
-1.1608330011367798,0.7805646657943726,93.67627716064453,-0.3883638987172809,-0.11096490676825245,-0.50527040536205,-0.13855355270206923
-1.2052589654922485,0.17316216230392456,93.05657196044922,-0.3883638987172809,-0.11096490676825245,-0.50527040536205,-0.13855355270206923
-0.790563702583313,0.7860667109489441,92.76417541503906,-0.3883638987172809,-0.11096490676825245,-0.50527040536205,-0.13855355270206923
-0.5668401122093201,0.49616897106170654,92.73596954345703,-0.3883638987172809,-0.11096490676825245,-0.50527040536205,-0.13855355270206923
0.517554521560669,0.5594780445098877,92.80387878417969,-0.3883638987172809,-0.11096490676825245,-0.50527040536205,-0.13855355270206923
0.05136917531490326,0.12478179484605789,92.80802154541016,-0.3883638987172809,-0.11096490676825245,-0.50527040536205,-0.13855355270206923
0.13353286683559418,0.7073416113853455,92.7796401977539,-0.3883638987172809,-0.11096490676825245,-0.50527040536205,-0.13855355270206923
0.3703320622444153,0.3044624924659729,92.80026245117188,-0.3883638987172809,-0.11096490676825245,-0.50527040536205,-0.13855355270206923
0.0365910567343235,0.10631293058395386,92.81668853759766,-0.3883638987172809,-0.11096490676825245,-0.50527040536205,-0.13855355270206923
0.24352708458900452,-0.228339284658432,92.80545043945312,-0.3883638987172809,-0.11096490676825245,-0.50527040536205,-0.13855355270206923
0.24560995399951935,-0.10486774891614914,92.8115234375,-0.3883638987172809,-0.11096490676825245,-0.50527040536205,-0.13855355270206923
0.1515726000070572,-0.23010903596878052,92.81257629394531,-0.3883638987172809,-0.11096490676825245,-0.50527040536205,-0.13855355270206923
0.21975913643836975,0.02707616053521633,92.80681610107422,-0.3883638987172809,-0.11096490676825245,-0.50527040536205,-0.13855355270206923
0.1967880129814148,0.14715640246868134,92.80902862548828,-0.3883638987172809,-0.11096490676825245,-0.50527040536205,-0.13855355270206923
0.1663963943719864,0.18245653808116913,92.8093032836914,-0.3883638987172809,-0.11096490676825245,-0.50527040536205,-0.13855355270206923
0.2124781459569931,0.12502393126487732,92.80878448486328,-0.3883638987172809,-0.11096490676825245,-0.50527040536205,-0.13855355270206923
0.1815933734178543,0.032785139977931976,92.81468200683594,-0.3883638987172809,-0.11096490676825245,-0.50527040536205,-0.13855355270206923
0.19498440623283386,-0.008552219718694687,92.81491088867188,-0.3883638987172809,-0.11096490676825245,-0.50527040536205,-0.13855355270206923
0.22437725961208344,-0.018467601388692856,92.81398010253906,-0.3883638987172809,-0.11096490676825245,-0.50527040536205,-0.13855355270206923
0.16713081300258636,0.0667218267917633,92.81334686279297,-0.3883638987172809,-0.11096490676825245,-0.50527040536205,-0.13855355270206923
0.1782580018043518,0.08738705515861511,92.81090545654297,-0.3883638987172809,-0.11096490676825245,-0.50527040536205,-0.13855355270206923
0.19960413873195648,0.0763247013092041,92.81161499023438,-0.3883638987172809,-0.11096490676825245,-0.50527040536205,-0.13855355270206923
0.18757390975952148,0.023823868483304977,92.81297302246094,-0.3883638987172809,-0.11096490676825245,-0.50527040536205,-0.13855355270206923
0.19048969447612762,0.014008638449013233,92.8127212524414,-0.3883638987172809,-0.11096490676825245,-0.50527040536205,-0.13855355270206923
0.1879534274339676,0,92.81342315673828,-0.3967587913676269,-0.11327315982450575,-0.5021167126794659,-0.13843681404832744
0.18051323294639587,0.2156674712896347,92.80860137939453,-0.4051018152830916,-0.11556546315091609,-0.4990461571762962,-0.13663958512091381
0.11314035207033157,0.6824476718902588,92.79353332519531,-0.41339885862595926,-0.11778042046243271,-0.49659904396782345,-0.12915529226108136
0.43673622608184814,1.5616223812103271,92.83893585205078,-0.42163732348527355,-0.11977717046865208,-0.49201673914988864,-0.11045470848524314
0.5110310912132263,3.570192575454712,92.89564514160156,-0.4297717852962929,-0.12126170623808216,-0.4841186781724297,-0.0676895838463678
-0.9826485514640808,2.977287769317627,92.94324493408203,-0.4378731811450175,-0.12193517983380132,-0.4880488236745202,-0.013127247639931651
0.14337557554244995,1.313328742980957,92.90544891357422,-0.44606561105180964,-0.12185600781444611,-0.49504276514053375,0.022627889962556547
1.3079195022583008,0.3008006513118744,92.82581329345703,-0.45421553942374904,-0.12136678399602205,-0.48294863949219413,0.036078968248330144
-0.9252207279205322,1.9107128381729126,92.73836517333984,-0.46223810711151214,-0.12061189053289122,-0.4797594830393794,0.05450824732737004
0.31155475974082947,1.3158633708953857,92.6328125,-0.4702767141877365,-0.11947935195180531,-0.48487336610754356,0.08139638240293919
0.8977724313735962,1.3398754596710205,92.57083892822266,-0.47827395590125704,-0.11793831927074477,-0.4747956395149233,0.1035275393243259
-0.2929536700248718,2.305849075317383,92.63201141357422,-0.48614521525696763,-0.11595968496707626,-0.4697554831703506,0.13390857711589593
-0.34186461567878723,1.6418176889419556,92.8510971069336,-0.49401855791298066,-0.1134537318231822,-0.47504563555121443,0.1668058001513904
-0.7999475598335266,0.22366732358932495,93.03038787841797,-0.5020152776843559,-0.11054408758367769,-0.484560737013817,0.18235150858915108
-0.07188497483730316,1.299986481666565,93.10530853271484,-0.5101518338939384,-0.10739908648182685,-0.4918260081360739,0.19504862363295017
1.7045867443084717,0.840630292892456,93.12532043457031,-0.5182355519622152,-0.10399962214526663,-0.4782201600571475,0.21288709675427533
-0.07613451778888702,-0.3262081444263458,93.14442443847656,-0.5260928010029926,-0.10041578010571857,-0.46464972483615097,0.21717394799149292
-0.2020009458065033,0.8497573137283325,93.14452362060547,-0.5338562780463448,-0.09675985672465882,-0.46696752036611255,0.22153685773567613
0.8004324436187744,0,93.17332458496094,-0.5415975123095431,-0.09300856483783308,-0.461980591217677,0.22861816868341223
0.20121127367019653,1.7441827058792114,93.21305084228516,-0.5492276302383593,-0.0890771382274235,-0.4536335602402689,0.24315302456573898
0,0.8743582963943481,93.3019027709961,-0.5567742165705811,-0.08484274469283663,-0.4519567996263506,0.2649741995846853
-0.3796413540840149,0.5779769420623779,93.3980712890625,-0.5643331938806094,-0.08032565141931017,-0.4551204775770507,0.2770769932384914
-0.1729232370853424,0.5769749283790588,93.36152648925781,-0.5719569077146137,-0.0756274965409991,-0.459725182503462,0.28670159215883667
1.251630425453186,0.9420257210731506,93.34071350097656,-0.579544083868257,-0.0707436505154732,-0.45073595593372995,0.29935993090427176
0.5751910209655762,0,93.41124725341797,-0.58692948720004,-0.06568889988088303,-0.43551244388024024,0.307210145246548
0,0.6791914701461792,93.40735626220703,-0.5941480841104769,-0.06052156471912486,-0.4307191853721938,0.3128700741644328
-0.79596346616745,0.19956448674201965,93.32823181152344,-0.6013820124407195,-0.05524603876382263,-0.43735221425692256,0.32019304047183444
1.4804133176803589,-0.6882004141807556,93.2735595703125,-0.6086236847719798,-0.04994342113980863,-0.43164846549431496,0.316121074409845
-0.7282660007476807,0.4518090784549713,93.24752807617188,-0.6157655934109869,-0.04469115263129217,-0.42538057118654266,0.3141511466121301
0.8379963040351868,0,93.22959899902344,-0.6228476494374787,-0.03942392455730841,-0.4244661519924801,0.31791622226592153
-0.18756712973117828,1.0040833950042725,93.25575256347656,-0.62987691661136,-0.03405559283933442,-0.41904590887328,0.32628358389095713
1.1787861585617065,0.7603880167007446,93.32038116455078,-0.6367921804378015,-0.028495000370894506,-0.4107857502996923,0.3409875123218323
-0.07050295174121857,0.3890121579170227,93.4878921508789,-0.6435616454978783,-0.022732055708959954,-0.40155005690952156,0.3505658471103137
-0.6811028122901917,0.08911669999361038,93.64261627197266,-0.6503063412910948,-0.016856088197544264,-0.40781343827645,0.354550254259569
-0.7882195115089417,0.2168962061405182,93.71439361572266,-0.6572052682015217,-0.0109256663969588,-0.42005779097477614,0.3571003618106867
-0.35766738653182983,1.3326598405838013,93.76618957519531,-0.6642858068634653,-0.004866385641313722,-0.4296068484584492,0.3700133288667227
0.9492526054382324,-0.36375105381011963,93.78301239013672,-0.671404838697571,0.0013677885055464961,-0.4246769716342292,0.3780875687565034
1.206770420074463,0.11673345416784286,93.69683837890625,-0.678333064403592,0.007652093984846395,-0.4067101130882901,0.37602908875948443
-0.27254098653793335,-0.06078244745731354,93.52828979492188,-0.6850466892444013,0.013923130950748255,-0.39892486780881903,0.37649534714873883
-0.2591286599636078,-0.4424796998500824,93.4052505493164,-0.6917323585444441,0.020163104642997556,-0.40335544819633184,0.37230149592117723
0.0887947529554367,1.1876939535140991,93.50357055664062,-0.6984667780912586,0.026419880564854954,-0.40477489742139994,0.3785116147017107
-0.753204882144928,1.1988502740859985,93.77154541015625,-0.70525916597392,0.032894139714577914,-0.410311648497979,0.3983994832650448
0.6546594500541687,-0.895191490650177,93.8905029296875,-0.7121045368816704,0.039555218517845034,-0.4111328604320687,0.40092997312701
0,0.9881283044815063,93.99271392822266,-0.7189112887603956,0.04624383868203349,-0.4056773650149506,0.40170444657560445
1.0449063777923584,-1.3989145755767822,94.02181243896484,-0.7256000152344092,0.05291038596724528,-0.39696981186668095,0.3982812276498105
0.053891174495220184,0.2394324094057083,93.99510955810547,-0.732139873379945,0.05946788683320246,-0.3878131655976178,0.38861887626505154
-0.20873592793941498,0.40136170387268066,94.00043487548828,-0.7386141792477834,0.06598936769548655,-0.38910353854298607,0.39395882720903813
-0.37534287571907043,0.2588852047920227,94.02635955810547,-0.7451397992515316,0.0726011986287389,-0.3939708619068068,0.399460884781244
1.1302688121795654,0.27470752596855164,93.97676849365234,-0.7451397992515316,0.0726011986287389,-0.3939708619068068,0.399460884781244
0.8306694030761719,0.5251632332801819,93.98204803466797,-0.7451397992515316,0.0726011986287389,-0.3939708619068068,0.399460884781244
0.022129055112600327,0.18804478645324707,94.02143096923828,-0.7451397992515316,0.0726011986287389,-0.3939708619068068,0.399460884781244
-0.4742535352706909,-2.2482540607452393,94.01864624023438,-0.7451397992515316,0.0726011986287389,-0.3939708619068068,0.399460884781244
0.341401606798172,-2.334272861480713,93.663330078125,-0.7451397992515316,0.0726011986287389,-0.3939708619068068,0.399460884781244
0.4978872835636139,-2.3176465034484863,92.89012145996094,-0.7451397992515316,0.0726011986287389,-0.3939708619068068,0.399460884781244
0.6500241756439209,-2.6972122192382812,91.82034301757812,-0.7451397992515316,0.0726011986287389,-0.3939708619068068,0.399460884781244
-0.07369288057088852,-2.3230183124542236,90.5394287109375,-0.7451397992515316,0.0726011986287389,-0.3939708619068068,0.399460884781244
0.3025203347206116,-2.0216379165649414,89.09387969970703,-0.7451397992515316,0.0726011986287389,-0.3939708619068068,0.399460884781244
0.9167052507400513,-1.2120999097824097,87.54222869873047,-0.7451397992515316,0.0726011986287389,-0.3939708619068068,0.399460884781244
1.0107334852218628,-0.9534520506858826,85.9284439086914,-0.7451397992515316,0.0726011986287389,-0.3939708619068068,0.399460884781244
1.2559881210327148,-0.5384282469749451,84.27261352539062,-0.7451397992515316,0.0726011986287389,-0.3939708619068068,0.399460884781244
0.9491430521011353,-1.1781470775604248,82.5431137084961,-0.7451397992515316,0.0726011986287389,-0.3939708619068068,0.399460884781244
0.1443316787481308,-1.311874508857727,80.74112701416016,-0.7451397992515316,0.0726011986287389,-0.3939708619068068,0.399460884781244
1.3371469974517822,-1.4105414152145386,78.92243957519531,-0.7451397992515316,0.0726011986287389,-0.3939708619068068,0.399460884781244
0.5015364289283752,-1.4244720935821533,77.03447723388672,-0.7451397992515316,0.0726011986287389,-0.3939708619068068,0.399460884781244
0.6354178190231323,-0.3584076464176178,75.07576751708984,-0.7451397992515316,0.0726011986287389,-0.3939708619068068,0.399460884781244
-0.5219122767448425,-1.246608018875122,73.01773834228516,-0.7451397992515316,0.0726011986287389,-0.3939708619068068,0.399460884781244
0.1836269348859787,-0.6031996607780457,70.88546752929688,-0.7451397992515316,0.0726011986287389,-0.3939708619068068,0.399460884781244
1.5724642276763916,-1.2323256731033325,68.78861236572266,-0.7451397992515316,0.0726011986287389,-0.3939708619068068,0.399460884781244
0.0469762347638607,-1.1685298681259155,66.71363067626953,-0.7451397992515316,0.0726011986287389,-0.3939708619068068,0.399460884781244
0.9281149506568909,-0.8333760499954224,64.71514892578125,-0.7451397992515316,0.0726011986287389,-0.3939708619068068,0.399460884781244
-0.09184298664331436,-0.4312550127506256,62.8033561706543,-0.7451397992515316,0.0726011986287389,-0.3939708619068068,0.399460884781244
0.32275113463401794,-1.1011520624160767,61.04515075683594,-0.7451397992515316,0.0726011986287389,-0.3939708619068068,0.399460884781244
0.8193567395210266,0.20091699063777924,59.370662689208984,-0.7451397992515316,0.0726011986287389,-0.3939708619068068,0.399460884781244
-1.9841068983078003,-0.5674551129341125,57.76706314086914,-0.7451397992515316,0.0726011986287389,-0.3939708619068068,0.399460884781244
0.05295143648982048,1.2730540037155151,56.3076171875,-0.7451397992515316,0.0726011986287389,-0.3939708619068068,0.399460884781244
0.1851412057876587,-3.3885979652404785,54.81876754760742,-0.7451397992515316,0.0726011986287389,-0.3939708619068068,0.399460884781244
0.8171216249465942,-0.3796623945236206,53.25840759277344,-0.7451397992515316,0.0726011986287389,-0.3939708619068068,0.399460884781244
-3.612020969390869,0.13199158012866974,51.74820327758789,-0.7451397992515316,0.0726011986287389,-0.3939708619068068,0.399460884781244
2.094548463821411,1.1338753700256348,50.469242095947266,-0.7451397992515316,0.0726011986287389,-0.3939708619068068,0.399460884781244
2.1802916526794434,-1.7863856554031372,49.07975387573242,-0.7451397992515316,0.0726011986287389,-0.3939708619068068,0.399460884781244
-1.2947347164154053,-1.426495909690857,47.49176788330078,-0.7451397992515316,0.0726011986287389,-0.3939708619068068,0.399460884781244
-0.45876967906951904,0.3791637122631073,45.95933532714844,-0.7451397992515316,0.0726011986287389,-0.3939708619068068,0.399460884781244
-0.4656262993812561,-1.4993174076080322,44.2074089050293,-0.7451397992515316,0.0726011986287389,-0.3939708619068068,0.399460884781244
1.6699671745300293,-0.9109278321266174,42.35953140258789,-0.7451397992515316,0.0726011986287389,-0.3939708619068068,0.399460884781244
-0.8021997809410095,0.03383301571011543,40.347557067871094,-0.7451397992515316,0.0726011986287389,-0.3939708619068068,0.399460884781244
0.37162354588508606,-0.9039395451545715,38.235809326171875,-0.7451397992515316,0.0726011986287389,-0.3939708619068068,0.399460884781244
-0.6843183636665344,-0.06052431836724281,36.01303482055664,-0.7451397992515316,0.0726011986287389,-0.3939708619068068,0.399460884781244
1.4046865701675415,-1.461971402168274,33.80668258666992,-0.7451397992515316,0.0726011986287389,-0.3939708619068068,0.399460884781244
-1.1885935068130493,0.5449352264404297,31.516159057617188,-0.7451397992515316,0.0726011986287389,-0.3939708619068068,0.399460884781244
1.3437288999557495,-1.4560860395431519,29.23830795288086,-0.7451397992515316,0.0726011986287389,-0.3939708619068068,0.399460884781244
-1.4129067659378052,0.9803938865661621,26.987266540527344,-0.7451397992515316,0.0726011986287389,-0.3939708619068068,0.399460884781244
-0.26672399044036865,-1.2929621934890747,24.70428466796875,-0.7451397992515316,0.0726011986287389,-0.3939708619068068,0.399460884781244
0.10187865048646927,-0.4215904772281647,22.31995964050293,-0.7451397992515316,0.0726011986287389,-0.3939708619068068,0.399460884781244
0.3404720723628998,-1.3363010883331299,19.91168212890625,-0.7451397992515316,0.0726011986287389,-0.3939708619068068,0.399460884781244
-0.35827022790908813,0.37286943197250366,17.44980239868164,-0.7451397992515316,0.0726011986287389,-0.3939708619068068,0.399460884781244
0.9008548855781555,-0.3818310499191284,15.00717544555664,-0.7451397992515316,0.0726011986287389,-0.3939708619068068,0.399460884781244
-0.7114098072052002,-0.26652899384498596,12.501375198364258,-0.7451397992515316,0.0726011986287389,-0.3939708619068068,0.399460884781244
-0.051364071667194366,0.3754864037036896,10.067656517028809,-0.7451397992515316,0.0726011986287389,-0.3939708619068068,0.399460884781244
-0.45099201798439026,0.4076779782772064,7.886382579803467,-0.7451397992515316,0.0726011986287389,-0.3939708619068068,0.399460884781244
0.5010576844215393,0.7633614540100098,6.046047687530518,-0.7451397992515316,0.0726011986287389,-0.3939708619068068,0.399460884781244
-0.2933865785598755,2.4327032566070557,4.654967308044434,-0.7451397992515316,0.0726011986287389,-0.3939708619068068,0.399460884781244
0.8448401689529419,1.097557544708252,3.6860461235046387,-0.7451397992515316,0.0726011986287389,-0.3939708619068068,0.399460884781244
1.0778038501739502,0.8910862803459167,3.142838954925537,-0.7451397992515316,0.0726011986287389,-0.3939708619068068,0.399460884781244
0.14929474890232086,0.9657520055770874,2.847811222076416,-0.7451397992515316,0.0726011986287389,-0.3939708619068068,0.399460884781244
0.7882646918296814,0.48113325238227844,2.8195090293884277,-0.7451397992515316,0.0726011986287389,-0.3939708619068068,0.399460884781244
-0.018179530277848244,-0.3841582238674164,2.8916192054748535,-0.7451397992515316,0.0726011986287389,-0.3939708619068068,0.399460884781244
0.25065842270851135,0.09440524131059647,2.8909504413604736,-0.7451397992515316,0.0726011986287389,-0.3939708619068068,0.399460884781244
0.155709907412529,-0.36288899183273315,2.875072479248047,-0.7451397992515316,0.0726011986287389,-0.3939708619068068,0.399460884781244
0.16353125870227814,0.032184626907110214,2.8938395977020264,-0.7451397992515316,0.0726011986287389,-0.3939708619068068,0.399460884781244
0.15231625735759735,-0.17045603692531586,2.881854772567749,-0.7451397992515316,0.0726011986287389,-0.3939708619068068,0.399460884781244
0.19860222935676575,-0.18043914437294006,2.8842504024505615,-0.7451397992515316,0.0726011986287389,-0.3939708619068068,0.399460884781244
0.2122698575258255,-0.10216318815946579,2.8879036903381348,-0.7451397992515316,0.0726011986287389,-0.3939708619068068,0.399460884781244
0.149245947599411,-0.12721092998981476,2.884493112564087,-0.7451397992515316,0.0726011986287389,-0.3939708619068068,0.399460884781244
0.16925333440303802,-0.1727149784564972,2.888519048690796,-0.7451397992515316,0.0726011986287389,-0.3939708619068068,0.399460884781244
0.18338517844676971,-0.08529525995254517,2.886554002761841,-0.7451397992515316,0.0726011986287389,-0.3939708619068068,0.399460884781244
0.197493314743042,-0.16894318163394928,2.8861255645751953,-0.7451397992515316,0.0726011986287389,-0.3939708619068068,0.399460884781244
0.1933642476797104,-0.10157480090856552,2.886918067932129,-0.7451397992515316,0.0726011986287389,-0.3939708619068068,0.399460884781244
0.16724005341529846,-0.12808255851268768,2.885004758834839,-0.7451397992515316,0.0726011986287389,-0.3939708619068068,0.399460884781244
0.16773459315299988,-0.12497241050004959,2.886319398880005,-0.7451397992515316,0.0726011986287389,-0.3939708619068068,0.399460884781244
0.16126284003257751,-0.1205182671546936,2.8863043785095215,-0.7451397992515316,0.0726011986287389,-0.3939708619068068,0.399460884781244
0.19073745608329773,-0.13723629713058472,2.8846383094787598,-0.7451397992515316,0.0726011986287389,-0.3939708619068068,0.399460884781244
0.1652945876121521,-0.13635899126529694,2.884208917617798,-0.7451397992515316,0.0726011986287389,-0.3939708619068068,0.399460884781244
0.17464964091777802,-0.12937162816524506,2.8829433917999268,-0.7451397992515316,0.0726011986287389,-0.3939708619068068,0.399460884781244
0.17534247040748596,-0.1330554038286209,2.881520986557007,-0.7451397992515316,0.0726011986287389,-0.3939708619068068,0.399460884781244
0.17489847540855408,-0.12414100766181946,2.8819305896759033,-0.7451397992515316,0.0726011986287389,-0.3939708619068068,0.399460884781244
0.17753952741622925,-0.13751596212387085,2.8817193508148193,-0.7516815054220044,0.07924070941885784,-0.3910338785499336,0.3972804100330299
0.1749739944934845,-0.12915122509002686,2.882019281387329,-0.7581742566254818,0.08584353103140738,-0.38809626586735263,0.39505818347291405
0.318311482667923,0,2.883155345916748,-0.764608271787357,0.09241886525421358,-0.3839855535576742,0.39398192326383047
0.8434567451477051,-0.2696440517902374,2.887507438659668,-0.7709273526641643,0.09896650536056976,-0.37430415165921066,0.39173488949891183
3.3772292137145996,0.15637877583503723,2.8979921340942383,-0.7768726520002301,0.10548755454138807,-0.33913176866869144,0.39079101219928514
3.5091726779937744,0.3259854018688202,3.007603645324707,-0.7820466257911175,0.11203423559038336,-0.2817450862377883,0.39481071368015064
1.2188427448272705,-1.167333960533142,3.1580593585968018,-0.7864140428240514,0.11855598716847862,-0.2423449577142796,0.3877994756912813
1.3181626796722412,0.8890811204910278,3.225097179412842,-0.7902769445203658,0.12499998864944149,-0.22120324584345036,0.3854807020242637
1.1288831233978271,0.1776566058397293,3.226688861846924,-0.793793731548099,0.13149874602528552,-0.20081119748453313,0.39437018307702004
1.685379147529602,-0.7330732941627502,3.265183925628662,-0.7969451499595823,0.13803301180654676,-0.17735901189347122,0.3897417106743282
2.184898853302002,0.34055155515670776,3.3847033977508545,-0.7996323641855269,0.1445014485303546,-0.14510669521987452,0.3864706961826112
1.227508306503296,-0.6142277717590332,3.482893705368042,-0.8018138363864272,0.15092362150724517,-0.1166699688881637,0.3841900610442585
1.3682668209075928,-0.5170230865478516,3.617892026901245,-0.8035780737062709,0.1572482301039337,-0.09503850949307295,0.3747629705583678
0.6939427256584167,0.5248051881790161,3.721484899520874,-0.8050188398681994,0.16349482003696422,-0.0778534299383562,0.3748278214052942
1.1240119934082031,-0.11160316318273544,3.830990791320801,-0.8061901501783479,0.1697706449787883,-0.0627038072794677,0.3782711716135965
1.9922378063201904,0.3000720739364624,3.986854076385498,-0.8070188073969135,0.1760882526244839,-0.03673505894839775,0.37984174586987757
0.6366162896156311,0,4.026241302490234,-0.807448499067169,0.18243978672744968,-0.014827941482265905,0.38234234648601473
1.044105052947998,-0.10930795967578888,4.091526031494141,-0.8075789146653065,0.18880456833835021,-0.0008219302942356621,0.3814314468220498
1.2451773881912231,0.6373252868652344,4.1568756103515625,-0.8074336355562425,0.1951984269886614,0.018255423381924513,0.3858315912152952
0.4184383153915405,-0.9353402853012085,4.206719875335693,-0.8070138496315727,0.20160825802291382,0.032118887578447546,0.3833481328949954
0.9019758105278015,-0.08744331449270248,4.158104419708252,-0.8063868394131876,0.20792636693228916,0.0431223386277754,0.37482493623004615
-0.1009160578250885,0.23602524399757385,4.0218610763549805,-0.8056125046198981,0.21418376739233888,0.049797836566964675,0.3760631189759201
0.8825531005859375,-0.12466949224472046,3.903024673461914,-0.8047282603269236,0.22045921908025373,0.05631147858997175,0.3769910835738605
0.43578508496284485,-0.5995591282844543,3.8191468715667725,-0.803698184420872,0.22669211015228133,0.06729763013621161,0.37095584506945073
1.9136784076690674,-1.0806301832199097,3.8868370056152344,-0.8024134000649469,0.2327580277568066,0.08687649257481088,0.35695426747358106
0.5541260838508606,1.2552392482757568,3.970214366912842,-0.8007940832101222,0.23871939117755073,0.10744153000414361,0.3584093430157131
-0.057282619178295135,0.8725078701972961,3.914769411087036,-0.7989688880250064,0.24484064044437323,0.11158189220974832,0.37614056900298853
0.7369034290313721,-0.7048958539962769,3.876332998275757,-0.7970619939319374,0.25112128965110364,0.11724539895852396,0.3775373358046637
0,-0.14221519231796265,3.9075675010681152,-0.7950567301000571,0.2573547514251873,0.12338626086711872,0.3704780770853784
-0.07944992929697037,-0.8802703619003296,4.07126522064209,-0.7930058097751396,0.2634583801020118,0.1227241781229773,0.3619573641335593
-0.09879587590694427,-0.39369383454322815,4.141867637634277,-0.7909727849873402,0.269402533101707,0.12123879641294467,0.35134099582986295
0.843325674533844,0.8262208700180054,4.06733512878418,-0.7889004349222198,0.27528825296522375,0.12744321140150217,0.35494538779215273
1.4480372667312622,-0.24910205602645874,3.8482565879821777,-0.7866172589723848,0.28124408712384236,0.14653790257871138,0.3597547112420823
0.8850963115692139,-1.101475715637207,3.701860189437866,-0.7840129374309132,0.2871462088548449,0.16598068239788202,0.34849989647821844
0.6352694630622864,1.338964819908142,3.7409658432006836,-0.7811410117677101,0.29297103276172287,0.17865039718647785,0.3504789723471429
-0.059365782886743546,-0.3371950089931488,3.9415242671966553,-0.7781235118368122,0.29888191631548877,0.18344959452127405,0.3588270541047679
-0.08947277814149857,-0.3633192479610443,4.137331008911133,-0.7750763546059735,0.3048137203938353,0.18220927317937202,0.3529894352968163
0.1359565258026123,-0.5901722311973572,4.208095073699951,-0.7720363053482853,0.31063066296272956,0.18259663774321463,0.3450436729704963
-0.07321120798587799,-0.2797742784023285,4.274079322814941,-0.7689886707388277,0.31632097789351565,0.18311951539168742,0.33779411872383225
0.7406696081161499,0.08192301541566849,4.19389009475708,-0.7658903275378461,0.32193714020120545,0.18868166872610634,0.3361453581989434
0.5853732228279114,0.5128588676452637,4.09867525100708,-0.7626535467513732,0.3275808671352893,0.1997320256506402,0.34110187389111785
-0.39140450954437256,-1.0833778381347656,4.126344203948975,-0.7593112096076623,0.33322627899385726,0.20134843159466967,0.3363475491370387
-0.10055603086948395,-0.11744838953018188,4.32651424407959,-0.7559895663408355,0.33874868076922005,0.1972487604245542,0.32634066390649746
0.5415952205657959,0.3738160729408264,4.447413921356201,-0.7526714592789195,0.3442054951456763,0.2009240870053568,0.3284770612682528
0.24187739193439484,0.052985869348049164,4.434438705444336,-0.7492683166751845,0.34970975185725056,0.2074530254428584,0.3320337441206601
0.6957986354827881,-0.15070019662380219,4.3662214279174805,-0.745745649860344,0.35523686187542297,0.2152669923380016,0.33121945806002884
0.46851789951324463,-0.7616526484489441,4.304567337036133,-0.7420770113397803,0.36069382833996005,0.2249696301296352,0.3236165176844226
0.18492057919502258,0,4.258936882019043,-0.7382821398321538,0.3660345444230026,0.23041495078553742,0.3172694122806814
-0.4999017119407654,0.5710301399230957,4.13245964050293,-0.7344637643421689,0.37136202283184194,0.22779010801265623,0.3220279967800405
0.17815092206001282,-0.6567521691322327,4.07802152633667,-0.7306896063468108,0.3767232031928142,0.22510885143031661,0.321313646536631
1.4382901191711426,-0.15207602083683014,4.094429016113281,-0.7268255393062201,0.382022262010788,0.23857919344057624,0.3145734116202222
-1.254128336906433,1.2566100358963013,4.147063255310059,-0.7228364304028865,0.38734185595550413,0.2401138749594488,0.32377786174571777
1.8641542196273804,0,4.187113285064697,-0.7187921695783733,0.3928254182370922,0.24519742398212335,0.3342496120448536
-0.6003228425979614,-1.3562978506088257,4.219563961029053,-0.7146177797774886,0.3983020577537697,0.2557293521240352,0.3229471299564467
-0.13648541271686554,-0.5072932839393616,4.271914005279541,-0.7104067911487071,0.4035550938687002,0.24958928332974498,0.3074172038352118
0.14337895810604095,-0.5479633212089539,4.32750940322876,-0.7062464910414482,0.40860543222392953,0.24964672954132144,0.2986233987923092
0.39737725257873535,0.5804646611213684,4.268263339996338,-0.7020481597011287,0.41358474590796196,0.25415303129702793,0.2988942432915793
0.23661036789417267,-0.25683534145355225,4.0751872062683105,-0.6977682489280898,0.41858879088779855,0.2594362614676355,0.3015911542888111
1.2947652339935303,0.4711810052394867,4.003364562988281,-0.6933379657090536,0.4236301952414861,0.2721977248166997,0.3033773681536939
-0.508646547794342,0.3078514635562897,4.111785888671875,-0.6887467453866781,0.42874058418771405,0.2787487138683596,0.30986930539365876
0.4690770208835602,-0.09313403069972992,4.285062313079834,-0.6841036813726854,0.433919983543779,0.27841896781076975,0.3116586173341301
-0.32380929589271545,-0.8122276663780212,4.355657577514648,-0.6794532772060482,0.4390514214926063,0.2796295321856935,0.30411393652514884
0,-0.8889415860176086,4.366525650024414,-0.6748152717596125,0.44400185034772016,0.2769311213865875,0.2899375260885186
-0.10645832866430283,1.0858268737792969,4.236371040344238,-0.6702071460093266,0.44884781503862337,0.2760439686477183,0.291578236819866
0.06376982480287552,-0.549176037311554,4.205476760864258,-0.6656093776779661,0.4537447197381536,0.27568823111553975,0.29605032712376383
-0.3894948959350586,-1.049288272857666,4.319573879241943,-0.6610371936226469,0.45856788739089904,0.27297385552277154,0.282729791205687
0.3432955741882324,0.05567926913499832,4.5137810707092285,-0.6564908376501665,0.463211049952402,0.2725888611748813,0.27444971617466474
0.7855042815208435,0.2743256688117981,4.591165065765381,-0.6564908376501665,0.463211049952402,0.2725888611748813,0.27444971617466474
0.6608042120933533,0.563387393951416,4.582496643066406,-0.6564908376501665,0.463211049952402,0.2725888611748813,0.27444971617466474
0.7654498219490051,-0.29283058643341064,4.522797584533691,-0.6564908376501665,0.463211049952402,0.2725888611748813,0.27444971617466474
-1.4065437316894531,0.16518166661262512,4.442938804626465,-0.6564908376501665,0.463211049952402,0.2725888611748813,0.27444971617466474
-2.871110439300537,-1.1450227499008179,4.053503513336182,-0.6564908376501665,0.463211049952402,0.2725888611748813,0.27444971617466474
-2.2059292793273926,0.27006644010543823,3.3011302947998047,-0.6564908376501665,0.463211049952402,0.2725888611748813,0.27444971617466474
-2.8449525833129883,-0.7609233260154724,2.3242411613464355,-0.6564908376501665,0.463211049952402,0.2725888611748813,0.27444971617466474
-1.5718581676483154,-0.3373464345932007,1.2065346240997314,-0.6564908376501665,0.463211049952402,0.2725888611748813,0.27444971617466474
-3.5845813751220703,0.015438410453498363,-0.07051972299814224,-0.6564908376501665,0.463211049952402,0.2725888611748813,0.27444971617466474
-0.993523120880127,-1.181593418121338,-1.6192179918289185,-0.6564908376501665,0.463211049952402,0.2725888611748813,0.27444971617466474
-1.6246057748794556,0.4389437437057495,-3.308137893676758,-0.6564908376501665,0.463211049952402,0.2725888611748813,0.27444971617466474
-1.0041487216949463,-0.8206276297569275,-5.038639545440674,-0.6564908376501665,0.463211049952402,0.2725888611748813,0.27444971617466474
-1.5808632373809814,0.27123063802719116,-6.795237064361572,-0.6564908376501665,0.463211049952402,0.2725888611748813,0.27444971617466474
-1.6682326793670654,-0.24373221397399902,-8.645990371704102,-0.6564908376501665,0.463211049952402,0.2725888611748813,0.27444971617466474
-0.5412060022354126,-0.6909980773925781,-10.540482521057129,-0.6564908376501665,0.463211049952402,0.2725888611748813,0.27444971617466474
-1.3557822704315186,-0.7882079482078552,-12.462636947631836,-0.6564908376501665,0.463211049952402,0.2725888611748813,0.27444971617466474
-1.2079198360443115,0.356453537940979,-14.406808853149414,-0.6564908376501665,0.463211049952402,0.2725888611748813,0.27444971617466474
0.16200149059295654,-0.4188416600227356,-16.364473342895508,-0.6564908376501665,0.463211049952402,0.2725888611748813,0.27444971617466474
-0.3710539638996124,-0.3210461139678955,-18.383275985717773,-0.6564908376501665,0.463211049952402,0.2725888611748813,0.27444971617466474
-0.7156867980957031,-1.1543020009994507,-20.44989013671875,-0.6564908376501665,0.463211049952402,0.2725888611748813,0.27444971617466474
-1.429161787033081,0.30657535791397095,-22.564489364624023,-0.6564908376501665,0.463211049952402,0.2725888611748813,0.27444971617466474
-1.1350253820419312,-0.9629995226860046,-24.70825958251953,-0.6564908376501665,0.463211049952402,0.2725888611748813,0.27444971617466474
-0.7544865608215332,0.5817274451255798,-26.858722686767578,-0.6564908376501665,0.463211049952402,0.2725888611748813,0.27444971617466474
-0.7545936703681946,-0.5885567665100098,-28.952274322509766,-0.6564908376501665,0.463211049952402,0.2725888611748813,0.27444971617466474
-0.781913697719574,-0.030001508072018623,-31.107826232910156,-0.6564908376501665,0.463211049952402,0.2725888611748813,0.27444971617466474
-0.5263418555259705,-0.5365716814994812,-33.3065299987793,-0.6564908376501665,0.463211049952402,0.2725888611748813,0.27444971617466474
-0.7487344145774841,-0.98430335521698,-35.501956939697266,-0.6564908376501665,0.463211049952402,0.2725888611748813,0.27444971617466474
-0.9111138582229614,0.19812889397144318,-37.74140930175781,-0.6564908376501665,0.463211049952402,0.2725888611748813,0.27444971617466474
-0.21182845532894135,-0.5687163472175598,-40.00273513793945,-0.6564908376501665,0.463211049952402,0.2725888611748813,0.27444971617466474
-0.9325956106185913,-0.024005340412259102,-42.30609893798828,-0.6564908376501665,0.463211049952402,0.2725888611748813,0.27444971617466474
-0.22958725690841675,-0.42886197566986084,-44.608909606933594,-0.6564908376501665,0.463211049952402,0.2725888611748813,0.27444971617466474
-0.1975250244140625,-1.062975525856018,-46.91392135620117,-0.6564908376501665,0.463211049952402,0.2725888611748813,0.27444971617466474
-0.6471847891807556,0.10764782130718231,-49.28738784790039,-0.6564908376501665,0.463211049952402,0.2725888611748813,0.27444971617466474
-1.1809196472167969,0.3175554871559143,-51.60010528564453,-0.6564908376501665,0.463211049952402,0.2725888611748813,0.27444971617466474
-0.8004556894302368,-0.07542390376329422,-53.92351150512695,-0.6564908376501665,0.463211049952402,0.2725888611748813,0.27444971617466474
-0.317066490650177,0.025457510724663734,-56.2294807434082,-0.6564908376501665,0.463211049952402,0.2725888611748813,0.27444971617466474
0.20938459038734436,1.7847263813018799,-58.607696533203125,-0.6564908376501665,0.463211049952402,0.2725888611748813,0.27444971617466474
-0.2000819742679596,-0.37296032905578613,-61.01755142211914,-0.6564908376501665,0.463211049952402,0.2725888611748813,0.27444971617466474
-1.117429494857788,0.1523144543170929,-63.43558120727539,-0.6564908376501665,0.463211049952402,0.2725888611748813,0.27444971617466474
0.57918781042099,-0.2701588571071625,-65.96923828125,-0.6564908376501665,0.463211049952402,0.2725888611748813,0.27444971617466474
-1.1908167600631714,0.43148061633110046,-68.46791076660156,-0.6564908376501665,0.463211049952402,0.2725888611748813,0.27444971617466474
0.8510922789573669,0.8218837380409241,-71.01464080810547,-0.6564908376501665,0.463211049952402,0.2725888611748813,0.27444971617466474
-0.5205861330032349,-0.7062804102897644,-73.56998443603516,-0.6564908376501665,0.463211049952402,0.2725888611748813,0.27444971617466474
-1.1271241903305054,-0.1551797091960907,-76.137451171875,-0.6564908376501665,0.463211049952402,0.2725888611748813,0.27444971617466474
1.418188452720642,0.8200563192367554,-78.54463195800781,-0.6564908376501665,0.463211049952402,0.2725888611748813,0.27444971617466474
1.7908134460449219,0.39440467953681946,-80.61652374267578,-0.6564908376501665,0.463211049952402,0.2725888611748813,0.27444971617466474
0.5697919726371765,-0.4825187623500824,-82.31452178955078,-0.6564908376501665,0.463211049952402,0.2725888611748813,0.27444971617466474
1.4135055541992188,0.1969030648469925,-83.55715942382812,-0.6564908376501665,0.463211049952402,0.2725888611748813,0.27444971617466474
2.132869243621826,-0.2683413028717041,-84.35167694091797,-0.6564908376501665,0.463211049952402,0.2725888611748813,0.27444971617466474
1.2991502285003662,-0.6043877005577087,-84.70406341552734,-0.6564908376501665,0.463211049952402,0.2725888611748813,0.27444971617466474
0.9792973399162292,-0.9610320329666138,-84.71257781982422,-0.6564908376501665,0.463211049952402,0.2725888611748813,0.27444971617466474
-0.43709686398506165,-0.4091619849205017,-84.61417388916016,-0.6564908376501665,0.463211049952402,0.2725888611748813,0.27444971617466474
-0.20171870291233063,0.17248481512069702,-84.63896179199219,-0.6564908376501665,0.463211049952402,0.2725888611748813,0.27444971617466474
0.056253738701343536,0.024432040750980377,-84.64088439941406,-0.6564908376501665,0.463211049952402,0.2725888611748813,0.27444971617466474
-0.08847039192914963,0.36528050899505615,-84.61652374267578,-0.6564908376501665,0.463211049952402,0.2725888611748813,0.27444971617466474
-0.03199315071105957,0.26097676157951355,-84.61061096191406,-0.6564908376501665,0.463211049952402,0.2725888611748813,0.27444971617466474
-0.1795124113559723,-0.40650856494903564,-84.61627960205078,-0.6564908376501665,0.463211049952402,0.2725888611748813,0.27444971617466474
0.07620368152856827,-0.6858722567558289,-84.6102294921875,-0.6564908376501665,0.463211049952402,0.2725888611748813,0.27444971617466474
-0.1045968160033226,-0.2375146746635437,-84.61048889160156,-0.6564908376501665,0.463211049952402,0.2725888611748813,0.27444971617466474
-0.044540323317050934,0.1750105619430542,-84.60692596435547,-0.6564908376501665,0.463211049952402,0.2725888611748813,0.27444971617466474
-0.09395777434110641,0.17000898718833923,-84.60701751708984,-0.6564908376501665,0.463211049952402,0.2725888611748813,0.27444971617466474
-0.06307575851678848,-0.22355462610721588,-84.60651397705078,-0.6564908376501665,0.463211049952402,0.2725888611748813,0.27444971617466474
-0.020591797307133675,-0.38330522179603577,-84.60442352294922,-0.6564908376501665,0.463211049952402,0.2725888611748813,0.27444971617466474
-0.052436068654060364,-0.20117227733135223,-84.6052474975586,-0.6564908376501665,0.463211049952402,0.2725888611748813,0.27444971617466474
-0.08274491876363754,0.03489411622285843,-84.6036605834961,-0.6564908376501665,0.463211049952402,0.2725888611748813,0.27444971617466474
-0.05754876136779785,-0.012249361723661423,-84.60301208496094,-0.6564908376501665,0.463211049952402,0.2725888611748813,0.27444971617466474
-0.068135567009449,-0.23082903027534485,-84.60357666015625,-0.6564908376501665,0.463211049952402,0.2725888611748813,0.27444971617466474
-0.05411728098988533,-0.2564726769924164,-84.60211181640625,-0.6564908376501665,0.463211049952402,0.2725888611748813,0.27444971617466474
-0.05974875018000603,-0.11336790770292282,-84.6026611328125,-0.6564908376501665,0.463211049952402,0.2725888611748813,0.27444971617466474
-0.07548505812883377,-0.031419914215803146,-84.60234069824219,-0.6564908376501665,0.463211049952402,0.2725888611748813,0.27444971617466474
-0.04995041713118553,-0.10618744790554047,-84.60243225097656,-0.6564908376501665,0.463211049952402,0.2725888611748813,0.27444971617466474
-0.06554898619651794,-0.20162881910800934,-84.60289001464844,-0.6564908376501665,0.463211049952402,0.2725888611748813,0.27444971617466474
-0.06253556162118912,-0.1604596972465515,-84.60236358642578,-0.6519565847241836,0.4677600668527884,0.2715214899430671,0.2714323118717101
-0.07480073720216751,-0.08504188060760498,-84.60199737548828,-0.6474407638014397,0.47226688999663263,0.2703770207862058,0.2693864653895921
0,-0.7333247661590576,-84.62257385253906,-0.6429396746173086,0.4766998334026559,0.26975368130952104,0.26256674333320323
0,-2.2750556468963623,-84.58330535888672,-0.6384437799288166,0.48086703048508045,0.26975368130952104,0.23749690655774142
0.4795805811882019,-2.5806996822357178,-84.36813354492188,-0.6339145810332977,0.48448810702985307,0.27375018615275604,0.1970322788149741
-0.29001668095588684,-1.7996671199798584,-84.34100341796875,-0.6293389137710134,0.48746778620439324,0.27532988532135866,0.1605292221298443
-0.07410624623298645,-2.1152431964874268,-84.53913116455078,-0.6247753686633788,0.4898714044679138,0.2722955275947847,0.12790496949261693
0.18823739886283875,-0.7486487627029419,-84.61498260498047,-0.6202291840956442,0.4918042725734025,0.2732466205333668,0.10403920316603052
1.0034524202346802,-1.7064841985702515,-84.5674057006836,-0.6155923175159841,0.49336776394830345,0.2831773690258461,0.08357976182208723
-0.5937670469284058,-0.8212513327598572,-84.60755157470703,-0.6108442443257404,0.49458522278899586,0.2865914138033984,0.06251529906100299
-0.26153886318206787,-2.4992177486419678,-84.69807434082031,-0.6061271170061081,0.4953965563093597,0.2794638645524778,0.03484472338265445
-0.30709898471832275,-1.4027810096740723,-84.65443420410156,-0.601508874669671,0.4957063295630764,0.27472521581997456,0.0023280670633541167
1.1812162399291992,-1.6008994579315186,-84.58739471435547,-0.596869418485504,0.4955365417594375,0.2820095262800652,-0.022702603500025807
-0.35800981521606445,-0.5390363931655884,-84.4339370727539,-0.5921120926013423,0.4950095583781109,0.2888695798193413,-0.040535402259168365
0.63349449634552,-1.3848339319229126,-84.2159423828125,-0.5872784687237194,0.49420036623454916,0.2911652854954201,-0.056567654968239206
-0.9558956027030945,-0.34890514612197876,-84.19660186767578,-0.5824481029311817,0.49313717343799207,0.288478609609107,-0.0710154806186133
0.26847225427627563,-1.8496601581573486,-84.15882873535156,-0.5776878638368929,0.491800903948218,0.28275008170555016,-0.08933685815427436
-0.540518045425415,-0.27435845136642456,-84.12984466552734,-0.5729942545439635,0.4901644550199854,0.280483033445974,-0.10703701323363914
0.5242247581481934,0.27108943462371826,-84.18661499023438,-0.568320668798147,0.48838027778437315,0.2803472560519971,-0.10706425503982836
-0.5887548327445984,-1.720585823059082,-84.2883071899414,-0.563652695785794,0.48649521406229024,0.27980950543036043,-0.11914339161012305
-0.3699039816856384,-0.7454367280006409,-84.29405975341797,-0.5590557775574012,0.4843382393027424,0.2718206819767751,-0.13969357953562073
0.73213130235672,-1.2432868480682373,-84.16268157958984,-0.5545002781827417,0.48187190717325507,0.27483924298236745,-0.1562662760028614
-0.34532302618026733,-0.2664147615432739,-84.05647277832031,-0.54989276244719,0.4791626288503177,0.2780626452838379,-0.168847122749624
-0.4800959825515747,-1.074760913848877,-83.96768951416016,-0.545315705790288,0.47625537293814396,0.2711841535444059,-0.18002358671122526
1.3021001815795898,-1.1099646091461182,-83.93801879882812,-0.5407388862729487,0.4731032627760822,0.278034188536306,-0.19822963273618355
-0.17682814598083496,-0.7955172061920166,-83.99249267578125,-0.5360268392393159,0.46966711043774734,0.287411455499629,-0.21410864786400133
-0.6439647078514099,0.6088019609451294,-84.00218963623047,-0.5312936478180604,0.46608566663687184,0.28057151505102695,-0.2156646082410587
-0.340546578168869,0.5557887554168701,-83.94340515136719,-0.5266858247398503,0.4625721308548238,0.2723672543341913,-0.2059596856047087
0.21637649834156036,-1.0299129486083984,-83.90544128417969,-0.5221549934231573,0.4591065441368848,0.2713325036689637,-0.20991072054797144
-0.13157477974891663,-0.743623673915863,-83.95086669921875,-0.517626896020439,0.45548486986229886,0.27203918465723576,-0.22469019240234028
-0.44936227798461914,-0.794217586517334,-83.97212219238281,-0.5131332524607165,0.45163323879028533,0.2671980425094563,-0.23750553623928358
0.659343957901001,-0.15358376502990723,-83.96318054199219,-0.5086653696911203,0.4476089936479954,0.2689478898420928,-0.2454038808355106
0.09544854611158371,-1.1524467468261719,-84.09789276123047,-0.5041304887143068,0.4434282324040802,0.275237827375531,-0.25628746843431127
-0.5891153812408447,-0.3550932705402374,-84.163818359375,-0.49957747401048747,0.4390520843178579,0.27112393708278715,-0.2688503019123647
-0.19451957941055298,0.08841973543167114,-84.14805603027344,-0.495113160820264,0.4345527269571582,0.2645936457440255,-0.2710725813716027
0.14533978700637817,-0.709211528301239,-84.05677795410156,-0.4907066819878917,0.4299917400597933,0.2641838141406574,-0.27624584631218246
-0.057981591671705246,0.17638108134269714,-83.92560577392578,-0.48629755187753804,0.4253506405068848,0.26491179910177964,-0.28068610003683697
0.9747068285942078,1.1214462518692017,-83.75967407226562,-0.4818186937510554,0.4207626657377439,0.2725511760761338,-0.26987087226007117
-0.3739057183265686,-0.7127355933189392,-83.72596740722656,-0.47723445185046237,0.41629320055136426,0.2775578519950308,-0.26646495010548565
-1.0632853507995605,0,-83.8869400024414,-0.4727082925859012,0.4118026225222923,0.26558125975231306,-0.2724044133831435
0.7026480436325073,-0.8091453909873962,-84.09688568115234,-0.4683069825141381,0.4072063583137547,0.2625759488592543,-0.27914729164137175
0.30497464537620544,-2.5779500007629395,-84.04022216796875,-0.4638607429019694,0.4023186884953047,0.27097280460099354,-0.3073730865726245
0.09311028569936752,0.6143349409103394,-83.80805206298828,-0.4593168847050726,0.3970594415621601,0.27429017902662334,-0.3237365454047295
-0.28911635279655457,0,-83.64717102050781,-0.45475899325373287,0.39170649462075563,0.27265679513414676,-0.31861708756381
-0.8364720344543457,0.9097056984901428,-83.62496948242188,-0.4502928791950562,0.38645938383486506,0.26327689190705594,-0.3110362067430588
0.3288627564907074,-0.5079618096351624,-83.68681335449219,-0.44594018164090826,0.38130334593698456,0.2590468145906923,-0.3076883410026007
0.23936672508716583,0.25159764289855957,-83.74710083007812,-0.44158327435039824,0.37615740385314006,0.2637820602705079,-0.30982470905873905
0.3508208692073822,-0.5870785117149353,-83.6106948852539,-0.43714592142961933,0.3709703614196044,0.26870029022296243,-0.3126203829655422
0,-0.29047685861587524,-83.50078582763672,-0.432643220698875,0.36569908035835014,0.2716237974663573,-0.3199333443849656
-1.200122594833374,-0.15702353417873383,-83.61306762695312,-0.42819949925463247,0.36033578153576773,0.26162277584274585,-0.3236625143249207
0.11276311427354813,-1.675586223602295,-83.75125122070312,-0.42391463073229224,0.35481414173050646,0.2525614468380806,-0.3389342623064293
0.16620637476444244,0,-83.77769470214844,-0.4196859004038077,0.3490488772043158,0.2548861925800639,-0.35289748083644845
-0.11862435936927795,0.4288000166416168,-83.75920867919922,-0.4154344928875153,0.3431970303026418,0.2552827093750236,-0.34932414736443496
-0.667681097984314,-0.32449913024902344,-83.73853302001953,-0.41123438561024783,0.3373822042970118,0.24873016389707703,-0.3484549733111633
0.24633745849132538,0.7744579911231995,-83.75550842285156,-0.40711814285359466,0.3316058685516087,0.24521896690130213,-0.34470531613721184
0.3820872902870178,-1.2039213180541992,-83.73050689697266,-0.40298751946435224,0.32583095610717383,0.2504558398077883,-0.3482841771949702
1.0853404998779297,-0.6461734771728516,-83.82180786132812,-0.39871135075990544,0.3198977410153669,0.26268440472582955,-0.36370163382186227
-1.5216145515441895,0.677344024181366,-83.85381317138672,-0.3943635741569518,0.31383821173965587,0.2590487876286107,-0.363441879263458
0,-0.6132933497428894,-83.7552490234375,-0.3901517620403322,0.30778529504876756,0.24636866636574248,-0.36290812364313735
0.24484802782535553,-0.2061428427696228,-83.6613998413086,-0.3860286142656375,0.3016799210302352,0.24840906659762044,-0.3697367585807416
-1.603452444076538,1.0922763347625732,-83.63753509521484,-0.3819828106845835,0.2955791787686113,0.23708736312886058,-0.3623523128141337
1.4759008884429932,0.13903693854808807,-83.49785614013672,-0.3780402123793548,0.2896254814212445,0.23602443349858104,-0.3520913688698782
-0.05323309451341629,0.11083390563726425,-83.55005645751953,-0.3740076754464667,0.2837746440820372,0.2478799984479942,-0.3500091118350003
-0.11441699415445328,0,-83.7264633178711,-0.3698879845062687,0.27794885568378974,0.24648291437576195,-0.34908549595468974
0.4232986569404602,-0.598242998123169,-83.90257263183594,-0.3657584858178681,0.27208921943189746,0.249056928232312,-0.35407085427238283
-0.6560412645339966,-1.8669894933700562,-83.82101440429688,-0.36162369969507907,0.2660168418265596,0.24711740650236588,-0.3746144583681597
-0.09593220055103302,0.591494083404541,-83.62698364257812,-0.35755729663289276,0.2596846914502871,0.24085096095999065,-0.385243586784539
-0.37499675154685974,0.4722984731197357,-83.563232421875,-0.35357581734967747,0.2533378394869701,0.23692655302584154,-0.37637864881350336
-0.09625274688005447,-0.4182577133178711,-83.59115600585938,-0.34965976712552643,0.24706861483728682,0.23299947387228392,-0.3759283091484878
0.5577241778373718,0.7053320407867432,-83.6021957397461,-0.34574439593383854,0.24082307873533068,0.23684506913026157,-0.37353602308624717
-0.4978935420513153,-0.38787415623664856,-83.5269546508789,-0.3417928232097379,0.234619524036987,0.23734365776181204,-0.3708905407149964
0.18153326213359833,-0.5892118811607361,-83.41874694824219,-0.33785906504425756,0.2283701618280289,0.23470732209583106,-0.3790329243599746
-0.5827440023422241,0.4875641167163849,-83.4349365234375,-0.3339751381996193,0.22204588754949847,0.23136389926075918,-0.37987998906367754
0.21279098093509674,-1.010496973991394,-83.46222686767578,-0.3339751381996193,0.22204588754949847,0.23136389926075918,-0.37987998906367754
0.008656702004373074,0.9864569902420044,-83.46019744873047,-0.3339751381996193,0.22204588754949847,0.23136389926075918,-0.37987998906367754
0.6492628455162048,1.0112404823303223,-83.43608093261719,-0.3339751381996193,0.22204588754949847,0.23136389926075918,-0.37987998906367754
-1.83342707157135,2.2415456771850586,-83.68644714355469,-0.3339751381996193,0.22204588754949847,0.23136389926075918,-0.37987998906367754
0.38637375831604004,2.737696647644043,-84.33361053466797,-0.3339751381996193,0.22204588754949847,0.23136389926075918,-0.37987998906367754
-0.7576631903648376,1.1743354797363281,-85.26616668701172,-0.3339751381996193,0.22204588754949847,0.23136389926075918,-0.37987998906367754
-0.46270015835762024,2.433502435684204,-86.36781311035156,-0.3339751381996193,0.22204588754949847,0.23136389926075918,-0.37987998906367754
-0.2601834535598755,2.000999689102173,-87.62873840332031,-0.3339751381996193,0.22204588754949847,0.23136389926075918,-0.37987998906367754
-0.8769822716712952,2.5225918292999268,-89.05337524414062,-0.3339751381996193,0.22204588754949847,0.23136389926075918,-0.37987998906367754
-0.32264775037765503,1.8185478448867798,-90.6587142944336,-0.3339751381996193,0.22204588754949847,0.23136389926075918,-0.37987998906367754
-0.9060158729553223,0.7144545316696167,-92.3321533203125,-0.3339751381996193,0.22204588754949847,0.23136389926075918,-0.37987998906367754
-0.39093995094299316,0.7770471572875977,-94.03034210205078,-0.3339751381996193,0.22204588754949847,0.23136389926075918,-0.37987998906367754
-0.3783770501613617,1.488581895828247,-95.77302551269531,-0.3339751381996193,0.22204588754949847,0.23136389926075918,-0.37987998906367754
-0.3151436150074005,1.6593588590621948,-97.54734802246094,-0.3339751381996193,0.22204588754949847,0.23136389926075918,-0.37987998906367754
-0.7276073098182678,1.1704940795898438,-99.39657592773438,-0.3339751381996193,0.22204588754949847,0.23136389926075918,-0.37987998906367754
-0.6674666404724121,0.16812236607074738,-101.2701644897461,-0.3339751381996193,0.22204588754949847,0.23136389926075918,-0.37987998906367754
0.20403355360031128,0.911677896976471,-103.19940185546875,-0.3339751381996193,0.22204588754949847,0.23136389926075918,-0.37987998906367754
-0.7243639230728149,0.5656003952026367,-105.15347290039062,-0.3339751381996193,0.22204588754949847,0.23136389926075918,-0.37987998906367754
-0.6779621243476868,1.0897473096847534,-107.12848663330078,-0.3339751381996193,0.22204588754949847,0.23136389926075918,-0.37987998906367754
-1.1745600700378418,1.3946385383605957,-109.04855346679688,-0.3339751381996193,0.22204588754949847,0.23136389926075918,-0.37987998906367754
-0.015532358549535275,0.7543776035308838,-110.93194580078125,-0.3339751381996193,0.22204588754949847,0.23136389926075918,-0.37987998906367754
-0.5041361451148987,0.5064795613288879,-112.78135681152344,-0.3339751381996193,0.22204588754949847,0.23136389926075918,-0.37987998906367754
-0.20422041416168213,0.9874541163444519,-114.609375,-0.3339751381996193,0.22204588754949847,0.23136389926075918,-0.37987998906367754
-1.1345925331115723,0.27233219146728516,-116.406494140625,-0.3339751381996193,0.22204588754949847,0.23136389926075918,-0.37987998906367754
0.6578851342201233,0.1451568603515625,-118.31756591796875,-0.3339751381996193,0.22204588754949847,0.23136389926075918,-0.37987998906367754
-0.941719651222229,1.3404709100723267,-120.31415557861328,-0.3339751381996193,0.22204588754949847,0.23136389926075918,-0.37987998906367754
0.41767069697380066,0.7849563956260681,-122.337158203125,-0.3339751381996193,0.22204588754949847,0.23136389926075918,-0.37987998906367754
-0.48193490505218506,1.3379650115966797,-124.3517074584961,-0.3339751381996193,0.22204588754949847,0.23136389926075918,-0.37987998906367754
0.2545565068721771,-0.1745583564043045,-126.47301483154297,-0.3339751381996193,0.22204588754949847,0.23136389926075918,-0.37987998906367754
-0.19816718995571136,0.3177809715270996,-128.74246215820312,-0.3339751381996193,0.22204588754949847,0.23136389926075918,-0.37987998906367754
0.2489781230688095,0.5783992409706116,-131.01220703125,-0.3339751381996193,0.22204588754949847,0.23136389926075918,-0.37987998906367754
-0.22801391780376434,1.190964698791504,-133.31735229492188,-0.3339751381996193,0.22204588754949847,0.23136389926075918,-0.37987998906367754
-0.15762938559055328,0.41024500131607056,-135.69845581054688,-0.3339751381996193,0.22204588754949847,0.23136389926075918,-0.37987998906367754
-0.32328546047210693,0.9086952805519104,-138.06552124023438,-0.3339751381996193,0.22204588754949847,0.23136389926075918,-0.37987998906367754
1.212791919708252,0.23354558646678925,-140.50428771972656,-0.3339751381996193,0.22204588754949847,0.23136389926075918,-0.37987998906367754
0.0596274808049202,-0.2615829110145569,-142.97915649414062,-0.3339751381996193,0.22204588754949847,0.23136389926075918,-0.37987998906367754
0.1099127009510994,0.743278443813324,-145.49142456054688,-0.3339751381996193,0.22204588754949847,0.23136389926075918,-0.37987998906367754
0.16542406380176544,0.5157853960990906,-148.0237579345703,-0.3339751381996193,0.22204588754949847,0.23136389926075918,-0.37987998906367754
-0.8005561232566833,0.8346236944198608,-150.5240936279297,-0.3339751381996193,0.22204588754949847,0.23136389926075918,-0.37987998906367754
1.3350067138671875,-0.5007403492927551,-153.12429809570312,-0.3339751381996193,0.22204588754949847,0.23136389926075918,-0.37987998906367754
-0.7572064995765686,0.09179149568080902,-155.63796997070312,-0.3339751381996193,0.22204588754949847,0.23136389926075918,-0.37987998906367754
0.1508820801973343,1.2415257692337036,-158.14439392089844,-0.3339751381996193,0.22204588754949847,0.23136389926075918,-0.37987998906367754
0.6245802044868469,-0.11184496432542801,-160.76841735839844,-0.3339751381996193,0.22204588754949847,0.23136389926075918,-0.37987998906367754
0.8124275803565979,-0.590626060962677,-163.3052215576172,-0.3339751381996193,0.22204588754949847,0.23136389926075918,-0.37987998906367754
1.5787467956542969,0.1452770084142685,-165.7572479248047,-0.3339751381996193,0.22204588754949847,0.23136389926075918,-0.37987998906367754
-0.21391689777374268,-0.6717323064804077,-167.98976135253906,-0.3339751381996193,0.22204588754949847,0.23136389926075918,-0.37987998906367754
-0.16352412104606628,-0.9368431568145752,-169.89788818359375,-0.3339751381996193,0.22204588754949847,0.23136389926075918,-0.37987998906367754
-1.0939350128173828,-1.3444743156433105,-171.4790802001953,-0.3339751381996193,0.22204588754949847,0.23136389926075918,-0.37987998906367754
-0.855298638343811,-1.4366403818130493,-172.573974609375,-0.3339751381996193,0.22204588754949847,0.23136389926075918,-0.37987998906367754
-0.9994248747825623,-1.3283737897872925,-173.29200744628906,-0.3339751381996193,0.22204588754949847,0.23136389926075918,-0.37987998906367754
0.8082358241081238,-1.0735355615615845,-173.53839111328125,-0.3339751381996193,0.22204588754949847,0.23136389926075918,-0.37987998906367754
0.6074966192245483,-0.2600097060203552,-173.53639221191406,-0.3339751381996193,0.22204588754949847,0.23136389926075918,-0.37987998906367754
1.5264241695404053,0.4118366837501526,-173.5235595703125,-0.3339751381996193,0.22204588754949847,0.23136389926075918,-0.37987998906367754
-0.3022325038909912,-0.014605098403990269,-173.53128051757812,-0.3339751381996193,0.22204588754949847,0.23136389926075918,-0.37987998906367754
-0.5533942580223083,0.1272915154695511,-173.49822998046875,-0.3339751381996193,0.22204588754949847,0.23136389926075918,-0.37987998906367754
-0.674842357635498,-0.04859168827533722,-173.47677612304688,-0.3339751381996193,0.22204588754949847,0.23136389926075918,-0.37987998906367754
-0.5284278988838196,0.06740855425596237,-173.49435424804688,-0.3339751381996193,0.22204588754949847,0.23136389926075918,-0.37987998906367754
-0.01567711867392063,0.14188960194587708,-173.51206970214844,-0.3339751381996193,0.22204588754949847,0.23136389926075918,-0.37987998906367754
0.3834574818611145,0.06258877366781235,-173.54180908203125,-0.3339751381996193,0.22204588754949847,0.23136389926075918,-0.37987998906367754
0.19332283735275269,0.17012643814086914,-173.55520629882812,-0.3339751381996193,0.22204588754949847,0.23136389926075918,-0.37987998906367754
-0.24690833687782288,0.049986500293016434,-173.56419372558594,-0.3339751381996193,0.22204588754949847,0.23136389926075918,-0.37987998906367754
-0.37223020195961,0.04282289370894432,-173.57687377929688,-0.3339751381996193,0.22204588754949847,0.23136389926075918,-0.37987998906367754
-0.2716274857521057,0.06404154002666473,-173.5911102294922,-0.3339751381996193,0.22204588754949847,0.23136389926075918,-0.37987998906367754
-0.012716853059828281,0.100289486348629,-173.5929412841797,-0.3339751381996193,0.22204588754949847,0.23136389926075918,-0.37987998906367754
0.05727910250425339,0.08967427909374237,-173.59585571289062,-0.3339751381996193,0.22204588754949847,0.23136389926075918,-0.37987998906367754
-0.07076424360275269,0.11175499856472015,-173.59420776367188,-0.3339751381996193,0.22204588754949847,0.23136389926075918,-0.37987998906367754
-0.2159174680709839,0.04972288757562637,-173.6085968017578,-0.3339751381996193,0.22204588754949847,0.23136389926075918,-0.37987998906367754
-0.203684002161026,0.07978767901659012,-173.6088104248047,-0.3339751381996193,0.22204588754949847,0.23136389926075918,-0.37987998906367754
-0.10513853281736374,0.09015870839357376,-173.62489318847656,-0.3339751381996193,0.22204588754949847,0.23136389926075918,-0.37987998906367754
-0.02033821865916252,0.09604500979185104,-173.64308166503906,-0.3339751381996193,0.22204588754949847,0.23136389926075918,-0.37987998906367754
-0.10726367682218552,0.085153728723526,-173.65037536621094,-0.3339751381996193,0.22204588754949847,0.23136389926075918,-0.37987998906367754
-0.16549372673034668,0.09694301337003708,-173.6620635986328,-0.3339751381996193,0.22204588754949847,0.23136389926075918,-0.37987998906367754
-0.16052214801311493,0.07458534836769104,-173.66111755371094,-0.3339751381996193,0.22204588754949847,0.23136389926075918,-0.37987998906367754
-0.0939563736319542,0.09874042868614197,-173.6782989501953,-0.33013674533149867,0.2157265909107326,0.22924324491371692,-0.3784356075882289
-0.08865669369697571,0.09070509672164917,-173.69100952148438,-0.32632870604594566,0.20943248672352655,0.2277214693526425,-0.3768568948764973
-0.2504306733608246,0.0828060433268547,-173.69444274902344,-0.3225568959572251,0.20316358786031052,0.2248957412938275,-0.3754109687094265
-1.2716937065124512,0.25141894817352295,-173.70816040039062,-0.3189143366842636,0.19692994845067427,0.2122113714615502,-0.3726257604469233
-3.436434745788574,-0.4879446029663086,-173.7525634765625,-0.3157044338579809,0.19070309371719826,0.17297696769237497,-0.37459680757019653
-3.896301507949829,-0.30044448375701904,-173.73912048339844,-0.31333070219183984,0.18440506434889475,0.11187083224455494,-0.38116671662622426
-0.23049767315387726,-0.11799418181180954,-173.73960876464844,-0.3117527715975628,0.17802322749779317,0.07748083906869072,-0.3846537055059645
-2.528400182723999,0.12417930364608765,-173.68165588378906,-0.3106530144086317,0.1716127619283767,0.05449002360304175,-0.38460216282401216
-0.09358565509319305,-0.12542371451854706,-173.69659423828125,-0.3099269296984294,0.16520263946388813,0.032640141621231814,-0.384612532914616
-2.2226295471191406,0.05252636969089508,-173.77294921875,-0.30954377561600693,0.15878736826636483,0.013338348269462365,-0.38522001078817975
-1.345505952835083,-0.43487611413002014,-173.66265869140625,-0.3095692569990127,0.15234048268764244,-0.016396114230156165,-0.3884062586585058
-1.3725427389144897,0.05990118533372879,-173.57608032226562,-0.31003127895088683,0.14584100511772316,-0.039046519994735934,-0.39153104973180824
-1.1490856409072876,0.1943562626838684,-173.4812774658203,-0.3108571673660645,0.13933314438941646,-0.060060089826584076,-0.38941223766499494
-0.5584873557090759,0,-173.36654663085938,-0.3119767503212726,0.1328564373910196,-0.0742898647983871,-0.3877926021426294
-1.8021767139434814,0.3539959192276001,-173.26556396484375,-0.31337884973941604,0.12641781040525546,-0.09396206537882508,-0.38484263614906605
-1.5127127170562744,-0.45892736315727234,-173.13296508789062,-0.315175084817327,0.11999647956360925,-0.12158614397048971,-0.38571706484848
-0.7675001621246338,-0.6938911080360413,-173.0082244873047,-0.31735986866677823,0.11348780497785727,-0.14058791796366393,-0.3953238854417576
-0.5591455698013306,0.7347348928451538,-173.00595092773438,-0.3197951288086675,0.10690190992777304,-0.15164329906304697,-0.39498352056834835
-1.1096185445785522,0.6106513142585754,-173.03451538085938,-0.3224384035232169,0.10041228084934944,-0.16554966668287932,-0.38377196884248393
-0.2817453145980835,0.08369754254817963,-173.01025390625,-0.32529418712481883,0.09406430003925297,-0.17714436550935128,-0.37798572836909433
-1.205081582069397,-0.7373260855674744,-172.93878173828125,-0.32834984508446546,0.08771914702872505,-0.18953458964824696,-0.3834326328942551
-0.7567816376686096,-0.758006751537323,-172.91415405273438,-0.33164499541330694,0.08122476058902185,-0.20588344981273035,-0.39589373987012844
0.17290867865085602,0.5009177327156067,-172.9882049560547,-0.33511693297678424,0.07460867818710154,-0.21074905780454498,-0.3980361483603094
-0.28540587425231934,0.11917506903409958,-172.9739532470703,-0.3386372295787768,0.06801780438121789,-0.21168653443455718,-0.39286870834572857
-1.1884303092956543,1.076938509941101,-172.77171325683594,-0.342267688220988,0.06155305601844014,-0.2239685026307903,-0.3829010951876019
-1.2104836702346802,0.4108646512031555,-172.670654296875,-0.3461670878467464,0.055274690762615125,-0.24395945246020975,-0.3705027355113998
-0.7017471194267273,-0.9400638937950134,-172.72238159179688,-0.35036587252592083,0.049062895223356245,-0.2598947090407215,-0.3749127291996653
-0.46486809849739075,0.25107863545417786,-172.82420349121094,-0.354778465955622,0.04276650353819927,-0.26961650252342245,-0.38065427301917226
-1.188439965248108,-0.8951590061187744,-173.00865173339844,-0.3593868873909947,0.03637753785102802,-0.2833940697213016,-0.38602160944137726
0.6853606104850769,1.3587254285812378,-173.2501983642578,-0.36414505795265273,0.029976036473009404,-0.2875863976776602,-0.38215855592085674
-0.3979172110557556,-0.5596347451210022,-173.33604431152344,-0.36891820323343116,0.02366221961623542,-0.2851910360157492,-0.37549946689202146
-0.4823216199874878,-0.1638297140598297,-173.30801391601562,-0.3737325148636272,0.01735365458059195,-0.29252635960777623,-0.38152833738519504
0.055927857756614685,-0.32903891801834106,-173.21389770507812,-0.37863756486835615,0.010960621969166603,-0.2960796409597002,-0.38563557598584647
-0.7932413220405579,-0.15867207944393158,-173.1346435546875,-0.3836234278749264,0.004499493550134282,-0.30222391982873303,-0.38969983429803207
0.5158230662345886,1.7912143468856812,-173.1937713623047,-0.3886797583620585,-0.0018821326973716863,-0.30453573862711614,-0.37609531540268415
-1.1385622024536133,0,-173.34164428710938,-0.3937985997791923,-0.008025998068882694,-0.3097252314289413,-0.3611685291786368
-0.059187453240156174,-0.7148212790489197,-173.5360565185547,-0.3990438640290978,-0.014095113921793927,-0.31970647855972273,-0.36712537317071114
-0.27635979652404785,-0.5817691683769226,-173.5126190185547,-0.4043956072307713,-0.020303911144599243,-0.32250270564109107,-0.3779302935659265
-0.12733829021453857,0.774172306060791,-173.41549682617188,-0.40979868691414634,-0.026589388041692193,-0.3258668563639126,-0.3763269340852276
-0.21913419663906097,-1.1186164617538452,-173.343017578125,-0.41525386177624307,-0.03288542334281356,-0.3287541270876926,-0.3791973020493364
-0.10743431001901627,1.602624773979187,-173.23927307128906,-0.4207557755962225,-0.039171766688620185,-0.33147553130984325,-0.37516389944745854
-0.7687970399856567,0.37425920367240906,-173.09217834472656,-0.4263412171840258,-0.045287214736518686,-0.33877745922654884,-0.3586898663003619
0.156683549284935,-0.4735810458660126,-172.89755249023438,-0.4320300160524336,-0.05127227652501039,-0.3438784049823882,-0.35951754831864197
-1.4771734476089478,-0.34946927428245544,-172.74473571777344,-0.43785302348952365,-0.05732139193588695,-0.35488248746842166,-0.3663763009865459
-0.1046769917011261,0.4227020740509033,-172.68637084960938,-0.4438775823389494,-0.06342257800790102,-0.36806457446267227,-0.36576602765514216
0.25990229845046997,0.31554144620895386,-172.6671600341797,-0.45000121237813634,-0.0694674115576909,-0.36677103023976104,-0.35961399831964336
0.9275851845741272,-0.7132571935653687,-172.68600463867188,-0.456031598473589,-0.0754885973454736,-0.3568753012145561,-0.36292829621428013
-0.6668616533279419,-0.579752504825592,-172.89306640625,-0.46196141435971727,-0.08162719462254431,-0.35470260512083784,-0.3737033770342048
0.8759778738021851,0.5266033411026001,-172.8367156982422,-0.4678586024853094,-0.08785927515392848,-0.35295996995021917,-0.3741462867318964
-1.5235331058502197,1.9372690916061401,-172.6438446044922,-0.4737862377644831,-0.09392394434718865,-0.35835626355061945,-0.3536140164593236
0.13423673808574677,-1.2219488620758057,-172.4822235107422,-0.4798553210714215,-0.09976783627223777,-0.36993373328199003,-0.3476530145465708
-0.8999086618423462,-0.9937403798103333,-172.5512237548828,-0.48607405495415995,-0.1057159204898116,-0.37631433264662834,-0.36611709156228867
-0.4763484001159668,0.3170969784259796,-172.71969604492188,-0.49244153390535084,-0.11186486114094588,-0.38778314149628096,-0.37175578657382496
0.14226490259170532,0.3762568533420563,-172.85516357421875,-0.4989277865065058,-0.11801264134552573,-0.3905671706423165,-0.365977837975758
0.1163913905620575,-0.0604957714676857,-172.9369659423828,-0.5054192771079643,-0.12409034412554709,-0.3884117015327018,-0.36334649562680493
0.10417550057172775,0.28400933742523193,-172.88648986816406,-0.511877488321625,-0.1301305972772468,-0.38657364410658696,-0.3614838825771587
-0.2973746955394745,-0.22542685270309448,-172.79196166992188,-0.5183337990008298,-0.13615126042542708,-0.38818363739798484,-0.3609956952044742
-0.3529445230960846,-0.5379369854927063,-172.8645477294922,-0.5183337990008298,-0.13615126042542708,-0.38818363739798484,-0.3609956952044742
0.5084820985794067,2.2493467330932617,-173.0124053955078,-0.5183337990008298,-0.13615126042542708,-0.38818363739798484,-0.3609956952044742
-0.6354581117630005,-0.2313627153635025,-173.09902954101562,-0.5183337990008298,-0.13615126042542708,-0.38818363739798484,-0.3609956952044742
0.7834501266479492,-0.5309243202209473,-173.08978271484375,-0.5183337990008298,-0.13615126042542708,-0.38818363739798484,-0.3609956952044742
2.2547717094421387,-0.07787909358739853,-173.28582763671875,-0.5183337990008298,-0.13615126042542708,-0.38818363739798484,-0.3609956952044742
3.7108867168426514,-0.756477415561676,-173.87876892089844,-0.5183337990008298,-0.13615126042542708,-0.38818363739798484,-0.3609956952044742
0.8812090754508972,1.0109914541244507,-174.68991088867188,-0.5183337990008298,-0.13615126042542708,-0.38818363739798484,-0.3609956952044742
1.6355373859405518,0.8171025514602661,-175.62962341308594,-0.5183337990008298,-0.13615126042542708,-0.38818363739798484,-0.3609956952044742
1.4095648527145386,1.4701553583145142,-176.845947265625,-0.5183337990008298,-0.13615126042542708,-0.38818363739798484,-0.3609956952044742
1.6870579719543457,1.1618192195892334,-178.24661254882812,-0.5183337990008298,-0.13615126042542708,-0.38818363739798484,-0.3609956952044742
2.2087631225585938,0.6181962490081787,-179.79473876953125,-0.5183337990008298,-0.13615126042542708,-0.38818363739798484,-0.3609956952044742
1.7998239994049072,0.5708224177360535,178.57003784179688,-0.5183337990008298,-0.13615126042542708,-0.38818363739798484,-0.3609956952044742
1.3046778440475464,0.10862188041210175,176.84852600097656,-0.5183337990008298,-0.13615126042542708,-0.38818363739798484,-0.3609956952044742
0.6665710806846619,0.6423268914222717,175.082763671875,-0.5183337990008298,-0.13615126042542708,-0.38818363739798484,-0.3609956952044742
0.3897286355495453,0.4474635720252991,173.30909729003906,-0.5183337990008298,-0.13615126042542708,-0.38818363739798484,-0.3609956952044742
1.1243540048599243,-0.05247996002435684,171.59054565429688,-0.5183337990008298,-0.13615126042542708,-0.38818363739798484,-0.3609956952044742
1.8836207389831543,-0.25813955068588257,169.8591766357422,-0.5183337990008298,-0.13615126042542708,-0.38818363739798484,-0.3609956952044742
0.3726388216018677,1.2101554870605469,168.10821533203125,-0.5183337990008298,-0.13615126042542708,-0.38818363739798484,-0.3609956952044742
1.184822678565979,0.8383519053459167,166.32046508789062,-0.5183337990008298,-0.13615126042542708,-0.38818363739798484,-0.3609956952044742
0.28449440002441406,0.4660686254501343,164.4751434326172,-0.5183337990008298,-0.13615126042542708,-0.38818363739798484,-0.3609956952044742
1.0658202171325684,0.20493699610233307,162.6274871826172,-0.5183337990008298,-0.13615126042542708,-0.38818363739798484,-0.3609956952044742
0.5723493695259094,0.03236328437924385,160.74160766601562,-0.5183337990008298,-0.13615126042542708,-0.38818363739798484,-0.3609956952044742
1.7846848964691162,0.16485828161239624,158.82249450683594,-0.5183337990008298,-0.13615126042542708,-0.38818363739798484,-0.3609956952044742
-0.3457789123058319,-0.10588885843753815,156.90383911132812,-0.5183337990008298,-0.13615126042542708,-0.38818363739798484,-0.3609956952044742
1.1967095136642456,-0.4163857102394104,154.93336486816406,-0.5183337990008298,-0.13615126042542708,-0.38818363739798484,-0.3609956952044742
0.3310641050338745,1.4766825437545776,152.96011352539062,-0.5183337990008298,-0.13615126042542708,-0.38818363739798484,-0.3609956952044742
0.3355002701282501,0.2872141897678375,150.97813415527344,-0.5183337990008298,-0.13615126042542708,-0.38818363739798484,-0.3609956952044742
0.34618619084358215,-0.5407211780548096,149.01104736328125,-0.5183337990008298,-0.13615126042542708,-0.38818363739798484,-0.3609956952044742
1.7407768964767456,-0.07562995702028275,147.11204528808594,-0.5183337990008298,-0.13615126042542708,-0.38818363739798484,-0.3609956952044742
-0.02477540634572506,1.1170600652694702,145.266357421875,-0.5183337990008298,-0.13615126042542708,-0.38818363739798484,-0.3609956952044742
0.8666617274284363,0.4488199055194855,143.43038940429688,-0.5183337990008298,-0.13615126042542708,-0.38818363739798484,-0.3609956952044742
-0.06472554057836533,0.1626349538564682,141.5028076171875,-0.5183337990008298,-0.13615126042542708,-0.38818363739798484,-0.3609956952044742
0.882321298122406,-0.07625684142112732,139.50466918945312,-0.5183337990008298,-0.13615126042542708,-0.38818363739798484,-0.3609956952044742
0.31499138474464417,0.21269281208515167,137.53041076660156,-0.5183337990008298,-0.13615126042542708,-0.38818363739798484,-0.3609956952044742
0.3059313893318176,-1.1307661533355713,135.40606689453125,-0.5183337990008298,-0.13615126042542708,-0.38818363739798484,-0.3609956952044742
0.523891806602478,-0.5914093852043152,133.2704315185547,-0.5183337990008298,-0.13615126042542708,-0.38818363739798484,-0.3609956952044742
-0.15555550158023834,-0.06444061547517776,131.1829833984375,-0.5183337990008298,-0.13615126042542708,-0.38818363739798484,-0.3609956952044742
0.7202051281929016,0.5270750522613525,129.03826904296875,-0.5183337990008298,-0.13615126042542708,-0.38818363739798484,-0.3609956952044742
0.5184295177459717,0.2874916195869446,126.84598541259766,-0.5183337990008298,-0.13615126042542708,-0.38818363739798484,-0.3609956952044742
0.7082728743553162,-0.2995240390300751,124.62156677246094,-0.5183337990008298,-0.13615126042542708,-0.38818363739798484,-0.3609956952044742
0.29784369468688965,-0.7042780518531799,122.39591217041016,-0.5183337990008298,-0.13615126042542708,-0.38818363739798484,-0.3609956952044742
0.5423799753189087,-0.1967722773551941,120.10077667236328,-0.5183337990008298,-0.13615126042542708,-0.38818363739798484,-0.3609956952044742
0.376472145318985,0.25735658407211304,117.78175354003906,-0.5183337990008298,-0.13615126042542708,-0.38818363739798484,-0.3609956952044742
0.7010221481323242,0.2737219035625458,115.43318939208984,-0.5183337990008298,-0.13615126042542708,-0.38818363739798484,-0.3609956952044742
0.5214983820915222,-0.31813353300094604,113.12799072265625,-0.5183337990008298,-0.13615126042542708,-0.38818363739798484,-0.3609956952044742
0.30456477403640747,-0.3727438449859619,110.81059265136719,-0.5183337990008298,-0.13615126042542708,-0.38818363739798484,-0.3609956952044742
-0.7050852179527283,-1.0847729444503784,108.40814208984375,-0.5183337990008298,-0.13615126042542708,-0.38818363739798484,-0.3609956952044742
0.36895138025283813,0.493348091840744,105.9758071899414,-0.5183337990008298,-0.13615126042542708,-0.38818363739798484,-0.3609956952044742
0.1267538219690323,-0.32491281628608704,103.81180572509766,-0.5183337990008298,-0.13615126042542708,-0.38818363739798484,-0.3609956952044742
-1.8259767293930054,0.517488956451416,101.8993911743164,-0.5183337990008298,-0.13615126042542708,-0.38818363739798484,-0.3609956952044742
-0.8850643038749695,0.21721471846103668,100.45852661132812,-0.5183337990008298,-0.13615126042542708,-0.38818363739798484,-0.3609956952044742
-0.4886350929737091,-0.5775189995765686,99.25902557373047,-0.5183337990008298,-0.13615126042542708,-0.38818363739798484,-0.3609956952044742
-1.914020299911499,0.3795969784259796,98.5667724609375,-0.5183337990008298,-0.13615126042542708,-0.38818363739798484,-0.3609956952044742
-1.555909276008606,0.2707161009311676,98.21704864501953,-0.5183337990008298,-0.13615126042542708,-0.38818363739798484,-0.3609956952044742
-0.8226184248924255,0.6220868229866028,98.23310852050781,-0.5183337990008298,-0.13615126042542708,-0.38818363739798484,-0.3609956952044742
0.41328105330467224,0.773935854434967,98.31886291503906,-0.5183337990008298,-0.13615126042542708,-0.38818363739798484,-0.3609956952044742
0.10200865566730499,-0.284896582365036,98.2939224243164,-0.5183337990008298,-0.13615126042542708,-0.38818363739798484,-0.3609956952044742
0.015558907762169838,-0.16647781431674957,98.28809356689453,-0.5183337990008298,-0.13615126042542708,-0.38818363739798484,-0.3609956952044742
0.22403782606124878,-0.19589748978614807,98.3061752319336,-0.5183337990008298,-0.13615126042542708,-0.38818363739798484,-0.3609956952044742
-0.10355289280414581,0.06614352017641068,98.30697631835938,-0.5183337990008298,-0.13615126042542708,-0.38818363739798484,-0.3609956952044742
0.166702538728714,0.34363028407096863,98.30423736572266,-0.5183337990008298,-0.13615126042542708,-0.38818363739798484,-0.3609956952044742
0.0001641859853407368,0.2742587924003601,98.31119537353516,-0.5183337990008298,-0.13615126042542708,-0.38818363739798484,-0.3609956952044742
0.05056874454021454,0.021759314462542534,98.30697631835938,-0.5183337990008298,-0.13615126042542708,-0.38818363739798484,-0.3609956952044742
0.13732577860355377,-0.0291245449334383,98.3061294555664,-0.5183337990008298,-0.13615126042542708,-0.38818363739798484,-0.3609956952044742
0.038234174251556396,0.082434743642807,98.31104278564453,-0.5183337990008298,-0.13615126042542708,-0.38818363739798484,-0.3609956952044742
0.07275523245334625,0.20950087904930115,98.30785369873047,-0.5183337990008298,-0.13615126042542708,-0.38818363739798484,-0.3609956952044742
0.08078966289758682,0.16208840906620026,98.31048583984375,-0.5183337990008298,-0.13615126042542708,-0.38818363739798484,-0.3609956952044742
0.058692656457424164,0.049249693751335144,98.31092834472656,-0.5183337990008298,-0.13615126042542708,-0.38818363739798484,-0.3609956952044742
0.0912850946187973,0.05004953593015671,98.30931091308594,-0.5183337990008298,-0.13615126042542708,-0.38818363739798484,-0.3609956952044742
0.06128297001123428,0.1380319595336914,98.31168365478516,-0.5183337990008298,-0.13615126042542708,-0.38818363739798484,-0.3609956952044742
0.037300966680049896,0.16121406853199005,98.31135559082031,-0.5183337990008298,-0.13615126042542708,-0.38818363739798484,-0.3609956952044742
0.07745268940925598,0.10622048377990723,98.31058502197266,-0.5183337990008298,-0.13615126042542708,-0.38818363739798484,-0.3609956952044742
0.06245315074920654,0.057012952864170074,98.31124114990234,-0.5183337990008298,-0.13615126042542708,-0.38818363739798484,-0.3609956952044742
0.08544427156448364,0.0990251675248146,98.30992126464844,-0.5183337990008298,-0.13615126042542708,-0.38818363739798484,-0.3609956952044742
0.06759923696517944,0.1376975029706955,98.31031036376953,-0.5183337990008298,-0.13615126042542708,-0.38818363739798484,-0.3609956952044742
0.054396018385887146,0.1286473423242569,98.31078338623047,-0.5183337990008298,-0.13615126042542708,-0.38818363739798484,-0.3609956952044742
0.06847802549600601,0.08007121086120605,98.31147003173828,-0.5247949933710822,-0.14215336100153045,-0.3871596870323024,-0.3592563739279287
0.07235919684171677,0.0920986756682396,98.31167602539062,-0.5312378744589582,-0.1481290109915425,-0.3859860435128214,-0.35782162487351665
0,0.4683188199996948,98.29154968261719,-0.5376659502399468,-0.15405378685779084,-0.3853830502058071,-0.35315147907628386
0,1.171169400215149,98.27633666992188,-0.5440890010767102,-0.15982579149376955,-0.3853830502058071,-0.3394890772411602
-0.3893338739871979,3.614243745803833,98.34153747558594,-0.5505390889880561,-0.16515162242375978,-0.38862749915570044,-0.29961063435766866
-0.4161716103553772,2.711231231689453,98.34708404541016,-0.5570721518548416,-0.16970586390072834,-0.39534004485855523,-0.24689834287855794
0.27248483896255493,0.6276616454124451,98.31903076171875,-0.5636711308504976,-0.17358896872112778,-0.39653743462016205,-0.21907423556937544
0,1.5157322883605957,98.32760620117188,-0.5702611655359057,-0.1770913591796609,-0.39426672762880743,-0.20121261945460012
0.471201628446579,1.634508490562439,98.36595916748047,-0.5767995553277436,-0.18022613611647903,-0.3903400473917526,-0.17496061296357482
-0.7081023454666138,1.5630733966827393,98.4482650756836,-0.5833216742229548,-0.18292009203481324,-0.39231422003358624,-0.14831409723653166
0.32213687896728516,1.7054755687713623,98.41691589355469,-0.5898870477142437,-0.18516501108837669,-0.39553059892108067,-0.12107618919108082
-0.32957836985588074,0.4210472106933594,98.31293487548828,-0.596479741133129,-0.1870352723818763,-0.3955926113451523,-0.1033551660288748
-1.142270803451538,1.1519871950149536,98.2574234008789,-0.6031751630703612,-0.18864861998196114,-0.4078580211227141,-0.09024654598130553
0.8517123460769653,0.9853233098983765,98.26068115234375,-0.6099929744263908,-0.19000430474103058,-0.4102793416008355,-0.07243562510702778
-0.426008403301239,1.1940354108810425,98.40664672851562,-0.6168014006792675,-0.19106022080387136,-0.40673180874437115,-0.054274302433865954
0.12121745944023132,0.5423372983932495,98.4415512084961,-0.6236014301961085,-0.1918442110729584,-0.4092717332765462,-0.03980452985658019
0.43484532833099365,2.064545154571533,98.36167907714844,-0.6303840102793445,-0.1923265864002233,-0.40463787671178597,-0.018080509415207
1.4896314144134521,0.8476332426071167,98.44871520996094,-0.6369943306729615,-0.19242569361289488,-0.38860057052224894,0.006187643894615083
-1.466283917427063,0.12585335969924927,98.54470825195312,-0.6434693854943749,-0.19225496297838002,-0.38840600804736236,0.014300032247168132
-1.2310984134674072,1.897761344909668,98.40923309326172,-0.6501301371792542,-0.1918761003086627,-0.4108841941381496,0.031163488118909108
0.5686730742454529,1.4131412506103516,98.422607421875,-0.6570242088412248,-0.19112678504865865,-0.41640440529833256,0.05875434308157594
0,-0.26817893981933594,98.56895446777344,-0.6639247910771522,-0.19006803472571634,-0.41166546301295376,0.06829569567150107
-1.1845862865447998,0.7305987477302551,98.66761016845703,-0.6708681450639337,-0.18889766064453084,-0.4215370154008271,0.07214919407075873
1.0664337873458862,1.385759949684143,98.64714050292969,-0.6779019670219474,-0.18754820472269776,-0.4225216195608181,0.08978551654921205
0,0.8834109902381897,98.81102752685547,-0.6848699361127286,-0.18589419813160518,-0.4136346713329357,0.10869527438189816
-0.713350236415863,1.168676733970642,98.9122085571289,-0.6918133855124731,-0.18394010413328127,-0.4195792566364012,0.12579600541697175
0.30154791474342346,-0.5938106179237366,98.77867126464844,-0.6988349705065292,-0.1818035827849396,-0.42301094265033823,0.1305865563840293
-0.23097747564315796,0.2544112801551819,98.6252212524414,-0.7058802521590973,-0.17965070957699528,-0.422422855657836,0.12775822856929134
-0.33828452229499817,0,98.65868377685547,-0.7129601651699181,-0.1775037383174963,-0.42716670564065395,0.12987832257058451
0.44478166103363037,0.6565155386924744,98.74116516113281,-0.7200722146292944,-0.1752935082511329,-0.4262792294844987,0.1353492853930218
1.0477956533432007,0.6811076402664185,98.85449981689453,-0.7270732172516488,-0.17294479632937707,-0.4138410851980251,0.14649614521767923
-1.1116902828216553,1.0685206651687622,98.8001708984375,-0.7339750057986629,-0.1703816919434272,-0.41437354044367886,0.16107638109630573
-0.2217143476009369,0,98.61439514160156,-0.7409738290165035,-0.16762288276785206,-0.4254852456972005,0.16998071997271208
1.2503421306610107,0.9496821761131287,98.61013793945312,-0.7479938172931888,-0.16472392061718788,-0.41691334750503317,0.17789473810698814
0.6326577067375183,-0.3895896077156067,98.67627716064453,-0.7548116092073422,-0.16172011299815492,-0.4012216821933788,0.1825621761769675
-0.21680672466754913,-0.09727712720632553,98.72579193115234,-0.761469758703477,-0.15871122025179726,-0.3977562573427957,0.17850495338595138
0.5537745356559753,0.5410357117652893,98.77124786376953,-0.7680756291167605,-0.1557053211269926,-0.39494819225122546,0.1822029415906094
-1.034021258354187,0.7411381602287292,98.81319427490234,-0.7746914494544683,-0.15257956558159397,-0.39895024827371056,0.19288772385722622
-0.2154802829027176,0.11731307953596115,98.7008056640625,-0.7814273911993952,-0.14930515551454543,-0.4093627611175181,0.20004148418859863
0.4797312319278717,0.3586639165878296,98.56014251708984,-0.7882317531243382,-0.14593807682000462,-0.40716066987564187,0.20400795915629688
0.2016904652118683,0,98.57759094238281,-0.794970443337742,-0.14251303695096995,-0.4014821557328107,0.20699682512786213
-0.8337342739105225,-0.06311572343111038,98.73696899414062,-0.8017057045311151,-0.13906747290185498,-0.40674918747196614,0.2064708607659362
0,0,98.92728424072266,-0.8085427558691138,-0.13563067492543876,-0.41369697308788717,0.20594489640401029
1.4141837358474731,0.10103119164705276,98.94672393798828,-0.8153394982167004,-0.13219124393039644,-0.40191210862249155,0.20678682300106907
0.6656193733215332,0.5090748071670532,98.82408905029297,-0.8218936025889385,-0.12870242840823876,-0.3845804160460832,0.21187103965785328
-1.7259262800216675,1.013641119003296,98.6629409790039,-0.828376908613783,-0.1250655002524016,-0.393416306935251,0.2245603390426062
0.07214701920747757,0,98.66131591796875,-0.8350486928447048,-0.1212524361906496,-0.4071978007753692,0.23300734836763365
-0.4899280071258545,0.5314918160438538,98.7808837890625,-0.8418643354262331,-0.11733207123063044,-0.41067930900802235,0.23743644683466578
0.3332875370979309,0.27118805050849915,98.8780288696289,-0.8487198683867854,-0.11331905545931988,-0.41198464625825504,0.24412544572260206
0.3423318862915039,-0.3203834295272827,98.98308563232422,-0.8555393611422432,-0.10925371437637503,-0.40635448439667643,0.24371548423077885
-0.08617105334997177,-0.39289477467536926,99.00114440917969,-0.8622941469354557,-0.10524132284782056,-0.40421981078883035,0.23777149919575674
0,0.2073146104812622,98.85541534423828,-0.8690371278828632,-0.10129135203929365,-0.40493790290008014,0.23622499782747253
0.31510084867477417,-0.1060878112912178,98.77842712402344,-0.8757642109278178,-0.09734723910333647,-0.402312062494457,0.23706855448738956
0.19090493023395538,0.4160550832748413,98.77123260498047,-0.8824342726791901,-0.09337457102354778,-0.3980953476702176,0.23965161508725308
0.8123021721839905,0.12632493674755096,98.76555633544922,-0.8889995279804702,-0.08934271215959201,-0.3897352884834014,0.2441714485874397
-2.5655155181884766,-0.1887134611606598,98.64463806152344,-0.895616867048666,-0.0852775205528856,-0.4043453997001054,0.24365154421733046
1.4090161323547363,-0.7347008585929871,98.5453872680664,-0.9024362695010174,-0.0812807874770241,-0.41398289458205323,0.23595642488605006
1.2612085342407227,0.9033650755882263,98.56243896484375,-0.9091505521422047,-0.07733646760274304,-0.3917310223604244,0.23736196002767707
-0.08180730044841766,0.0951203778386116,98.64353942871094,-0.9155974996514207,-0.07331109566801601,-0.3819026787454885,0.24568267213956738
-0.26421651244163513,0.7463290095329285,98.7679443359375,-0.9155974996514207,-0.07331109566801601,-0.3819026787454885,0.24568267213956738
0.25072500109672546,0.4532124698162079,98.85589599609375,-0.9155974996514207,-0.07331109566801601,-0.3819026787454885,0.24568267213956738
-0.8687509894371033,-0.07744777202606201,98.78902435302734,-0.9155974996514207,-0.07331109566801601,-0.3819026787454885,0.24568267213956738
1.1438041925430298,-1.011167287826538,98.56037139892578,-0.9155974996514207,-0.07331109566801601,-0.3819026787454885,0.24568267213956738
0.06217847019433975,-0.909038782119751,98.22532653808594,-0.9155974996514207,-0.07331109566801601,-0.3819026787454885,0.24568267213956738
0.514073371887207,-2.549781560897827,97.68871307373047,-0.9155974996514207,-0.07331109566801601,-0.3819026787454885,0.24568267213956738
0.8999562859535217,-2.3370118141174316,97.00186157226562,-0.9155974996514207,-0.07331109566801601,-0.3819026787454885,0.24568267213956738
0.4740224778652191,-2.321239709854126,96.19808959960938,-0.9155974996514207,-0.07331109566801601,-0.3819026787454885,0.24568267213956738
1.1848523616790771,-1.7152799367904663,95.15548706054688,-0.9155974996514207,-0.07331109566801601,-0.3819026787454885,0.24568267213956738
-0.1047365665435791,-0.5243468284606934,93.89307403564453,-0.9155974996514207,-0.07331109566801601,-0.3819026787454885,0.24568267213956738
-0.23642238974571228,-0.488542377948761,92.4825210571289,-0.9155974996514207,-0.07331109566801601,-0.3819026787454885,0.24568267213956738
1.335370659828186,-2.110933303833008,91.02352142333984,-0.9155974996514207,-0.07331109566801601,-0.3819026787454885,0.24568267213956738
0.5952271819114685,-1.0883888006210327,89.50071716308594,-0.9155974996514207,-0.07331109566801601,-0.3819026787454885,0.24568267213956738
1.4631189107894897,-1.8894450664520264,87.89342498779297,-0.9155974996514207,-0.07331109566801601,-0.3819026787454885,0.24568267213956738
0.3514559864997864,-0.7595111131668091,86.2447280883789,-0.9155974996514207,-0.07331109566801601,-0.3819026787454885,0.24568267213956738
-0.10947073996067047,-1.5835179090499878,84.5356216430664,-0.9155974996514207,-0.07331109566801601,-0.3819026787454885,0.24568267213956738
0.31376537680625916,-0.21913304924964905,82.79936218261719,-0.9155974996514207,-0.07331109566801601,-0.3819026787454885,0.24568267213956738
1.4481511116027832,-0.835385262966156,81.04963684082031,-0.9155974996514207,-0.07331109566801601,-0.3819026787454885,0.24568267213956738
0.6819431185722351,-0.8709737658500671,79.21940612792969,-0.9155974996514207,-0.07331109566801601,-0.3819026787454885,0.24568267213956738
0.22723181545734406,-1.9087653160095215,77.30941009521484,-0.9155974996514207,-0.07331109566801601,-0.3819026787454885,0.24568267213956738
-0.04620002582669258,-0.7144649028778076,75.36698150634766,-0.9155974996514207,-0.07331109566801601,-0.3819026787454885,0.24568267213956738
0.36404311656951904,-0.9889798164367676,73.426513671875,-0.9155974996514207,-0.07331109566801601,-0.3819026787454885,0.24568267213956738
1.1655244827270508,0.36526918411254883,71.5123519897461,-0.9155974996514207,-0.07331109566801601,-0.3819026787454885,0.24568267213956738
0.24795490503311157,-0.7521825432777405,69.5813980102539,-0.9155974996514207,-0.07331109566801601,-0.3819026787454885,0.24568267213956738
-0.4500609338283539,-1.298693299293518,67.65814208984375,-0.9155974996514207,-0.07331109566801601,-0.3819026787454885,0.24568267213956738
-1.117985725402832,-2.534538984298706,65.67508697509766,-0.9155974996514207,-0.07331109566801601,-0.3819026787454885,0.24568267213956738
0.37666893005371094,0.6886486411094666,63.66771697998047,-0.9155974996514207,-0.07331109566801601,-0.3819026787454885,0.24568267213956738
1.8899528980255127,-0.9103453755378723,61.58591079711914,-0.9155974996514207,-0.07331109566801601,-0.3819026787454885,0.24568267213956738
-0.17638611793518066,-0.12169335037469864,59.47899627685547,-0.9155974996514207,-0.07331109566801601,-0.3819026787454885,0.24568267213956738
0.43643876910209656,-1.4944275617599487,57.50630187988281,-0.9155974996514207,-0.07331109566801601,-0.3819026787454885,0.24568267213956738
-0.4675854444503784,-0.5209126472473145,55.553855895996094,-0.9155974996514207,-0.07331109566801601,-0.3819026787454885,0.24568267213956738
-0.4795650839805603,-1.0162668228149414,53.556236267089844,-0.9155974996514207,-0.07331109566801601,-0.3819026787454885,0.24568267213956738
1.1915392875671387,-0.5530129671096802,51.489688873291016,-0.9155974996514207,-0.07331109566801601,-0.3819026787454885,0.24568267213956738
-1.6312150955200195,-0.41288822889328003,49.42924880981445,-0.9155974996514207,-0.07331109566801601,-0.3819026787454885,0.24568267213956738
-0.11739227175712585,-1.2740451097488403,47.46059799194336,-0.9155974996514207,-0.07331109566801601,-0.3819026787454885,0.24568267213956738
0.4509274959564209,0.03562726825475693,45.57123565673828,-0.9155974996514207,-0.07331109566801601,-0.3819026787454885,0.24568267213956738
-0.23360100388526917,-0.7541185617446899,43.577823638916016,-0.9155974996514207,-0.07331109566801601,-0.3819026787454885,0.24568267213956738
-0.1826590597629547,0.10914316773414612,41.53174591064453,-0.9155974996514207,-0.07331109566801601,-0.3819026787454885,0.24568267213956738
-0.8097888231277466,-0.9128710627555847,39.408451080322266,-0.9155974996514207,-0.07331109566801601,-0.3819026787454885,0.24568267213956738
0.4592791795730591,-0.2956130802631378,37.31486129760742,-0.9155974996514207,-0.07331109566801601,-0.3819026787454885,0.24568267213956738
-0.11392920464277267,-0.0036623296327888966,35.01482009887695,-0.9155974996514207,-0.07331109566801601,-0.3819026787454885,0.24568267213956738
-0.9193105101585388,0.27559834718704224,32.69435119628906,-0.9155974996514207,-0.07331109566801601,-0.3819026787454885,0.24568267213956738
-0.8561417460441589,-0.9863026738166809,30.41627311706543,-0.9155974996514207,-0.07331109566801601,-0.3819026787454885,0.24568267213956738
-0.14102444052696228,0.21325315535068512,28.122364044189453,-0.9155974996514207,-0.07331109566801601,-0.3819026787454885,0.24568267213956738
1.0263067483901978,-0.642518162727356,25.808101654052734,-0.9155974996514207,-0.07331109566801601,-0.3819026787454885,0.24568267213956738
-0.5005661845207214,-0.29017236828804016,23.474760055541992,-0.9155974996514207,-0.07331109566801601,-0.3819026787454885,0.24568267213956738
0.038781218230724335,-0.239640474319458,21.13558578491211,-0.9155974996514207,-0.07331109566801601,-0.3819026787454885,0.24568267213956738
-1.2356535196304321,0.06804671883583069,18.782480239868164,-0.9155974996514207,-0.07331109566801601,-0.3819026787454885,0.24568267213956738
-0.15993835031986237,-0.9414691925048828,16.43375587463379,-0.9155974996514207,-0.07331109566801601,-0.3819026787454885,0.24568267213956738
-0.5946186184883118,0.6093174815177917,14.075254440307617,-0.9155974996514207,-0.07331109566801601,-0.3819026787454885,0.24568267213956738
0.6563319563865662,-0.08890578150749207,11.958579063415527,-0.9155974996514207,-0.07331109566801601,-0.3819026787454885,0.24568267213956738
-1.5359410047531128,1.1893218755722046,10.145453453063965,-0.9155974996514207,-0.07331109566801601,-0.3819026787454885,0.24568267213956738
0.9954981207847595,1.0457552671432495,8.735953330993652,-0.9155974996514207,-0.07331109566801601,-0.3819026787454885,0.24568267213956738
0.4759403169155121,2.229368209838867,7.657224655151367,-0.9155974996514207,-0.07331109566801601,-0.3819026787454885,0.24568267213956738
-0.04615325853228569,1.6437571048736572,7.231248378753662,-0.9155974996514207,-0.07331109566801601,-0.3819026787454885,0.24568267213956738
-0.1309693455696106,0.6549164056777954,7.141191482543945,-0.9155974996514207,-0.07331109566801601,-0.3819026787454885,0.24568267213956738
0.9243360161781311,-0.034803859889507294,7.231130599975586,-0.9155974996514207,-0.07331109566801601,-0.3819026787454885,0.24568267213956738
0.19162677228450775,-0.1554969698190689,7.267599582672119,-0.9155974996514207,-0.07331109566801601,-0.3819026787454885,0.24568267213956738
0.7697412371635437,0.2929496765136719,7.221335411071777,-0.9155974996514207,-0.07331109566801601,-0.3819026787454885,0.24568267213956738
0.5220190286636353,-0.4547916054725647,7.246528625488281,-0.9155974996514207,-0.07331109566801601,-0.3819026787454885,0.24568267213956738
0.22579407691955566,0.1881723701953888,7.256035327911377,-0.9155974996514207,-0.07331109566801601,-0.3819026787454885,0.24568267213956738
-0.10871866345405579,-0.19489097595214844,7.250000953674316,-0.9155974996514207,-0.07331109566801601,-0.3819026787454885,0.24568267213956738
-0.1602204591035843,-0.14783751964569092,7.252842426300049,-0.9155974996514207,-0.07331109566801601,-0.3819026787454885,0.24568267213956738
-0.18615835905075073,-0.1076982319355011,7.256732940673828,-0.9155974996514207,-0.07331109566801601,-0.3819026787454885,0.24568267213956738
0.13817380368709564,-0.06865303218364716,7.247210502624512,-0.9155974996514207,-0.07331109566801601,-0.3819026787454885,0.24568267213956738
0.2138630598783493,-0.09751839190721512,7.2518110275268555,-0.9155974996514207,-0.07331109566801601,-0.3819026787454885,0.24568267213956738
0.2559017241001129,-0.03471623361110687,7.253017902374268,-0.9155974996514207,-0.07331109566801601,-0.3819026787454885,0.24568267213956738
0.10761860013008118,-0.09852622449398041,7.2532172203063965,-0.9155974996514207,-0.07331109566801601,-0.3819026787454885,0.24568267213956738
-0.01641625165939331,-0.11081608384847641,7.255229473114014,-0.9155974996514207,-0.07331109566801601,-0.3819026787454885,0.24568267213956738
-0.01500093936920166,-0.09430170804262161,7.255466938018799,-0.9155974996514207,-0.07331109566801601,-0.3819026787454885,0.24568267213956738
0.10489823669195175,-0.09171531349420547,7.253497123718262,-0.9155974996514207,-0.07331109566801601,-0.3819026787454885,0.24568267213956738
0.15455056726932526,-0.06322509050369263,7.254929065704346,-0.9155974996514207,-0.07331109566801601,-0.3819026787454885,0.24568267213956738
0.12178689986467361,-0.07028621435165405,7.2547478675842285,-0.9155974996514207,-0.07331109566801601,-0.3819026787454885,0.24568267213956738
0.05188030004501343,-0.09770100563764572,7.2557220458984375,-0.9155974996514207,-0.07331109566801601,-0.3819026787454885,0.24568267213956738
0.040734726935625076,-0.08476697653532028,7.256708145141602,-0.9155974996514207,-0.07331109566801601,-0.3819026787454885,0.24568267213956738
0.10441181063652039,-0.08259650319814682,7.255528926849365,-0.9155974996514207,-0.07331109566801601,-0.3819026787454885,0.24568267213956738
0.1429840326309204,-0.08651405572891235,7.255552291870117,-0.9155974996514207,-0.07331109566801601,-0.3819026787454885,0.24568267213956738
0.11112166941165924,-0.07196685671806335,7.256113052368164,-0.9219448980678703,-0.06922739008460982,-0.379785131228467,0.24436199786917592
0.5009477138519287,0,7.240688800811768,-0.9282321454367292,-0.06515968781850676,-0.3746845530346038,0.24376227406319206
1.6889244318008423,0.24858583509922028,7.299629211425781,-0.9343248135327467,-0.061079720345571666,-0.3564356184874974,0.2458338226890189
3.007957696914673,0.27812063694000244,7.557072639465332,-0.9399392348041553,-0.05694591312908529,-0.31729493408153475,0.25022304328934575
3.041450023651123,-0.3004826605319977,7.675998687744141,-0.9448073859471416,-0.052777081992567865,-0.2668832030768198,0.2500366930927458
1.6127285957336426,0.2391793131828308,7.636391639709473,-0.9489322324831869,-0.04861406095125468,-0.2280983812486134,0.24952583186483607
1.5828441381454468,-0.07225558906793594,7.688438415527344,-0.9525119573974777,-0.04444370516155499,-0.20146860846628764,0.25091686289912685
0.8338291645050049,0.22914913296699524,7.7859392166137695,-0.9557019430036763,-0.040250862061576555,-0.1813296642775339,0.2522243090982857
0.9720929265022278,0,7.80196475982666,-0.9585986928186485,-0.03603121044237131,-0.16628031351914027,0.254133885206344
1.3397623300552368,-0.7831671833992004,7.73501443862915,-0.9612094858733733,-0.03185003229889052,-0.14701485304782808,0.24760749201135066
2.239198684692383,1.3976941108703613,7.762111186981201,-0.9634111944648129,-0.02768056528429362,-0.11719017792493125,0.252728549740277
1.026252031326294,-0.23469337821006775,7.782345771789551,-0.9651375966860605,-0.023387658848854263,-0.0899780886247756,0.26242022251244607
0.8678094744682312,0.11040524393320084,7.831414699554443,-0.9665056994474599,-0.01902261959408272,-0.07419424274315456,0.26138448806013886
0.787226676940918,-0.1469378024339676,7.856992721557617,-0.9676273370937757,-0.014668748442976293,-0.060402274814744986,0.26108005007263246
0.6504989266395569,-0.10622242093086243,7.941395282745361,-0.9685341996182172,-0.010334994846166087,-0.048421228118241025,0.25897038154459223
1.8789126873016357,0.6604788303375244,7.983966827392578,-0.969165566502553,-0.0059803317919918655,-0.02734279800206442,0.2635891849563144
0.5039309859275818,-1.0063129663467407,8.012938499450684,-0.9694558045475021,-0.0016111949688317091,-0.007485767391820941,0.2607072338229043
1.2489992380142212,-0.10656681656837463,8.036223411560059,-0.9694588360718143,0.0026566422766253683,0.00712198447436075,0.251433235631945
0.3943369686603546,1.2520560026168823,8.113600730895996,-0.9692260157606669,0.006926744063966709,0.02081645286331555,0.2609789788490159
0.6038968563079834,0.9425830841064453,8.099055290222168,-0.9688097530862111,0.011428799203583872,0.029135068071385033,0.2792676379050436
0.7744336128234863,-1.5807329416275024,8.182450294494629,-0.9682284512246649,0.016038943873006747,0.040621155314147284,0.2739497224257015
0.4236060380935669,-0.541498601436615,8.257707595825195,-0.9674682347714488,0.020457395389611208,0.050604819071789396,0.25626445956683386
0.2240373194217682,0.16135618090629578,8.214810371398926,-0.9665798458870916,0.02470207093652161,0.05600184705108385,0.2530966060624145
0.5986364483833313,0,8.024624824523926,-0.9655893516468093,0.028931552994569232,0.06285746178279301,0.25444124090330034
-0.46449193358421326,0.3131244480609894,7.975719451904297,-0.9645324116924572,0.03319398509629514,0.06397533273945233,0.2570506113038086
1.6098600625991821,1.4824163913726807,8.036710739135742,-0.9633866166933959,0.0376028522874304,0.0735200671479104,0.27201345163242246
0.7868431806564331,-0.05438647046685219,8.034197807312012,-0.9619948445157046,0.04223557855914479,0.09349259417504052,0.2839137009733044
1.53255295753479,-1.4917700290679932,8.049248695373535,-0.960275565436524,0.04686010159623216,0.11282089532663404,0.27102906347718064
-0.515741765499115,-0.5800965428352356,8.146644592285156,-0.9583246052927443,0.051233373031136335,0.12129432192693133,0.2537635087113204
0,0.05919165909290314,8.251818656921387,-0.9563388486610107,0.05542659089273179,0.11699647388110537,0.24942263468013431
-0.261555552482605,-0.1763712614774704,8.269773483276367,-0.9544070710096925,0.05957549733167954,0.11481684427708366,0.24844613799359624
0.3535252809524536,-0.7686492800712585,8.268182754516602,-0.9524870701517084,0.06365063987174305,0.11558325868099907,0.2405709668140235
0.6173588633537292,1.9979523420333862,8.174046516418457,-0.9504932599970038,0.06774552425350192,0.1236739598835506,0.25081515899704127
0.47003233432769775,0,8.179523468017578,-0.9483565140546613,0.07206452359387158,0.13273555319756247,0.2674647618473195
0.056074876338243484,-0.7237539291381836,8.260293006896973,-0.946107719611739,0.07647200893513675,0.13711977995311198,0.26143347910450127
1.1099579334259033,-0.7574236989021301,8.332493782043457,-0.9437414154451758,0.08072637402937564,0.14683672003447987,0.24909033220416532
0.27423250675201416,0.9625585675239563,8.381808280944824,-0.941198012441811,0.08489212504309936,0.15837164036929585,0.25079978944268055
0.14113609492778778,-1.0865581035614014,8.370710372924805,-0.9385296400605394,0.08906351045491921,0.1618330453832942,0.24976645997570185
-0.43886569142341614,0,8.27255916595459,-0.9358530983039078,0.09315082936398915,0.1593519654124973,0.24071180911269016
0,0.305049866437912,8.167028427124023,-0.9332277089978261,0.09718387686770329,0.15569475131730218,0.2432538913330061
0.7054955959320068,0.6441095471382141,8.157183647155762,-0.9305838037261536,0.10130402223808506,0.16157388128340222,0.25116355311280714
-0.08660680055618286,-0.8636084794998169,8.203222274780273,-0.9278479273161958,0.10547483847521784,0.16673128791153408,0.24933439534312712
0.2455786019563675,0.2002343088388443,8.246439933776855,-0.9250580328092397,0.10958434408019628,0.16805605292320228,0.2438062772542857
0.23225903511047363,0.6821041703224182,8.208982467651367,-0.9222239154246122,0.11370905553993169,0.17203803323209263,0.2511590979139629
0.5252136588096619,-0.5021870136260986,8.191283226013184,-0.9193040126003329,0.1179075347521572,0.1783503056814271,0.2526584075530989
0.3350754976272583,0.6267935633659363,8.246417999267578,-0.9162717652031122,0.12212716144399634,0.1855193819850681,0.25369679546759755
0,-0.5788210034370422,8.296931266784668,-0.9131565063715813,0.12635877279622915,0.1883116777986286,0.2540965668003383
