faccX,faccY,yaw,posX,posY,velX,velY
0,0,-100.82080841064453,0.0,0.0,0.0,0.0
0,0,-100.82199096679688,0.0,0.0,0.0,0.0
0,0,-100.82389831542969,0.0,0.0,0.0,0.0
0,-0.09503801167011261,-100.82904052734375,0.0,-6.599861921535597e-06,0.0,-0.0007919834305842717
-0.2107408344745636,-0.8026323914527893,-100.82733154296875,-1.4634780171844694e-05,-8.21378082036972e-05,-0.0017561736206213633,-0.008272570123275121
-0.16386263072490692,-1.8384654521942139,-100.72654724121094,-6.991847004327509e-05,-0.00040342354940043555,-0.004877869163950284,-0.03028171882033348
1.2682808637619019,-2.7211849689483643,-100.42686462402344,-7.452057881487739e-05,-0.0012247612534297839,0.004325616111358007,-0.06827880566318831
-0.9578597545623779,-1.030876874923706,-100.14189910888672,1.913004451327855e-05,-0.0026233011980851496,0.006912458688020706,-0.09954598769545556
-0.9795340299606323,-0.9315534830093384,-99.98765563964844,-2.0354572269650194e-07,-0.004418680878976981,-0.009232489516337712,-0.11589957401156425
-0.5351801514625549,-1.7531071901321411,-99.92639923095703,-0.0002592668558160464,-0.006536775214804544,-0.021855107694864272,-0.13827174628774325
-0.49377530813217163,-1.7415858507156372,-99.78782653808594,-0.0006949738909800847,-0.009083991336325805,-0.030429736524820325,-0.16739418829480807
0.8069998025894165,-1.8931958675384521,-99.59357452392578,-0.0011803844653897814,-0.012126309871673586,-0.027819532404343286,-0.19768403594692546
0.3541795313358307,-0.7317836284637451,-99.49713897705078,-0.001563405885050694,-0.015603334046900274,-0.018143037954966225,-0.2195588650802771
-0.4678671360015869,-0.9497364163398743,-99.3869857788086,-0.001873684823513031,-0.019379420690238475,-0.019090434660514192,-0.23357153212030726
-0.2668236494064331,-1.7774369716644287,-99.15279388427734,-0.002242878927952713,-0.023461666599743896,-0.025212857872247692,-0.2562979770203431
-0.1864408254623413,-1.2707089185714722,-99.0285415649414,-0.002694569925467173,-0.027944976348015998,-0.02899006182948748,-0.281699192772309
-0.18120917677879333,-0.9712063670158386,-98.9749984741211,-0.003203268872780932,-0.03279565145572026,-0.0320538118481636,-0.3003818201522032
0.17465251684188843,-0.5946544408798218,-98.88867950439453,-0.003737954393857055,-0.03791075545880529,-0.032108450680971144,-0.31343066021800037
0.6506935358047485,-1.0921697616577148,-98.88969421386719,-0.004215779540439446,-0.04325174036539262,-0.025230566908915834,-0.3274875285724798
-1.1869839429855347,-0.21530702710151672,-98.93081665039062,-0.004673531378308931,-0.04880066284082001,-0.029699653635422384,-0.33838316847880673
-0.35628819465637207,-1.0038870573043823,-98.96417236328125,-0.005275697281791103,-0.05452504857132831,-0.04256025478243827,-0.3485431191821892
0.26909732818603516,-1.5517078638076782,-99.03180694580078,-0.00599108978278107,-0.0605115724272198,-0.043286845336357745,-0.3698397435247897
-0.842647135257721,-0.24940799176692963,-98.9652099609375,-0.00675236705276701,-0.06680064564260342,-0.04806642706195512,-0.3848490423212448
0.2676287889480591,-0.4108247458934784,-98.81526184082031,-0.0075934060000711,-0.07326064584362836,-0.05285824661453564,-0.3903509818017482
0.43658071756362915,0.10889013856649399,-98.73870849609375,-0.008425473339027826,-0.07978746322138854,-0.046989834060271574,-0.39286710352947307
0.5238223075866699,-1.0884112119674683,-98.7011489868164,-0.009141942585508026,-0.08640327057697704,-0.03898647551735242,-0.40102977914114785
-0.058770112693309784,-1.5400382280349731,-98.73043060302734,-0.009759421886151861,-0.09326963144044079,-0.03511104055990775,-0.4229335244745015
-0.7933164834976196,0.7941612601280212,-98.68313598632812,-0.010403778575774694,-0.10037032052667602,-0.04221176219483216,-0.4291491658737261
0.20365850627422333,-0.6118178963661194,-98.585205078125,-0.010403778575774694,-0.10037032052667602,-0.04221176219483216,-0.4291491658737261
-0.5193666815757751,0.9818961024284363,-98.58505249023438,-0.011129232124528949,-0.10749710674915046,-0.04484266365567842,-0.42606518082320677
-0.6770076155662537,-0.18090879917144775,-98.60832214355469,-0.01195969140053623,-0.11454256897792217,-0.054812449465195326,-0.41939028662939853
0.6264028549194336,0,-98.58789825439453,-0.012876746444445515,-0.12154497019946572,-0.05523415580391883,-0.4208978599558273
0.9780345559120178,0.29145529866218567,-98.52159881591797,-0.013685896443203088,-0.12853969458076686,-0.04186384404699006,-0.41846906580030907
-0.5859889984130859,-0.63127601146698,-98.52545166015625,-0.014356401791382164,-0.13553777767138345,-0.038596797734498964,-0.42130090507368234
-0.6271775960922241,-1.4962462186813354,-98.53919982910156,-0.015083929433797794,-0.14270720402192735,-0.04870651935537655,-0.439030256991585
0.2606371343135834,-1.0405843257904053,-98.49061584472656,-0.01592115895512203,-0.15020054375959763,-0.05176102320353189,-0.46017051152884947
0.1667337715625763,-0.5830007195472717,-98.50343322753906,-0.01675416414005061,-0.15798280124656022,-0.048199598987897226,-0.47370038690666344
0.39599546790122986,0.7909577488899231,-98.491455078125,-0.01751841237044169,-0.1658633662346336,-0.043510188659032174,-0.47196741166214135
0.06564383953809738,-0.2338612675666809,-98.49324035644531,-0.018211523896186715,-0.1736908025066885,-0.03966319443037111,-0.46732494098444766
-0.6205136775970459,1.3142693042755127,-98.533935546875,-0.01891110976433588,-0.1814045231872134,-0.044287109747529016,-0.45832154067854075
0.7582876086235046,-0.6049532294273376,-98.62443542480469,-0.01963966062602897,-0.1889939574711024,-0.04313899365564186,-0.4524105733881393
-1.1833245754241943,-1.3051304817199707,-98.85126495361328,-0.020388160309650828,-0.19666677839640107,-0.04668096837898094,-0.4683279376477002
-0.1495703011751175,-1.259596824645996,-98.78485107421875,-0.021258738593508797,-0.20465035008680482,-0.05778842568397521,-0.4897006652007499
0.9759097695350647,0.27565380930900574,-98.537109375,-0.021258738593508797,-0.20465035008680482,-0.05778842568397521,-0.4897006652007499
0,-0.1861868053674698,-98.36940002441406,-0.022154107509801783,-0.21280581485376582,-0.049655844271183,-0.48895510683457044
0.4221278429031372,0.3906075954437256,-98.38585662841797,-0.02295239048078656,-0.22094087074614224,-0.04613811224699019,-0.48725160025060166
0.25744402408599854,2.99272084236145,-98.69436645507812,-0.023674166527473263,-0.22882677738658247,-0.040475013355414056,-0.4590571966022252
-0.21886096894741058,0.5576099753379822,-99.00277709960938,-0.024346070704567763,-0.2362311799120571,-0.04015348789592582,-0.42947110645472997
-0.9260045886039734,0.12539690732955933,-99.04937744140625,-0.025094800055440927,-0.24334160065278404,-0.04969403420885402,-0.42377938243250046
0.3400684893131256,-0.08809767663478851,-99.03995513916016,-0.025963723965817025,-0.25040200013563857,-0.054576835036277756,-0.42346855551004403
-0.5598854422569275,-1.8004218339920044,-98.90982818603516,-0.026888602949264973,-0.2575909565823773,-0.0564086429774761,-0.4392062180986006
-0.5689021348953247,-0.5195613503456116,-98.75753021240234,-0.027907135025080704,-0.2650721701607108,-0.06581520612041153,-0.45853941130141407
0.6620359420776367,-1.1979981660842896,-98.78363800048828,-0.028997587501588793,-0.27283376864881975,-0.06503909106055893,-0.4728524072716632
1.4089456796646118,0.923443615436554,-98.88314056396484,-0.029937754184421562,-0.2807337083915869,-0.04778091087937352,-0.4751403618603944
-1.3423224687576294,-0.6260843276977539,-98.80332946777344,-0.030729476087209245,-0.2886320644720561,-0.04722571745514867,-0.47266236779590437
-0.7841198444366455,0.7125906348228455,-98.76736450195312,-0.03166424098321133,-0.2965037632195486,-0.06494607006510096,-0.4719414819031953
0.12672273814678192,0.3771996796131134,-98.7978744506836,-0.03279232806112203,-0.30429377470165486,-0.07042437928418316,-0.4628598959495623
0.14646877348423004,-0.7775793075561523,-98.7768783569336,-0.03279232806112203,-0.30429377470165486,-0.07042437928418316,-0.4628598959495623
0.3989764153957367,-0.7877954244613647,-98.68364715576172,-0.03392818957774175,-0.31211681287942655,-0.06587900271018343,-0.4759046853830416
-0.19945402443408966,0.6705387830734253,-98.61216735839844,-0.035012317234650245,-0.3200567004581292,-0.06421631611883637,-0.47688182406127444
-0.38484999537467957,0.260898619890213,-98.6209487915039,-0.03612316583800646,-0.3279400477061668,-0.06908551628390944,-0.4691198457032441
0.8778364658355713,-0.13842815160751343,-98.69747161865234,-0.037240355937845165,-0.3357502069075901,-0.06497729569673534,-0.46809925846755496
-0.3539937138557434,0.4443628191947937,-98.81092071533203,-0.0382869328972366,-0.3435306157523558,-0.06061193943023677,-0.4655498029043276
0,-1.1273794174194336,-98.75326538085938,-0.03932171478453608,-0.3513372108423046,-0.0635618870457013,-0.47124160788953295
0.8530958294868469,0.7079890966415405,-98.7337875366211,-0.040321836802694515,-0.3592203619682953,-0.05645275513331091,-0.4747365272293487
-0.9302017688751221,0.7336766123771667,-98.74706268310547,-0.041268070634040546,-0.36703252174788037,-0.0570953046282132,-0.4627226463208595
-0.06266176700592041,-1.2333884239196777,-98.91057586669922,-0.04228860790116917,-0.37477926806236295,-0.06536916742722189,-0.46688691141704713
-0.4990118443965912,-1.751724362373352,-98.95249938964844,-0.04341709913685916,-0.38276801608502853,-0.07004978085557616,-0.4917628513028224
0.7710996866226196,0.47034943103790283,-98.70381927490234,-0.04456570049540862,-0.3910530479769739,-0.06778238217035926,-0.5024409757306177
-0.1806565672159195,-0.16346094012260437,-98.42665100097656,-0.04565440387051136,-0.39940575253839283,-0.0628620228419701,-0.4998835716396569
0.954408586025238,-0.15416204929351807,-98.34548950195312,-0.04664837147212688,-0.40775920255109654,-0.05641408935189244,-0.5025304298847912
-0.2834681272506714,0.7455910444259644,-98.4772720336914,-0.04664837147212688,-0.40775920255109654,-0.05641408935189244,-0.5025304298847912
-0.39215749502182007,-0.6986472010612488,-98.64285278320312,-0.04763552474064957,-0.4161314497267205,-0.06204430287082987,-0.5021392311900853
0.7717331051826477,-0.4778314232826233,-98.71099090576172,-0.048643237037791116,-0.42458213681769025,-0.0588811727861563,-0.5119432197262842
-0.9941530823707581,0.8750110864639282,-98.69401550292969,-0.049640035749309565,-0.4330869418920741,-0.06073467259605722,-0.5086333891997733
-0.5151113271713257,0.7675153613090515,-98.72081756591797,-0.050757090321017606,-0.44145010070875274,-0.07331187600890791,-0.49494566880166513
0.651604950428009,0.7374005913734436,-98.74256896972656,-0.0519694761973288,-0.44959468713651085,-0.07217442914843555,-0.482404702529311
2.053811550140381,-0.3768807649612427,-98.81160736083984,-0.05298450720392992,-0.457609729412943,-0.049629291643698975,-0.47940037064254265
-1.9323879480361938,-0.5559210777282715,-98.8459701538086,-0.05380322987006767,-0.465664513496061,-0.04861742829283075,-0.48717371933162196
-0.5729625225067139,0.19878442585468292,-98.77151489257812,-0.05478750301318033,-0.4738088766413015,-0.06949534888068831,-0.4901498580972352
-0.23938903212547302,-0.499933660030365,-98.68838500976562,-0.05600217213026348,-0.4819989540841843,-0.07626494516928987,-0.49265943504869925
-0.08608605712652206,0,-98.61553955078125,-0.05729585698650526,-0.4902446622836092,-0.07897723757972316,-0.49682554888228564
0.28220123052597046,-0.4655137360095978,-98.56846618652344,-0.058598525170236795,-0.4985574154410924,-0.0773429444680611,-0.500704830015699
-0.1091078594326973,0.1795399785041809,-98.520751953125,-0.059875553871711895,-0.5069223552300697,-0.07590049970895049,-0.5030879446615775
-0.18425533175468445,-0.579841673374176,-98.45442199707031,-0.059875553871711895,-0.5069223552300697,-0.07590049970895049,-0.5030879446615775
0.8729840517044067,-0.7517489194869995,-98.48262786865234,-0.059875553871711895,-0.5069223552300697,-0.07590049970895049,-0.5030879446615775
0.5362589955329895,1.2919445037841797,-98.46515655517578,-0.059875553871711895,-0.5069223552300697,-0.07590049970895049,-0.5030879446615775
0.13387960195541382,0.31996244192123413,-98.53202056884766,-0.059875553871711895,-0.5069223552300697,-0.07590049970895049,-0.5030879446615775
-0.390152245759964,3.7352964878082275,-98.90293884277344,-0.059875553871711895,-0.5069223552300697,-0.07590049970895049,-0.5030879446615775
0.8495834469795227,0.8530481457710266,-99.53462982177734,-0.059875553871711895,-0.5069223552300697,-0.07590049970895049,-0.5030879446615775
-0.2494077980518341,1.6992919445037842,-100.430908203125,-0.059875553871711895,-0.5069223552300697,-0.07590049970895049,-0.5030879446615775
-1.3737766742706299,1.7797578573226929,-101.45683288574219,-0.059875553871711895,-0.5069223552300697,-0.07590049970895049,-0.5030879446615775
0.2832956612110138,2.6540634632110596,-102.60297393798828,-0.059875553871711895,-0.5069223552300697,-0.07590049970895049,-0.5030879446615775
-0.5939398407936096,0.8458238840103149,-103.9728012084961,-0.059875553871711895,-0.5069223552300697,-0.07590049970895049,-0.5030879446615775
-0.41160985827445984,0.9497939348220825,-105.49430847167969,-0.059875553871711895,-0.5069223552300697,-0.07590049970895049,-0.5030879446615775
-0.11921929568052292,1.7596943378448486,-107.15211486816406,-0.059875553871711895,-0.5069223552300697,-0.07590049970895049,-0.5030879446615775
-0.1482955515384674,1.5299079418182373,-108.9062271118164,-0.059875553871711895,-0.5069223552300697,-0.07590049970895049,-0.5030879446615775
-0.2096760869026184,1.6015597581863403,-110.77513885498047,-0.059875553871711895,-0.5069223552300697,-0.07590049970895049,-0.5030879446615775
-0.058838438242673874,1.3967506885528564,-112.76741790771484,-0.059875553871711895,-0.5069223552300697,-0.07590049970895049,-0.5030879446615775
-0.17832572758197784,1.5842081308364868,-114.86260986328125,-0.059875553871711895,-0.5069223552300697,-0.07590049970895049,-0.5030879446615775
0.3836657404899597,0.4946180284023285,-117.04637145996094,-0.059875553871711895,-0.5069223552300697,-0.07590049970895049,-0.5030879446615775
-0.31431329250335693,0.4910849630832672,-119.28765869140625,-0.059875553871711895,-0.5069223552300697,-0.07590049970895049,-0.5030879446615775
-0.2994576394557953,1.5421792268753052,-121.56902313232422,-0.059875553871711895,-0.5069223552300697,-0.07590049970895049,-0.5030879446615775
-0.319246381521225,1.7179391384124756,-123.88209533691406,-0.059875553871711895,-0.5069223552300697,-0.07590049970895049,-0.5030879446615775
0.3638167679309845,1.0959835052490234,-126.22412109375,-0.059875553871711895,-0.5069223552300697,-0.07590049970895049,-0.5030879446615775
0.16154882311820984,0.4290563464164734,-128.57891845703125,-0.059875553871711895,-0.5069223552300697,-0.07590049970895049,-0.5030879446615775
-0.6421581506729126,0.878445029258728,-131.03407287597656,-0.059875553871711895,-0.5069223552300697,-0.07590049970895049,-0.5030879446615775
0.6538932919502258,0.8018078207969666,-133.53843688964844,-0.059875553871711895,-0.5069223552300697,-0.07590049970895049,-0.5030879446615775
-0.8644638061523438,1.1406868696212769,-136.11282348632812,-0.059875553871711895,-0.5069223552300697,-0.07590049970895049,-0.5030879446615775
0.3913324773311615,0.7321990728378296,-138.72071838378906,-0.059875553871711895,-0.5069223552300697,-0.07590049970895049,-0.5030879446615775
0.1766258329153061,0.910782516002655,-141.38002014160156,-0.059875553871711895,-0.5069223552300697,-0.07590049970895049,-0.5030879446615775
0.6385310888290405,0.7008455991744995,-144.08993530273438,-0.059875553871711895,-0.5069223552300697,-0.07590049970895049,-0.5030879446615775
-0.44980424642562866,1.662743330001831,-146.82061767578125,-0.059875553871711895,-0.5069223552300697,-0.07590049970895049,-0.5030879446615775
1.1482187509536743,0.5061520934104919,-149.6455535888672,-0.059875553871711895,-0.5069223552300697,-0.07590049970895049,-0.5030879446615775
0.5726341605186462,2.1036102771759033,-152.44004821777344,-0.059875553871711895,-0.5069223552300697,-0.07590049970895049,-0.5030879446615775
1.3683862686157227,0.0976976677775383,-155.32537841796875,-0.059875553871711895,-0.5069223552300697,-0.07590049970895049,-0.5030879446615775
-1.3359202146530151,1.7700331211090088,-158.20501708984375,-0.059875553871711895,-0.5069223552300697,-0.07590049970895049,-0.5030879446615775
0.3041754961013794,0.4958750009536743,-161.17381286621094,-0.059875553871711895,-0.5069223552300697,-0.07590049970895049,-0.5030879446615775
0.5233584642410278,1.0735481977462769,-164.15052795410156,-0.059875553871711895,-0.5069223552300697,-0.07590049970895049,-0.5030879446615775
0.0708150863647461,-0.6649680137634277,-167.1219940185547,-0.059875553871711895,-0.5069223552300697,-0.07590049970895049,-0.5030879446615775
1.0274304151535034,0.5433247089385986,-170.09640502929688,-0.059875553871711895,-0.5069223552300697,-0.07590049970895049,-0.5030879446615775
0.03592606261372566,0.7488753199577332,-172.99810791015625,-0.059875553871711895,-0.5069223552300697,-0.07590049970895049,-0.5030879446615775
1.3709800243377686,-0.0658126026391983,-175.86521911621094,-0.059875553871711895,-0.5069223552300697,-0.07590049970895049,-0.5030879446615775
0.26538604497909546,-0.4158993363380432,-178.64779663085938,-0.059875553871711895,-0.5069223552300697,-0.07590049970895049,-0.5030879446615775
0.7946277856826782,-0.7492778301239014,178.6564178466797,-0.059875553871711895,-0.5069223552300697,-0.07590049970895049,-0.5030879446615775
0.9511106610298157,-0.1782885044813156,176.1255340576172,-0.059875553871711895,-0.5069223552300697,-0.07590049970895049,-0.5030879446615775
0.5604304075241089,-1.6831175088882446,173.66122436523438,-0.059875553871711895,-0.5069223552300697,-0.07590049970895049,-0.5030879446615775
-0.6295350193977356,1.064948558807373,171.390869140625,-0.059875553871711895,-0.5069223552300697,-0.07590049970895049,-0.5030879446615775
0.5947398543357849,-0.7939346432685852,169.09628295898438,-0.059875553871711895,-0.5069223552300697,-0.07590049970895049,-0.5030879446615775
0.6687631011009216,1.3503077030181885,166.7827911376953,-0.059875553871711895,-0.5069223552300697,-0.07590049970895049,-0.5030879446615775
-0.06394579261541367,0.16563677787780762,164.68673706054688,-0.059875553871711895,-0.5069223552300697,-0.07590049970895049,-0.5030879446615775
0.8326560258865356,0.7812104821205139,162.78778076171875,-0.059875553871711895,-0.5069223552300697,-0.07590049970895049,-0.5030879446615775
-0.8119882345199585,0.5356364250183105,161.19308471679688,-0.059875553871711895,-0.5069223552300697,-0.07590049970895049,-0.5030879446615775
0.4623382091522217,0.0111658601090312,159.93234252929688,-0.059875553871711895,-0.5069223552300697,-0.07590049970895049,-0.5030879446615775
-0.45203831791877747,-1.2855480909347534,158.87908935546875,-0.059875553871711895,-0.5069223552300697,-0.07590049970895049,-0.5030879446615775
-1.0523087978363037,-0.34856510162353516,158.07882690429688,-0.059875553871711895,-0.5069223552300697,-0.07590049970895049,-0.5030879446615775
-0.5003458857536316,-0.7668477892875671,157.61708068847656,-0.059875553871711895,-0.5069223552300697,-0.07590049970895049,-0.5030879446615775
-0.7866822481155396,-0.7452377676963806,157.4867706298828,-0.059875553871711895,-0.5069223552300697,-0.07590049970895049,-0.5030879446615775
-0.7048225998878479,-0.05544837564229965,157.55526733398438,-0.059875553871711895,-0.5069223552300697,-0.07590049970895049,-0.5030879446615775
0.3705489933490753,0.6560353636741638,157.63165283203125,-0.059875553871711895,-0.5069223552300697,-0.07590049970895049,-0.5030879446615775
0.540890634059906,0.10639943182468414,157.63919067382812,-0.059875553871711895,-0.5069223552300697,-0.07590049970895049,-0.5030879446615775
0.3196730315685272,0.05882687866687775,157.6243133544922,-0.059875553871711895,-0.5069223552300697,-0.07590049970895049,-0.5030879446615775
0.4107121229171753,0.06046691909432411,157.63821411132812,-0.059875553871711895,-0.5069223552300697,-0.07590049970895049,-0.5030879446615775
-0.01399561483412981,0.2355741560459137,157.6348876953125,-0.059875553871711895,-0.5069223552300697,-0.07590049970895049,-0.5030879446615775
-0.13705125451087952,0.23207804560661316,157.63356018066406,-0.059875553871711895,-0.5069223552300697,-0.07590049970895049,-0.5030879446615775
-0.058055002242326736,0.30485767126083374,157.6410675048828,-0.059875553871711895,-0.5069223552300697,-0.07590049970895049,-0.5030879446615775
0.09509512037038803,0.14062415063381195,157.6427764892578,-0.059875553871711895,-0.5069223552300697,-0.07590049970895049,-0.5030879446615775
0.19750654697418213,0.19570127129554749,157.64230346679688,-0.059875553871711895,-0.5069223552300697,-0.07590049970895049,-0.5030879446615775
0.06473705172538757,0.18070051074028015,157.64419555664062,-0.059875553871711895,-0.5069223552300697,-0.07590049970895049,-0.5030879446615775
-0.027328524738550186,0.23585863411426544,157.64263916015625,-0.059875553871711895,-0.5069223552300697,-0.07590049970895049,-0.5030879446615775
0.01075171772390604,0.22556276619434357,157.6440887451172,-0.059875553871711895,-0.5069223552300697,-0.07590049970895049,-0.5030879446615775
0.09945759177207947,0.17766468226909637,157.6460418701172,-0.059875553871711895,-0.5069223552300697,-0.07590049970895049,-0.5030879446615775
0.13065052032470703,0.18093979358673096,157.6453094482422,-0.059875553871711895,-0.5069223552300697,-0.07590049970895049,-0.5030879446615775
0.02954230085015297,0.19022442400455475,157.6465301513672,-0.059875553871711895,-0.5069223552300697,-0.07590049970895049,-0.5030879446615775
0.02250860258936882,0.21571214497089386,157.64695739746094,-0.059875553871711895,-0.5069223552300697,-0.07590049970895049,-0.5030879446615775
0.054954759776592255,0.21021689474582672,157.64889526367188,-0.059875553871711895,-0.5069223552300697,-0.07590049970895049,-0.5030879446615775
0.09204815328121185,0.17067715525627136,157.65113830566406,-0.059875553871711895,-0.5069223552300697,-0.07590049970895049,-0.5030879446615775
0.0753646120429039,0.20345136523246765,157.65115356445312,-0.059875553871711895,-0.5069223552300697,-0.07590049970895049,-0.5030879446615775
0.024561336264014244,0.19473470747470856,157.6510467529297,-0.059875553871711895,-0.5069223552300697,-0.07590049970895049,-0.5030879446615775
0.03543494641780853,0.19860857725143433,157.6513214111328,-0.059875553871711895,-0.5069223552300697,-0.07590049970895049,-0.5030879446615775
0.06799999624490738,0.19648130238056183,157.6509246826172,-0.059875553871711895,-0.5069223552300697,-0.07590049970895049,-0.5030879446615775
0.07567591220140457,0.18846674263477325,157.65182495117188,-0.059875553871711895,-0.5069223552300697,-0.07590049970895049,-0.5030879446615775
0.05534811317920685,0.20012398064136505,157.6530303955078,-0.059875553871711895,-0.5069223552300697,-0.07590049970895049,-0.5030879446615775
0.0397920198738575,0.1973101943731308,157.65289306640625,-0.059875553871711895,-0.5069223552300697,-0.07590049970895049,-0.5030879446615775
0.058349523693323135,0.19428014755249023,157.65391540527344,-0.059875553871711895,-0.5069223552300697,-0.07590049970895049,-0.5030879446615775
0.0754532739520073,0.1952100694179535,157.65403747558594,-0.059875553871711895,-0.5069223552300697,-0.07590049970895049,-0.5030879446615775
0.06029495224356651,0.20480208098888397,157.6556396484375,-0.059875553871711895,-0.5069223552300697,-0.07590049970895049,-0.5030879446615775
0.051350221037864685,0.20552602410316467,157.65457153320312,-0.059875553871711895,-0.5069223552300697,-0.07590049970895049,-0.5030879446615775
0.043510571122169495,0.20326638221740723,157.6551971435547,-0.059875553871711895,-0.5069223552300697,-0.07590049970895049,-0.5030879446615775
0.06248455494642258,0.18750709295272827,157.65496826171875,-0.059875553871711895,-0.5069223552300697,-0.07590049970895049,-0.5030879446615775
0.07921112328767776,0.19147199392318726,157.65530395507812,-0.059875553871711895,-0.5069223552300697,-0.07590049970895049,-0.5030879446615775
0.05601278692483902,0.20983244478702545,157.65542602539062,-0.059875553871711895,-0.5069223552300697,-0.07590049970895049,-0.5030879446615775
0.042213376611471176,0.19247430562973022,157.6556854248047,-0.059875553871711895,-0.5069223552300697,-0.07590049970895049,-0.5030879446615775
0.06679906696081161,0.19265936315059662,157.6556854248047,-0.059875553871711895,-0.5069223552300697,-0.07590049970895049,-0.5030879446615775
0.06742014735937119,0.186395525932312,157.65611267089844,-0.059875553871711895,-0.5069223552300697,-0.07590049970895049,-0.5030879446615775
0.04243481531739235,0.1983344703912735,157.65606689453125,-0.059875553871711895,-0.5069223552300697,-0.07590049970895049,-0.5030879446615775
0.07486393302679062,0.19374597072601318,157.65757751464844,-0.059875553871711895,-0.5069223552300697,-0.07590049970895049,-0.5030879446615775
0.04315526783466339,0.19672530889511108,157.6576690673828,-0.059875553871711895,-0.5069223552300697,-0.07590049970895049,-0.5030879446615775
0.05882076546549797,0.18882910907268524,157.65731811523438,-0.059875553871711895,-0.5069223552300697,-0.07590049970895049,-0.5030879446615775
0.06033969670534134,0.19682703912258148,157.65689086914062,-0.059875553871711895,-0.5069223552300697,-0.07590049970895049,-0.5030879446615775
0.04997512325644493,0.1837015002965927,157.65773010253906,-0.059875553871711895,-0.5069223552300697,-0.07590049970895049,-0.5030879446615775
0.057409532368183136,0.20033317804336548,157.65838623046875,-0.059875553871711895,-0.5069223552300697,-0.07590049970895049,-0.5030879446615775
0.0543055385351181,0.19516482949256897,157.65969848632812,-0.059875553871711895,-0.5069223552300697,-0.07590049970895049,-0.5030879446615775
0.044800516217947006,0.18499043583869934,157.65841674804688,-0.059875553871711895,-0.5069223552300697,-0.07590049970895049,-0.5030879446615775
0.05379246547818184,0.1903214007616043,157.65948486328125,-0.059875553871711895,-0.5069223552300697,-0.07590049970895049,-0.5030879446615775
0.0478772409260273,0.1938810497522354,157.65908813476562,-0.059875553871711895,-0.5069223552300697,-0.07590049970895049,-0.5030879446615775
0.05524607002735138,0.1901950091123581,157.65963745117188,-0.059875553871711895,-0.5069223552300697,-0.07590049970895049,-0.5030879446615775
0.06952019780874252,0.20130181312561035,157.6591339111328,-0.059875553871711895,-0.5069223552300697,-0.07590049970895049,-0.5030879446615775
0.051791444420814514,0.18323081731796265,157.66018676757812,-0.059875553871711895,-0.5069223552300697,-0.07590049970895049,-0.5030879446615775
0.06386920064687729,0.19071820378303528,157.6605987548828,-0.059875553871711895,-0.5069223552300697,-0.07590049970895049,-0.5030879446615775
0.060851819813251495,0.19959913194179535,157.66058349609375,-0.059875553871711895,-0.5069223552300697,-0.07590049970895049,-0.5030879446615775
0.06599876284599304,0.19171804189682007,157.6611328125,-0.059875553871711895,-0.5069223552300697,-0.07590049970895049,-0.5030879446615775
0.04641313478350639,0.19160765409469604,157.66195678710938,-0.059875553871711895,-0.5069223552300697,-0.07590049970895049,-0.5030879446615775
0.06316986680030823,0.19084109365940094,157.6626434326172,-0.059875553871711895,-0.5069223552300697,-0.07590049970895049,-0.5030879446615775
0.05168871581554413,0.18953865766525269,157.66270446777344,-0.059875553871711895,-0.5069223552300697,-0.07590049970895049,-0.5030879446615775
0.07274986803531647,0.18282490968704224,157.66383361816406,-0.059875553871711895,-0.5069223552300697,-0.07590049970895049,-0.5030879446615775
0.06310170143842697,0.18649868667125702,157.6638641357422,-0.059875553871711895,-0.5069223552300697,-0.07590049970895049,-0.5030879446615775
0.07132096588611603,0.1887429803609848,157.66310119628906,-0.059875553871711895,-0.5069223552300697,-0.07590049970895049,-0.5030879446615775
0.05876341462135315,0.19109894335269928,157.66322326660156,-0.059875553871711895,-0.5069223552300697,-0.07590049970895049,-0.5030879446615775
0.06467592716217041,0.18303845822811127,157.6637420654297,-0.059875553871711895,-0.5069223552300697,-0.07590049970895049,-0.5030879446615775
0.061269357800483704,0.1818767786026001,157.6636962890625,-0.059875553871711895,-0.5069223552300697,-0.07590049970895049,-0.5030879446615775
0.05305527150630951,0.19230644404888153,157.66493225097656,-0.059875553871711895,-0.5069223552300697,-0.07590049970895049,-0.5030879446615775
0.06838639080524445,0.1939057558774948,157.66519165039062,-0.059875553871711895,-0.5069223552300697,-0.07590049970895049,-0.5030879446615775
0.06427007168531418,0.20590141415596008,157.6657257080078,-0.059875553871711895,-0.5069223552300697,-0.07590049970895049,-0.5030879446615775
0.05300980061292648,0.1836223006248474,157.66656494140625,-0.059875553871711895,-0.5069223552300697,-0.07590049970895049,-0.5030879446615775
0.05357837304472923,0.17709653079509735,157.66456604003906,-0.059875553871711895,-0.5069223552300697,-0.07590049970895049,-0.5030879446615775
0.06358494609594345,0.19490942358970642,157.66322326660156,-0.059875553871711895,-0.5069223552300697,-0.07590049970895049,-0.5030879446615775
0.04731964319944382,0.1971927136182785,157.66390991210938,-0.059875553871711895,-0.5069223552300697,-0.07590049970895049,-0.5030879446615775
0.05145017430186272,0.18609681725502014,157.6646270751953,-0.059875553871711895,-0.5069223552300697,-0.07590049970895049,-0.5030879446615775
0.042052216827869415,0.21041113138198853,157.66595458984375,-0.059875553871711895,-0.5069223552300697,-0.07590049970895049,-0.5030879446615775
0.0534401535987854,0.19651822745800018,157.66619873046875,-0.059875553871711895,-0.5069223552300697,-0.07590049970895049,-0.5030879446615775
0.06595849990844727,0.17516621947288513,157.66482543945312,-0.059875553871711895,-0.5069223552300697,-0.07590049970895049,-0.5030879446615775
0.06409388035535812,0.17630232870578766,157.66500854492188,-0.059875553871711895,-0.5069223552300697,-0.07590049970895049,-0.5030879446615775
0.05685080960392952,0.17711707949638367,157.66551208496094,-0.059875553871711895,-0.5069223552300697,-0.07590049970895049,-0.5030879446615775
0.06499972939491272,0.1858036071062088,157.6654815673828,-0.059875553871711895,-0.5069223552300697,-0.07590049970895049,-0.5030879446615775
0.05053385719656944,0.1806745082139969,157.66561889648438,-0.059875553871711895,-0.5069223552300697,-0.07590049970895049,-0.5030879446615775
0.056571170687675476,0.18843121826648712,157.6647491455078,-0.059875553871711895,-0.5069223552300697,-0.07590049970895049,-0.5030879446615775
0.06306711584329605,0.19134756922721863,157.6659393310547,-0.059875553871711895,-0.5069223552300697,-0.07590049970895049,-0.5030879446615775
0.04533776268362999,0.18838559091091156,157.6663818359375,-0.059875553871711895,-0.5069223552300697,-0.07590049970895049,-0.5030879446615775
0.05602259561419487,0.1880403757095337,157.66624450683594,-0.059875553871711895,-0.5069223552300697,-0.07590049970895049,-0.5030879446615775
0.05347445607185364,0.18312522768974304,157.66635131835938,-0.059875553871711895,-0.5069223552300697,-0.07590049970895049,-0.5030879446615775
0.053597018122673035,0.17579464614391327,157.66729736328125,-0.059875553871711895,-0.5069223552300697,-0.07590049970895049,-0.5030879446615775
0.048685427755117416,0.18922652304172516,157.66741943359375,-0.059875553871711895,-0.5069223552300697,-0.07590049970895049,-0.5030879446615775
0.05201072245836258,0.18992184102535248,157.66815185546875,-0.059875553871711895,-0.5069223552300697,-0.07590049970895049,-0.5030879446615775
0.05098218098282814,0.1851441115140915,157.667724609375,-0.059875553871711895,-0.5069223552300697,-0.07590049970895049,-0.5030879446615775
0.04702345281839371,0.18076704442501068,157.6686553955078,-0.059875553871711895,-0.5069223552300697,-0.07590049970895049,-0.5030879446615775
0.05815022438764572,0.176859512925148,157.66969299316406,-0.059875553871711895,-0.5069223552300697,-0.07590049970895049,-0.5030879446615775
0.06525623053312302,0.16234247386455536,157.6699676513672,-0.059875553871711895,-0.5069223552300697,-0.07590049970895049,-0.5030879446615775
0.05868634954094887,0.18651096522808075,157.6707305908203,-0.059875553871711895,-0.5069223552300697,-0.07590049970895049,-0.5030879446615775
0.05114969611167908,0.17759129405021667,157.67050170898438,-0.059875553871711895,-0.5069223552300697,-0.07590049970895049,-0.5030879446615775
0.05263148248195648,0.1834682822227478,157.67054748535156,-0.059875553871711895,-0.5069223552300697,-0.07590049970895049,-0.5030879446615775
0.07061786949634552,0.1767265796661377,157.67124938964844,-0.059875553871711895,-0.5069223552300697,-0.07590049970895049,-0.5030879446615775
0.04925970360636711,0.17939747869968414,157.6714324951172,-0.059875553871711895,-0.5069223552300697,-0.07590049970895049,-0.5030879446615775
0.05779407173395157,0.1842019259929657,157.67149353027344,-0.059875553871711895,-0.5069223552300697,-0.07590049970895049,-0.5030879446615775
0.0556783564388752,0.18085749447345734,157.67149353027344,-0.059875553871711895,-0.5069223552300697,-0.07590049970895049,-0.5030879446615775
0.052979715168476105,0.17236341536045074,157.66961669921875,-0.059875553871711895,-0.5069223552300697,-0.07590049970895049,-0.5030879446615775
0.06702963262796402,0.18969307839870453,157.66940307617188,-0.059875553871711895,-0.5069223552300697,-0.07590049970895049,-0.5030879446615775
0.0505053773522377,0.16900166869163513,157.669677734375,-0.059875553871711895,-0.5069223552300697,-0.07590049970895049,-0.5030879446615775
0.05632752552628517,0.18300405144691467,157.6698455810547,-0.059875553871711895,-0.5069223552300697,-0.07590049970895049,-0.5030879446615775
0.054814282804727554,0.17302080988883972,157.66957092285156,-0.059875553871711895,-0.5069223552300697,-0.07590049970895049,-0.5030879446615775
0.05227799713611603,0.176437109708786,157.66900634765625,-0.059875553871711895,-0.5069223552300697,-0.07590049970895049,-0.5030879446615775
0.06400078535079956,0.1717093139886856,157.66871643066406,-0.059875553871711895,-0.5069223552300697,-0.07590049970895049,-0.5030879446615775
0.052065931260585785,0.17182962596416473,157.66912841796875,-0.059875553871711895,-0.5069223552300697,-0.07590049970895049,-0.5030879446615775
0.06226930022239685,0.1753700226545334,157.66880798339844,-0.059875553871711895,-0.5069223552300697,-0.07590049970895049,-0.5030879446615775
0.05101192370057106,0.18708674609661102,157.67059326171875,-0.059875553871711895,-0.5069223552300697,-0.07590049970895049,-0.5030879446615775
0.057575155049562454,0.1692979335784912,157.6715850830078,-0.059875553871711895,-0.5069223552300697,-0.07590049970895049,-0.5030879446615775
0.042088236659765244,0.1646798700094223,157.670654296875,-0.059875553871711895,-0.5069223552300697,-0.07590049970895049,-0.5030879446615775
0,0.1741591989994049,157.67001342773438,-0.06113763940598192,-0.5152836238168592,-0.07554976440345244,-0.5002642857531706
-0.11770357191562653,0.21118834614753723,157.6803741455078,-0.06240497600520027,-0.5235946016665546,-0.07653062750274933,-0.49705305621027945
-1.3597782850265503,0.5535165667533875,157.72964477539062,-0.06378308937031152,-0.5318257147622188,-0.08884297631060081,-0.4906805152694384
-1.8528789281845093,0.8180884122848511,157.9529266357422,-0.06548690683751675,-0.5399084730042762,-0.1156151197540263,-0.47925047377745306
-2.649714231491089,0.5327008962631226,158.1572723388672,-0.06772650558061688,-0.5478021760874735,-0.15313672941798961,-0.46799389620621995
-1.6256242990493774,1.2328999042510986,158.25376892089844,-0.07057568291331535,-0.5554794631908748,-0.18876455050582683,-0.45328055620193475
-1.278845191001892,0.5329247117042542,158.30360412597656,-0.07392345802522159,-0.5629115124181324,-0.21296846292292074,-0.4385653510689735
-1.7459518909454346,0.6451268196105957,158.3723907470703,-0.07768298776018327,-0.5701391258018296,-0.23817510527248179,-0.42874825497468305
-1.2515697479248047,1.2417359352111816,158.460205078125,-0.08186073407297952,-0.5771538979156561,-0.2631544522630671,-0.4130243986845016
-1.1934689283370972,0.685043215751648,158.52883911132812,-0.0864164359632155,-0.5839038337860254,-0.28352977456524964,-0.39696790575981133
-0.7191392183303833,0.163712739944458,158.55213928222656,-0.0912747522161549,-0.5904610241628767,-0.29946817578747864,-0.38989493946234377
-1.3808397054672241,0.8333171606063843,158.6272735595703,-0.0964117203489877,-0.5968900349663775,-0.3169680001524587,-0.3815863569577534
-1.4177356958389282,0.46536388993263245,158.7216033935547,-0.10188886586550827,-0.6031596213982748,-0.34028946183000996,-0.37076401486992827
-0.03517645224928856,0.9587957262992859,158.76321411132812,-0.10188886586550827,-0.6031596213982748,-0.34028946183000996,-0.37076401486992827
-0.7159975171089172,0.8301914930343628,158.78988647460938,-0.10761252175499164,-0.6092147864225421,-0.346549244907995,-0.35585578804214785
-1.6457257270812988,0.13027237355709076,158.78335571289062,-0.11355235106208254,-0.6150790173436201,-0.36623027194291347,-0.3478519224872191
-0.2772846221923828,-0.9181196093559265,158.72140502929688,-0.11978973131316399,-0.6209312609986709,-0.3822553581868608,-0.35441731611887606
-0.36929917335510254,0.36245471239089966,158.73965454101562,-0.12620555560208024,-0.6268768041073859,-0.38764355648308985,-0.35904785692691793
0.23613736033439636,0.692977786064148,158.82208251953125,-0.1326755288915915,-0.6327876411326641,-0.3887532382582624,-0.3502525861064592
-1.1494228839874268,0.2937828600406647,158.8639678955078,-0.13921817213503845,-0.6385566591895699,-0.396363950955371,-0.3420295807222524
-0.28119778633117676,0.4011297821998596,158.93275451660156,-0.14592358664195565,-0.6442088943792297,-0.4082857898746927,-0.3362386420369147
-0.7825303077697754,0.6438596844673157,159.0746612548828,-0.15280221981306866,-0.6497403030335486,-0.4171501906588673,-0.32753039648135496
-0.6726745367050171,0.2811354994773865,159.17642211914062,-0.15985577888269387,-0.6551349071982416,-0.4292768976961573,-0.31982210328181576
-0.6930696964263916,-0.2803187668323517,159.2135772705078,-0.1671052371938195,-0.6604652188687271,-0.44065809963891905,-0.31981529717644047
-0.5038613677024841,1.1278164386749268,159.23475646972656,-0.17453265906725487,-0.6657366198166788,-0.45063252517332636,-0.31275281657775234
0.37813007831573486,0.5438032150268555,159.2976837158203,-0.18205193249301774,-0.6708330820614675,-0.45168028591821596,-0.2988226527969042
-0.26017042994499207,-0.164875790476799,159.37120056152344,-0.18205193249301774,-0.6708330820614675,-0.45168028591821596,-0.2988226527969042
-0.22361205518245697,0.47781258821487427,159.4741973876953,-0.18961353326423297,-0.6757917278860175,-0.45571180662761135,-0.2962148461490869
-0.39384716749191284,-0.07293776422739029,159.56793212890625,-0.19725160915404555,-0.6807005256812809,-0.4608573001498978,-0.2928408892825245
0.26042962074279785,-0.12859591841697693,159.53170776367188,-0.204941829263957,-0.6855952025639511,-0.46196911303947374,-0.29452033663789423
0.28116682171821594,0.5437242388725281,159.38284301757812,-0.21260370361722175,-0.6904750464856622,-0.4574558093522986,-0.2910609339674313
0.5457754731178284,0.5970402956008911,159.19529724121094,-0.22017054055817423,-0.6952468422924476,-0.4505646235619983,-0.2815545628468195
-0.8121862411499023,0.4122745990753174,158.9959716796875,-0.22769845169865421,-0.6998693270277643,-0.4527847132955989,-0.27314360539118443
-1.3626527786254883,0.7262450456619263,159.0013885498047,-0.2353958940743986,-0.7043426565867328,-0.47090837179372713,-0.26365594168504075
-0.11902815103530884,0.29679232835769653,159.11781311035156,-0.2433472614466316,-0.7086658780193987,-0.4832557128742338,-0.25513063023487725
-0.5401346683502197,-0.3057074546813965,159.1804962158203,-0.2514472985236595,-0.7129186742959748,-0.4887487363691132,-0.2552049229542414
-0.08738985657691956,0.9199120402336121,159.20187377929688,-0.2596366888884869,-0.7171294365823265,-0.4939781074101727,-0.2500865514079729
-0.4638378620147705,-0.16589350998401642,159.15406799316406,-0.2679079370480031,-0.7212451833745254,-0.4985716717317701,-0.24380306365589297
0,0.16746549308300018,159.08551025390625,-0.27624967587283916,-0.7253084586032973,-0.5024369872485598,-0.24378996379673476
-0.016273129731416702,0.4038042426109314,159.13558959960938,-0.27624967587283916,-0.7253084586032973,-0.5024369872485598,-0.24378996379673476
0.137430801987648,-0.1979876309633255,159.19361877441406,-0.28461521193307515,-0.7293573318463229,-0.5014273399797579,-0.24207482536633804
-0.08712361752986908,0.7079871296882629,159.22109985351562,-0.2929688407115949,-0.7333564956372393,-0.5010081134426096,-0.2378248295436302
0.8025449514389038,0,159.14764404296875,-0.3012692938985614,-0.7372710770234048,-0.4950462689933677,-0.23192493679622803
0.7687152624130249,-0.5673238039016724,159.03579711914062,-0.30941094975582223,-0.7411758901230573,-0.48195243387793496,-0.2366526351620753
-0.20205241441726685,-1.5657622814178467,158.99725341796875,-0.3174041387337881,-0.7452682316872391,-0.47723024347797033,-0.25442835253973795
-0.18234983086585999,0.9703115224838257,159.10614013671875,-0.32538467072545446,-0.7495500549767162,-0.4804335955219964,-0.25939044219752144
-0.6371919512748718,0.6681842803955078,159.21255493164062,-0.3334488099412475,-0.753759444582586,-0.48726311037316916,-0.24573631050686034
0.2933357357978821,0.765342116355896,159.30043029785156,-0.34159374068465287,-0.7577554993134815,-0.4901285788354774,-0.23379025720059865
-0.7809068560600281,-0.8058018684387207,159.28321838378906,-0.3497964094374846,-0.7616548133051639,-0.49419167150432863,-0.23412742180128884
0.061908937990665436,0.7474122643470764,159.2161102294922,-0.3580828677068671,-0.7655609918354696,-0.5001833208215734,-0.2346140018353859
-0.2878504991531372,0.9022643566131592,159.2410125732422,-0.3664349467734185,-0.769356664322937,-0.502066167164594,-0.22086669666071726
-0.27090534567832947,-0.13642920553684235,159.36077880859375,-0.3664349467734185,-0.769356664322937,-0.502066167164594,-0.22086669666071726
0.5040012001991272,0.3362628221511841,159.51832580566406,-0.3747865290140422,-0.7730238985994619,-0.500123701710254,-0.2192014165222644
-0.10334473848342896,0.9144349098205566,159.5929718017578,-0.3830941006771495,-0.7765904015323349,-0.4967848978626232,-0.2087789354224999
0.1372964084148407,-1.3049681186676025,159.42320251464844,-0.39137149122000353,-0.7800971708177687,-0.49650196727986146,-0.2120333788295586
1.0935556888580322,0.1513155847787857,159.14990234375,-0.3995610481679128,-0.7837111752242258,-0.4862448664692542,-0.22164714994529874
0.31967970728874207,0,158.92605590820312,-0.4075669879287791,-0.7873947863632601,-0.47446790483469775,-0.22038618673880886
0.3905418813228607,0.6556455492973328,158.7624969482422,-0.41542546539903713,-0.7910223585346502,-0.46854939159626774,-0.21492247382799776
-1.2849920988082886,1.1986892223358154,158.83311462402344,-0.42329673652407807,-0.7944756265170867,-0.4760031434086463,-0.1994696840643882
0,-0.84390789270401,158.9645538330078,-0.43131935780997277,-0.7977754836591576,-0.4867114108987154,-0.19651317298412316
-0.10785288363695145,0.6887426972389221,159.06842041015625,-0.4394387044418706,-0.8010614785696892,-0.4876101849290233,-0.19780621627966555
-0.890486478805542,-0.2007223218679428,159.08078002929688,-0.44763486997974616,-0.8043243585371718,-0.49592967961604406,-0.19373937981824071
0.5174537301063538,0.07239560782909393,159.0651092529297,-0.45592626969200656,-0.807562259778173,-0.499038285855204,-0.1948087691018978
0.08183816820383072,0,159.14695739746094,-0.4642019569633217,-0.810804045123772,-0.4940441867026191,-0.19420547236998867
-0.36875781416893005,0.2554934024810791,159.25894165039062,-0.4642019569633217,-0.810804045123772,-0.4940441867026191,-0.19420547236998867
0.8049320578575134,1.1751222610473633,159.2912139892578,-0.4642019569633217,-0.810804045123772,-0.4940441867026191,-0.19420547236998867
-0.745003342628479,-0.01974877528846264,159.2072296142578,-0.4642019569633217,-0.810804045123772,-0.4940441867026191,-0.19420547236998867
0.01506753545254469,-1.0068943500518799,159.20587158203125,-0.4642019569633217,-0.810804045123772,-0.4940441867026191,-0.19420547236998867
2.316789150238037,-0.8351489305496216,159.3133087158203,-0.4642019569633217,-0.810804045123772,-0.4940441867026191,-0.19420547236998867
1.7124083042144775,0.010381316766142845,159.16851806640625,-0.4642019569633217,-0.810804045123772,-0.4940441867026191,-0.19420547236998867
1.8044443130493164,0.16332659125328064,158.71337890625,-0.4642019569633217,-0.810804045123772,-0.4940441867026191,-0.19420547236998867
1.9038069248199463,-0.4784623384475708,158.05345153808594,-0.4642019569633217,-0.810804045123772,-0.4940441867026191,-0.19420547236998867
1.9633489847183228,0.04767585173249245,157.17945861816406,-0.4642019569633217,-0.810804045123772,-0.4940441867026191,-0.19420547236998867
2.187309741973877,-0.36173319816589355,156.10665893554688,-0.4642019569633217,-0.810804045123772,-0.4940441867026191,-0.19420547236998867
1.1436125040054321,0.4239584803581238,154.8840789794922,-0.4642019569633217,-0.810804045123772,-0.4940441867026191,-0.19420547236998867
0.8052785396575928,-0.20889456570148468,153.4960479736328,-0.4642019569633217,-0.810804045123772,-0.4940441867026191,-0.19420547236998867
0.8652879595756531,-0.1778615564107895,152.0294189453125,-0.4642019569633217,-0.810804045123772,-0.4940441867026191,-0.19420547236998867
1.2161147594451904,0.05126955360174179,150.44151306152344,-0.4642019569633217,-0.810804045123772,-0.4940441867026191,-0.19420547236998867
1.5053257942199707,0.7743870615959167,148.7488250732422,-0.4642019569633217,-0.810804045123772,-0.4940441867026191,-0.19420547236998867
1.8465875387191772,0.13587184250354767,147.00845336914062,-0.4642019569633217,-0.810804045123772,-0.4940441867026191,-0.19420547236998867
1.6461156606674194,0.09714849293231964,145.21926879882812,-0.4642019569633217,-0.810804045123772,-0.4940441867026191,-0.19420547236998867
-0.28200215101242065,0.05753634124994278,143.39451599121094,-0.4642019569633217,-0.810804045123772,-0.4940441867026191,-0.19420547236998867
0.46792057156562805,-0.10784301906824112,141.52438354492188,-0.4642019569633217,-0.810804045123772,-0.4940441867026191,-0.19420547236998867
1.103549599647522,0.4773631989955902,139.58816528320312,-0.4642019569633217,-0.810804045123772,-0.4940441867026191,-0.19420547236998867
0.8519043922424316,0.7569296956062317,137.59584045410156,-0.4642019569633217,-0.810804045123772,-0.4940441867026191,-0.19420547236998867
1.7964155673980713,-0.672386109828949,135.50466918945312,-0.4642019569633217,-0.810804045123772,-0.4940441867026191,-0.19420547236998867
0.9216400980949402,0.1086086705327034,133.3291473388672,-0.4642019569633217,-0.810804045123772,-0.4940441867026191,-0.19420547236998867
1.519688606262207,-0.23396602272987366,131.0904998779297,-0.4642019569633217,-0.810804045123772,-0.4940441867026191,-0.19420547236998867
-0.007563839200884104,0.9536573886871338,128.7795867919922,-0.4642019569633217,-0.810804045123772,-0.4940441867026191,-0.19420547236998867
1.7956969738006592,-0.954277515411377,126.40413665771484,-0.4642019569633217,-0.810804045123772,-0.4940441867026191,-0.19420547236998867
1.0519131422042847,0.2950095534324646,123.98192596435547,-0.4642019569633217,-0.810804045123772,-0.4940441867026191,-0.19420547236998867
0.8295692801475525,-1.0144814252853394,121.54265594482422,-0.4642019569633217,-0.810804045123772,-0.4940441867026191,-0.19420547236998867
1.053048014640808,-0.09961120039224625,119.05481719970703,-0.4642019569633217,-0.810804045123772,-0.4940441867026191,-0.19420547236998867
0.08486810326576233,-0.3078400790691376,116.48887634277344,-0.4642019569633217,-0.810804045123772,-0.4940441867026191,-0.19420547236998867
0.3464103937149048,0.17749938368797302,113.89537811279297,-0.4642019569633217,-0.810804045123772,-0.4940441867026191,-0.19420547236998867
1.2782082557678223,0.8779424428939819,111.27457427978516,-0.4642019569633217,-0.810804045123772,-0.4940441867026191,-0.19420547236998867
0.9258041381835938,-0.4842924475669861,108.64494323730469,-0.4642019569633217,-0.810804045123772,-0.4940441867026191,-0.19420547236998867
1.5960229635238647,-0.36834022402763367,106.08989715576172,-0.4642019569633217,-0.810804045123772,-0.4940441867026191,-0.19420547236998867
0.9817885756492615,0.32253777980804443,103.63639068603516,-0.4642019569633217,-0.810804045123772,-0.4940441867026191,-0.19420547236998867
1.7419947385787964,0.32321101427078247,101.25442504882812,-0.4642019569633217,-0.810804045123772,-0.4940441867026191,-0.19420547236998867
0.8461829423904419,-0.10525989532470703,98.98509216308594,-0.4642019569633217,-0.810804045123772,-0.4940441867026191,-0.19420547236998867
0.6780278086662292,0.3172282576560974,96.7345962524414,-0.4642019569633217,-0.810804045123772,-0.4940441867026191,-0.19420547236998867
0.07764957845211029,-0.40372398495674133,94.35183715820312,-0.4642019569633217,-0.810804045123772,-0.4940441867026191,-0.19420547236998867
0.35127687454223633,-0.7370960712432861,91.92900848388672,-0.4642019569633217,-0.810804045123772,-0.4940441867026191,-0.19420547236998867
0.7130682468414307,-0.6001365184783936,89.4950942993164,-0.4642019569633217,-0.810804045123772,-0.4940441867026191,-0.19420547236998867
1.152955174446106,0.3235667943954468,87.02195739746094,-0.4642019569633217,-0.810804045123772,-0.4940441867026191,-0.19420547236998867
0.6188852190971375,0.3153173625469208,84.54315948486328,-0.4642019569633217,-0.810804045123772,-0.4940441867026191,-0.19420547236998867
0.03057713806629181,-0.5986928343772888,82.10254669189453,-0.4642019569633217,-0.810804045123772,-0.4940441867026191,-0.19420547236998867
1.101744294166565,-0.7757724523544312,79.66928100585938,-0.4642019569633217,-0.810804045123772,-0.4940441867026191,-0.19420547236998867
0.31338921189308167,-0.14894798398017883,77.27946472167969,-0.4642019569633217,-0.810804045123772,-0.4940441867026191,-0.19420547236998867
0.22121469676494598,-0.18183773756027222,74.75408172607422,-0.4642019569633217,-0.810804045123772,-0.4940441867026191,-0.19420547236998867
-0.7548758387565613,-0.7732524275779724,72.12374114990234,-0.4642019569633217,-0.810804045123772,-0.4940441867026191,-0.19420547236998867
0.47444480657577515,-0.645519495010376,69.39603424072266,-0.4642019569633217,-0.810804045123772,-0.4940441867026191,-0.19420547236998867
0.8260768055915833,-1.009063482284546,66.78097534179688,-0.4642019569633217,-0.810804045123772,-0.4940441867026191,-0.19420547236998867
0.1624576449394226,-0.8964920043945312,64.09327697753906,-0.4642019569633217,-0.810804045123772,-0.4940441867026191,-0.19420547236998867
-0.8683977127075195,0.33120933175086975,61.491455078125,-0.4642019569633217,-0.810804045123772,-0.4940441867026191,-0.19420547236998867
-1.1465928554534912,-0.729881763458252,59.06456756591797,-0.4642019569633217,-0.810804045123772,-0.4940441867026191,-0.19420547236998867
-0.3110278844833374,0.9187380075454712,56.997772216796875,-0.4642019569633217,-0.810804045123772,-0.4940441867026191,-0.19420547236998867
-1.6554478406906128,-0.25628894567489624,55.27384567260742,-0.4642019569633217,-0.810804045123772,-0.4940441867026191,-0.19420547236998867
-0.481343150138855,0.4423794746398926,53.93441390991211,-0.4642019569633217,-0.810804045123772,-0.4940441867026191,-0.19420547236998867
-0.48273736238479614,0.7155361771583557,52.89080047607422,-0.4642019569633217,-0.810804045123772,-0.4940441867026191,-0.19420547236998867
0.009194848127663136,1.4806791543960571,52.10623550415039,-0.4642019569633217,-0.810804045123772,-0.4940441867026191,-0.19420547236998867
-0.8252308964729309,0.7663723826408386,51.61851119995117,-0.4642019569633217,-0.810804045123772,-0.4940441867026191,-0.19420547236998867
0.09145598113536835,0.7083795070648193,51.39705276489258,-0.4642019569633217,-0.810804045123772,-0.4940441867026191,-0.19420547236998867
-0.44803646206855774,0.19359499216079712,51.41012954711914,-0.4642019569633217,-0.810804045123772,-0.4940441867026191,-0.19420547236998867
0.046322207897901535,-0.8609404563903809,51.428524017333984,-0.4642019569633217,-0.810804045123772,-0.4940441867026191,-0.19420547236998867
-0.7359562516212463,-0.5992145538330078,51.36764144897461,-0.4642019569633217,-0.810804045123772,-0.4940441867026191,-0.19420547236998867
0.019908452406525612,-0.6355131268501282,51.372886657714844,-0.4642019569633217,-0.810804045123772,-0.4940441867026191,-0.19420547236998867
-0.09958375245332718,-0.21690353751182556,51.42893600463867,-0.4642019569633217,-0.810804045123772,-0.4940441867026191,-0.19420547236998867
0.21307188272476196,0.1663101315498352,51.42681121826172,-0.4642019569633217,-0.810804045123772,-0.4940441867026191,-0.19420547236998867
0.4628201127052307,0.1644902229309082,51.422447204589844,-0.4642019569633217,-0.810804045123772,-0.4940441867026191,-0.19420547236998867
0.6557403206825256,0.5776177644729614,51.42970275878906,-0.4642019569633217,-0.810804045123772,-0.4940441867026191,-0.19420547236998867
0.41873979568481445,0.41425055265426636,51.42502212524414,-0.4642019569633217,-0.810804045123772,-0.4940441867026191,-0.19420547236998867
0.1729838252067566,-0.21395128965377808,51.4275016784668,-0.4642019569633217,-0.810804045123772,-0.4940441867026191,-0.19420547236998867
-0.014950698241591454,-0.16922041773796082,51.4334716796875,-0.4642019569633217,-0.810804045123772,-0.4940441867026191,-0.19420547236998867
0.09950161725282669,-0.16478607058525085,51.42756652832031,-0.4642019569633217,-0.810804045123772,-0.4940441867026191,-0.19420547236998867
0.30974242091178894,0.12427680939435959,51.430511474609375,-0.4642019569633217,-0.810804045123772,-0.4940441867026191,-0.19420547236998867
0.2882389426231384,0.21543791890144348,51.4323616027832,-0.4642019569633217,-0.810804045123772,-0.4940441867026191,-0.19420547236998867
0.261340856552124,0.031558312475681305,51.4300422668457,-0.4642019569633217,-0.810804045123772,-0.4940441867026191,-0.19420547236998867
0.14347445964813232,-0.09703341871500015,51.43369674682617,-0.4642019569633217,-0.810804045123772,-0.4940441867026191,-0.19420547236998867
0.17096783220767975,-0.026645975187420845,51.432769775390625,-0.4642019569633217,-0.810804045123772,-0.4940441867026191,-0.19420547236998867
0.29230326414108276,0.05743597075343132,51.43244934082031,-0.4642019569633217,-0.810804045123772,-0.4940441867026191,-0.19420547236998867
0.2583812475204468,0.10943159461021423,51.43301773071289,-0.4642019569633217,-0.810804045123772,-0.4940441867026191,-0.19420547236998867
0.2011568397283554,-0.010036775842308998,51.432891845703125,-0.4642019569633217,-0.810804045123772,-0.4940441867026191,-0.19420547236998867
0.18769297003746033,-0.037237633019685745,51.43304443359375,-0.4642019569633217,-0.810804045123772,-0.4940441867026191,-0.19420547236998867
0.21638497710227966,0.022073546424508095,51.43235397338867,-0.4642019569633217,-0.810804045123772,-0.4940441867026191,-0.19420547236998867
0.25583547353744507,0.06699562817811966,51.43186950683594,-0.4642019569633217,-0.810804045123772,-0.4940441867026191,-0.19420547236998867
0.22984303534030914,0.022625837475061417,51.433326721191406,-0.4642019569633217,-0.810804045123772,-0.4940441867026191,-0.19420547236998867
0.1981908679008484,0.001824361621402204,51.432979583740234,-0.4642019569633217,-0.810804045123772,-0.4940441867026191,-0.19420547236998867
0.21376444399356842,-0.004766193684190512,51.433448791503906,-0.4642019569633217,-0.810804045123772,-0.4940441867026191,-0.19420547236998867
0.23828120529651642,0.04177495464682579,51.43485641479492,-0.4642019569633217,-0.810804045123772,-0.4940441867026191,-0.19420547236998867
0.222897008061409,0.03442110866308212,51.43598556518555,-0.4642019569633217,-0.810804045123772,-0.4940441867026191,-0.19420547236998867
0.21678359806537628,0.001750728115439415,51.43684387207031,-0.4642019569633217,-0.810804045123772,-0.4940441867026191,-0.19420547236998867
0.2130957543849945,0.0026478758081793785,51.437049865722656,-0.4642019569633217,-0.810804045123772,-0.4940441867026191,-0.19420547236998867
0.22490118443965912,0.014941570349037647,51.437381744384766,-0.4642019569633217,-0.810804045123772,-0.4940441867026191,-0.19420547236998867
0.21999526023864746,0.031481508165597916,51.438262939453125,-0.4642019569633217,-0.810804045123772,-0.4940441867026191,-0.19420547236998867
0.21496672928333282,0.0021225768141448498,51.438682556152344,-0.4642019569633217,-0.810804045123772,-0.4940441867026191,-0.19420547236998867
0.20905272662639618,0.003673304570838809,51.43967056274414,-0.4642019569633217,-0.810804045123772,-0.4940441867026191,-0.19420547236998867
0.20700432360172272,0.01774800941348076,51.438899993896484,-0.4642019569633217,-0.810804045123772,-0.4940441867026191,-0.19420547236998867
0.2136894017457962,0.02754998579621315,51.439205169677734,-0.4642019569633217,-0.810804045123772,-0.4940441867026191,-0.19420547236998867
0.20836769044399261,0.016969211399555206,51.44070816040039,-0.4642019569633217,-0.810804045123772,-0.4940441867026191,-0.19420547236998867
0.2097681313753128,0.02090553566813469,51.440399169921875,-0.4642019569633217,-0.810804045123772,-0.4940441867026191,-0.19420547236998867
0.21720069646835327,0.021190660074353218,51.44060134887695,-0.4642019569633217,-0.810804045123772,-0.4940441867026191,-0.19420547236998867
0.211964949965477,0.012479349970817566,51.441619873046875,-0.4642019569633217,-0.810804045123772,-0.4940441867026191,-0.19420547236998867
0.21748776733875275,0.020302975550293922,51.44083023071289,-0.4642019569633217,-0.810804045123772,-0.4940441867026191,-0.19420547236998867
0.20510995388031006,-0.0024334711488336325,51.440879821777344,-0.4642019569633217,-0.810804045123772,-0.4940441867026191,-0.19420547236998867
0.21504591405391693,0.011512219905853271,51.43999099731445,-0.4642019569633217,-0.810804045123772,-0.4940441867026191,-0.19420547236998867
0.23035837709903717,0.01941630244255066,51.439697265625,-0.4642019569633217,-0.810804045123772,-0.4940441867026191,-0.19420547236998867
0.2027086764574051,0.022435547783970833,51.4405632019043,-0.4642019569633217,-0.810804045123772,-0.4940441867026191,-0.19420547236998867
0.20150554180145264,0.023213541135191917,51.44043731689453,-0.4642019569633217,-0.810804045123772,-0.4940441867026191,-0.19420547236998867
0.22985883057117462,0.023684188723564148,51.440162658691406,-0.4642019569633217,-0.810804045123772,-0.4940441867026191,-0.19420547236998867
0.21173729002475739,0.029257306829094887,51.44070816040039,-0.4642019569633217,-0.810804045123772,-0.4940441867026191,-0.19420547236998867
0.21524886786937714,0.01301861833781004,51.4417839050293,-0.4642019569633217,-0.810804045123772,-0.4940441867026191,-0.19420547236998867
0.21531139314174652,0.007870343513786793,51.44171142578125,-0.4642019569633217,-0.810804045123772,-0.4940441867026191,-0.19420547236998867
0.2107003927230835,0.012303300201892853,51.44282913208008,-0.4642019569633217,-0.810804045123772,-0.4940441867026191,-0.19420547236998867
0.21253588795661926,0.00470785703510046,51.442893981933594,-0.4642019569633217,-0.810804045123772,-0.4940441867026191,-0.19420547236998867
0.21449686586856842,0.011837057769298553,51.44404220581055,-0.4642019569633217,-0.810804045123772,-0.4940441867026191,-0.19420547236998867
0.2162306159734726,0.012916677631437778,51.44547653198242,-0.4642019569633217,-0.810804045123772,-0.4940441867026191,-0.19420547236998867
0.20904210209846497,0.013003053143620491,51.445518493652344,-0.4642019569633217,-0.810804045123772,-0.4940441867026191,-0.19420547236998867
0.21395504474639893,0.01171699445694685,51.44719314575195,-0.4642019569633217,-0.810804045123772,-0.4940441867026191,-0.19420547236998867
0.19209879636764526,0.01602671481668949,51.44822311401367,-0.4642019569633217,-0.810804045123772,-0.4940441867026191,-0.19420547236998867
0.21770837903022766,0.017568768933415413,51.44795608520508,-0.4642019569633217,-0.810804045123772,-0.4940441867026191,-0.19420547236998867
0.21236944198608398,0.018227988854050636,51.44866943359375,-0.4642019569633217,-0.810804045123772,-0.4940441867026191,-0.19420547236998867
0.21834084391593933,0.007768561132252216,51.44862747192383,-0.4642019569633217,-0.810804045123772,-0.4940441867026191,-0.19420547236998867
0.19645656645298004,0.011340055614709854,51.450923919677734,-0.4642019569633217,-0.810804045123772,-0.4940441867026191,-0.19420547236998867
0.2089688926935196,0.008315453305840492,51.450958251953125,-0.4642019569633217,-0.810804045123772,-0.4940441867026191,-0.19420547236998867
0.19922137260437012,0.007738281972706318,51.45193099975586,-0.4642019569633217,-0.810804045123772,-0.4940441867026191,-0.19420547236998867
0.21837680041790009,-0.00016614870401099324,51.45193862915039,-0.4642019569633217,-0.810804045123772,-0.4940441867026191,-0.19420547236998867
0.21044275164604187,0.004759699571877718,51.45249938964844,-0.4642019569633217,-0.810804045123772,-0.4940441867026191,-0.19420547236998867
0.2023298591375351,0.002649737289175391,51.453060150146484,-0.4642019569633217,-0.810804045123772,-0.4940441867026191,-0.19420547236998867
0.2015821933746338,0.009684969671070576,51.45446014404297,-0.4642019569633217,-0.810804045123772,-0.4940441867026191,-0.19420547236998867
0.21270571649074554,0.007397863082587719,51.455894470214844,-0.4642019569633217,-0.810804045123772,-0.4940441867026191,-0.19420547236998867
0.20938624441623688,0.0014672018587589264,51.4564323425293,-0.4642019569633217,-0.810804045123772,-0.4940441867026191,-0.19420547236998867
0.19971469044685364,0.01344139501452446,51.45766067504883,-0.4642019569633217,-0.810804045123772,-0.4940441867026191,-0.19420547236998867
0.2123955339193344,0.009781609289348125,51.458030700683594,-0.4642019569633217,-0.810804045123772,-0.4940441867026191,-0.19420547236998867
0.20511099696159363,0.0002777113695628941,51.45793914794922,-0.4642019569633217,-0.810804045123772,-0.4940441867026191,-0.19420547236998867
0.20132939517498016,-0.005825201515108347,51.45920944213867,-0.4642019569633217,-0.810804045123772,-0.4940441867026191,-0.19420547236998867
0.21309643983840942,0.014896520413458347,51.45792007446289,-0.4642019569633217,-0.810804045123772,-0.4940441867026191,-0.19420547236998867
0.19711506366729736,0.01566273160278797,51.45833969116211,-0.4642019569633217,-0.810804045123772,-0.4940441867026191,-0.19420547236998867
0.20695343613624573,0.006351205985993147,51.45866012573242,-0.4642019569633217,-0.810804045123772,-0.4940441867026191,-0.19420547236998867
0.21255438029766083,0.0141639094799757,51.45870590209961,-0.4642019569633217,-0.810804045123772,-0.4940441867026191,-0.19420547236998867
0.19470328092575073,0.016152430325746536,51.45768356323242,-0.4642019569633217,-0.810804045123772,-0.4940441867026191,-0.19420547236998867
0.21221543848514557,-0.0009131639380939305,51.45773696899414,-0.4642019569633217,-0.810804045123772,-0.4940441867026191,-0.19420547236998867
0.21870110929012299,0.017855187878012657,51.45794677734375,-0.4642019569633217,-0.810804045123772,-0.4940441867026191,-0.19420547236998867
0.208475723862648,-0.003148819087073207,51.45748519897461,-0.4642019569633217,-0.810804045123772,-0.4940441867026191,-0.19420547236998867
0.19472381472587585,0.006121724843978882,51.45802307128906,-0.4642019569633217,-0.810804045123772,-0.4940441867026191,-0.19420547236998867
0.19627560675144196,0.018595537170767784,51.45880889892578,-0.4642019569633217,-0.810804045123772,-0.4940441867026191,-0.19420547236998867
0.18684624135494232,-0.004336018580943346,51.459205627441406,-0.4642019569633217,-0.810804045123772,-0.4940441867026191,-0.19420547236998867
0.20664294064044952,0.0003458863066043705,51.459129333496094,-0.4642019569633217,-0.810804045123772,-0.4940441867026191,-0.19420547236998867
0.20532208681106567,0.004332510754466057,51.459285736083984,-0.4642019569633217,-0.810804045123772,-0.4940441867026191,-0.19420547236998867
0.19611893594264984,0.013280939310789108,51.458377838134766,-0.4642019569633217,-0.810804045123772,-0.4940441867026191,-0.19420547236998867
0.20466069877147675,0.020023711025714874,51.459503173828125,-0.4642019569633217,-0.810804045123772,-0.4940441867026191,-0.19420547236998867
0.19313563406467438,-0.003250740934163332,51.459720611572266,-0.4642019569633217,-0.810804045123772,-0.4940441867026191,-0.19420547236998867
0.2022247165441513,0.0020615088287740946,51.45964813232422,-0.4642019569633217,-0.810804045123772,-0.4940441867026191,-0.19420547236998867
0.2065490186214447,0.008566191419959068,51.460750579833984,-0.4642019569633217,-0.810804045123772,-0.4940441867026191,-0.19420547236998867
0.20517364144325256,-0.004380722995847464,51.46039581298828,-0.4642019569633217,-0.810804045123772,-0.4940441867026191,-0.19420547236998867
0.2009623497724533,0.00868302769958973,51.46131134033203,-0.4642019569633217,-0.810804045123772,-0.4940441867026191,-0.19420547236998867
0.2006121575832367,0.011461815796792507,51.46116638183594,-0.4642019569633217,-0.810804045123772,-0.4940441867026191,-0.19420547236998867
0.20036472380161285,0.004950471688061953,51.4617805480957,-0.4642019569633217,-0.810804045123772,-0.4940441867026191,-0.19420547236998867
0.1924894154071808,0.021238377317786217,51.46305847167969,-0.4642019569633217,-0.810804045123772,-0.4940441867026191,-0.19420547236998867
0.19308538734912872,0.012897438369691372,51.4640007019043,-0.4642019569633217,-0.810804045123772,-0.4940441867026191,-0.19420547236998867
0.21737800538539886,0.004541060421615839,51.4636344909668,-0.4642019569633217,-0.810804045123772,-0.4940441867026191,-0.19420547236998867
0.19776032865047455,-0.002692620502784848,51.463932037353516,-0.4642019569633217,-0.810804045123772,-0.4940441867026191,-0.19420547236998867
0.1830914467573166,0.0025754403322935104,51.463706970214844,-0.4642019569633217,-0.810804045123772,-0.4940441867026191,-0.19420547236998867
0.2100709080696106,0.0018620096379891038,51.46309280395508,-0.4642019569633217,-0.810804045123772,-0.4940441867026191,-0.19420547236998867
0.19385744631290436,-0.010192477144300938,51.465171813964844,-0.4642019569633217,-0.810804045123772,-0.4940441867026191,-0.19420547236998867
0.18353648483753204,0.014609388075768948,51.465415954589844,-0.4642019569633217,-0.810804045123772,-0.4940441867026191,-0.19420547236998867
0.19601701200008392,0.010663841851055622,51.466522216796875,-0.4642019569633217,-0.810804045123772,-0.4940441867026191,-0.19420547236998867
0.21248401701450348,0.012961877509951591,51.46647262573242,-0.4642019569633217,-0.810804045123772,-0.4940441867026191,-0.19420547236998867
0.1890024095773697,-0.0055799661204218864,51.46689224243164,-0.4642019569633217,-0.810804045123772,-0.4940441867026191,-0.19420547236998867
0.1974981725215912,-0.01195275317877531,51.46648406982422,-0.4642019569633217,-0.810804045123772,-0.4940441867026191,-0.19420547236998867
0.19012020528316498,0.009676048532128334,51.466514587402344,-0.4642019569633217,-0.810804045123772,-0.4940441867026191,-0.19420547236998867
0.1961975246667862,0,51.46615219116211,-0.4724091991215633,-0.8140401310487905,-0.4908248722863695,-0.19412483863222094
0.304399311542511,0.23655256628990173,51.45991516113281,-0.48055484999048825,-0.8172591177644463,-0.48665323198462535,-0.19215356724647176
1.118011713027954,0.7587869167327881,51.43551254272461,-0.48856695864685906,-0.820392556421122,-0.4747998067798715,-0.183859071554616
1.2997641563415527,1.6619386672973633,51.51982498168945,-0.4963123876578174,-0.8232887683370301,-0.4546516745351256,-0.16368635835436474
1.0879817008972168,1.706315279006958,51.54458999633789,-0.5037240998822057,-0.8257829677855539,-0.4347537923914692,-0.1356175754684954
1.6004875898361206,0.6020451188087463,51.39077377319336,-0.5107832971657625,-0.827882957904625,-0.4123498816353581,-0.1163812388200312
1.3224971294403076,1.1061042547225952,51.219173431396484,-0.5174528101430688,-0.8297040237340192,-0.3879916756413878,-0.10214666070727002
-0.13255254924297333,1.3590203523635864,51.158409118652344,-0.5238367030301337,-0.8312352788703149,-0.37807547080641,-0.08160395564821851
0.7409312129020691,1.7788856029510498,51.10271453857422,-0.5300957123585975,-0.8323774346619994,-0.3730056486092509,-0.055454739353929874
1.8037590980529785,0.35284698009490967,51.04221725463867,-0.5361357585638243,-0.8331536433329645,-0.35179989601795886,-0.03769030116188021
1.769453525543213,1.739242434501648,51.014739990234375,-0.5417509503985961,-0.8336365310318711,-0.3220231241546573,-0.0202562227069089
0.36411985754966736,1.0750529766082764,51.004634857177734,-0.5469698376495701,-0.8337786975623258,-0.30424334596221664,0.003196239052340469
0.1202249675989151,0.1765008568763733,51.13915252685547,-0.5520069250249717,-0.8336385134507948,-0.30020713908597846,0.013625854331379215
1.0462075471878052,1.6858549118041992,51.40401077270508,-0.5569293750851001,-0.8332820856168912,-0.2904868681294225,0.029145485737050655
1.022723913192749,0.38854658603668213,51.64596939086914,-0.5616271470913974,-0.8326522718617014,-0.2732457726262512,0.046432164885724665
0.15207302570343018,1.1201558113098145,51.7847900390625,-0.5660996601810783,-0.8317736314471236,-0.2634557981354497,0.059004684863612135
0.37257593870162964,1.4915674924850464,51.869075775146484,-0.5660996601810783,-0.8317736314471236,-0.2634557981354497,0.059004684863612135
1.207433819770813,-0.33848634362220764,51.898773193359375,-0.5703808672501085,-0.8307101449529479,-0.25028905014817937,0.06861369443746912
1.0139812231063843,-0.61199551820755,51.90208435058594,-0.5743980864857117,-0.8296325890638394,-0.23177725812420272,0.06069301225555447
-0.7560828328132629,0.1086663007736206,51.82398986816406,-0.5782431311773447,-0.8286559922774576,-0.22962810487176005,0.056498602110271724
-0.46043649315834045,-1.583317756652832,51.83597183227539,-0.5821547467672887,-0.8278167552600557,-0.2397657659215234,0.04420983997794496
0.16254250705242157,0.6687703132629395,51.79121780395508,-0.5861715299483492,-0.8271434348328809,-0.2422482158057394,0.03658861128302919
1.5106348991394043,0.7698463797569275,51.92763137817383,-0.5900928073363482,-0.8264337207078152,-0.22830507075414086,0.048577083724861414
0.9986319541931152,1.580719232559204,52.02766036987305,-0.5937236372063246,-0.8254608689226567,-0.20739451364303652,0.0681651304941625
0.46539878845214844,0.5771302580833435,51.9887809753418,-0.597078543632136,-0.8241749327553483,-0.19519425745432598,0.08614720958285041
0.28894972801208496,-0.2924383878707886,51.942962646484375,-0.6002793959427314,-0.8227193756602027,-0.18890801981712402,0.0885196418346217
0.29955604672431946,0.5857171416282654,51.96400451660156,-0.6033869944831045,-0.8212236817161703,-0.18400380502765398,0.09096363144926733
0.7309495210647583,1.356309413909912,52.17485809326172,-0.6063821616802467,-0.8195727582367701,-0.17541625862941168,0.10714718607875215
2.2444117069244385,-0.760935366153717,52.22297286987305,-0.6090991436832377,-0.8177456263821412,-0.1506215817295017,0.11210863647672044
-0.09116531163454056,0.7350301742553711,52.37578582763672,-0.6114599723790565,-0.8158789480791888,-0.13267786176875257,0.11189275987756755
-1.3323447704315186,0.8653165102005005,52.3574104309082,-0.6137701249420124,-0.8139029335614755,-0.14454044578596972,0.12522898224803314
0.5877202749252319,-0.32456424832344055,52.3116340637207,-0.6162308424061888,-0.8117782316169334,-0.15074564991518877,0.12973525109700865
0.8937974572181702,0.5374752283096313,52.405181884765625,-0.618640386728932,-0.809601191947262,-0.13839966881399374,0.13150950926356023
0,0.488322377204895,52.5344352722168,-0.6208849786079694,-0.807338130848042,-0.13095135667050897,0.14005782264284794
0.9321817755699158,-0.24194100499153137,52.724578857421875,-0.6230027663736188,-0.8049867239864796,-0.12318317520742635,0.14211100074462596
0.5726912617683411,0.21190349757671356,52.836463928222656,-0.6249513142217052,-0.8026202932454175,-0.11064256656294087,0.14186068818283581
-0.0887523889541626,0.9611777663230896,52.88579559326172,-0.6267617501315866,-0.8001744844657105,-0.10660974262282272,0.15163636538200084
-0.28357622027397156,0.6455787420272827,52.956932067871094,-0.628564435328719,-0.7975356313962639,-0.10971248103305717,0.1650260029515873
-0.36593109369277954,0.30963262915611267,53.06566619873047,-0.6304380813538509,-0.7947188638907386,-0.11512504198278009,0.1729860977114489
0.8621593117713928,0,53.07319259643555,-0.6323223717606418,-0.7918142599963008,-0.11098980683212498,0.17556636962108318
-0.6884160041809082,0,52.91242218017578,-0.6341601363670389,-0.7888881538359495,-0.10954194593553761,0.17556636962108318
0.6317611336708069,0.14442841708660126,52.807090759277344,-0.6359897698319722,-0.7859520179244115,-0.11001406985645512,0.17676993976347152
1.9057159423828125,0.8615151047706604,52.850337982177734,-0.637647123977076,-0.7829359950726691,-0.0888684275560083,0.18515280244561538
-0.6134220957756042,-0.14020760357379913,53.0828742980957,-0.6390385218081062,-0.7798000242332146,-0.0780993121676149,0.19116369828892257
-0.41335371136665344,1.1590907573699951,53.3169059753418,-0.6404114808863958,-0.7765432068204967,-0.08665577722713372,0.1996543912372242
0.4002593755722046,-0.31594550609588623,53.3165397644043,-0.6418566531690559,-0.7731570818796489,-0.08676489669208746,0.20668060166450844
1.0422226190567017,-0.5474272966384888,53.18425369262695,-0.6432025624198526,-0.7697723616298748,-0.07474421340351324,0.19948582830838865
0.9833453893661499,0,53.10334014892578,-0.6443076348648819,-0.7664856136092238,-0.05786447999998948,0.19492393416973458
0.39650025963783264,-0.22224828600883484,53.04433059692383,-0.6443076348648819,-0.7664856136092238,-0.05786447999998948,0.19492393416973458
-1.0857537984848022,-0.3784782290458679,53.08903884887695,-0.6453199076939683,-0.7632785984921626,-0.06360825949038089,0.18991787987761205
0.18497829139232635,0.8867943286895752,53.16852569580078,-0.6464425992068005,-0.7600780007650605,-0.07111472204948485,0.19415384737464295
-0.26094791293144226,-1.6017063856124878,53.23186492919922,-0.6476331202424543,-0.7568917499794361,-0.07174780222897749,0.18819624690028533
0.29908308386802673,-1.6473114490509033,53.180946350097656,-0.6488262686705112,-0.7539807721029497,-0.07143000913783928,0.1611210982780904
-0.8401769399642944,-1.4910837411880493,52.980594635009766,-0.6500543447850374,-0.7515133645754147,-0.07593912460530818,0.13496780502609912
0.8223983645439148,0.9275120496749878,52.85581970214844,-0.6513212314850857,-0.7493030380813348,-0.076087279400478,0.13027137426349028
0,1.9131461381912231,52.7427978515625,-0.6525322418108892,-0.7469345805805637,-0.06923395969594538,0.15394352582904203
0.6262382864952087,0.4034055769443512,52.66173553466797,-0.6536426523692594,-0.7442079835031953,-0.06401530730848531,0.17324812345517182
0.5673137307167053,-0.11192452907562256,52.66498947143555,-0.6546266886009834,-0.7413002730395071,-0.05406904049838603,0.17567713218741124
0.31992802023887634,0.050736747682094574,52.67142105102539,-0.6554662252654735,-0.7383765699878693,-0.046675359240422855,0.17516723400913184
0.7676871418952942,-0.31701481342315674,52.750099182128906,-0.6561686190887768,-0.7354756076200601,-0.03761189955597143,0.1729482501279563
-0.1509266495704651,0.6466671228408813,52.80937194824219,-0.6567526534916315,-0.7325702442631069,-0.032472228786597855,0.17569535270643735
-0.4371289312839508,0.6395592093467712,52.8797607421875,-0.6573346944978563,-0.7295526671115977,-0.03737269196038465,0.1864139054746678
0.13226155936717987,0.2717048227787018,52.92781448364258,-0.657978744042468,-0.7263824864625668,-0.039913253393024414,0.19400777240904674
0.5923149585723877,0,52.910926818847656,-0.658593647118606,-0.7231301551986119,-0.033875115743528014,0.1962719792655359
0.3834812343120575,-0.1225854828953743,52.75779724121094,-0.6590904687564922,-0.719867468424943,-0.025743480802824306,0.19525043357474112
-0.7364972829818726,0.3598574101924896,52.605064392089844,-0.6595440417732525,-0.7165968173148572,-0.028685281208406098,0.19722769963555042
0.6477147340774536,0.515167772769928,52.542964935302734,-0.6600282952481776,-0.7132489233498923,-0.02942513578260959,0.20451957616023725
0.9441279172897339,-0.20759643614292145,52.749549865722656,-0.6604081695493206,-0.7098189046266226,-0.016159780354549694,0.20708267063212896
-1.0555604696273804,-0.5082470774650574,53.05140686035156,-0.6606852375935865,-0.7064172381378654,-0.017088384957363416,0.20111730801872912
0.24522939324378967,0.8840242028236389,53.14754867553711,-0.6610263170009582,-0.7030391873705144,-0.023841143927226673,0.20424878406338398
1.479160189628601,-1.5440962314605713,52.91267776489258,-0.6613039201231569,-0.6996808793047801,-0.009471230736623417,0.19874818382474288
0.5317259430885315,1.0916563272476196,52.745357513427734,-0.6613221290984397,-0.6963998290121602,0.007286153702686019,0.19497785128963496
0.1922173947095871,-0.48954951763153076,52.72187423706055,-0.6611504193604922,-0.693108385184443,0.013319014851003674,0.1999954080364357
-0.7743030786514282,-0.6505323648452759,52.79269790649414,-0.6609688583965826,-0.6898543007367854,0.008468300818154998,0.1904947256824623
0.24628643691539764,1.1933009624481201,52.77529525756836,-0.6608643878719561,-0.6866416963783554,0.00406816213702141,0.19501779732915267
0.6339522004127502,-0.3429245054721832,52.77153396606445,-0.6607354574865246,-0.6833323458355794,0.011403484114755976,0.20210426780395213
1.060599684715271,-0.19442573189735413,52.80487823486328,-0.6604277222037004,-0.6800012573608865,0.025524749824156152,0.197626349159206
0.5495487451553345,0,52.724700927734375,-0.6598904938434457,-0.676720986661837,0.0389426534064112,0.19600613472672804
-1.6447794437408447,-1.058424711227417,52.63640594482422,-0.6593175073074072,-0.6735277194657823,0.029815730918198613,0.1871859287998329
0.4940508008003235,1.5209318399429321,52.571693420410156,-0.6589004901700859,-0.6703758354351799,0.020226325560360935,0.19104015487246218
0.6192861795425415,-0.8946802020072937,52.627933502197266,-0.6584860696760005,-0.6671483431568933,0.029504133729884807,0.19625891852192584
0.3961851894855499,0.27706101536750793,52.65679168701172,-0.6584860696760005,-0.6671483431568933,0.029504133729884807,0.19625891852192584
0.582023024559021,0,52.77231216430664,-0.6579264029878604,-0.6638581208332385,0.0376558688469229,0.19856776031665507
-0.4545670449733734,-0.40328726172447205,52.92641830444336,-0.6572899540640516,-0.6605766642211361,0.03871800201013663,0.1952070331356178
-1.5155712366104126,-0.3712484836578369,53.1092643737793,-0.6567814691889926,-0.6573770008734163,0.022300182996938412,0.18875256859076522
-1.5552910566329956,-2.3348376750946045,53.03116226196289,-0.6566230537982967,-0.6544190473801502,-0.003290336113423324,0.16620185060116155
1.1669734716415405,0.29528215527534485,52.88841247558594,-0.6567048592324781,-0.651790652336785,-0.006526315988352117,0.1492055546026677
0.7151305675506592,0.27844735980033875,52.74873352050781,-0.656682929496229,-0.6492640507659714,0.009157884338249548,0.15398663389496509
0.195823535323143,1.6254392862319946,52.72362518310547,-0.656467037389003,-0.646565392517303,0.016749168528864565,0.16985235594523454
-0.07703316956758499,1.6875174045562744,52.76074981689453,-0.6561796352492334,-0.6435044534813555,0.017739088243494214,0.1974603283684701
1.328080177307129,-1.588539958000183,52.856510162353516,-0.6557971055140821,-0.640206574574759,0.02816447997465708,0.1982851404231042
-0.6020357608795166,0.600396990776062,53.099037170410156,-0.6552772777633636,-0.6369704432737645,0.03421485011155385,0.19005061569623652
-0.21549034118652344,0.8999034762382507,53.07743453979492,-0.6547638029074813,-0.633698745479729,0.027402132594336846,0.20255311958802247
1.5942776203155518,-1.7362558841705322,52.966800689697266,-0.6542113515809694,-0.6303809401815906,0.03889202658707875,0.1955835161885868
0.8119809031486511,0.47736236453056335,52.88521957397461,-0.6533960498514998,-0.627208638072867,0.058944180949280445,0.18509273685825373
0.1635308414697647,0.0817328691482544,52.889530181884766,-0.6523459029645244,-0.624084933067335,0.06707344548776724,0.1897518638055772
-0.8923482298851013,-0.630023181438446,52.918453216552734,-0.6512786245250349,-0.62096047772004,0.060999967250972766,0.18518277786982562
-0.48330754041671753,0.5891610980033875,52.970359802246094,-0.6503574900549008,-0.6178769357335593,0.04953616916512427,0.1848422605078668
0.574398398399353,0,52.98159408569336,-0.6495255614814556,-0.6147553174266224,0.050295259648312905,0.18975193632456172
1.2667436599731445,-0.4231664836406708,53.05192947387695,-0.6485594500665968,-0.6116221717159103,0.06563811013475038,0.18622554896088947
0.7913326621055603,-0.23379209637641907,52.97496795654297,-0.6473225595975399,-0.6085640346901744,0.08278874615207292,0.1807508941274137
-0.16199488937854767,0.1135486289858818,52.89618682861328,-0.6458990431496772,-0.6055598700288418,0.08803322759146469,0.17974886523249256
-0.8277416825294495,0.8161155581474304,52.817203521728516,-0.6445005543962019,-0.6024994955953049,0.07978542282556471,0.18749606679193684
0.31559300422668457,-0.7173706293106079,52.83051300048828,-0.6432063632295468,-0.5993677038620479,0.07551751717304167,0.18831894119891035
0,0.5049101114273071,52.844444274902344,-0.6419258217624804,-0.5962438090446968,0.07814745887493071,0.18654843688321618
0.698731005191803,-0.07170664519071579,52.9008674621582,-0.6405748411280932,-0.5931045848559323,0.08397021725152908,0.1901584657685211
0.16270919144153595,-0.28581422567367554,53.047428131103516,-0.639115515271357,-0.5899601049313781,0.0911488855568069,0.18717912517798452
-0.49491986632347107,1.234694004058838,53.214237213134766,-0.6376194373644992,-0.5867745584160238,0.08838046326612412,0.19508645666452754
0.14334985613822937,-0.3346109688282013,53.3281135559082,-0.6361708442274377,-0.5834606117052795,0.0854507131812471,0.20258714862478283
0.4206441044807434,0.2176133692264557,53.31425094604492,-0.6347074994271518,-0.5800922840615055,0.09015066285307187,0.2016121686281016
0,-0.8060827255249023,53.127750396728516,-0.6331757769834561,-0.5767729471785579,0.0936560303904114,0.19670825732561456
-0.8839024901390076,0.09881918132305145,53.019309997558594,-0.6316762252609867,-0.5735435917470338,0.08629017630591967,0.1908143944572658
0.5785731077194214,1.5373708009719849,53.04644012451172,-0.6302592590852227,-0.5702497275350867,0.08374576478575646,0.2044493109763911
1.1747024059295654,-2.0772995948791504,53.14652633666992,-0.6302592590852227,-0.5702497275350867,0.08374576478575646,0.2044493109763911
-0.19887161254882812,1.1620759963989258,53.32887268066406,-0.6287957303114754,-0.5669057962131524,0.09187768806392926,0.19682244765572257
-0.48116713762283325,-0.664830207824707,53.325828552246094,-0.6273116604236163,-0.5635908911280172,0.08621069847916542,0.20096616256050773
0.2429170161485672,-1.7107892036437988,53.14059066772461,-0.6258913605962881,-0.5604064286555829,0.0842252808002132,0.18116933413160352
-0.8414334654808044,-1.4402663707733154,52.89596176147461,-0.6245291695585993,-0.5576057630571685,0.07923764372244456,0.15491053767812757
0.7280430197715759,-0.49494194984436035,52.91682815551758,-0.6232164164997328,-0.5551583102292426,0.07829272334153432,0.13878380167298027
-0.6213234663009644,0.5504312515258789,53.01665115356445,-0.6219041266972718,-0.5528413934442984,0.07918205295378943,0.13924621252032626
-0.6661487817764282,0.5271522998809814,53.02246856689453,-0.6206738336097141,-0.5504457910445564,0.06845311755314448,0.14822607544871677
1.8576991558074951,0.6130669713020325,52.868892669677734,-0.6194502017634095,-0.5478961745599122,0.07838270400340337,0.15772790270857523
1.1631301641464233,0.4587358236312866,52.88886642456055,-0.617934043549467,-0.5451929454317879,0.10355628166968603,0.16665959266635288
-0.07772357761859894,-0.5298917293548584,52.85723114013672,-0.6161327300642412,-0.5424202269363573,0.1126013365574179,0.1660666267853231
-0.8406227231025696,-0.09544835984706879,52.80648422241211,-0.6143198151702788,-0.539695876218352,0.10494845071807483,0.16085545937530704
0,0.28335079550743103,52.899871826171875,-0.6126290509029708,-0.537001903115176,0.09794326135888676,0.16242131300581006
0.09038827568292618,-1.0940003395080566,52.9558219909668,-0.610990386250067,-0.5343511763389681,0.0986964969895778,0.15566590013913817
-0.05260038748383522,0.3902161121368408,52.97761154174805,-0.6093428204746713,-0.531805618574661,0.09901139605790356,0.14980103157771138
0.6208234429359436,0.5751354098320007,53.009056091308594,-0.6076531706059665,-0.5292418964148957,0.10374658818667112,0.15784562759411838
0.9594032168388367,-0.45269182324409485,53.13814926147461,-0.605814322840371,-0.5266026329281474,0.11691514368479429,0.15886599081568425
0.17976732552051544,1.1772191524505615,53.291465759277344,-0.6037866280468495,-0.5239045520166911,0.12640823153778888,0.1649037185590715
-0.5047213435173035,-0.3114199936389923,53.43257141113281,-0.6017023904391361,-0.5210960317657891,0.12370028138781565,0.17211871154916789
0.15653792023658752,0.2720824182033539,53.498565673828125,-0.5996648984870669,-0.5182301183493749,0.12079875286047635,0.17179089842053757
0,-1.0872975587844849,53.37930679321289,-0.597640715250487,-0.515423548871573,0.12210323552911458,0.16499743891569482
-1.6168237924575806,0.36013877391815186,53.3073844909668,-0.5957179407550336,-0.5127240886941494,0.1086297039253014,0.15893778237514206
0.11412424594163895,1.9804307222366333,53.34304428100586,-0.5940117998247866,-0.5099125861062196,0.09610720770433522,0.17844252817643194
1.0966639518737793,-0.872626781463623,53.41194534301758,-0.5923259305159772,-0.5068616131407254,0.10619710935279704,0.1876742276828737
1.523469090461731,0,53.626338958740234,-0.590374025009935,-0.503794308428057,0.12803155137225963,0.1804023378373435
-0.7225065231323242,0.6760704517364502,53.73466110229492,-0.5881845434198884,-0.5007406534605084,0.134706239433338,0.18603625826848058
0.41203051805496216,-1.1163842678070068,53.61719512939453,-0.5859610002630187,-0.497670626504372,0.13211893939102665,0.1823669764678926
0.8354067802429199,0.17189738154411316,53.423152923583984,-0.5836723903496753,-0.49469676626367537,0.14251425021017566,0.17449625241570182
-0.06111564859747887,0.7994600534439087,53.306854248046875,-0.581243382628697,-0.4917210400126506,0.14896667630722102,0.18259089770726866
-0.49411696195602417,-1.1737401485443115,53.44688034057617,-0.5787991625104206,-0.48870385005746697,0.14433973788594182,0.1794718969147653
-0.219692200422287,-0.7611269354820251,53.59196090698242,-0.5764430702930423,-0.48584701754527826,0.13839132819945588,0.16334800454787918
-0.672827422618866,1.1091877222061157,53.57758331298828,-0.5764430702930423,-0.48584701754527826,0.13839132819945588,0.16334800454787918
1.8727836608886719,-0.8473265171051025,53.53585433959961,-0.5764430702930423,-0.48584701754527826,0.13839132819945588,0.16334800454787918
-1.055262804031372,-2.2900912761688232,53.3874626159668,-0.5764430702930423,-0.48584701754527826,0.13839132819945588,0.16334800454787918
-1.6747469902038574,-1.0398813486099243,53.13310623168945,-0.5764430702930423,-0.48584701754527826,0.13839132819945588,0.16334800454787918
-1.0682673454284668,-2.941171169281006,52.71760559082031,-0.5764430702930423,-0.48584701754527826,0.13839132819945588,0.16334800454787918
-1.158262848854065,-1.2780495882034302,52.0013542175293,-0.5764430702930423,-0.48584701754527826,0.13839132819945588,0.16334800454787918
-0.7099853754043579,-1.6114946603775024,50.949790954589844,-0.5764430702930423,-0.48584701754527826,0.13839132819945588,0.16334800454787918
-0.8731855750083923,-2.4029083251953125,49.61259078979492,-0.5764430702930423,-0.48584701754527826,0.13839132819945588,0.16334800454787918
-0.9170766472816467,-2.037689447402954,48.07583999633789,-0.5764430702930423,-0.48584701754527826,0.13839132819945588,0.16334800454787918
-1.499643087387085,-1.8644766807556152,46.36037826538086,-0.5764430702930423,-0.48584701754527826,0.13839132819945588,0.16334800454787918
-0.8799207806587219,-1.354770302772522,44.59608840942383,-0.5764430702930423,-0.48584701754527826,0.13839132819945588,0.16334800454787918
-1.2626631259918213,-0.6438816785812378,42.83491134643555,-0.5764430702930423,-0.48584701754527826,0.13839132819945588,0.16334800454787918
-0.5567241311073303,-0.7269361019134521,41.11379623413086,-0.5764430702930423,-0.48584701754527826,0.13839132819945588,0.16334800454787918
-0.9282366633415222,-1.3966172933578491,39.37839889526367,-0.5764430702930423,-0.48584701754527826,0.13839132819945588,0.16334800454787918
-0.47870534658432007,-0.14934775233268738,37.67789840698242,-0.5764430702930423,-0.48584701754527826,0.13839132819945588,0.16334800454787918
-1.1189568042755127,-1.3304831981658936,36.014671325683594,-0.5764430702930423,-0.48584701754527826,0.13839132819945588,0.16334800454787918
-0.7758387327194214,-0.1950782984495163,34.44717788696289,-0.5764430702930423,-0.48584701754527826,0.13839132819945588,0.16334800454787918
0.007673378102481365,-0.4822348356246948,32.968563079833984,-0.5764430702930423,-0.48584701754527826,0.13839132819945588,0.16334800454787918
-1.4874629974365234,-0.47009575366973877,31.57892608642578,-0.5764430702930423,-0.48584701754527826,0.13839132819945588,0.16334800454787918
0.718937873840332,-0.694268524646759,30.2994441986084,-0.5764430702930423,-0.48584701754527826,0.13839132819945588,0.16334800454787918
-0.912647008895874,-0.5667299032211304,28.99954605102539,-0.5764430702930423,-0.48584701754527826,0.13839132819945588,0.16334800454787918
0.14035320281982422,-1.3100656270980835,27.72271156311035,-0.5764430702930423,-0.48584701754527826,0.13839132819945588,0.16334800454787918
1.2013508081436157,-1.1206251382827759,26.40410614013672,-0.5764430702930423,-0.48584701754527826,0.13839132819945588,0.16334800454787918
-1.7242774963378906,0.059731625020504,25.15138816833496,-0.5764430702930423,-0.48584701754527826,0.13839132819945588,0.16334800454787918
1.4998503923416138,-1.0943700075149536,23.978713989257812,-0.5764430702930423,-0.48584701754527826,0.13839132819945588,0.16334800454787918
-1.6334726810455322,0.05071185156702995,22.816253662109375,-0.5764430702930423,-0.48584701754527826,0.13839132819945588,0.16334800454787918
-0.5483238697052002,-0.9084662795066833,21.748350143432617,-0.5764430702930423,-0.48584701754527826,0.13839132819945588,0.16334800454787918
0.2168019860982895,-0.4656706750392914,20.692584991455078,-0.5764430702930423,-0.48584701754527826,0.13839132819945588,0.16334800454787918
0.6930393576622009,0.261713445186615,19.646400451660156,-0.5764430702930423,-0.48584701754527826,0.13839132819945588,0.16334800454787918
0.7933021187782288,-1.449897050857544,18.62013816833496,-0.5764430702930423,-0.48584701754527826,0.13839132819945588,0.16334800454787918
-0.9415860772132874,0.06655669957399368,17.475841522216797,-0.5764430702930423,-0.48584701754527826,0.13839132819945588,0.16334800454787918
-0.6655941009521484,-0.9619061350822449,16.23725700378418,-0.5764430702930423,-0.48584701754527826,0.13839132819945588,0.16334800454787918
-0.8532553911209106,0.32189303636550903,14.972408294677734,-0.5764430702930423,-0.48584701754527826,0.13839132819945588,0.16334800454787918
0.2865614891052246,-0.846206784248352,13.605916976928711,-0.5764430702930423,-0.48584701754527826,0.13839132819945588,0.16334800454787918
-0.44402897357940674,-0.8573805093765259,12.232596397399902,-0.5764430702930423,-0.48584701754527826,0.13839132819945588,0.16334800454787918
-0.07526132464408875,0.4098648130893707,10.837244033813477,-0.5764430702930423,-0.48584701754527826,0.13839132819945588,0.16334800454787918
0.8687625527381897,-1.187079668045044,9.451711654663086,-0.5764430702930423,-0.48584701754527826,0.13839132819945588,0.16334800454787918
-0.2511087656021118,0.569633960723877,7.9500041007995605,-0.5764430702930423,-0.48584701754527826,0.13839132819945588,0.16334800454787918
0.8520063757896423,-0.2777984142303467,6.416607856750488,-0.5764430702930423,-0.48584701754527826,0.13839132819945588,0.16334800454787918
-2.2801883220672607,-0.15040309727191925,4.732731342315674,-0.5764430702930423,-0.48584701754527826,0.13839132819945588,0.16334800454787918
0.37997424602508545,0.12091273069381714,3.062370777130127,-0.5764430702930423,-0.48584701754527826,0.13839132819945588,0.16334800454787918
-0.07996439188718796,-0.7007410526275635,1.4036569595336914,-0.5764430702930423,-0.48584701754527826,0.13839132819945588,0.16334800454787918
0.08967690169811249,-0.31405341625213623,-0.37400874495506287,-0.5764430702930423,-0.48584701754527826,0.13839132819945588,0.16334800454787918
0.12527377903461456,-1.3211700916290283,-2.111788749694824,-0.5764430702930423,-0.48584701754527826,0.13839132819945588,0.16334800454787918
-0.5494661331176758,-0.011530712246894836,-3.865231513977051,-0.5764430702930423,-0.48584701754527826,0.13839132819945588,0.16334800454787918
-0.598627507686615,0.5656527876853943,-5.686034679412842,-0.5764430702930423,-0.48584701754527826,0.13839132819945588,0.16334800454787918
0.05120452493429184,-0.9675264358520508,-7.565190315246582,-0.5764430702930423,-0.48584701754527826,0.13839132819945588,0.16334800454787918
0.5292386412620544,-1.3582619428634644,-9.48570442199707,-0.5764430702930423,-0.48584701754527826,0.13839132819945588,0.16334800454787918
0.18550457060337067,-0.1794101595878601,-11.515575408935547,-0.5764430702930423,-0.48584701754527826,0.13839132819945588,0.16334800454787918
-0.7149446606636047,-0.6459206938743591,-13.61988639831543,-0.5764430702930423,-0.48584701754527826,0.13839132819945588,0.16334800454787918
-1.2418631315231323,0.27090218663215637,-15.78808307647705,-0.5764430702930423,-0.48584701754527826,0.13839132819945588,0.16334800454787918
-0.15166941285133362,-0.12747715413570404,-18.114803314208984,-0.5764430702930423,-0.48584701754527826,0.13839132819945588,0.16334800454787918
0.335976243019104,1.6185531616210938,-20.57716178894043,-0.5764430702930423,-0.48584701754527826,0.13839132819945588,0.16334800454787918
-0.2372531145811081,-0.7575108408927917,-22.989887237548828,-0.5764430702930423,-0.48584701754527826,0.13839132819945588,0.16334800454787918
0.21358774602413177,-1.8689743280410767,-25.519506454467773,-0.5764430702930423,-0.48584701754527826,0.13839132819945588,0.16334800454787918
0.4249427616596222,-0.7681822776794434,-28.146465301513672,-0.5764430702930423,-0.48584701754527826,0.13839132819945588,0.16334800454787918
-0.26423850655555725,0.38310706615448,-30.828575134277344,-0.5764430702930423,-0.48584701754527826,0.13839132819945588,0.16334800454787918
0.1393652707338333,0.33491456508636475,-33.41956329345703,-0.5764430702930423,-0.48584701754527826,0.13839132819945588,0.16334800454787918
0.1573503464460373,-0.31931212544441223,-36.13729476928711,-0.5764430702930423,-0.48584701754527826,0.13839132819945588,0.16334800454787918
0.12216228991746902,0.4191485345363617,-38.81759262084961,-0.5764430702930423,-0.48584701754527826,0.13839132819945588,0.16334800454787918
0.041325926780700684,0.48879724740982056,-41.357948303222656,-0.5764430702930423,-0.48584701754527826,0.13839132819945588,0.16334800454787918
-0.955072283744812,-0.5046706795692444,-43.893638610839844,-0.5764430702930423,-0.48584701754527826,0.13839132819945588,0.16334800454787918
1.0023201704025269,1.299709439277649,-46.05906677246094,-0.5764430702930423,-0.48584701754527826,0.13839132819945588,0.16334800454787918
0.9508392214775085,2.0147876739501953,-47.98332214355469,-0.5764430702930423,-0.48584701754527826,0.13839132819945588,0.16334800454787918
1.6434208154678345,-1.2179559469223022,-49.39533615112305,-0.5764430702930423,-0.48584701754527826,0.13839132819945588,0.16334800454787918
1.5405521392822266,0.7704669237136841,-50.33915710449219,-0.5764430702930423,-0.48584701754527826,0.13839132819945588,0.16334800454787918
1.0968763828277588,1.2292723655700684,-50.858821868896484,-0.5764430702930423,-0.48584701754527826,0.13839132819945588,0.16334800454787918
0.7290347814559937,0.41078755259513855,-50.97040939331055,-0.5764430702930423,-0.48584701754527826,0.13839132819945588,0.16334800454787918
0.12112267315387726,-0.6811810731887817,-50.820491790771484,-0.5764430702930423,-0.48584701754527826,0.13839132819945588,0.16334800454787918
0.010317270644009113,-0.3168695569038391,-50.82429122924805,-0.5764430702930423,-0.48584701754527826,0.13839132819945588,0.16334800454787918
0.7038590908050537,-0.790366530418396,-50.87525177001953,-0.5764430702930423,-0.48584701754527826,0.13839132819945588,0.16334800454787918
-0.08601631969213486,-0.5305868983268738,-50.82658767700195,-0.5764430702930423,-0.48584701754527826,0.13839132819945588,0.16334800454787918
0.1525430679321289,0.13732507824897766,-50.836971282958984,-0.5764430702930423,-0.48584701754527826,0.13839132819945588,0.16334800454787918
-0.42400142550468445,0.001691057113930583,-50.8669548034668,-0.5764430702930423,-0.48584701754527826,0.13839132819945588,0.16334800454787918
-0.24083079397678375,0.0211472250521183,-50.84369659423828,-0.5764430702930423,-0.48584701754527826,0.13839132819945588,0.16334800454787918
0.06536130607128143,-0.07921502739191055,-50.846290588378906,-0.5764430702930423,-0.48584701754527826,0.13839132819945588,0.16334800454787918
0.0224289633333683,-0.46479079127311707,-50.84737777709961,-0.5764430702930423,-0.48584701754527826,0.13839132819945588,0.16334800454787918
0.15591512620449066,-0.3202533721923828,-50.83760452270508,-0.5764430702930423,-0.48584701754527826,0.13839132819945588,0.16334800454787918
-0.008986401371657848,-0.16927865147590637,-50.84244155883789,-0.5764430702930423,-0.48584701754527826,0.13839132819945588,0.16334800454787918
-0.19189810752868652,-0.06544589251279831,-50.845035552978516,-0.5764430702930423,-0.48584701754527826,0.13839132819945588,0.16334800454787918
-0.0677342563867569,-0.08291678875684738,-50.84046173095703,-0.5764430702930423,-0.48584701754527826,0.13839132819945588,0.16334800454787918
-0.009560924023389816,-0.2310067117214203,-50.84332275390625,-0.5764430702930423,-0.48584701754527826,0.13839132819945588,0.16334800454787918
0.04765073582530022,-0.31317219138145447,-50.84129333496094,-0.5764430702930423,-0.48584701754527826,0.13839132819945588,0.16334800454787918
-0.00325414608232677,-0.19953598082065582,-50.83942413330078,-0.5764430702930423,-0.48584701754527826,0.13839132819945588,0.16334800454787918
-0.09619497507810593,-0.12686824798583984,-50.84015655517578,-0.5764430702930423,-0.48584701754527826,0.13839132819945588,0.16334800454787918
-0.0849931612610817,-0.11696464568376541,-50.83800506591797,-0.5764430702930423,-0.48584701754527826,0.13839132819945588,0.16334800454787918
0.00471663661301136,-0.18741324543952942,-50.838191986083984,-0.5764430702930423,-0.48584701754527826,0.13839132819945588,0.16334800454787918
0.021710362285375595,-0.253123939037323,-50.83820343017578,-0.5764430702930423,-0.48584701754527826,0.13839132819945588,0.16334800454787918
-0.004692710470408201,-0.2075061798095703,-50.838409423828125,-0.5764430702930423,-0.48584701754527826,0.13839132819945588,0.16334800454787918
-0.05515105277299881,-0.1494104266166687,-50.838314056396484,-0.5764430702930423,-0.48584701754527826,0.13839132819945588,0.16334800454787918
-0.05665649101138115,-0.16502811014652252,-50.83834457397461,-0.5764430702930423,-0.48584701754527826,0.13839132819945588,0.16334800454787918
-0.019684094935655594,-0.18159794807434082,-50.83793258666992,-0.5764430702930423,-0.48584701754527826,0.13839132819945588,0.16334800454787918
-0.015322131104767323,-0.22621414065361023,-50.83964157104492,-0.5764430702930423,-0.48584701754527826,0.13839132819945588,0.16334800454787918
-0.032630614936351776,-0.20522557199001312,-50.83879089355469,-0.5764430702930423,-0.48584701754527826,0.13839132819945588,0.16334800454787918
-0.047347016632556915,-0.16808468103408813,-50.83916473388672,-0.5764430702930423,-0.48584701754527826,0.13839132819945588,0.16334800454787918
-0.04985591024160385,-0.16940949857234955,-50.837181091308594,-0.5764430702930423,-0.48584701754527826,0.13839132819945588,0.16334800454787918
-0.017996812239289284,-0.1955108940601349,-50.83702850341797,-0.5764430702930423,-0.48584701754527826,0.13839132819945588,0.16334800454787918
-0.008476239629089832,-0.20151199400424957,-50.83689498901367,-0.5764430702930423,-0.48584701754527826,0.13839132819945588,0.16334800454787918
-0.035592176020145416,-0.17991326749324799,-50.83692169189453,-0.5764430702930423,-0.48584701754527826,0.13839132819945588,0.16334800454787918
-0.040848005563020706,-0.1661529690027237,-50.83685302734375,-0.5764430702930423,-0.48584701754527826,0.13839132819945588,0.16334800454787918
-0.03754159435629845,-0.18555593490600586,-50.837284088134766,-0.5764430702930423,-0.48584701754527826,0.13839132819945588,0.16334800454787918
-0.017822420224547386,-0.18596038222312927,-50.83719253540039,-0.5764430702930423,-0.48584701754527826,0.13839132819945588,0.16334800454787918
-0.026754427701234818,-0.18912768363952637,-50.83740234375,-0.5764430702930423,-0.48584701754527826,0.13839132819945588,0.16334800454787918
-0.038573358207941055,-0.18058617413043976,-50.83698654174805,-0.5764430702930423,-0.48584701754527826,0.13839132819945588,0.16334800454787918
-0.0442778654396534,-0.17356549203395844,-50.8383674621582,-0.5764430702930423,-0.48584701754527826,0.13839132819945588,0.16334800454787918
-0.041436757892370224,-0.18361707031726837,-50.83845138549805,-0.5764430702930423,-0.48584701754527826,0.13839132819945588,0.16334800454787918
-0.037463460117578506,-0.1954595446586609,-50.83781814575195,-0.5764430702930423,-0.48584701754527826,0.13839132819945588,0.16334800454787918
-0.037632785737514496,-0.1730065494775772,-50.83773422241211,-0.5764430702930423,-0.48584701754527826,0.13839132819945588,0.16334800454787918
-0.03149860352277756,-0.20050407946109772,-50.837554931640625,-0.5764430702930423,-0.48584701754527826,0.13839132819945588,0.16334800454787918
-0.03594670444726944,-0.17555512487888336,-50.83650207519531,-0.5764430702930423,-0.48584701754527826,0.13839132819945588,0.16334800454787918
-0.04467543959617615,-0.1943790763616562,-50.836490631103516,-0.5764430702930423,-0.48584701754527826,0.13839132819945588,0.16334800454787918
-0.02986278012394905,-0.17008239030838013,-50.83601760864258,-0.5764430702930423,-0.48584701754527826,0.13839132819945588,0.16334800454787918
-0.035801831632852554,-0.1780587136745453,-50.83519744873047,-0.5764430702930423,-0.48584701754527826,0.13839132819945588,0.16334800454787918
-0.036244433373212814,-0.18765012919902802,-50.834716796875,-0.5764430702930423,-0.48584701754527826,0.13839132819945588,0.16334800454787918
-0.02441566437482834,-0.18375378847122192,-50.83528137207031,-0.5764430702930423,-0.48584701754527826,0.13839132819945588,0.16334800454787918
-0.03229973465204239,-0.17996002733707428,-50.835018157958984,-0.5764430702930423,-0.48584701754527826,0.13839132819945588,0.16334800454787918
-0.03398795798420906,-0.17595507204532623,-50.83476638793945,-0.5764430702930423,-0.48584701754527826,0.13839132819945588,0.16334800454787918
-0.035991519689559937,-0.15908408164978027,-50.833683013916016,-0.5764430702930423,-0.48584701754527826,0.13839132819945588,0.16334800454787918
-0.049303244799375534,-0.19880206882953644,-50.83232116699219,-0.5764430702930423,-0.48584701754527826,0.13839132819945588,0.16334800454787918
-0.026889314875006676,-0.17571015655994415,-50.831546783447266,-0.5764430702930423,-0.48584701754527826,0.13839132819945588,0.16334800454787918
-0.037312112748622894,-0.19304533302783966,-50.8316764831543,-0.5764430702930423,-0.48584701754527826,0.13839132819945588,0.16334800454787918
-0.03818955272436142,-0.17920637130737305,-50.83311080932617,-0.5764430702930423,-0.48584701754527826,0.13839132819945588,0.16334800454787918
-0.04319043084979057,-0.16856062412261963,-50.832862854003906,-0.5764430702930423,-0.48584701754527826,0.13839132819945588,0.16334800454787918
-0.0441744364798069,-0.18065406382083893,-50.83210372924805,-0.5764430702930423,-0.48584701754527826,0.13839132819945588,0.16334800454787918
-0.02578889951109886,-0.19318030774593353,-50.8317756652832,-0.5764430702930423,-0.48584701754527826,0.13839132819945588,0.16334800454787918
-0.024038175120949745,-0.18709540367126465,-50.83202362060547,-0.5764430702930423,-0.48584701754527826,0.13839132819945588,0.16334800454787918
-0.03723316267132759,-0.18396012485027313,-50.83257293701172,-0.5764430702930423,-0.48584701754527826,0.13839132819945588,0.16334800454787918
-0.041184842586517334,-0.1696828007698059,-50.83256530761719,-0.5764430702930423,-0.48584701754527826,0.13839132819945588,0.16334800454787918
-0.028721146285533905,-0.18462234735488892,-50.83213806152344,-0.5764430702930423,-0.48584701754527826,0.13839132819945588,0.16334800454787918
-0.041458796709775925,-0.17087897658348083,-50.83279037475586,-0.5764430702930423,-0.48584701754527826,0.13839132819945588,0.16334800454787918
-0.02702859416604042,-0.15695077180862427,-50.831748962402344,-0.5764430702930423,-0.48584701754527826,0.13839132819945588,0.16334800454787918
-0.04011194780468941,-0.16876262426376343,-50.83198928833008,-0.5764430702930423,-0.48584701754527826,0.13839132819945588,0.16334800454787918
-0.02897047810256481,-0.17277437448501587,-50.83259201049805,-0.5764430702930423,-0.48584701754527826,0.13839132819945588,0.16334800454787918
-0.03180741146206856,-0.1733371466398239,-50.831932067871094,-0.5764430702930423,-0.48584701754527826,0.13839132819945588,0.16334800454787918
-0.028298337012529373,-0.17162758111953735,-50.83133316040039,-0.5764430702930423,-0.48584701754527826,0.13839132819945588,0.16334800454787918
-0.037594277411699295,-0.1635582596063614,-50.83196258544922,-0.5764430702930423,-0.48584701754527826,0.13839132819945588,0.16334800454787918
-0.03030494414269924,-0.16335530579090118,-50.83412170410156,-0.5764430702930423,-0.48584701754527826,0.13839132819945588,0.16334800454787918
-0.03426017612218857,-0.17697899043560028,-50.833534240722656,-0.5764430702930423,-0.48584701754527826,0.13839132819945588,0.16334800454787918
-0.037333495914936066,-0.16224293410778046,-50.8332405090332,-0.5764430702930423,-0.48584701754527826,0.13839132819945588,0.16334800454787918
-0.04912492632865906,-0.1755562126636505,-50.83349609375,-0.5764430702930423,-0.48584701754527826,0.13839132819945588,0.16334800454787918
-0.03954269737005234,-0.1665990948677063,-50.8331184387207,-0.5764430702930423,-0.48584701754527826,0.13839132819945588,0.16334800454787918
-0.030645037069916725,-0.17610135674476624,-50.8336067199707,-0.5764430702930423,-0.48584701754527826,0.13839132819945588,0.16334800454787918
-0.043544914573431015,-0.18003004789352417,-50.83313751220703,-0.5764430702930423,-0.48584701754527826,0.13839132819945588,0.16334800454787918
-0.03880542144179344,-0.16311658918857574,-50.832725524902344,-0.5764430702930423,-0.48584701754527826,0.13839132819945588,0.16334800454787918
-0.053467534482479095,-0.15891936421394348,-50.83213424682617,-0.5764430702930423,-0.48584701754527826,0.13839132819945588,0.16334800454787918
-0.0478755421936512,-0.1757623255252838,-50.83292770385742,-0.5764430702930423,-0.48584701754527826,0.13839132819945588,0.16334800454787918
-0.03651139885187149,-0.16730433702468872,-50.83332061767578,-0.5764430702930423,-0.48584701754527826,0.13839132819945588,0.16334800454787918
-0.0318848080933094,-0.1739303022623062,-50.83304977416992,-0.5764430702930423,-0.48584701754527826,0.13839132819945588,0.16334800454787918
-0.036903057247400284,-0.15758420526981354,-50.833194732666016,-0.5764430702930423,-0.48584701754527826,0.13839132819945588,0.16334800454787918
-0.033866241574287415,-0.1636977642774582,-50.83403015136719,-0.5764430702930423,-0.48584701754527826,0.13839132819945588,0.16334800454787918
-0.030568767338991165,-0.16623415052890778,-50.83315658569336,-0.5764430702930423,-0.48584701754527826,0.13839132819945588,0.16334800454787918
-0.04343414306640625,-0.16636934876441956,-50.83393478393555,-0.5764430702930423,-0.48584701754527826,0.13839132819945588,0.16334800454787918
-0.05146897956728935,-0.17230798304080963,-50.83463668823242,-0.5764430702930423,-0.48584701754527826,0.13839132819945588,0.16334800454787918
-0.022876616567373276,-0.16402319073677063,-50.835453033447266,-0.5764430702930423,-0.48584701754527826,0.13839132819945588,0.16334800454787918
-0.036152537912130356,-0.18377768993377686,-50.8353385925293,-0.5764430702930423,-0.48584701754527826,0.13839132819945588,0.16334800454787918
-0.04446908459067345,-0.16791340708732605,-50.83501052856445,-0.5764430702930423,-0.48584701754527826,0.13839132819945588,0.16334800454787918
-0.034585610032081604,-0.17354519665241241,-50.83562088012695,-0.5764430702930423,-0.48584701754527826,0.13839132819945588,0.16334800454787918
-0.052209239453077316,-0.16074027121067047,-50.836936950683594,-0.5764430702930423,-0.48584701754527826,0.13839132819945588,0.16334800454787918
-0.03294321522116661,-0.17177775502204895,-50.83556365966797,-0.5764430702930423,-0.48584701754527826,0.13839132819945588,0.16334800454787918
-0.056166041642427444,-0.17183667421340942,-50.83587646484375,-0.5764430702930423,-0.48584701754527826,0.13839132819945588,0.16334800454787918
-0.0367271825671196,-0.1721544861793518,-50.83510971069336,-0.5764430702930423,-0.48584701754527826,0.13839132819945588,0.16334800454787918
-0.03116689808666706,-0.17195792496204376,-50.83552551269531,-0.5764430702930423,-0.48584701754527826,0.13839132819945588,0.16334800454787918
-0.04833224043250084,-0.17049428820610046,-50.835594177246094,-0.5764430702930423,-0.48584701754527826,0.13839132819945588,0.16334800454787918
-0.027437875047326088,-0.1568388044834137,-50.835105895996094,-0.5764430702930423,-0.48584701754527826,0.13839132819945588,0.16334800454787918
-0.02931876666843891,-0.15766997635364532,-50.8349494934082,-0.5764430702930423,-0.48584701754527826,0.13839132819945588,0.16334800454787918
-0.02845875546336174,-0.16008251905441284,-50.83524703979492,-0.5764430702930423,-0.48584701754527826,0.13839132819945588,0.16334800454787918
-0.0399787500500679,-0.16371726989746094,-50.835548400878906,-0.5764430702930423,-0.48584701754527826,0.13839132819945588,0.16334800454787918
-0.04417191073298454,-0.1623879075050354,-50.835487365722656,-0.5764430702930423,-0.48584701754527826,0.13839132819945588,0.16334800454787918
-0.034043412655591965,-0.17579849064350128,-50.83336639404297,-0.5764430702930423,-0.48584701754527826,0.13839132819945588,0.16334800454787918
-0.042055193334817886,-0.15746544301509857,-50.83258819580078,-0.5764430702930423,-0.48584701754527826,0.13839132819945588,0.16334800454787918
-0.03623303398489952,-0.1868932992219925,-50.831844329833984,-0.5764430702930423,-0.48584701754527826,0.13839132819945588,0.16334800454787918
-0.04540381580591202,-0.1625339537858963,-50.83074188232422,-0.5764430702930423,-0.48584701754527826,0.13839132819945588,0.16334800454787918
-0.046041909605264664,-0.16208422183990479,-50.83034896850586,-0.5764430702930423,-0.48584701754527826,0.13839132819945588,0.16334800454787918
-0.05259120836853981,-0.16033074259757996,-50.82977294921875,-0.5764430702930423,-0.48584701754527826,0.13839132819945588,0.16334800454787918
-0.031306952238082886,-0.15221276879310608,-50.8289909362793,-0.5764430702930423,-0.48584701754527826,0.13839132819945588,0.16334800454787918
-0.03888329863548279,-0.1555241495370865,-50.82896423339844,-0.5764430702930423,-0.48584701754527826,0.13839132819945588,0.16334800454787918
-0.029898643493652344,-0.16868235170841217,-50.827735900878906,-0.5764430702930423,-0.48584701754527826,0.13839132819945588,0.16334800454787918
-0.0442759245634079,-0.15706895291805267,-50.827415466308594,-0.5764430702930423,-0.48584701754527826,0.13839132819945588,0.16334800454787918
0,-0.16987921297550201,-50.82726287841797,-0.5741396228733683,-0.48314725553655624,0.13802236216142746,0.16062343649876623
0.06676160544157028,-0.23820306360721588,-50.830020904541016,-0.5718346139480777,-0.48049853730856174,0.13857870887344054,0.1572227508605769
0.2098812609910965,-0.6207691431045532,-50.845035552978516,-0.5695057574900181,-0.47793780897524046,0.14088406609371276,0.15006464913797884
1.0650759935379028,-1.3467230796813965,-50.921043395996094,-0.5670691510235584,-0.4755733628939676,0.15150870988145443,0.1336688806147626
1.8756862878799438,-1.8187450170516968,-50.83713150024414,-0.5643397862559912,-0.47356537239043917,0.17601506222660315,0.10728997980865349
0,-1.1796337366104126,-50.628482818603516,-0.561275945893334,-0.47198542680707706,0.19164578129226936,0.08230349019480257
0.8592937588691711,-0.8040130734443665,-50.643802642822266,-0.5580221763607636,-0.47075145522119527,0.19880656261617913,0.06577310011101274
0.9461830854415894,-1.6666224002838135,-50.893165588378906,-0.5545833533140835,-0.46982680879390953,0.21385220298543547,0.04518447116327791
0.5238603949546814,-2.005160331726074,-51.06188201904297,-0.5509170635781876,-0.4693287191864667,0.22610256532207107,0.014586281729862177
0.7852055430412292,0,-51.22486877441406,-0.5470577801326811,-0.46922486173622774,0.23701144813870365,-0.0021233877011884415
1.1683075428009033,-0.3352530300617218,-51.31007385253906,-0.5429719286994081,-0.4692835329916685,0.25329072385405477,-0.0049171629517027905
0.6231936812400818,-0.9173715710639954,-51.26984405517578,-0.5386260068279488,-0.4694524735270528,0.268219900721063,-0.0153557012944171
1.2647908926010132,-1.5509324073791504,-51.19734573364258,-0.5340245651094143,-0.4698798118804628,0.2839531055030721,-0.03592490111477665
0.4022628962993622,-1.8536736965179443,-51.136199951171875,-0.5291762457268006,-0.47071499121181304,0.29784522041057526,-0.06429661864725245
-0.48189371824264526,-0.37551674246788025,-51.17078399658203,-0.5242176886381481,-0.4719414064141968,0.29718163022771454,-0.08287320563880099
0.776438295841217,-0.7811657786369324,-51.11212158203125,-0.5192442069831308,-0.4734029516832535,0.2996361683743693,-0.09251222664800776
1.4026246070861816,-0.5445098280906677,-50.92083740234375,-0.5140989470308547,-0.47503688293340973,0.3177950258987643,-0.10355952337073776
0,-0.9725929498672485,-50.85622024536133,-0.508704958779272,-0.4768682293491691,0.32948356429114917,-0.11620204652038707
0.8017985224723816,-0.7731403708457947,-50.778419494628906,-0.5031578855881367,-0.478926161605114,0.3361652186450857,-0.13074982419299577
0.6550167798995972,-0.3689657151699066,-50.604122161865234,-0.49745396421472055,-0.4811846382643039,0.3483053461648522,-0.1402673749097933
0.6185494661331177,-0.7603569030761719,-50.44767761230469,-0.49156043301155405,-0.48360085302795647,0.35891839821512483,-0.1496783967285106
0.2895517349243164,-0.9594481587409973,-50.35521697998047,-0.4855153971245619,-0.4862149238805023,0.3664859082239368,-0.164010105576987
0.4392315149307251,-1.5475175380706787,-50.23898696899414,-0.4793566887062563,-0.4891225204801751,0.3725591019727288,-0.18490148638375098
0.5067332983016968,-0.28267842531204224,-50.050174713134766,-0.47308167833912523,-0.49233130886180587,0.380442142082999,-0.2001531194119403
0.6901012063026428,0.4292396605014801,-49.948341369628906,-0.47308167833912523,-0.49233130886180587,0.380442142082999,-0.2001531194119403
-0.055440161377191544,-0.5738203525543213,-49.92921447753906,-0.46669690228739985,-0.49567723451117524,0.3857309841240444,-0.20135795851238064
-0.23552560806274414,-1.694822072982788,-49.91023254394531,-0.4602882585082102,-0.4991907450992661,0.3833062693787116,-0.22026331205852323
0.7495929598808289,0.653794527053833,-49.963462829589844,-0.45386412156357764,-0.5029340938798199,0.38759016397719565,-0.2289385416079312
-1.4413663148880005,-0.6374347805976868,-49.894832611083984,-0.447452325313611,-0.5067486001464482,0.38182538601880256,-0.22880221038746332
-0.3642194867134094,0.9279037117958069,-49.899600982666016,-0.4412139567828533,-0.5105417988660171,0.36677883767212416,-0.22638163596081232
0.5272582173347473,-1.0736510753631592,-49.930809020996094,-0.43508965402091365,-0.5143249474767229,0.3681374937606353,-0.2275961973238736
1.3185926675796509,-1.2099580764770508,-49.81767654418945,-0.4288258450356729,-0.5182768014009985,0.3835195844682553,-0.2466262735892087
0.7766146659851074,-0.1323297768831253,-49.66545486450195,-0.4222883514519266,-0.5224804537284131,0.40097964558129495,-0.25781200570054347
0.2305627316236496,-0.7752583026885986,-49.6484260559082,-0.4155354144840711,-0.5268403474400591,0.40937279056136794,-0.2653752396969745
0.45565328001976013,0.14012722671031952,-49.78814697265625,-0.40866488075168417,-0.5313073744263961,0.415091257325063,-0.2706679986634602
-0.11058066040277481,-1.2271530628204346,-49.944766998291016,-0.4017227297532375,-0.5358939956427392,0.4179668624885379,-0.2797265472977112
1.0830975770950317,0.43203139305114746,-50.057437896728516,-0.394689079481436,-0.5406113215469905,0.42607117012764006,-0.2863525612124552
-1.2091832160949707,-0.4816495180130005,-50.13994216918945,-0.38759664925979476,-0.5453873099369871,0.42502045646930725,-0.2867660455871373
-0.3905342221260071,-0.7983150482177734,-50.06266784667969,-0.38759664925979476,-0.5453873099369871,0.42502045646930725,-0.2867660455871373
0.7458232045173645,0.07406916469335556,-49.99174880981445,-0.3804883021393069,-0.5502170388831287,0.42798119798923523,-0.29280142794984076
-1.451703429222107,0.5060616135597229,-50.173545837402344,-0.3734043016328686,-0.5550567758226918,0.4220988627833624,-0.2879670047977318
0,0.8851425647735596,-50.329689025878906,-0.36647013332461964,-0.5597596145013808,0.4100013342065115,-0.27637363664495446
0.9041897654533386,1.091178059577942,-50.388465881347656,-0.3595739867985769,-0.5642285972909945,0.4175362489186227,-0.2599042981086919
-0.8873972296714783,-0.7935367226600647,-50.207149505615234,-0.3526138831682816,-0.5685396660555201,0.41767618671680484,-0.25742395363437626
-0.5845784544944763,-1.2617583274841309,-50.1456298828125,-0.34575483392329087,-0.5729727941056864,0.4054097226820886,-0.2745514123855779
0.21755848824977875,-1.2410902976989746,-50.14308547973633,-0.3390234927095786,-0.5777224599110837,0.40235122296338277,-0.29540848426210375
0.9537482261657715,1.1824201345443726,-50.10636901855469,-0.3322362982494656,-0.5826500089656712,0.412112112250179,-0.2958974022883921
0,-1.1776602268218994,-50.02958297729492,-0.32530153052959,-0.5875813017879971,0.4200600141348938,-0.29585773639070484
0,-0.5856503248214722,-49.88359832763672,-0.3183005302940084,-0.5926347161828174,0.4200600141348938,-0.31055199098773295
0.3020128011703491,0,-49.818885803222656,-0.31127855694723444,-0.5978512528607255,0.42257678747798005,-0.3154324103612452
0.13103768229484558,-0.30798768997192383,-49.790767669677734,-0.30420553753902746,-0.6031298477341054,0.42618554150685667,-0.31799897444434455
0.40487945079803467,0.0632050633430481,-49.83296203613281,-0.30420553753902746,-0.6031298477341054,0.42618554150685667,-0.31799897444434455
-0.18607404828071594,-0.29528722167015076,-49.92692565917969,-0.29708725036096056,-0.6084459474580616,0.4280089198611677,-0.31993299243040374
0.5832876563072205,-0.33429914712905884,-49.97688293457031,-0.28992618408493925,-0.6138218852741794,0.43131903326138854,-0.32517954550373046
-2.182011365890503,-0.9862161874771118,-50.10942459106445,-0.282848556010415,-0.6193332468197003,0.41799633568152783,-0.33618383995878187
0.08678353577852249,0.6278153657913208,-50.149723052978516,-0.2760274523483695,-0.6249611997649637,0.400536103763928,-0.3391705134728301
0,1.138676643371582,-50.11015319824219,-0.26934582398454165,-0.6304913685999857,0.4012592998954157,-0.3244497467298059
