faccX,faccY,yaw
-0.002340686973184347,-0.0063575743697583675,-116.54811096191406
-0.013965383172035217,0.00017695939459372312,-116.54920196533203
-0.002642034785822034,0.014293109066784382,-116.54953002929688
0.005172505509108305,-0.0046129790134727955,-116.54936218261719
-0.00426408601924777,0.005050931591540575,-116.5502700805664
-0.0075116767548024654,-0.0047865090891718864,-116.55072021484375
-0.0047957394272089005,0.0013606142019852996,-116.54930877685547
0.00016434489225503057,-0.0003937599831260741,-116.55044555664062
-0.009490528143942356,-0.00416821613907814,-116.5510482788086
0.0017851036973297596,-0.003433173056691885,-116.55144500732422
0.0052060531452298164,-0.004927343223243952,-116.551513671875
-0.02211926504969597,-0.007126354146748781,-116.55062103271484
-0.01557394303381443,-0.009350958280265331,-116.550048828125
0.0008299804176203907,0.0017873981269076467,-116.5505142211914
-0.009624045342206955,0.0022594784386456013,-116.55047607421875
-0.0035346688237041235,-0.0018348457524552941,-116.55103302001953
0.008547530509531498,-0.009715961292386055,-116.55029296875
-0.008761418052017689,-0.01783294603228569,-116.5502700805664
-0.007731159683316946,0.004263348877429962,-116.55062103271484
0.0018032606458291411,0.0054319025948643684,-116.5512924194336
-0.012159006670117378,-0.01147904247045517,-116.55268859863281
-0.005760435480624437,-0.013249331153929234,-116.55328369140625
-0.014726601541042328,-0.010803785175085068,-116.5539321899414
0.002606091322377324,0.00020956434309482574,-116.5549087524414
-0.015076965093612671,-0.007038873620331287,-116.55316162109375
-0.0059683965519070625,-0.007385768927633762,-116.55298614501953
-0.009785526432096958,-0.008143847808241844,-116.55587005615234
0.004852951504290104,0.001717194216325879,-116.55632019042969
-0.00312369829043746,0.008046822622418404,-116.5578384399414
-0.021530985832214355,-0.01945737935602665,-116.55877685546875
-0.006988108158111572,0.0010306251933798194,-116.55915832519531
0.0032697326969355345,-0.0037379467394202948,-116.5586929321289
4.11578148487024e-05,0.001143946312367916,-116.55867004394531
-0.005547535605728626,-0.00811236072331667,-116.55943298339844
-0.00990785751491785,-0.011163165792822838,-116.55875396728516
-0.007246286608278751,-0.0051400018855929375,-116.5578384399414
-0.002911357441917062,0.0018605008954182267,-116.55854797363281
-0.014987971633672714,-0.005803918931633234,-116.559814453125
-0.014619346708059311,-0.009199444204568863,-116.5608139038086
-0.01313965953886509,0.0006878331769257784,-116.56228637695312
-0.009846101514995098,-0.004974546376615763,-116.56253814697266
0.012425253167748451,-0.009799065999686718,-116.56243896484375
-0.0032817430328577757,0.049611397087574005,-116.56546783447266
2.75858998298645,0.5752254724502563,-117.4037094116211
-0.6052929162979126,-0.9493624567985535,-117.47085571289062
-1.660622477531433,0.23626725375652313,-116.64692687988281
-0.4617014527320862,-0.4654037356376648,-116.47857666015625
-0.048840977251529694,0.27177131175994873,-115.50628662109375
-0.0059784757904708385,0.29901182651519775,-115.45037841796875
-0.0075454553589224815,-0.011908850632607937,-115.45648193359375
0.00351194036193192,-0.0051625557243824005,-115.46004486083984
-0.006391132716089487,-0.013525002636015415,-115.46292877197266
0.0015215155435726047,-0.001816168543882668,-115.4666748046875
-0.010694500990211964,-0.009350098669528961,-115.47110748291016
-0.0002517593966331333,0.003043603850528598,-115.47645568847656
-0.004342769272625446,0.0036095594987273216,-115.47956848144531
-0.0068434360437095165,-0.017225850373506546,-115.48309326171875
0.005335002671927214,0.0014511019689962268,-115.48721313476562
0.007334650959819555,-0.0003749150491785258,-115.49071502685547
-0.011275631375610828,0.0007206476875580847,-115.49453735351562
0.006231802981346846,-0.012837438844144344,-115.4983901977539
-0.007437931373715401,-0.005834896583110094,-115.50139617919922
-0.012262685224413872,-0.003988106735050678,-115.50479888916016
0.011987967416644096,-0.00466266181319952,-115.509033203125
-0.004221014212816954,-0.007516594137996435,-115.51356506347656
0.01195930503308773,0.01572527550160885,-115.51848602294922
-0.005057825706899166,-0.006871926598250866,-115.52261352539062
0.008001044392585754,-0.0057924361899495125,-115.52600860595703
-0.016156647354364395,-0.0006875747349113226,-115.52953338623047
-0.017398813739418983,-0.004628764931112528,-115.53362274169922
-0.0015610458794981241,-0.00859005656093359,-115.53683471679688
0.002314983168616891,0.02983994409441948,-115.53922271728516
0.38396257162094116,0.08807261288166046,-115.77800750732422
-1.9399878978729248,0.5694218277931213,-116.18905639648438
2.077003002166748,-0.9018194675445557,-117.02400970458984
-1.0807706117630005,-0.3009527027606964,-117.20181274414062
0.09034610539674759,-0.03722947835922241,-117.34916687011719
-0.05860872194170952,-0.21861256659030914,-117.26312255859375
0.16150979697704315,-0.21058784425258636,-116.9443588256836
0.12810742855072021,-1.0792145729064941,-116.21493530273438
-0.5660874843597412,0.5071642994880676,-115.47779083251953
-0.2826569080352783,-0.4195667803287506,-114.79303741455078
-0.523440957069397,-0.33067333698272705,-114.41764831542969
-0.21542590856552124,-0.7656804323196411,-114.30449676513672
-0.15983252227306366,-0.6852863430976868,-114.12699890136719
-0.21479305624961853,-0.8716185688972473,-113.97196960449219
-0.15636572241783142,-0.8571057915687561,-113.40110778808594
-0.40370938181877136,-0.4001721143722534,-112.61383819580078
-0.08185586333274841,-0.649355947971344,-111.96543884277344
0.3127569258213043,0.18858467042446136,-111.55281066894531
-0.10432710498571396,0.5365961194038391,-111.27909088134766
-0.14073976874351501,0.2554686963558197,-110.91505432128906
-0.6173441410064697,0.3201262354850769,-110.44877624511719
-0.5426667928695679,0.4923410415649414,-110.20980072021484
-0.32057154178619385,0.04491854086518288,-110.12945556640625
-0.08131972700357437,-0.2580014169216156,-110.10650634765625
-0.03424857556819916,0.21216969192028046,-110.3890151977539
-0.21052299439907074,0.19953207671642303,-110.86441040039062
0.05280725657939911,-0.1582166701555252,-111.16604614257812
0.12647467851638794,0.07367657124996185,-111.2760009765625
0.2440408319234848,-0.1852884441614151,-111.29912567138672
-0.027959486469626427,0.09373661130666733,-111.41006469726562
-0.25338295102119446,-0.0974559485912323,-111.48793029785156
-0.14982488751411438,-0.03400410711765289,-111.506103515625
0.09759493917226791,0.05972597375512123,-111.80789184570312
0.4031398594379425,-0.2276286631822586,-112.15392303466797
0.25453299283981323,-0.26306161284446716,-112.24681091308594
0.000828599208034575,-0.10624672472476959,-112.30665588378906
-0.04782942309975624,-0.05689338222146034,-112.21678924560547
-0.14309586584568024,0.1602516621351242,-112.20158386230469
-0.0208577960729599,0.14793771505355835,-112.11985778808594
-0.11140691488981247,0.275236040353775,-112.0604019165039
-0.11914905905723572,-0.0600069984793663,-112.17896270751953
0.12980662286281586,-0.6138283610343933,-112.21841430664062
-0.1821747124195099,0.09835544973611832,-112.24449157714844
0.13937436044216156,-0.1904544085264206,-112.19119262695312
0.23112940788269043,-0.03922140970826149,-112.2318115234375
0.11788392066955566,-0.05574923753738403,-112.37956237792969
0.03557683154940605,-0.03439686819911003,-112.58203887939453
-0.01462662871927023,-0.008979731239378452,-112.74364471435547
0.251796692609787,-0.1819043606519699,-112.7282485961914
0.019352639093995094,0.08477712422609329,-112.76189422607422
0.020400436595082283,-0.143325075507164,-112.85231018066406
0.08321674913167953,-0.11746607720851898,-112.77202606201172
0.14322994649410248,-0.16054272651672363,-112.65384674072266
0.029709063470363617,0.21156920492649078,-112.5545425415039
0.18950772285461426,-0.19832319021224976,-112.47904205322266
0.2316647469997406,-0.16284267604351044,-112.26227569580078
0.08051597326993942,-0.16246429085731506,-111.94731140136719
0.10564254224300385,-0.04033002257347107,-111.61177825927734
0.08225847035646439,0.3351532518863678,-111.38165283203125
-0.16480833292007446,0.511078953742981,-111.31085968017578
-0.18064256012439728,0.3252277672290802,-111.29437255859375
0.09923326969146729,-0.009327810257673264,-111.32843017578125
0.1554986983537674,-0.13782046735286713,-111.24069213867188
1.3381091775954701e-05,0.09009579569101334,-111.04106903076172
0.10547063499689102,0.4443870484828949,-110.67595672607422
0.15801633894443512,0.30242326855659485,-110.3212890625
-0.10362353175878525,0.16993290185928345,-110.27593231201172
0.014255998656153679,-0.5214112997055054,-110.34493255615234
-0.10298912972211838,-0.27876123785972595,-110.40770721435547
0.023617645725607872,-0.06499230116605759,-110.34671783447266
0.2693491578102112,0.15940308570861816,-110.16675567626953
-0.14131203293800354,0.37140509486198425,-110.1031494140625
-0.205704003572464,-0.22066448628902435,-110.23631286621094
-0.07485561817884445,-0.6130884885787964,-110.46205139160156
0.0741690844297409,-0.5027014017105103,-110.59034729003906
0.015067818574607372,-0.12650476396083832,-110.59185791015625
-0.023327089846134186,0.059505436569452286,-110.55593872070312
0.032153110951185226,-0.15307901799678802,-110.59445190429688
0.10638513416051865,-0.19427521526813507,-110.6798324584961
0.03819648176431656,-0.12584421038627625,-110.78002166748047
-0.03853536397218704,-0.1391337662935257,-111.03411865234375
-0.0518764965236187,-0.6703332662582397,-111.22217559814453
-0.141980841755867,-0.3081730604171753,-111.18474578857422
0.008380904793739319,0.19423089921474457,-111.2032470703125
0.19179774820804596,0.26218679547309875,-111.29312896728516
0.12034980952739716,0.32169049978256226,-111.43785095214844
-0.10789482295513153,0.4273744225502014,-111.65922546386719
0.0919659435749054,0.7030469179153442,-111.73339080810547
0.34537196159362793,0.9442551732063293,-111.64593505859375
0.15448127686977386,0.5412695407867432,-111.59986877441406
0.01167707797139883,-0.0013366913190111518,-111.59123229980469
-0.020749269053339958,-0.05995861440896988,-111.58641052246094
0.07405409216880798,-0.01012204959988594,-111.59627532958984
0.10909854620695114,0.18161101639270782,-111.54972076416016
0.18440444767475128,0.09895721822977066,-111.39661407470703
0.15179860591888428,0.20002298057079315,-111.22401428222656
0.08979011327028275,-0.08664310723543167,-111.03453063964844
0.022151241078972816,-0.2474084198474884,-110.91136932373047
-0.03226039186120033,-0.0941368117928505,-110.83997344970703
-0.20671337842941284,0.035939011722803116,-110.89835357666016
-0.038017772138118744,-0.26350387930870056,-110.95133209228516
-0.008231091313064098,-0.1282733529806137,-110.92059326171875
-0.10616163909435272,-0.05135732516646385,-110.91378021240234
-0.11450929194688797,-0.2768982946872711,-110.9675521850586
-0.09662054479122162,-0.44383060932159424,-111.1391830444336
-0.10421611368656158,-0.19961541891098022,-111.35206604003906
-0.006683861371129751,-0.028786079958081245,-111.4979019165039
0.012170294299721718,-0.07052979618310928,-111.53466796875
-0.07467836141586304,-0.25163283944129944,-111.5562515258789
-0.11937633901834488,-0.22714780271053314,-111.58805084228516
0.06211688369512558,0.07671444118022919,-111.69258880615234
0.10438846796751022,0.4106261134147644,-111.85674285888672
-0.11486473679542542,0.5308936238288879,-112.07049560546875
-0.019424960017204285,0.24019216001033783,-112.2454605102539
0.07657689601182938,0.01006575208157301,-112.35814666748047
0.07455176115036011,-0.07821918278932571,-112.40755462646484
-0.06687594950199127,-0.09342550486326218,-112.4049072265625
-0.1318839192390442,-0.030370060354471207,-112.4366226196289
-0.06359487771987915,0.13067986071109772,-112.56155395507812
0.13335421681404114,0.13084490597248077,-112.57984924316406
0.23013415932655334,0.12410932779312134,-112.46038055419922
0.08193836361169815,0.18160119652748108,-112.46222686767578
-0.20066724717617035,-0.012465052306652069,-112.5655517578125
-0.03761005401611328,-0.37646472454071045,-112.62255859375
0.21045835316181183,-0.16296757757663727,-112.57759857177734
0.07843995839357376,0.16029538214206696,-112.5671157836914
0.004634031094610691,0.07300245761871338,-112.5941162109375
0.013135514222085476,-0.4551207423210144,-112.57579803466797
0.01838105544447899,-0.3263445496559143,-112.66545867919922
0.01804598979651928,0.03832656145095825,-112.78138732910156
0.009732382372021675,0.12952382862567902,-112.85597229003906
-0.08300218731164932,-0.11740044504404068,-112.96768188476562
-0.11257480084896088,-0.22863785922527313,-113.12519073486328
-0.029682137072086334,-0.20954076945781708,-113.20954132080078
0.10563306510448456,0.019164349883794785,-113.16558837890625
-0.12229667603969574,-0.023097297176718712,-113.10404205322266
0.20532667636871338,0.5217106342315674,-112.88248443603516
0.3945670425891876,1.1024984121322632,-112.63610076904297
0.2988525331020355,0.7991073131561279,-112.44293212890625
0.019296446815133095,0.3890695571899414,-112.38434600830078
0.05078527331352234,-0.07403910905122757,-112.30477905273438
0.26123496890068054,0.22567306458950043,-112.1717300415039
-0.03832297399640083,0.5819456577301025,-112.0643310546875
-0.07398208975791931,0.4283805191516876,-111.90511322021484
-0.036394767463207245,0.2803586423397064,-111.82308197021484
-0.03070984221994877,0.41758736968040466,-111.85710144042969
-0.015897875651717186,0.3084027171134949,-112.0363540649414
-0.4004441499710083,0.4830644726753235,-112.34019470214844
0.06329861283302307,0.5992233157157898,-112.54510498046875
-0.03441043570637703,0.586876392364502,-112.63092803955078
-0.2166021317243576,0.0784776359796524,-112.7564697265625
-0.38354387879371643,-0.4861446022987366,-112.8760757446289
-0.35506778955459595,-0.2800406217575073,-112.93653106689453
-0.3628496527671814,-0.47118648886680603,-113.05354309082031
-0.23770767450332642,-0.7622709274291992,-113.11397552490234
-0.34110671281814575,-0.8504040837287903,-113.1211929321289
-0.24657605588436127,-1.486911416053772,-113.12138366699219
-0.14827845990657806,-1.6797990798950195,-112.90999603271484
-0.19545909762382507,-1.1319462060928345,-112.6495361328125
-0.19911375641822815,-0.5953008532524109,-112.53280639648438
-0.013195007108151913,-0.6986188888549805,-112.63965606689453
-0.15993115305900574,-0.7731096744537354,-112.66790008544922
-0.4119040369987488,-0.3235955536365509,-112.74915313720703
-0.13404794037342072,-0.06546568870544434,-112.95476531982422
0.22994276881217957,-0.0407290905714035,-113.20057678222656
0.21711263060569763,0.5048395395278931,-113.36200714111328
-0.12283798307180405,0.8967869281768799,-113.48490142822266
-0.12042387574911118,0.624118983745575,-113.66136169433594
-0.0018979463493451476,0.090225949883461,-113.76652526855469
0.11590462923049927,0.16986536979675293,-113.90591430664062
0.06391531974077225,-0.1396317481994629,-114.02998352050781
0.04344157129526138,0.0803695023059845,-114.02471160888672
0.08659110963344574,0.23977218568325043,-114.0639419555664
0.26126405596733093,0.25244268774986267,-114.07789611816406
0.1408521831035614,0.5950158834457397,-114.07378387451172
0.11063194274902344,0.46965837478637695,-114.12447357177734
0.21999572217464447,-0.04974301904439926,-114.19842529296875
0.28620192408561707,-0.4131661653518677,-114.16475677490234
0.08592617511749268,-0.2077176570892334,-114.18216705322266
-0.015732113271951675,-0.03868168219923973,-114.1878433227539
0.06479967385530472,0.10305730998516083,-114.23469543457031
0.0054755923338234425,-0.14927507936954498,-114.36215209960938
0.17361685633659363,-0.24725773930549622,-114.52567291259766
0.21887442469596863,-0.11935671418905258,-114.75968170166016
0.12310738861560822,0.05284290388226509,-114.96759033203125
-0.1260681301355362,0.13532096147537231,-115.00635528564453
-0.1102365106344223,0.15730956196784973,-114.98338317871094
0.03627578914165497,0.026699544861912727,-115.03750610351562
0.11285854876041412,-0.13723953068256378,-115.1143569946289
-0.09071140736341476,0.06020275503396988,-115.16957092285156
0.024496838450431824,0.30734238028526306,-115.26091766357422
0.1649799346923828,0.575599730014801,-115.39537811279297
0.22335857152938843,0.8015198707580566,-115.47836303710938
0.01954444870352745,0.46533262729644775,-115.45601654052734
-0.02406320907175541,-0.2707912027835846,-115.39965057373047
0.05182158946990967,-0.16187122464179993,-115.22521209716797
0.21495456993579865,0.5483701229095459,-114.96331024169922
0.037540677934885025,0.36402609944343567,-114.94170379638672
-0.12695494294166565,-0.06339020282030106,-115.01876068115234
-0.1678764671087265,-0.5677322149276733,-115.18219757080078
-0.018628519028425217,-0.21277622878551483,-115.2220687866211
-0.07772374898195267,0.33974695205688477,-115.18669128417969
-0.10163740068674088,0.18484652042388916,-115.19190979003906
-0.06008195877075195,-0.07888630032539368,-115.24311828613281
-0.09837746620178223,-0.12693928182125092,-115.35857391357422
-0.10187222063541412,-0.059963859617710114,-115.52249908447266
0.038881391286849976,-0.09252529591321945,-115.6020736694336
-0.008870265446603298,-0.003277880372479558,-115.64189147949219
-0.08020790666341782,0.23218350112438202,-115.61833953857422
-0.04447762668132782,0.11352379620075226,-115.60917663574219
-0.11173494905233383,-0.06479767709970474,-115.6360092163086
-0.1114559918642044,-0.47192853689193726,-115.66402435302734
-0.04206368699669838,-0.43170052766799927,-115.61275482177734
0.128395676612854,-0.2665551006793976,-115.47338104248047
0.03407580778002739,0.0872611254453659,-115.31258392333984
-0.04021790251135826,0.4825912415981293,-115.22314453125
0.014530857093632221,0.31141844391822815,-115.19459533691406
0.08449231088161469,-0.09138182550668716,-115.10498809814453
0.00670516537502408,-0.3478170335292816,-114.95996856689453
-0.12613923847675323,-0.24546897411346436,-114.8378677368164
-0.13802698254585266,0.19466723501682281,-114.82478332519531
-0.04532434791326523,0.4112665355205536,-114.77191925048828
0.027459852397441864,0.4076286554336548,-114.73066711425781
-0.031368646770715714,0.22916987538337708,-114.71432495117188
-0.11591946333646774,-0.19665874540805817,-114.6933822631836
-0.1265629380941391,-0.4447805881500244,-114.59681701660156
-0.015963155776262283,-0.02042655274271965,-114.5689697265625
0.132864311337471,0.49661606550216675,-114.65885162353516
0.17733047902584076,0.6776728630065918,-114.72968292236328
0.1091994047164917,0.407865434885025,-114.69171905517578
-0.11317257583141327,-0.12883250415325165,-114.66612243652344
-0.031045306473970413,-0.31435999274253845,-114.68327331542969
0.12782515585422516,0.08812685310840607,-114.78726959228516
0.19675323367118835,0.34483811259269714,-114.98661804199219
0.04636220261454582,0.3688822388648987,-115.14256286621094
-0.14686988294124603,-0.22551032900810242,-115.18484497070312
-0.063201405107975,-0.41375958919525146,-115.16043090820312
0.12272590398788452,0.027779003605246544,-115.05844116210938
0.18027928471565247,0.20398414134979248,-114.9856185913086
-0.012076684273779392,0.12854161858558655,-114.94477844238281
-0.028085170313715935,0.08436401188373566,-114.96100616455078
-0.041507307440042496,0.12973302602767944,-115.13512420654297
0.0805821493268013,-0.009383531287312508,-115.35010528564453
0.019972670823335648,-0.034719616174697876,-115.51642608642578
-0.09447001665830612,-0.13980017602443695,-115.56453704833984
-0.07256332784891129,-0.03344569355249405,-115.52433013916016
0.032709334045648575,0.15181103348731995,-115.52098846435547
0.04931282624602318,0.31410926580429077,-115.63312530517578
0.02269246056675911,0.22463777661323547,-115.87429809570312
0.06724585592746735,-0.13012634217739105,-116.07059478759766
-0.01111678034067154,-0.11866708099842072,-116.1113052368164
-0.037934619933366776,0.07003770023584366,-116.06986236572266
0.010070264339447021,0.16068889200687408,-115.96194458007812
0.038150981068611145,0.1508745700120926,-116.00119018554688
0.08355492353439331,0.10007023811340332,-116.13658905029297
0.12711773812770844,-0.08471611887216568,-116.17180633544922
0.03667411580681801,-0.05316327512264252,-116.16378784179688
-0.04481487721204758,-0.17172174155712128,-116.11126708984375
0.008120337501168251,0.11110690981149673,-116.11168670654297
0.11308914422988892,0.2851291596889496,-116.2339859008789
0.01795773021876812,0.11986728757619858,-116.41143798828125
0.26888951659202576,0.06919631361961365,-116.37065887451172
-0.15647374093532562,-0.23074251413345337,-116.30602264404297
-0.0877077654004097,-0.21374541521072388,-116.2262191772461
0.08020404726266861,0.3283892273902893,-116.25850677490234
-0.06336275488138199,0.08450435847043991,-116.36054992675781
0.03941919282078743,0.4025627672672272,-116.54723358154297
0.09724906086921692,0.5341148376464844,-116.71326446533203
0.11100807040929794,0.29416096210479736,-116.82096099853516
0.027192754670977592,0.12159571051597595,-116.86592864990234
-0.028217924758791924,0.0672655999660492,-116.86865997314453
0.07307314872741699,0.19053500890731812,-116.87712097167969
0.035843122750520706,0.2929256856441498,-116.88581085205078
0.02488129399716854,0.03813735023140907,-116.85157775878906
-0.027465887367725372,-0.07311222702264786,-116.70756530761719
-0.05378786101937294,0.08672595769166946,-116.59605407714844
-0.013820448890328407,-0.1977243423461914,-116.60460662841797
0.04639994725584984,-0.30406445264816284,-116.59221649169922
0.016512997448444366,-0.049769360572099686,-116.65447998046875
0.1212979406118393,-0.03169513866305351,-116.76555633544922
0.0735267624258995,-0.2526674270629883,-116.76026916503906
-0.10423874855041504,0.04473157972097397,-116.70011138916016
-0.12081020325422287,0.00875482801347971,-116.7590103149414
0.02361540123820305,-0.14242644608020782,-116.79571533203125
-0.14162003993988037,-0.1682242751121521,-116.8603744506836
-0.2589568495750427,-0.24447067081928253,-116.95894622802734
-0.2648991346359253,-0.45754125714302063,-117.02045440673828
-0.39384183287620544,-0.5727847814559937,-117.0418930053711
-0.40155547857284546,-0.6797463297843933,-117.06591796875
-0.19060160219669342,-0.47879156470298767,-117.0741958618164
-0.11363500356674194,0.09642825275659561,-117.0396499633789
-0.26024070382118225,0.158539816737175,-117.02764129638672
-0.27685272693634033,-0.08558396250009537,-117.10504150390625
-0.29964420199394226,-0.3564978539943695,-117.17240142822266
-0.22394166886806488,0.08038300275802612,-117.15807342529297
-0.0041459836065769196,0.46949225664138794,-117.19853210449219
0.22256213426589966,0.5822060704231262,-117.31999206542969
0.16008324921131134,0.4719754457473755,-117.48139953613281
-0.06836945563554764,0.1655341237783432,-117.6019287109375
-0.061378251761198044,-0.07527061551809311,-117.59554290771484
0.0562283992767334,0.029941488057374954,-117.55919647216797
0.19909389317035675,0.30362755060195923,-117.54833221435547
0.26612749695777893,0.4215986728668213,-117.57540893554688
0.1023198738694191,0.39943423867225647,-117.72978973388672
-0.09125860780477524,0.029630931094288826,-117.90916442871094
-0.08155996352434158,0.015825649723410606,-118.00471496582031
0.022797763347625732,-0.07990159839391708,-118.10375213623047
0.0911678597331047,0.1431078314781189,-118.20613861083984
0.08024120330810547,0.020539935678243637,-118.27542114257812
0.12707644701004028,0.2074660062789917,-118.35816192626953
0.23558174073696136,0.47093549370765686,-118.54129791259766
0.2698233127593994,0.2783317565917969,-118.7055892944336
0.11703640967607498,0.007770485710352659,-118.79525756835938
0.05645272135734558,0.0627310499548912,-118.88485717773438
0.01006666012108326,0.11806628853082657,-118.95108032226562
0.10555893927812576,0.11083438247442245,-119.067626953125
0.14691898226737976,0.3070097267627716,-119.3263168334961
0.09533565491437912,0.6868391036987305,-119.89641571044922
0.15158601105213165,0.7430372834205627,-121.01052856445312
0.24184009432792664,0.0779981017112732,-122.4590072631836
0.36315616965293884,0.7049532532691956,-124.17369079589844
0.3940245807170868,1.3603880405426025,-126.74295806884766
0.5870963931083679,1.1257030963897705,-130.38214111328125
0.3119128942489624,0.16401439905166626,-134.54771423339844
-0.3331434428691864,-1.1269973516464233,-137.35768127441406
0.331276535987854,0.7040871977806091,-140.0117950439453
0.4656393527984619,0.29771551489830017,-143.27444458007812
0.3537929952144623,-0.8370540738105774,-146.0179901123047
0.019522463902831078,-0.10852093994617462,-148.3218231201172
-0.32319819927215576,0.05151405930519104,-150.75840759277344
-0.041033558547496796,0.7248769402503967,-153.30429077148438
-0.07380244880914688,0.15508490800857544,-155.8676300048828
-0.2038501799106598,-1.1127477884292603,-157.4038543701172
0.3870459794998169,-0.7791193723678589,-158.50485229492188
0.17711736261844635,-0.20550581812858582,-159.8225555419922
0.03407396748661995,0.4448221027851105,-161.36021423339844
-0.2726919651031494,0.30234232544898987,-163.11756896972656
-0.10327576845884323,-0.04138212278485298,-164.69595336914062
-0.16917221248149872,-0.368351012468338,-165.93899536132812
-0.08491618931293488,-0.5033848285675049,-166.41114807128906
0.45591306686401367,0.4273444414138794,-166.72280883789062
0.25261759757995605,0.7971403002738953,-167.4556427001953
-0.3451765477657318,0.23817409574985504,-168.7253875732422
0.23912636935710907,-0.07555487751960754,-170.10336303710938
-0.16929826140403748,-0.44158610701560974,-171.220458984375
-0.15241511166095734,-0.3886164724826813,-171.57264709472656
0.31531310081481934,0.27836766839027405,-171.91676330566406
0.6860113143920898,0.5422129034996033,-172.88534545898438
0.18748608231544495,0.2761608064174652,-174.20632934570312
-0.6308996677398682,0.09632092714309692,-175.79025268554688
0.010536659508943558,0.11435527354478836,-177.52914428710938
-0.022560732439160347,0.22085656225681305,-178.74728393554688
0.14163625240325928,0.2745542824268341,179.89698791503906
0.45464247465133667,0.04514624923467636,178.51702880859375
0.27712365984916687,-0.20304320752620697,176.96063232421875
-0.1347419172525406,-0.43836185336112976,175.41392517089844
-0.23388826847076416,-0.0792505145072937,174.32386779785156
-0.13229121267795563,0.47595536708831787,173.49588012695312
-0.0008178356220014393,0.3754954934120178,172.6589813232422
0.24969065189361572,0.15837398171424866,171.80247497558594
0.5162148475646973,-0.04975025728344917,170.8415985107422
0.35796016454696655,0.016294900327920914,169.69239807128906
-0.04121210798621178,-0.13553853332996368,168.6170654296875
-0.5147185921669006,0.26588091254234314,167.97158813476562
-0.3053482174873352,0.4513697326183319,167.44512939453125
-0.012958171777427197,0.3442803621292114,166.86170959472656
0.25635308027267456,0.32801589369773865,166.24954223632812
0.5070968866348267,0.353890061378479,165.5093994140625
0.31693118810653687,0.4896388351917267,164.41514587402344
-0.2921382188796997,-0.14942553639411926,163.17359924316406
-0.2839582860469818,-0.25688812136650085,162.43788146972656
0.20999838411808014,0.3095720410346985,161.95240783691406
0.5855773687362671,0.2982455790042877,161.4115753173828
0.5973559617996216,-0.01666710525751114,160.46133422851562
0.22197090089321136,-0.050260309129953384,159.32107543945312
-0.20753483474254608,-0.07799561321735382,158.28970336914062
-0.11743591725826263,-0.010149513371288776,157.49569702148438
-0.17756235599517822,-0.03148631751537323,156.84628295898438
-0.07795952260494232,0.36660969257354736,155.97918701171875
0.3056904971599579,0.658294141292572,155.0820770263672
0.6238541007041931,0.36403438448905945,153.85719299316406
0.9745792746543884,-0.20028415322303772,153.23733520507812
-0.455214262008667,0.11749271303415298,152.1034393310547
-0.28391233086586,-0.043382808566093445,151.15524291992188
-0.07350156456232071,-0.14923620223999023,150.3397674560547
-0.20200185477733612,0.31441786885261536,149.66111755371094
-0.34431490302085876,0.291083425283432,149.0548858642578
0.1455809772014618,-0.2377265989780426,148.4029541015625
0.04662642255425453,-0.27460891008377075,147.74923706054688
-0.06272429972887039,-0.4038407504558563,147.20375061035156
-0.2766432762145996,-0.4052693843841553,146.72389221191406
0.1894935965538025,0.18471206724643707,146.45306396484375
0.08725811541080475,0.8229703903198242,146.1927490234375
0.17341050505638123,0.5997189879417419,145.84400939941406
0.39134129881858826,0.008932394906878471,145.6018829345703
0.35812118649482727,0.35990750789642334,145.47344970703125
0.15470893681049347,0.10302920639514923,145.4701690673828
-0.11973518133163452,-0.2768092155456543,145.60240173339844
-0.1632346659898758,-0.008234739303588867,145.917724609375
0.22522571682929993,0.28338003158569336,146.4280242919922
0.18018579483032227,-0.09734145551919937,146.83706665039062
0.42413079738616943,-0.3143947124481201,147.02679443359375
0.2999548316001892,-0.04641532152891159,147.0706024169922
0.210521399974823,0.34358176589012146,146.92950439453125
-0.029818598181009293,0.4479336440563202,146.70452880859375
-0.18131354451179504,0.1798039674758911,146.58811950683594
0.2163628190755844,0.3237133026123047,146.64718627929688
0.13801229000091553,0.044526584446430206,146.87498474121094
-0.03495139256119728,-0.3831899166107178,147.12586975097656
-0.07351315766572952,-0.13962265849113464,147.2239990234375
0.05831992253661156,0.1114305928349495,147.22830200195312
0.3257458806037903,0.341199666261673,147.1221160888672
-0.026202578097581863,0.35234829783439636,147.04379272460938
0.0082743801176548,0.30740711092948914,147.0823974609375
0.12639471888542175,-0.01698445901274681,147.10740661621094
0.13810916244983673,-0.19176775217056274,147.04042053222656
0.18946146965026855,0.0507342703640461,146.7953643798828
0.14169299602508545,0.23545977473258972,146.6309051513672
0.0804121270775795,0.32454270124435425,146.5225830078125
0.014494339935481548,0.21508392691612244,146.4165802001953
-0.05177318677306175,-0.052169717848300934,146.35159301757812
0.1683574765920639,-0.10489892214536667,146.252197265625
0.2597588896751404,-0.049080900847911835,146.24757385253906
0.11323077231645584,0.1612519770860672,146.1971893310547
0.038729820400476456,0.2544499635696411,146.1739501953125
0.10829553008079529,0.18271057307720184,146.0975341796875
0.08722421526908875,0.05059201642870903,146.1781463623047
-0.009422503411769867,0.02014419622719288,146.22311401367188
0.06439739465713501,0.1344357579946518,146.15972900390625
0.24190829694271088,0.1526305377483368,146.1496124267578
0.1250561624765396,0.05566431209445,146.2650146484375
0.1267925649881363,0.11227069795131683,146.44183349609375
0.06019783020019531,0.12230762839317322,146.4913787841797
0.08193705976009369,0.018777474761009216,146.45179748535156
0.06727585196495056,0.12739378213882446,146.3838653564453
0.24670273065567017,0.1294461488723755,146.30874633789062
0.17103353142738342,0.11810380220413208,146.28147888183594
0.0034032571129500866,0.15296046435832977,146.25938415527344
-0.0804905816912651,0.08862335234880447,146.2346649169922
0.02994145266711712,-0.04168419539928436,146.2158966064453
0.14170151948928833,-0.16995564103126526,146.17430114746094
0.24054346978664398,-0.052924610674381256,146.2454833984375
0.10442660748958588,0.24084968864917755,146.20619201660156
0.051731813699007034,0.16498807072639465,146.1866455078125
0.15641185641288757,0.17315137386322021,146.2880401611328
0.14466635882854462,0.5756585001945496,146.30345153808594
0.17144392430782318,0.2998388707637787,146.25396728515625
0.11988452821969986,-0.0831274464726448,146.22207641601562
0.10359971970319748,0.02581406943500042,146.3188934326172
0.16868676245212555,0.25723615288734436,146.52655029296875
0.07990075647830963,0.3399110734462738,146.57203674316406
0.04649253934621811,0.04619785025715828,146.46278381347656
-0.054993268102407455,-0.21086955070495605,146.38644409179688
-0.06430850923061371,-0.2514308989048004,146.3939971923828
0.09722914546728134,-0.06727805733680725,146.47406005859375
0.22769732773303986,0.21314017474651337,146.52003479003906
0.21062101423740387,0.27236247062683105,146.51309204101562
0.07049058377742767,0.2550686001777649,146.44635009765625
0.026180434972047806,0.2636154294013977,146.35223388671875
0.16146911680698395,0.21584640443325043,146.2790069580078
0.15378183126449585,0.07937485724687576,146.2241973876953
-0.05527946352958679,-0.0028288436587899923,146.2679901123047
-0.12393634021282196,0.10217275470495224,146.37586975097656
0.13890764117240906,0.22722625732421875,146.47900390625
0.18092836439609528,0.15718598663806915,146.569091796875
0.10130242258310318,-0.05767739936709404,146.54745483398438
0.08674096316099167,-0.11127790063619614,146.39886474609375
0.2522566318511963,0.22397135198116302,146.36170959472656
0.16917352378368378,0.3243136703968048,146.30335998535156
0.08871559798717499,0.22634674608707428,146.2481689453125
0.14567942917346954,0.1852407604455948,146.24928283691406
0.16177073121070862,0.05312390625476837,146.26792907714844
0.13197095692157745,-0.062090251594781876,146.25047302246094
0.09616013616323471,0.05230748653411865,146.22682189941406
0.15338923037052155,0.12121913582086563,146.3765869140625
0.11108972132205963,0.1717887818813324,146.566162109375
-0.01925807259976864,0.07788505405187607,146.6923828125
0.08297497779130936,0.10739440470933914,146.73193359375
0.21787872910499573,0.0871715322136879,146.74130249023438
0.1812039613723755,0.14637434482574463,146.76626586914062
0.19934019446372986,0.07478198409080505,146.86199951171875
0.16022847592830658,0.2413448691368103,146.97561645507812
0.0351513996720314,0.3878471553325653,147.02186584472656
-0.046830371022224426,0.2731820046901703,147.08433532714844
0.026325056329369545,-0.15124377608299255,147.06019592285156
0.15290884673595428,-0.16209380328655243,146.98190307617188
0.18566830456256866,0.036049675196409225,146.85829162597656
0.1856902539730072,0.2802395522594452,146.83160400390625
0.08639636635780334,0.2604481875896454,146.857666015625
-0.03060620091855526,0.22841428220272064,146.85455322265625
0.15474115312099457,0.14527539908885956,146.7992706298828
0.2232484221458435,0.006008955650031567,146.67576599121094
0.14501693844795227,-0.05507500842213631,146.6181182861328
0.03344928100705147,-0.16838639974594116,146.67091369628906
0.008098038844764233,0.04450882226228714,146.78170776367188
0.1421208530664444,0.3201339542865753,146.84703063964844
0.21631640195846558,0.39634573459625244,146.8798828125
0.16150514781475067,0.39654386043548584,146.80813598632812
0.047117315232753754,0.29548195004463196,146.70433044433594
0.0954069197177887,0.03815096616744995,146.71397399902344
0.2617739737033844,-0.12217173725366592,146.8382568359375
0.26795703172683716,-0.09250637143850327,147.0415496826172
0.05499239265918732,0.09322691708803177,147.12710571289062
-0.03634563833475113,0.21292734146118164,147.1317901611328
0.020439481362700462,0.2392362803220749,147.1243133544922
0.16050319373607635,0.19071748852729797,147.1758575439453
0.14747211337089539,0.20269961655139923,147.23121643066406
0.039380814880132675,0.3268478810787201,147.28097534179688
0.09428133815526962,0.14768028259277344,147.3756561279297
0.09907805174589157,-0.004397217649966478,147.47006225585938
0.06723151355981827,0.023113710805773735,147.49649047851562
0.008513329550623894,0.1986052244901657,147.3971710205078
0.07657043635845184,0.16301807761192322,147.3592071533203
0.08743252605199814,0.1131514385342598,147.39735412597656
0.14597316086292267,0.1520203799009323,147.5027618408203
0.28596144914627075,-0.018419062718749046,147.56297302246094
-0.002339658560231328,-0.17133578658103943,147.51824951171875
-0.09873717278242111,-0.09090829640626907,147.4524688720703
0.10340209305286407,0.07962031662464142,147.4219970703125
0.26465094089508057,0.2074960470199585,147.42347717285156
0.2035331279039383,0.3846251368522644,147.40538024902344
0.13667204976081848,0.4411088824272156,147.39720153808594
0.12862788140773773,0.1666007786989212,147.44883728027344
0.08506499230861664,0.01776633970439434,147.48934936523438
0.10987785458564758,0.041796181350946426,147.47735595703125
0.15552189946174622,0.086729496717453,147.453857421875
0.12792111933231354,0.26732495427131653,147.4046630859375
0.2210462987422943,0.2155982106924057,147.4169158935547
0.14626304805278778,0.16258187592029572,147.4516143798828
0.037206608802080154,0.066543348133564,147.49923706054688
0.05632341280579567,0.046483114361763,147.47666931152344
0.12004932761192322,0.1630115509033203,147.45069885253906
0.177936851978302,0.1437085121870041,147.43434143066406
0.19607356190681458,0.15118937194347382,147.46041870117188
0.12812472879886627,0.1668948382139206,147.4875030517578
0.04269978776574135,0.19498583674430847,147.48350524902344
0.09859782457351685,0.19197885692119598,147.4418487548828
0.08473347872495651,0.17264807224273682,147.42845153808594
0.10547880083322525,0.12498703598976135,147.4602813720703
0.17821894586086273,0.05747746676206589,147.49374389648438
0.10275214165449142,0.023638181388378143,147.5218963623047
0.05405912920832634,0.02191893383860588,147.50514221191406
0.11812278628349304,0.055564068257808685,147.4687042236328
0.13649402558803558,0.1284642219543457,147.44647216796875
0.13876871764659882,0.1357080638408661,147.422607421875
0.0676545649766922,0.04163715988397598,147.39944458007812
0.18050742149353027,-0.12653480470180511,147.41162109375
0.10989298671483994,0.04036158323287964,147.380126953125
0.02105622924864292,0.29125308990478516,147.36680603027344
0.05968398600816727,0.26162734627723694,147.3717498779297
0.1178886666893959,0.25576984882354736,147.36810302734375
0.1953076273202896,0.242214173078537,147.36080932617188
0.10385477542877197,0.2028871774673462,147.35643005371094
0.026847710832953453,0.11071866005659103,147.39561462402344
0.025738367810845375,0.01383943296968937,147.47410583496094
0.10712803900241852,-0.013774355873465538,147.5296173095703
0.13201327621936798,0.12012968957424164,147.50436401367188
0.21398848295211792,0.14145046472549438,147.46868896484375
0.21327583491802216,0.03665381669998169,147.4346466064453
0.07364902645349503,0.07479788362979889,147.41802978515625
0.16513286530971527,0.18511955440044403,147.44139099121094
0.07352352142333984,0.23427289724349976,147.49070739746094
0.09950608015060425,0.13309738039970398,147.51673889160156
0.10356592386960983,0.113113172352314,147.5284881591797
0.13547652959823608,0.09024167060852051,147.5016632080078
0.18365219235420227,0.041475243866443634,147.4833984375
0.12608037889003754,0.12121374160051346,147.45684814453125
0.1664583683013916,0.19058804214000702,147.4657440185547
0.1231280043721199,0.09150786697864532,147.46939086914062
0.10946893692016602,0.11069004237651825,147.42840576171875
0.07973924279212952,0.12381129711866379,147.4376678466797
0.1419471800327301,0.14197570085525513,147.48924255371094
0.17210207879543304,0.19239386916160583,147.5751953125
0.1584663987159729,0.1621658056974411,147.6625518798828
0.055467940866947174,0.19577759504318237,147.76377868652344
0.056782566010951996,0.13516868650913239,147.79844665527344
0.1828710436820984,0.09207485616207123,147.7989959716797
0.22103101015090942,0.18584154546260834,147.80392456054688
0.19295568764209747,0.17349393665790558,147.84873962402344
0.10388457775115967,0.19299013912677765,147.87779235839844
0.05580034479498863,0.23973821103572845,147.85476684570312
0.15502279996871948,0.173056960105896,147.8533935546875
0.21652817726135254,0.03482544422149658,147.90830993652344
0.1499536633491516,0.051452841609716415,147.9690399169922
-0.018400082364678383,0.15220874547958374,147.99331665039062
-0.04787474125623703,-0.009101747535169125,148.0074005126953
0.12072990834712982,-0.15329484641551971,148.0264892578125
0.15380004048347473,0.0941225215792656,148.06410217285156
0.09314409643411636,0.22916987538337708,148.1384735107422
0.03912350907921791,0.24286049604415894,148.1429901123047
0.033819206058979034,0.08999940752983093,148.17913818359375
0.12525762617588043,0.0545390285551548,148.1989288330078
0.16651634871959686,0.11261201649904251,148.2049560546875
0.13818062841892242,0.04629261791706085,148.18753051757812
0.10026563704013824,0.10909006744623184,148.1599884033203
0.11640278249979019,0.1983046978712082,148.07687377929688
0.14061172306537628,0.08020598441362381,148.0115966796875
0.11120115965604782,0.030089300125837326,147.9957733154297
0.02944992668926716,0.16662858426570892,147.9591827392578
-0.02294672280550003,0.25020501017570496,147.9188232421875
0.058870140463113785,0.13846774399280548,147.8821258544922
0.09654456377029419,0.09245245903730392,147.81837463378906
0.17525650560855865,0.04512692615389824,147.786865234375
0.17439983785152435,0.04767110198736191,147.75082397460938
0.035068511962890625,0.14894884824752808,147.71006774902344
0.08904260396957397,0.16047348082065582,147.68829345703125
0.21398098766803741,0.22430731356143951,147.67233276367188
0.17321337759494781,0.27687111496925354,147.67112731933594
0.08276327699422836,0.2142583280801773,147.69497680664062
0.11744149029254913,0.08570697903633118,147.68759155273438
0.21833080053329468,-0.003439385909587145,147.6599884033203
0.22738152742385864,0.008356845937669277,147.59848022460938
0.10065939277410507,0.215757817029953,147.53187561035156
0.09092816710472107,0.19080200791358948,147.5214080810547
0.17998014390468597,0.10113753378391266,147.48936462402344
0.2231162190437317,0.26016247272491455,147.4532928466797
0.20432139933109283,0.2473495751619339,147.39559936523438
0.0071935951709747314,0.08422919362783432,147.35720825195312
0.027695536613464355,-0.04328012093901634,147.3831024169922
0.10772217810153961,0.1768011599779129,147.36106872558594
0.19411708414554596,0.22135664522647858,147.31015014648438
0.12882687151432037,0.12457722425460815,147.24252319335938
0.06368722766637802,0.0034632564056664705,147.20240783691406
-0.009026453830301762,0.029666874557733536,147.17666625976562
0.09655094146728516,0.05997080355882645,147.15533447265625
0.1569577306509018,0.017282448709011078,147.16114807128906
0.12565496563911438,0.05877602845430374,147.13734436035156
0.062342576682567596,0.1423661857843399,147.12936401367188
0.15460067987442017,0.21615563333034515,147.12057495117188
0.18261460959911346,0.3556899428367615,147.0839385986328
0.1411152184009552,0.2745727300643921,147.0939178466797
0.05867154151201248,0.12050685286521912,147.14450073242188
0.03309183195233345,0.09377706795930862,147.16371154785156
-0.028707114979624748,0.06606128066778183,147.1666259765625
0.01976114697754383,0.10082262009382248,147.15650939941406
0.15264621376991272,0.22910380363464355,147.08523559570312
0.11113987118005753,0.23122595250606537,146.98789978027344
-0.09407947957515717,0.09648774564266205,146.91282653808594
-0.258720725774765,-0.14789517223834991,146.924072265625
-0.2143266350030899,-0.23284925520420074,146.91470336914062
-0.08588888496160507,0.015850840136408806,146.8438262939453
-0.01027645543217659,0.3636539876461029,146.75518798828125
-0.05361614748835564,0.5238305330276489,146.70384216308594
-0.23662249743938446,0.41246357560157776,146.70407104492188
-0.18876224756240845,0.08469577878713608,146.736083984375
-0.04112333059310913,0.09121712297201157,146.720458984375
0.07646354287862778,0.1414099782705307,146.69976806640625
-0.07084420323371887,0.047702010720968246,146.6642608642578
-0.24479036033153534,0.12799391150474548,146.63973999023438
-0.12896859645843506,0.26226434111595154,146.6715850830078
0.059857357293367386,0.4477781355381012,146.6616668701172
-0.07332636415958405,0.4839980900287628,146.61767578125
-0.09609439969062805,0.19503197073936462,146.6354217529297
-0.0739971250295639,0.20197047293186188,146.68336486816406
-0.07702372968196869,0.4343146085739136,146.74240112304688
-0.0685221329331398,0.6368125677108765,146.79571533203125
-0.07547997683286667,0.7731830477714539,146.80606079101562
0.0825064405798912,0.6590222120285034,146.84951782226562
0.2573820948600769,0.1996944099664688,146.93016052246094
0.10270924121141434,-0.17350360751152039,147.0128936767578
-0.13262233138084412,-0.29965513944625854,147.12445068359375
-0.13003435730934143,-0.24813027679920197,147.17396545410156
0.007414515130221844,-0.1295003592967987,147.19662475585938
0.22786130011081696,0.090196393430233,147.2135467529297
0.276828795671463,0.23844031989574432,147.23060607910156
0.05832850560545921,0.09705697000026703,147.23184204101562
-0.09472233057022095,-0.15629076957702637,147.24659729003906
0.04654378443956375,-0.1747233122587204,147.258544921875
0.12585359811782837,-0.06539648026227951,147.27076721191406
0.21097686886787415,0.04327872768044472,147.29481506347656
0.21539714932441711,0.12771759927272797,147.30029296875
0.1548207402229309,0.22529718279838562,147.29623413085938
0.06462931632995605,0.2520718276500702,147.28184509277344
0.12425459921360016,0.10242491215467453,147.2418670654297
0.11562471091747284,0.025598589330911636,147.19058227539062
0.0965586006641388,-0.11345256119966507,147.18585205078125
-0.04682780057191849,-0.11526128649711609,147.2215576171875
-0.12011860311031342,0.04859820008277893,147.2113037109375
-0.045568808913230896,0.2535182237625122,147.15618896484375
0.07436445355415344,0.45977821946144104,147.0674591064453
0.00826641172170639,0.5025359392166138,147.00587463378906
-0.2564716041088104,0.347483366727829,147.00909423828125
-0.25388720631599426,0.4238205552101135,147.0219268798828
-0.032663267105817795,0.5477160811424255,146.9992218017578
0.05355783551931381,0.5716491937637329,146.99131774902344
-0.004200707655400038,0.42602303624153137,146.99473571777344
-0.08369340747594833,0.12246163189411163,147.05271911621094
-0.12266446650028229,-0.05983608216047287,147.11244201660156
-0.07830595970153809,0.015426190569996834,147.13551330566406
0.050360675901174545,0.0716288611292839,147.1130828857422
-0.014130676165223122,0.022971753031015396,147.08106994628906
-0.024092303588986397,-0.03008277341723442,147.06398010253906
0.08397350460290909,0.035244420170784,147.0604705810547
0.1839013397693634,0.06290509551763535,147.08197021484375
0.17221921682357788,0.04139701649546623,147.1322021484375
0.06325918436050415,-0.09256105870008469,147.17689514160156
0.12683263421058655,-0.0867718830704689,147.17506408691406
0.28696855902671814,-0.028661208227276802,147.14590454101562
0.35416319966316223,0.00950468610972166,147.10214233398438
0.2281351238489151,-0.045866742730140686,147.0831756591797
0.20599180459976196,-0.023432280868291855,147.08497619628906
0.21764269471168518,0.03883064165711403,147.0863800048828
0.17524632811546326,0.08960773795843124,147.0921173095703
0.21655014157295227,0.026205748319625854,147.0714569091797
0.26380857825279236,0.006341998465359211,147.05836486816406
0.30222582817077637,0.07882969081401825,147.03759765625
0.28546836972236633,0.22625797986984253,147.0409393310547
0.12180965393781662,0.06575699895620346,147.061767578125
-0.05896632745862007,-0.1837562918663025,147.0574951171875
0.0823887512087822,-0.15311013162136078,147.01658630371094
0.20724163949489594,0.1157020702958107,146.9656982421875
0.24798792600631714,0.17401105165481567,146.92510986328125
0.13681305944919586,0.09921903163194656,146.8898468017578
0.13938438892364502,0.09891586750745773,146.862060546875
0.17089496552944183,0.31749144196510315,146.86001586914062
0.16252672672271729,0.4565875828266144,146.87176513671875
0.09675285965204239,0.4903354048728943,146.86904907226562
0.16839361190795898,0.19339439272880554,146.86209106445312
0.28528499603271484,-0.03155796229839325,146.81600952148438
0.2926689684391022,-0.06231154128909111,146.79803466796875
0.21965588629245758,-0.03788846731185913,146.82823181152344
0.08968567103147507,-0.06410828977823257,146.8739776611328
0.09374169260263443,0.020953858271241188,146.85841369628906
0.23375080525875092,-0.0432983934879303,146.80825805664062
0.2838970720767975,-0.17318643629550934,146.7512664794922
0.3189830183982849,-0.3297913372516632,146.72499084472656
0.13650056719779968,-0.14095114171504974,146.71482849121094
0.14774638414382935,0.15109330415725708,146.72845458984375
0.23862986266613007,0.4157678186893463,146.7150115966797
0.35174426436424255,0.43631991744041443,146.69180297851562
0.4682142436504364,0.3730580806732178,146.7186279296875
0.28319448232650757,0.3157970905303955,146.77398681640625
0.013388140127062798,0.12238654494285583,146.86904907226562
-0.07948985695838928,0.023119809105992317,146.95379638671875
0.027455203235149384,0.051768239587545395,147.0057373046875
0.04712317883968353,0.11457914859056473,146.99867248535156
0.02062213607132435,0.1777913123369217,147.01573181152344
0.12126776576042175,0.13655255734920502,147.07229614257812
0.26101961731910706,0.08139196783304214,147.14248657226562
0.19569532573223114,-0.13466982543468475,147.2159423828125
-0.18117044866085052,-0.1945653259754181,147.24220275878906
-0.17747320234775543,-0.01367004495114088,147.2412872314453
-0.014842549338936806,0.3102639317512512,147.24107360839844
0.1834239959716797,0.33417215943336487,147.24107360839844
0.09349702298641205,0.21170498430728912,147.24534606933594
0.10340776294469833,0.06106185540556908,147.278076171875
0.13403131067752838,0.18488365411758423,147.28567504882812
0.09037518501281738,0.2580633759498596,147.29405212402344
0.06718192249536514,0.21801605820655823,147.2799072265625
0.04712845757603645,0.13587301969528198,147.2404327392578
0.1976429671049118,0.05711958184838295,147.15603637695312
0.19896192848682404,-0.027123212814331055,147.06617736816406
0.1190459355711937,-0.08587132394313812,147.0054931640625
0.037330906838178635,-0.23804154992103577,147.0071563720703
-0.004611004143953323,-0.21818891167640686,147.03662109375
0.15910810232162476,-0.15832392871379852,147.0667724609375
0.29710301756858826,0.04802625998854637,147.08175659179688
0.2614504396915436,0.1502864956855774,147.07925415039062
0.0582287423312664,0.05133780464529991,147.03680419921875
-0.14986608922481537,-0.07613414525985718,147.04293823242188
-0.1322624385356903,-0.1209002137184143,147.05137634277344
-0.08751682192087173,-0.15923696756362915,147.04598999023438
0.10119606554508209,-0.07697096467018127,147.05397033691406
0.22525009512901306,0.1724780648946762,147.05966186523438
0.1722976565361023,0.3299282193183899,147.08006286621094
0.008275536820292473,0.22190622985363007,147.07960510253906
-0.15265749394893646,-0.09412925690412521,147.10409545898438
-0.005361075978726149,-0.22903525829315186,147.13694763183594
0.21793925762176514,0.032653626054525375,147.13604736328125
0.3564319312572479,0.21433308720588684,147.09243774414062
0.12662874162197113,0.13298456370830536,147.04441833496094
0.041926197707653046,0.018427399918437004,147.03652954101562
0.06346824765205383,0.09902448207139969,147.0599365234375
0.20056478679180145,0.0450376532971859,147.08566284179688
0.32638025283813477,-0.14402219653129578,147.09054565429688
0.24234426021575928,-0.11007439345121384,147.01535034179688
0.15544025599956512,0.17525511980056763,146.95779418945312
0.31031858921051025,0.32607364654541016,146.93463134765625
0.3738672137260437,0.27260348200798035,146.91102600097656
0.12104614078998566,0.060655660927295685,146.90513610839844
-0.01079888828098774,-0.1517031341791153,146.87936401367188
-0.008487790822982788,0.004398885183036327,146.81491088867188
0.21676334738731384,0.11047080904245377,146.75802612304688
0.35207271575927734,0.238107368350029,146.71743774414062
0.22030650079250336,0.15619903802871704,146.70289611816406
-0.022176414728164673,-0.053416673094034195,146.66831970214844
-0.18663856387138367,-0.13079865276813507,146.64886474609375
-0.03377612307667732,-0.08748376369476318,146.63185119628906
0.16692547500133514,0.10015087574720383,146.57752990722656
0.26422619819641113,0.2510996460914612,146.52711486816406
0.2057468593120575,0.28920575976371765,146.47195434570312
0.10893168300390244,0.22312359511852264,146.4398193359375
0.022449307143688202,0.056170906871557236,146.4390411376953
-0.05242735147476196,-0.10578469187021255,146.43418884277344
-0.0642411857843399,-0.024486716836690903,146.43783569335938
0.08085494488477707,0.09558054059743881,146.4258575439453
0.19313883781433105,0.22379790246486664,146.4258575439453
0.18767255544662476,0.21084100008010864,146.38592529296875
0.22836866974830627,0.04405611380934715,146.3284454345703
0.435513436794281,-0.17245027422904968,146.2879638671875
0.5140522718429565,-0.2527500092983246,146.26614379882812
0.5161672234535217,-0.12526430189609528,146.2777862548828
0.715311586856842,0.04679398611187935,146.28109741210938
0.7645821571350098,0.04715137183666229,146.22015380859375
0.7129995822906494,-0.1701660007238388,146.07350158691406
0.5764306783676147,-0.5735214352607727,145.80384826660156
0.43606647849082947,-0.5781487822532654,145.36688232421875
0.3892971873283386,-0.43078163266181946,144.85333251953125
0.6349023580551147,-0.5229054093360901,144.32803344726562
0.46476244926452637,-0.19672450423240662,143.4527130126953
0.13781489431858063,-0.08469586819410324,142.17367553710938
0.17459046840667725,-0.642672061920166,140.57798767089844
-0.1752692610025406,-0.48544710874557495,138.95553588867188
0.5591048002243042,0.44898825883865356,137.34478759765625
0.5948476791381836,0.7248404026031494,135.8242645263672
0.38771095871925354,0.8518187999725342,134.14247131347656
0.4159800112247467,0.7840313911437988,132.36322021484375
-0.17744721472263336,0.7268420457839966,130.91226196289062
-0.03123878501355648,0.48498231172561646,129.46401977539062
-0.27358514070510864,0.1210850402712822,127.70793914794922
-0.260540634393692,-0.15224792063236237,125.91057586669922
-0.36294659972190857,-0.3313855528831482,124.3667221069336
0.014910213649272919,-0.18710479140281677,123.11074829101562
0.22482101619243622,-0.2784540355205536,122.02046966552734
-0.45542073249816895,0.3214947283267975,121.03912353515625
-0.24673594534397125,0.7086231708526611,120.2582015991211
0.04200294613838196,0.506746232509613,119.42219543457031
-0.2036551684141159,-0.15033172070980072,118.62867736816406
-0.3765047788619995,-0.6400464177131653,117.7026596069336
0.047161903232336044,0.1792822629213333,116.95096588134766
0.3162974715232849,0.5061498284339905,116.33543395996094
-0.23033049702644348,0.11796072125434875,115.63129425048828
-0.7369173169136047,-0.5197688937187195,115.04400634765625
-0.4581564664840698,-0.6676266193389893,114.40227508544922
-0.20128433406352997,-0.5550327301025391,113.70603942871094
0.2578310966491699,-0.6435535550117493,112.9032974243164
-0.4375760555267334,-1.074264407157898,112.31095886230469
0.2500506341457367,-0.08405650407075882,112.09017181396484
0.5433854460716248,1.1336147785186768,111.75584411621094
0.41058894991874695,1.0874669551849365,111.47464752197266
-0.6123965382575989,0.24725103378295898,111.1565170288086
0.009247401729226112,0.5163437724113464,110.15641784667969
-0.3170795440673828,-0.6088084578514099,109.41397094726562
-0.15331342816352844,0.2993970513343811,108.52267456054688
0.43388208746910095,0.42917922139167786,107.67044067382812
1.1597052812576294,0.8881269693374634,106.80120849609375
1.6790825128555298,0.548692524433136,105.85819244384766
0.46293309330940247,0.43702828884124756,104.85795593261719
-0.46938392519950867,0.20012453198432922,103.6418228149414
-0.707302451133728,-0.07486336678266525,102.24201202392578
0.2520533800125122,-0.45470383763313293,100.75008392333984
1.7968026399612427,-1.3775138854980469,98.7031021118164
-0.587264358997345,0.5259077548980713,96.9677963256836
-1.0541560649871826,0.5489501953125,95.48114776611328
0.34107619524002075,-1.1541917324066162,94.2158432006836
0.8504817485809326,-0.8205850720405579,93.10979461669922
0.4551086127758026,0.5839178562164307,92.06063079833984
0.7676783204078674,0.36135435104370117,90.93572235107422
0.8676246404647827,-0.6505026817321777,89.32167053222656
-1.1699399948120117,-0.6595770120620728,87.87953186035156
-1.0208317041397095,0.4644470810890198,86.01935577392578
-0.3053528070449829,0.7122698426246643,84.06719970703125
-0.5371189117431641,0.6363169550895691,82.58743286132812
0.18871377408504486,0.17464078962802887,81.46394348144531
0.6872367858886719,0.17986860871315002,80.40912628173828
0.9189268350601196,0.3871421813964844,78.42745971679688
-1.1593420505523682,-0.4924701750278473,77.0942611694336
0.3339381217956543,-1.0213885307312012,76.62987518310547
1.200666069984436,-0.34813886880874634,75.58549499511719
0.27374687790870667,0.7601282596588135,73.97538757324219
0.3353516757488251,0.33773478865623474,72.71062469482422
0.22881515324115753,0.17101944983005524,71.57466125488281
0.5753620266914368,-0.03808498755097389,70.64897918701172
0.6924305558204651,-0.3143308162689209,69.62958526611328
0.6123824119567871,-0.5126922726631165,68.09779357910156
-0.17881476879119873,0.602549135684967,66.58149719238281
0.26331189274787903,0.12757077813148499,65.87777709960938
0.4322042465209961,0.16691496968269348,65.3756332397461
0.36655741930007935,-0.2999572455883026,64.68750762939453
0.17182599008083344,-0.5168660283088684,63.95792770385742
-0.06723205745220184,0.24299143254756927,63.01982879638672
0.013928432948887348,0.32884418964385986,62.02498245239258
0.19514955580234528,0.14474406838417053,61.16615295410156
0.5970041155815125,-0.7977654337882996,60.57159423828125
0.06854555755853653,-0.5666614174842834,59.67433166503906
0.07822635024785995,-0.15944017469882965,58.62296676635742
-0.07188618183135986,0.4105050265789032,57.643028259277344
0.23999156057834625,0.21294455230236053,57.003517150878906
0.5077698230743408,-0.5273789763450623,56.472984313964844
0.3418664038181305,0.2500714957714081,56.26514434814453
0.267350435256958,0.21832619607448578,56.19520950317383
-0.16634124517440796,0.13424113392829895,56.14284896850586
-0.09524082392454147,-0.14517298340797424,55.561798095703125
0.2012777179479599,0.29973092675209045,54.58945083618164
0.9666951894760132,0.21347768604755402,53.7203254699707
0.44317978620529175,0.08823234587907791,53.28349304199219
0.1476856768131256,0.03847881034016609,53.09929275512695
-0.12820009887218475,-0.12418714910745621,53.097564697265625
-0.08334647119045258,0.1090930849313736,53.13665771484375
0.2314024567604065,-0.0435434952378273,53.14570999145508
0.23869484663009644,0.05790998041629791,53.36014175415039
0.304263174533844,0.08644325286149979,53.618873596191406
0.26050010323524475,0.04017999395728111,53.96895980834961
0.2198411375284195,-0.13861656188964844,54.33604049682617
0.16920645534992218,-0.084123395383358,54.663204193115234
0.2216266393661499,-0.08576900511980057,54.924827575683594
0.35178348422050476,0.0907498225569725,55.18999481201172
-0.31751206517219543,0.1921512931585312,55.33036422729492
-0.46418052911758423,0.11495581269264221,54.980262756347656
-0.1979203075170517,0.10795262455940247,55.05778503417969
0.317424476146698,-0.10255520045757294,55.084896087646484
0.38098224997520447,-0.022067908197641373,55.06018829345703
0.36310824751853943,-0.07454266399145126,55.088600158691406
0.0494634173810482,0.0011077022645622492,55.17427444458008
0.6462821364402771,-0.15030774474143982,55.272342681884766
1.168089747428894,-0.266489714384079,55.47212219238281
1.0188696384429932,-0.11547213047742844,55.92607879638672
-0.423286497592926,-0.07125779986381531,56.35948944091797
-0.11663515120744705,0.07914038002490997,56.37199783325195
0.15208996832370758,0.1297936886548996,56.3361701965332
0.7216458916664124,-0.024556530639529228,56.33717727661133
0.6597185134887695,-0.19575470685958862,56.4495964050293
0.10187751054763794,-0.0656687468290329,56.54230880737305
-0.23582880198955536,0.03510421887040138,56.50907516479492
-0.19710378348827362,0.00864394474774599,56.58214569091797
-0.16629861295223236,-0.0568406842648983,56.899024963378906
-0.1912647932767868,-0.0852564200758934,56.9844856262207
-0.34029701352119446,0.06992726027965546,56.79438781738281
-0.33589163422584534,0.09616213291883469,56.46296310424805
0.34159380197525024,-0.10084398835897446,56.25358200073242
1.004453182220459,-0.3397858142852783,56.31461715698242
0.18024055659770966,-0.15767304599285126,56.307373046875
-0.3479114770889282,0.3226053714752197,56.252506256103516
-0.3439268171787262,0.3907252848148346,56.50349426269531
-0.23086443543434143,0.10683444142341614,56.81192398071289
-0.33814865350723267,0.0009976919973269105,56.644500732421875
0.05573660135269165,-0.1009887158870697,56.38058090209961
0.3431342542171478,-0.14440269768238068,56.28395080566406
0.3642789125442505,-0.10916448384523392,56.292484283447266
0.27843177318573,-0.13193193078041077,56.1670036315918
0.4079858958721161,-0.011098060756921768,56.057308197021484
0.2043834924697876,0.5893269777297974,56.20501708984375
-0.5723702311515808,0.6197177767753601,56.406166076660156
0.019483163952827454,0.0025619613006711006,56.3405647277832
0.6775795221328735,-0.41849884390830994,55.88185501098633
1.7089829444885254,-0.5366485118865967,55.64796447753906
0.6288885474205017,-0.16181622445583344,55.40511703491211
0.780358612537384,-0.18777915835380554,55.29802322387695
-0.017132127657532692,-0.0688200294971466,55.15610885620117
-0.3825267553329468,0.2109353244304657,54.74526596069336
0.2879844009876251,-0.009362622164189816,54.41231155395508
0.6892171502113342,0.06487899273633957,54.4068489074707
0.4524083733558655,-0.1142766997218132,54.634605407714844
0.2310549020767212,-1.338106632232666,54.948490142822266
-0.18545660376548767,-0.13385352492332458,55.09010314941406
-0.023384427651762962,0.16914287209510803,54.91416931152344
0.34929248690605164,2.096881628036499,55.06720733642578
0.18977956473827362,0.46742671728134155,55.43449401855469
0.4888265132904053,-0.35853198170661926,55.5853271484375
0.005459541454911232,-0.3328235447406769,55.59492111206055
-0.175560861825943,-0.2835438847541809,55.43098449707031
0.6058169007301331,0.008599046617746353,55.564945220947266
-0.552686870098114,-0.4113876521587372,56.421669006347656
0.3780161440372467,-0.2543828785419464,56.972618103027344
0.0038283998146653175,0.4945334792137146,57.48394012451172
0.5612876415252686,0.13561581075191498,57.85722351074219
0.19477298855781555,0.23304030299186707,58.0113525390625
0.015384284779429436,-0.5292529463768005,58.328914642333984
-0.4048853814601898,-0.46958234906196594,58.52025604248047
-0.155606210231781,-0.08647878468036652,58.67988204956055
0.1823292374610901,-0.5847711563110352,58.91565704345703
0.3299950361251831,0.5472224354743958,59.00344467163086
0.23369184136390686,0.5626777410507202,58.938987731933594
0.2714371979236603,-0.1909601390361786,59.04874801635742
-0.09723836928606033,-0.3589743673801422,59.1844367980957
-0.39874425530433655,0.08134257048368454,59.1920051574707
-0.32294148206710815,0.11093372851610184,59.075965881347656
0.10161098837852478,0.339008092880249,58.990970611572266
0.4402305483818054,0.2003621608018875,58.94373321533203
0.5101621747016907,0.34553468227386475,58.882991790771484
0.3742060959339142,0.3262203633785248,58.84634780883789
0.14966684579849243,0.21496933698654175,58.957313537597656
-0.2492402195930481,-0.30793729424476624,59.08070755004883
-0.24807177484035492,-0.2261354625225067,59.077850341796875
-0.26727354526519775,-0.010960460640490055,58.94767379760742
0.3084290623664856,0.11544553190469742,58.75048065185547
0.5984811186790466,0.13167156279087067,58.60645294189453
0.46632665395736694,-0.06281574815511703,58.460628509521484
0.1870201677083969,-0.01864737831056118,58.30598449707031
0.0016071838326752186,0.016631795093417168,58.18510437011719
-0.033675000071525574,-0.024850813671946526,58.01586151123047
0.0695851743221283,-0.040829725563526154,57.876686096191406
0.43008434772491455,-0.08708011358976364,57.77830505371094
0.4751996099948883,-0.15423418581485748,57.716880798339844
0.27634480595588684,-0.14808277785778046,57.69363021850586
0.12758763134479523,-0.07655355334281921,57.668819427490234
-0.11856207251548767,0.14339390397071838,57.626121520996094
0.06803609430789948,0.1495792120695114,57.515071868896484
0.20098301768302917,0.07935956120491028,57.397029876708984
0.20262570679187775,-0.12337110191583633,57.245182037353516
0.14948029816150665,-0.07085757702589035,57.06983947753906
0.07208817452192307,0.07726588845252991,56.90117263793945
-0.09568019211292267,0.06601539999246597,56.714969635009766
-0.18812759220600128,0.023844612762331963,56.525875091552734
0.7912636995315552,-0.007901434786617756,56.359439849853516
0.8409861326217651,0.014344894327223301,56.366336822509766
0.3568640351295471,-0.002208475722000003,56.51873779296875
0.06081017106771469,0.05795689672231674,56.6793098449707
0.07891321927309036,-0.10756099969148636,56.78724670410156
0.07600166648626328,0.07403088361024857,56.83500289916992
-0.39785081148147583,0.08707393705844879,57.01868438720703
0.20428073406219482,-0.36681661009788513,56.95012283325195
-0.2085159569978714,-0.5341200232505798,56.78642272949219
-0.3666195869445801,0.593903660774231,56.58165740966797
0.65394127368927,0.11353012174367905,56.433753967285156
0.4794089198112488,-0.3567681312561035,56.30613327026367
0.4197368025779724,0.05470553785562515,56.360050201416016
0.1629684567451477,0.18093150854110718,56.430206298828125
-0.2901337742805481,-0.03854038193821907,56.54033660888672
-0.382411390542984,0.07737980782985687,56.60317611694336
-0.047133274376392365,0.07080492377281189,56.6102180480957
0.006098118145018816,0.00616332795470953,56.57954788208008
0.19064347445964813,0.10626774281263351,56.56005859375
0.4541473388671875,-0.14670413732528687,56.565494537353516
0.3093295693397522,0.08164694905281067,56.604148864746094
0.43433085083961487,0.2331487089395523,56.6632080078125
0.3930627107620239,-0.549442708492279,56.667449951171875
-0.28911763429641724,0.06406842172145844,56.653324127197266
0.005162123590707779,0.20638783276081085,56.65315628051758
0.322439044713974,-0.316338449716568,56.68074035644531
0.32907259464263916,-0.0753089189529419,56.70924758911133
0.49708694219589233,-0.22875341773033142,56.704959869384766
0.508073627948761,-0.09378690272569656,56.65864181518555
-0.6950111389160156,0.39425891637802124,56.640926361083984
-0.39021703600883484,0.3758203387260437,56.56306838989258
0.4778382480144501,-0.1958945095539093,56.42593002319336
0.9723294377326965,-0.1724189817905426,56.304656982421875
0.26459017395973206,-0.2140764445066452,56.32497024536133
-0.5358136296272278,0.2985379695892334,56.406150817871094
-0.09918689727783203,0.2825028896331787,56.37885284423828
0.08471385389566422,-0.12301529943943024,56.31104278564453
0.26466289162635803,-0.3843784034252167,56.23021697998047
0.6714819669723511,-0.24145841598510742,56.16877365112305
0.47392386198043823,-0.0013408821541815996,56.14901351928711
0.009266826324164867,0.08924733847379684,56.10660171508789
-0.47114071249961853,0.10366811603307724,56.03060531616211
-0.5161967277526855,0.09206259250640869,55.95768737792969
0.28090304136276245,-0.14476336538791656,55.93123245239258
0.4137711524963379,-0.1938658207654953,55.881622314453125
0.21308012306690216,0.10253912210464478,55.87843704223633
0.36955493688583374,-0.18497921526432037,55.911033630371094
-0.3276110291481018,-0.14606183767318726,55.88688659667969
-0.15523670613765717,0.018456485122442245,55.84535217285156
0.44700896739959717,-0.26545053720474243,55.74095916748047
0.4348010718822479,-0.13557766377925873,55.68613815307617
0.3169209659099579,-0.09909819066524506,55.75077819824219
-0.040740273892879486,-0.018812764436006546,55.802101135253906
-0.24820001423358917,0.21454137563705444,55.82682418823242
0.042497456073760986,0.20621874928474426,55.83896255493164
0.5877302289009094,-0.1398342251777649,55.82115936279297
0.5615978240966797,-0.21881884336471558,55.7630729675293
0.0760885700583458,0.09880497306585312,55.74531555175781
-0.0319819301366806,0.28818607330322266,55.817527770996094
0.30238601565361023,0.11279946565628052,55.878135681152344
0.6889947652816772,-0.024548441171646118,55.87725067138672
0.8367131948471069,-0.1604529619216919,55.927818298339844
0.45777207612991333,-0.41215017437934875,55.986202239990234
-0.24457547068595886,-0.3427671194076538,56.02010726928711
0.0370006263256073,-0.07398097217082977,56.03353500366211
-0.05527622625231743,-0.05398951843380928,55.985225677490234
-0.20234183967113495,0.15064460039138794,55.92928695678711
0.6254510283470154,-0.13154610991477966,55.898712158203125
0.2541515827178955,-0.029208561405539513,55.843204498291016
-0.12984003126621246,0.10403721034526825,55.85801315307617
0.1893906593322754,-0.39288273453712463,55.91267776489258
-0.15153267979621887,-0.16825783252716064,55.89568328857422
-0.6049462556838989,0.2623409628868103,55.88368225097656
-0.22067368030548096,0.07116902619600296,55.8953971862793
0.30525997281074524,-0.13307586312294006,55.86051559448242
0.19856946170330048,-0.10572627931833267,55.722774505615234
-0.0498482920229435,-0.10513654351234436,55.59600067138672
0.08592133224010468,-0.3732532560825348,55.50223159790039
0.14794328808784485,-0.20118233561515808,55.391845703125
0.2565825283527374,-0.011019831523299217,55.30572509765625
-0.16449789702892303,-0.09047357738018036,55.25788497924805
-0.15443366765975952,0.09279786050319672,55.14556121826172
-0.07174462825059891,0.08564474433660507,54.9693603515625
0.4460204243659973,0.03748401626944542,54.87055587768555
0.8860085010528564,-0.14477960765361786,54.87838363647461
0.4924570918083191,-0.16235950589179993,54.9506950378418
0.10709341615438461,-0.11670192331075668,54.983909606933594
-0.06198613718152046,0.03890949860215187,54.95582580566406
0.19645796716213226,-0.013615543022751808,54.95925521850586
0.06996802985668182,0.006674404256045818,54.95582580566406
-0.1205633357167244,0.06561228632926941,54.94666290283203
-0.055006243288517,-0.022462883964180946,54.963714599609375
0.003204700769856572,0.08599873632192612,54.994014739990234
0.1531084030866623,-0.030165113508701324,54.97862243652344
0.26383936405181885,-0.10301466286182404,54.90599822998047
0.48725348711013794,-0.13619929552078247,54.90686798095703
0.5649641156196594,-0.2272491604089737,54.955020904541016
0.26320505142211914,-0.012891193851828575,55.01007080078125
-0.14734961092472076,0.07889258861541748,55.034461975097656
-0.01715288683772087,-0.016062255948781967,55.00733184814453
0.13473476469516754,-0.024533173069357872,54.98406219482422
0.2711101174354553,-0.025254812091588974,54.979347229003906
0.3841134309768677,-0.18432186543941498,54.92868423461914
-0.024174951016902924,0.08325377106666565,54.8948974609375
0.12955741584300995,0.04532560706138611,54.876686096191406
0.19081351161003113,-0.0037933222483843565,54.810855865478516
0.6333598494529724,-0.10616130381822586,54.7508659362793
0.5727362632751465,-0.11373269557952881,54.760276794433594
0.22325094044208527,-0.19518126547336578,54.82722854614258
-0.00586194870993495,-0.15665660798549652,54.87300109863281
0.0696774497628212,-0.08337860554456711,54.924766540527344
0.13912929594516754,-0.039376694709062576,54.97820281982422
-0.05517935752868652,-0.012583080679178238,54.997467041015625
-0.09911884367465973,-0.028039811179041862,54.971954345703125
0.09531509876251221,-0.12854641675949097,54.95529556274414
0.3035660684108734,-0.2260037213563919,54.98196029663086
0.18948519229888916,-0.15132513642311096,55.021080017089844
-0.14106020331382751,-0.06620168685913086,55.05553436279297
-0.1165163516998291,-0.14022967219352722,55.07916259765625
0.027874203398823738,-0.09747660160064697,55.12350845336914
-0.17455258965492249,-0.1245245411992073,55.14359664916992
-0.18437817692756653,-0.1377839297056198,55.12109375
0.2746163010597229,-0.06964010000228882,55.10440444946289
0.30080196261405945,-0.01103215292096138,55.09903335571289
0.16377341747283936,0.13302862644195557,55.09470748901367
-0.01605222560465336,0.09122292697429657,55.08380126953125
0.29921406507492065,-0.22170881927013397,55.09065246582031
0.4146672785282135,-0.23726187646389008,55.088905334472656
0.5978536009788513,-0.026288866996765137,55.098873138427734
0.4153672158718109,-0.011179475113749504,55.13359451293945
0.28328630328178406,0.02934820018708706,55.20182418823242
0.16313549876213074,0.15126745402812958,55.24143600463867
-0.12070240080356598,0.40422672033309937,55.23429489135742
-0.03605680912733078,0.5989131927490234,55.17090606689453
0.4921182096004486,0.617798924446106,55.080467224121094
0.725123941898346,0.5903360247612,55.01634216308594
0.42309293150901794,0.4459768831729889,55.00556182861328
0.3298928439617157,0.30331096053123474,55.008262634277344
0.4617297649383545,0.2813471853733063,54.99664306640625
0.3254115879535675,0.2285180240869522,54.99073028564453
-0.00861667562276125,0.19600625336170197,54.990474700927734
-0.06946976482868195,0.08688803762197495,54.91770553588867
0.7348480820655823,0.13945937156677246,54.83484649658203
1.1029917001724243,0.22111785411834717,54.8587532043457
0.3752380609512329,0.5507638454437256,54.92542266845703
0.17402184009552002,0.6402837038040161,54.94590759277344
0.33229339122772217,0.3641202747821808,54.92695999145508
-0.0918896421790123,0.21019001305103302,54.917728424072266
-0.11486975848674774,0.3467448949813843,54.89348602294922
0.43817615509033203,0.7659632563591003,54.89202117919922
0.5014584064483643,0.6949422955513,54.84691619873047
1.0178966522216797,-0.1846569925546646,54.793338775634766
1.2521874904632568,-0.5816683173179626,54.78139114379883
0.5667663216590881,-0.12769532203674316,54.86170196533203
-0.0650336891412735,0.42910635471343994,54.998817443847656
-0.31326836347579956,0.673934280872345,55.100547790527344
0.006274542771279812,0.1695355474948883,55.12298583984375
0.6473091840744019,-0.548934280872345,55.143253326416016
1.0066235065460205,-0.48157140612602234,55.24592590332031
0.669987142086029,-0.12072312086820602,55.455223083496094
0.20050886273384094,-0.15720468759536743,55.69649887084961
-0.3470316231250763,-0.2604992687702179,55.92475891113281
-0.15363162755966187,-0.39136040210723877,56.17678451538086
0.12858688831329346,-0.5481446385383606,56.459754943847656
-0.13094152510166168,-0.2975758910179138,56.7217903137207
-0.20377366244792938,-0.2103768289089203,56.94462585449219
0.059518344700336456,-0.40290769934654236,57.14303207397461
-0.137708842754364,-0.24813193082809448,57.3392333984375
-0.3313071131706238,-0.0810716450214386,57.54623794555664
-0.26599618792533875,-0.191639244556427,57.737159729003906
0.04479798302054405,-0.5566295385360718,57.89110565185547
-0.050867971032857895,-0.5175290107727051,58.031761169433594
-0.6124721169471741,-0.17373543977737427,58.1803092956543
-0.6509988903999329,-0.04488905519247055,58.3150634765625
-0.6062233448028564,-0.11099569499492645,58.41527557373047
0.04103114455938339,-0.23241594433784485,58.46703338623047
0.7718464732170105,-0.15715686976909637,58.55303192138672
0.779082179069519,-0.036470722407102585,58.66948699951172
-0.09760743379592896,0.25236251950263977,58.785179138183594
-0.5952861905097961,-0.012472190894186497,58.837947845458984
-0.3190854489803314,-0.23296937346458435,58.852046966552734
0.2628398537635803,-0.4699632525444031,58.859745025634766
0.3611586093902588,-0.23361089825630188,58.882781982421875
0.3388421833515167,-0.1520223170518875,58.95612335205078
-0.005901702679693699,-0.0526551827788353,59.026058197021484
-0.2293187826871872,-0.22488638758659363,59.10908508300781
-0.2786736786365509,-0.5639383792877197,59.1605224609375
0.20657706260681152,-0.6247605085372925,59.184730529785156
0.1222834512591362,-0.5966126322746277,59.23023986816406
-0.06191117316484451,-0.5751649141311646,59.31090545654297
0.20426340401172638,-0.5157217383384705,59.42955780029297
-0.3981921374797821,-0.3801127076148987,59.550045013427734
-0.4310039281845093,-0.406116783618927,59.628814697265625
-0.0046883379109203815,-0.4088183343410492,59.669612884521484
0.013512955978512764,-0.44590023159980774,59.70541000366211
0.07285499572753906,-0.38988855481147766,59.756656646728516
-0.04760880023241043,-0.2914639115333557,59.833980560302734
-0.2132905274629593,-0.030700258910655975,59.85382843017578
-0.5580349564552307,0.08528583496809006,59.71574401855469
-1.3065568208694458,0.019106026738882065,59.375919342041016
-0.7703583240509033,-0.3741220533847809,58.98348617553711
-0.224176824092865,-0.21906083822250366,58.672916412353516
-0.36780649423599243,-0.2638136148452759,58.39610290527344
-0.45083117485046387,-0.3302125036716461,58.024566650390625
0.13312789797782898,-0.10705060511827469,57.62200927734375
0.7028626203536987,0.021565061062574387,57.244285583496094
1.000454306602478,-0.04781201854348183,56.9359245300293
0.18342627584934235,0.2537236511707306,56.58538055419922
-0.2943178117275238,0.8086926937103271,56.08604431152344
-0.3866310715675354,0.534761905670166,55.475704193115234
-0.20379196107387543,0.11409783363342285,54.904502868652344
0.5303329229354858,-0.02244408056139946,54.4835319519043
0.7564688324928284,-0.3755468428134918,54.185420989990234
0.7312453985214233,-0.5166183710098267,54.07545852661133
0.5787277817726135,-0.27601325511932373,53.982418060302734
0.25615373253822327,0.33002737164497375,53.87393569946289
0.004852466285228729,0.742543637752533,53.77436065673828
0.751085102558136,0.6169455051422119,53.73017883300781
0.5730686187744141,0.0078048487193882465,53.754634857177734
0.17142024636268616,-0.3513084650039673,53.76792907714844
0.08440232276916504,-0.18754152953624725,53.785888671875
-0.5043711066246033,-0.3609616458415985,53.64500427246094
0.044716909527778625,0.8366281986236572,53.569252014160156
3.336097002029419,-1.2380199432373047,53.79823303222656
0.6376700401306152,-0.5062335729598999,53.90724182128906
0.19020691514015198,-0.4040306806564331,53.798439025878906
-0.3686102032661438,0.3196738660335541,53.52389907836914
-0.6431734561920166,-0.3034302890300751,53.03642654418945
-0.5252581238746643,-0.43086355924606323,51.897762298583984
-0.5865476131439209,-0.5090683698654175,49.79694747924805
0.09202616661787033,-0.19723032414913177,47.08960723876953
0.14415180683135986,-0.08787938207387924,44.015419006347656
-0.16510027647018433,-0.4839869737625122,41.20243453979492
-0.4600743055343628,-0.3313961923122406,37.22740936279297
-0.22817739844322205,-0.1473107635974884,32.1370849609375
0.22026969492435455,0.11381905525922775,26.742544174194336
0.8157113790512085,0.06970800459384918,22.07571029663086
0.6884808540344238,-0.6246839761734009,19.0143985748291
-0.00047450404963456094,-0.7496207356452942,17.397289276123047
-0.3592711091041565,-0.44185110926628113,16.532306671142578
-0.12140357494354248,-0.6322347521781921,15.597661018371582
0.0770234614610672,0.08162057399749756,14.566044807434082
-0.12141299247741699,0.5829620361328125,13.370487213134766
-0.031715456396341324,0.45760560035705566,11.469134330749512
-0.18192987143993378,0.13056974112987518,9.92468547821045
-0.9239595532417297,0.5617953538894653,8.34843635559082
-0.8211708068847656,0.24232450127601624,5.821450710296631
-0.48593661189079285,0.1862235963344574,2.839956760406494
-0.030612362548708916,0.08465053141117096,-0.7243174314498901
0.5559056997299194,-0.8045358061790466,-4.078163146972656
0.48798510432243347,-0.6340996623039246,-6.398020267486572
0.40504446625709534,-0.35308071970939636,-7.978083610534668
0.10868284106254578,-0.44423404335975647,-9.211114883422852
0.18404445052146912,-0.2167535126209259,-10.365079879760742
0.04475190490484238,0.013797392137348652,-11.574029922485352
-0.22455646097660065,0.2635132372379303,-13.204545021057129
-0.0681656077504158,-0.37114956974983215,-14.810525894165039
0.40545955300331116,-0.633842408657074,-15.897995948791504
0.18180474638938904,-0.3254014551639557,-16.5964298248291
-0.029599178582429886,-0.18286606669425964,-17.501867294311523
-0.14260344207286835,0.12106714397668839,-19.029264450073242
-0.1535957157611847,0.023449428379535675,-21.1475772857666
-0.5765362977981567,0.29153454303741455,-23.512556076049805
-0.5498825907707214,0.18917304277420044,-25.876745223999023
0.2161732167005539,-0.373245507478714,-27.946809768676758
0.4487752616405487,-0.5036129951477051,-29.56186866760254
0.24508710205554962,-0.20646393299102783,-31.17157745361328
0.13417546451091766,-0.12501034140586853,-33.021759033203125
0.32450777292251587,-0.1947949230670929,-34.58561706542969
0.43337440490722656,-0.2232087254524231,-35.628150939941406
0.2344953715801239,-0.3083840012550354,-35.856746673583984
-0.09507452696561813,-0.15758341550827026,-35.758140563964844
-0.1006811186671257,-0.17789077758789062,-35.69966506958008
0.08028355240821838,-0.10198881477117538,-35.622493743896484
-0.1903420239686966,0.023942526429891586,-35.505775451660156
-0.2919301390647888,-0.08953240513801575,-35.481040954589844
-0.31139394640922546,-0.3645692467689514,-35.583518981933594
-0.06239660456776619,-0.2881035804748535,-35.87489318847656
0.13760636746883392,-0.3003385066986084,-36.27702713012695
0.29542431235313416,-0.1641649454832077,-36.51309585571289
0.23169638216495514,0.1118728369474411,-36.466854095458984
-0.05723968520760536,0.03154676407575607,-36.31605911254883
-0.26305708289146423,0.09360365569591522,-36.147125244140625
-0.015630148351192474,-0.09702512621879578,-35.96833801269531
0.1939331442117691,-0.0014028999721631408,-35.659027099609375
0.09693114459514618,-0.19054779410362244,-35.15283966064453
-2.0561611652374268,-0.035887058824300766,-34.93589782714844
0.5065644383430481,-0.017456194385886192,-35.06854248046875
0.5739709734916687,-0.25197285413742065,-35.03950500488281
0.18871498107910156,-0.5398522019386292,-34.8908805847168
0.03756420314311981,-0.2558939456939697,-34.808841705322266
-0.10655273497104645,-0.34324321150779724,-34.70154571533203
0.18462055921554565,-0.48528534173965454,-34.59075927734375
0.5575902462005615,0.14004799723625183,-34.394378662109375
0.17813169956207275,-0.05202769860625267,-34.23644256591797
-0.5241469144821167,-0.01158702652901411,-34.1304817199707
-0.1973913013935089,-0.1709662675857544,-34.06842041015625
-0.1978883594274521,-0.20872071385383606,-34.00081253051758
0.10085754096508026,-0.021971648558974266,-33.941734313964844
-0.03211112692952156,0.026940256357192993,-33.89577102661133
0.06257857382297516,-0.1840110421180725,-33.827999114990234
0.2515207827091217,-0.24637433886528015,-33.71141052246094
-0.07200246304273605,-0.3747677505016327,-33.63439178466797
-0.06971743702888489,-0.09278871864080429,-33.598472595214844
-0.1707267165184021,-0.23272842168807983,-33.583984375
-0.3827556073665619,-0.13993237912654877,-33.601375579833984
-0.5230679512023926,-0.1005326360464096,-33.599666595458984
0.28240862488746643,-0.32640838623046875,-33.63583755493164
0.018452657386660576,-0.05557283014059067,-33.716670989990234
-0.47432422637939453,-0.37669140100479126,-33.77778244018555
-0.10363563895225525,-0.22454020380973816,-33.82631301879883
0.039278559386730194,-0.021836552768945694,-33.87755584716797
-0.27197563648223877,0.06170377507805824,-33.96414566040039
-0.10650848597288132,-0.0646672248840332,-34.0429801940918
0.21141161024570465,-0.14911776781082153,-34.10763931274414
0.2312665581703186,-0.22763007879257202,-34.16871643066406
0.16116663813591003,-0.23930470645427704,-34.21842956542969
0.2712288200855255,-0.24138528108596802,-34.182621002197266
0.38919562101364136,-0.1637420952320099,-34.16859436035156
-0.19011779129505157,-0.19223470985889435,-34.12043762207031
-0.13904674351215363,-0.07892770320177078,-34.06135559082031
-0.28971198201179504,-0.05901605263352394,-33.995872497558594
-0.06176503375172615,-0.014643294736742973,-33.96328353881836
-0.2170882672071457,0.08501051366329193,-33.95138168334961
-0.32076382637023926,-0.06773283332586288,-33.90909194946289
-0.07153061032295227,-0.11732970178127289,-33.87482452392578
0.10674716532230377,-0.15058204531669617,-33.855323791503906
-0.17406360805034637,-0.1642587035894394,-33.81375503540039
-0.02110336720943451,-0.11823705583810806,-33.705257415771484
0.46643874049186707,-0.10301642119884491,-33.60034942626953
0.3538261353969574,-0.0888315886259079,-33.43771743774414
0.650858461856842,-0.2896974980831146,-33.15514373779297
1.1486185789108276,-0.5404359102249146,-32.74652099609375
0.6316189169883728,-0.4078137278556824,-32.242767333984375
-0.6117605566978455,-0.2206755429506302,-31.719064712524414
-0.7963051199913025,-0.13185791671276093,-31.235374450683594
-0.7431902885437012,0.13441628217697144,-30.887195587158203
-0.7702072858810425,0.05292948707938194,-30.69078254699707
-0.48852020502090454,-0.08243066072463989,-30.562667846679688
0.05995677784085274,-0.019459819421172142,-30.427949905395508
0.06044789031147957,-0.12236019968986511,-30.320125579833984
-0.075489841401577,-0.03558983653783798,-30.21766471862793
0.2611226439476013,-0.07572756707668304,-30.053157806396484
0.3795955777168274,0.021475648507475853,-29.813568115234375
0.1503966897726059,-0.07325021177530289,-29.59440040588379
-0.09659397602081299,-0.13948902487754822,-29.413434982299805
0.3616492748260498,-0.19791848957538605,-29.199235916137695
0.2753334939479828,-0.20547495782375336,-28.9500789642334
-0.5183497667312622,-0.07954869419336319,-28.762500762939453
-0.6591420769691467,-0.17351827025413513,-28.646411895751953
-0.544378399848938,-0.21878813207149506,-28.602439880371094
-0.2822245657444,-0.18969681859016418,-28.57391357421875
0.15969382226467133,-0.13155406713485718,-28.525989532470703
0.3405151069164276,-0.05232733115553856,-28.485870361328125
-0.3164801001548767,-0.1833924651145935,-28.455795288085938
-0.48843246698379517,-0.317821741104126,-28.410823822021484
-0.02222377061843872,-0.2983396649360657,-28.405654907226562
0.14592839777469635,-0.09937319159507751,-28.417011260986328
0.0981699600815773,-0.2517821490764618,-28.417293548583984
0.2799599766731262,-0.20166157186031342,-28.449670791625977
-0.12130731344223022,-0.23065122961997986,-28.47675895690918
-0.45700326561927795,-0.2149561643600464,-28.506052017211914
0.07733550667762756,-0.29521986842155457,-28.537290573120117
0.36414477229118347,-0.15012937784194946,-28.615903854370117
-0.07196570932865143,-0.3458060622215271,-28.661779403686523
0.22038203477859497,-0.3361475169658661,-28.685537338256836
0.22435811161994934,-0.2165517807006836,-28.68212890625
-0.24126465618610382,-0.03136260434985161,-28.676183700561523
-0.18745435774326324,-0.20345865190029144,-28.707950592041016
-0.041430436074733734,-0.0974847599864006,-28.752477645874023
-0.06932225078344345,-0.35648199915885925,-28.748516082763672
0.037073008716106415,-0.2740892469882965,-28.701745986938477
0.22586049139499664,-0.17686359584331512,-28.662246704101562
0.028710288926959038,-0.06555908918380737,-28.698535919189453
-0.28812557458877563,-0.12314577400684357,-28.750728607177734
0.11985306441783905,-0.0968230664730072,-28.810951232910156
-0.08105507493019104,-0.0601407065987587,-28.861661911010742
-0.12138087302446365,-0.19447122514247894,-28.874221801757812
0.04464628919959068,-0.18095211684703827,-28.905725479125977
-0.004326498601585627,-0.053374797105789185,-28.95409393310547
-0.14175964891910553,-0.06128547713160515,-29.008045196533203
-0.016568196937441826,-0.040033791214227676,-29.074649810791016
-0.011981167830526829,-0.21076129376888275,-29.154836654663086
0.26287952065467834,-0.18751759827136993,-29.192115783691406
0.30557823181152344,-0.01467073429375887,-29.169225692749023
0.040878016501665115,-0.09633855521678925,-29.133464813232422
0.11762573570013046,-0.12357194721698761,-29.103668212890625
0.015800800174474716,-0.04643978923559189,-29.072908401489258
-0.1624424159526825,-0.3203246295452118,-29.034812927246094
0.10067401081323624,0.02792474441230297,-29.056447982788086
-0.09077084809541702,-0.02844715118408203,-29.070941925048828
0.16057614982128143,-0.13305975496768951,-29.101871490478516
-0.021514927968382835,-0.28566625714302063,-29.128746032714844
0.1002359464764595,-0.4110462963581085,-29.1129093170166
0.1211589127779007,-0.13394483923912048,-29.061765670776367
-0.042940329760313034,-0.006083296146243811,-29.01817512512207
-0.24439018964767456,-0.0509629100561142,-29.001577377319336
-0.2761346399784088,-0.07853861153125763,-29.006023406982422
-0.03746228665113449,-0.18095643818378448,-29.006153106689453
0.2307753562927246,-0.18510802090168,-28.98524284362793
0.19410406053066254,-0.23417982459068298,-28.931615829467773
-0.09575238078832626,-0.13910116255283356,-28.88679313659668
-0.13568180799484253,-0.04469219595193863,-28.8643798828125
-0.1102454885840416,-0.11265889555215836,-28.844955444335938
-0.053435977548360825,-0.08851825445890427,-28.830108642578125
-0.16754844784736633,-0.11374511569738388,-28.81993865966797
0.00793930608779192,-0.24279239773750305,-28.807788848876953
-0.13330528140068054,-0.18923872709274292,-28.804683685302734
-0.31225892901420593,-0.22632497549057007,-28.797147750854492
-0.09281517565250397,-0.1466221660375595,-28.802881240844727
0.1417376697063446,-0.18663740158081055,-28.816919326782227
0.1263546347618103,0.029515082016587257,-28.807344436645508
-0.02243504300713539,-0.1078256219625473,-28.801326751708984
-0.09043797850608826,-0.08602727204561234,-28.78433609008789
-0.021865399554371834,-0.06295476853847504,-28.77975082397461
-0.1044616848230362,-0.15271563827991486,-28.775972366333008
0.1383901983499527,-0.0839674174785614,-28.76930046081543
0.11216294765472412,-0.10982376337051392,-28.7834415435791
-0.22783777117729187,-0.20965014398097992,-28.82188606262207
-0.05965173989534378,-0.18172718584537506,-28.867469787597656
0.11101806908845901,-0.37515392899513245,-28.874588012695312
-0.17544126510620117,0.1970243602991104,-28.886123657226562
-0.039787933230400085,-0.5525928139686584,-28.816936492919922
0.26605579257011414,0.19762830436229706,-28.859294891357422
-0.030812416225671768,-0.27164986729621887,-28.912019729614258
-0.07792463898658752,-0.10757201164960861,-28.965482711791992
-0.008617290295660496,-0.10385900735855103,-28.98715591430664
-0.043811243027448654,-0.08230660855770111,-29.00576400756836
-0.2373831570148468,-0.25247374176979065,-29.00822639465332
-0.06867338716983795,-0.3561035096645355,-29.02186393737793
-0.13539214432239532,-0.1346902996301651,-29.049673080444336
-0.1759796291589737,-0.1307670772075653,-29.08560562133789
-0.10468845069408417,-0.004594308789819479,-29.133636474609375
0.005521789658814669,-0.1465671807527542,-29.17863655090332
0.09950073063373566,-0.05083725228905678,-29.265291213989258
-0.11295726150274277,-0.11120013892650604,-29.359291076660156
0.05537839233875275,-0.17394182085990906,-29.4210205078125
0.2736154794692993,-0.13472199440002441,-29.442445755004883
0.2514914572238922,-0.10027850419282913,-29.452659606933594
0.005467867478728294,-0.15211525559425354,-29.474781036376953
-0.23601490259170532,-0.17638008296489716,-29.50889015197754
-0.08516184240579605,-0.13238662481307983,-29.52562713623047
0.043022800236940384,-0.13222526013851166,-29.538270950317383
0.143259197473526,-0.09002899378538132,-29.54921531677246
-0.045103393495082855,-0.11573885381221771,-29.568340301513672
-0.08342251926660538,-0.13375309109687805,-29.562824249267578
0.028035873547196388,-0.02975274622440338,-29.544584274291992
0.23033244907855988,-0.04704270139336586,-29.564010620117188
-0.02879474125802517,-0.012101522646844387,-29.589216232299805
-0.0937599167227745,-0.12443874031305313,-29.5998477935791
-0.015071758069097996,-0.1255912333726883,-29.57883071899414
-0.014099490828812122,-0.0772099643945694,-29.54631996154785
0.12000923603773117,-0.25136449933052063,-29.524322509765625
0.22652040421962738,-0.14472603797912598,-29.507680892944336
-0.11113719642162323,-0.23928871750831604,-29.472488403320312
-0.20835594832897186,-0.09200215339660645,-29.443361282348633
-0.07815255224704742,-0.11829935759305954,-29.440168380737305
-0.09837502986192703,-0.1084960401058197,-29.447391510009766
0.11212539672851562,-0.2443854957818985,-29.431779861450195
0.10487314313650131,-0.16116593778133392,-29.4058837890625
-0.34852635860443115,-0.12827953696250916,-29.39312171936035
-0.30228564143180847,-0.03821611776947975,-29.421903610229492
-0.24394327402114868,-0.06120552867650986,-29.4642333984375
-0.03072219155728817,-0.23485593497753143,-29.49517250061035
0.2962026298046112,-0.2736152410507202,-29.536785125732422
0.06266317516565323,-0.23513317108154297,-29.558425903320312
-0.06189033389091492,-0.1897219866514206,-29.55095100402832
0.01017568539828062,-0.04329388588666916,-29.54826545715332
0.040103644132614136,-0.0335991233587265,-29.56141471862793
0.01997285895049572,-0.08302193135023117,-29.551376342773438
0.08994394540786743,-0.2032577097415924,-29.518186569213867
0.18340282142162323,-0.06637031584978104,-29.480472564697266
-0.1254727691411972,-0.023256411775946617,-29.456663131713867
-0.2702554166316986,0.07828518748283386,-29.472679138183594
-0.09058879315853119,-0.17656075954437256,-29.493989944458008
0.17071804404258728,-0.24804574251174927,-29.514442443847656
0.03540841117501259,-0.2473890632390976,-29.50410270690918
-0.05949912965297699,-0.156134232878685,-29.475296020507812
0.20345503091812134,-0.06705915182828903,-29.458213806152344
0.03845260292291641,-0.0203159861266613,-29.472820281982422
-0.2884766459465027,-0.1227070763707161,-29.48915672302246
0.0025509463157504797,-0.19240152835845947,-29.483816146850586
0.2908887565135956,-0.04541105777025223,-29.49188232421875
-0.19567106664180756,-0.061661917716264725,-29.469892501831055
-0.080738365650177,-0.06054345890879631,-29.457691192626953
0.05322975292801857,-0.12366925925016403,-29.45017433166504
-0.08812639117240906,-0.14633643627166748,-29.436302185058594
-0.06705420464277267,-0.16910286247730255,-29.403657913208008
0.20694062113761902,-0.1939401477575302,-29.39204216003418
0.19799672067165375,-0.19426657259464264,-29.381988525390625
-0.16387814283370972,-0.12763628363609314,-29.365009307861328
-0.22848781943321228,-0.08629970997571945,-29.343647003173828
0.07073841243982315,-0.03135091811418533,-29.336708068847656
0.09602533280849457,-0.09308276325464249,-29.3200626373291
0.023011580109596252,-0.16900210082530975,-29.29088020324707
-0.033010803163051605,-0.1810610592365265,-29.261821746826172
-0.07143887877464294,-0.0628902018070221,-29.250572204589844
-0.17648203670978546,-0.1379648894071579,-29.262245178222656
-0.07479964941740036,-0.11700019985437393,-29.26238250732422
0.05442607402801514,-0.22446730732917786,-29.26226234436035
-0.1466318815946579,-0.16847074031829834,-29.25421905517578
-0.2434099167585373,-0.09702704101800919,-29.261981964111328
-0.18855465948581696,-0.008313033729791641,-29.288352966308594
-0.15746471285820007,-0.020914023742079735,-29.31694221496582
-0.14333947002887726,-0.18859916925430298,-29.318805694580078
0.136178120970726,-0.26338621973991394,-29.322153091430664
0.12011323869228363,-0.11357774585485458,-29.343076705932617
0.03461534529924393,-0.09319702535867691,-29.371135711669922
0.25983715057373047,-0.07251258939504623,-29.395536422729492
0.00020651899103540927,-0.07167575508356094,-29.38813591003418
-0.07376858592033386,-0.12141945958137512,-29.3665771484375
-0.18357843160629272,-0.11363432556390762,-29.360347747802734
0.007367161568254232,-0.09406115114688873,-29.392093658447266
-0.06412719190120697,-0.01634242944419384,-29.41872215270996
0.0878293514251709,-0.15829375386238098,-29.422693252563477
0.257534921169281,-0.2138114869594574,-29.40681266784668
0.2581692039966583,-0.15496084094047546,-29.407947540283203
0.12082819640636444,-0.1307038515806198,-29.40770149230957
0.2591974437236786,-0.16227243840694427,-29.390226364135742
0.32418423891067505,-0.3003710210323334,-29.365909576416016
0.49957817792892456,-0.31249329447746277,-29.338924407958984
0.3499322235584259,-0.3110768795013428,-29.333049774169922
0.21595081686973572,-0.30951598286628723,-29.275737762451172
0.8015434741973877,-0.4146304130554199,-29.234296798706055
0.6662211418151855,-0.5278210043907166,-29.222463607788086
0.7167173624038696,-0.6162404417991638,-29.14077377319336
0.8932640552520752,-0.5538040995597839,-29.03816032409668
0.6623272895812988,-0.49178600311279297,-28.905675888061523
0.6395164728164673,-0.28376641869544983,-28.7252140045166
0.3631354570388794,-0.0912226215004921,-28.530933380126953
0.24027326703071594,-0.15993903577327728,-28.343164443969727
0.35588493943214417,-0.1232268288731575,-28.125024795532227
0.41213899850845337,-0.23436260223388672,-27.898286819458008
-0.20536738634109497,-0.17338556051254272,-27.706205368041992
0.0025875954888761044,-0.33682721853256226,-27.523649215698242
0.3634912967681885,-0.5281296968460083,-27.33196449279785
0.6315679550170898,-0.35118812322616577,-27.11557960510254
0.1550617814064026,-0.18748445808887482,-26.887426376342773
-0.07225736975669861,-0.1993645280599594,-26.66774559020996
0.24202848970890045,-0.22358766198158264,-26.48188018798828
0.30697715282440186,-0.17505040764808655,-26.297151565551758
0.4692051112651825,-0.14139410853385925,-26.082183837890625
0.06689280271530151,0.0633992925286293,-25.829729080200195
-0.6488251686096191,0.0032259344588965178,-25.58880615234375
-0.6951003670692444,0.009263571351766586,-25.395078659057617
-0.2973000407218933,-0.1716642677783966,-25.217117309570312
0.12930184602737427,-0.0832505151629448,-25.018644332885742
-0.22625663876533508,-0.05891164392232895,-24.84364128112793
-0.217420294880867,0.05540677160024643,-24.659011840820312
0.023372832685709,0.19335345923900604,-24.416532516479492
-0.0364062525331974,0.06554478406906128,-24.134490966796875
-0.5236179828643799,0.35749760270118713,-23.899648666381836
-0.8358041048049927,0.222248375415802,-23.758522033691406
-0.7137053608894348,-0.12319186329841614,-23.680545806884766
-0.2714388966560364,-0.22017797827720642,-23.586393356323242
0.07444988936185837,-0.14925262331962585,-23.448110580444336
0.12942737340927124,0.12326831370592117,-23.346460342407227
0.23043231666088104,0.09816376119852066,-23.271198272705078
0.4549679458141327,0.017919201403856277,-23.148847579956055
0.24554631114006042,-0.19325122237205505,-22.941965103149414
-0.32892656326293945,-0.19965185225009918,-22.734451293945312
-0.37397143244743347,-0.009664434939622879,-22.56702995300293
-0.3254292905330658,-0.02640288695693016,-22.417388916015625
-0.14306800067424774,-0.006635862402617931,-22.2954044342041
-0.07360171526670456,-0.03740958869457245,-22.244991302490234
0.30593517422676086,-0.09816255420446396,-22.23081398010254
0.19843654334545135,-0.022476574406027794,-22.170185089111328
-0.297450989484787,0.12569288909435272,-22.052703857421875
-1.051647424697876,0.0806448683142662,-21.906888961791992
-1.0325511693954468,0.1001727506518364,-21.816970825195312
-1.2267084121704102,0.20855478942394257,-21.81778907775879
-1.094969630241394,0.12957897782325745,-21.848583221435547
-0.8175370693206787,0.3413541913032532,-21.990032196044922
-1.0467826128005981,0.5040187239646912,-22.25858497619629
-1.1606321334838867,0.16216209530830383,-22.64615249633789
-1.5454152822494507,-0.08014816790819168,-23.225099563598633
-0.5558751225471497,-0.18179641664028168,-23.8656005859375
-0.14429029822349548,0.15319740772247314,-24.596473693847656
-0.4692896604537964,0.2671433687210083,-25.548784255981445
-0.16779725253582,0.5306073427200317,-26.83511734008789
-0.4275251626968384,0.4923020899295807,-28.70534896850586
-1.278515338897705,0.792923092842102,-31.449077606201172
-0.5881016850471497,0.3277021646499634,-34.663822174072266
-0.29503241181373596,0.23259775340557098,-36.95476150512695
1.5555988550186157,0.3059263825416565,-38.63694763183594
1.7351353168487549,-0.238840252161026,-39.885231018066406
0.3551773130893707,-1.1516551971435547,-40.9621696472168
0.42152532935142517,-1.8020673990249634,-41.77634811401367
-0.4196591079235077,-1.5176844596862793,-42.592777252197266
0.3007391393184662,-0.4180219769477844,-43.8285026550293
1.3888589143753052,0.6727911829948425,-45.332069396972656
0.38856297731399536,0.49876078963279724,-46.77094650268555
0.057028960436582565,-0.3696255087852478,-47.677913665771484
0.3140745460987091,-0.9475037455558777,-48.532413482666016
0.12253536283969879,-1.2192875146865845,-49.52729797363281
0.19996637105941772,-0.21428455412387848,-50.730064392089844
-0.3615742027759552,0.3928939700126648,-52.20829391479492
-0.8903490304946899,0.2839711904525757,-53.66636657714844
0.07115265727043152,-0.41562995314598083,-54.84054946899414
0.43288934230804443,-0.29966238141059875,-56.037132263183594
0.31345975399017334,-0.6964942812919617,-57.455509185791016
0.48233094811439514,0.08363759517669678,-59.16669845581055
-0.11852310597896576,0.409399151802063,-60.7713623046875
-0.3484155237674713,0.5790072679519653,-62.04888916015625
-0.8075364232063293,0.9105914235115051,-62.80707931518555
-0.729855477809906,1.141144871711731,-63.275882720947266
0.2143780142068863,0.5052731037139893,-63.99907684326172
0.7820122241973877,-0.2233596295118332,-64.9778060913086
0.19625496864318848,0.7038617134094238,-66.68395233154297
0.0276611540466547,1.428156852722168,-69.41865539550781
-0.36226019263267517,0.3596239686012268,-72.64373016357422
-2.2568323612213135,-2.7390079498291016,-77.32024383544922
2.1337480545043945,1.802137017250061,-81.97959899902344
0.6826340556144714,-1.9139213562011719,-85.81929779052734
-0.5228503346443176,0.7824596166610718,-88.03995513916016
1.0100964307785034,0.3910174071788788,-91.24394226074219
-0.5275295972824097,1.0750911235809326,-95.74011993408203
0.9249414205551147,-0.33382296562194824,-100.43759155273438
-0.09231583029031754,0.7644789814949036,-104.61434936523438
-3.646210193634033,-2.16656231880188,-107.24917602539062
0.3622349798679352,-3.6274895668029785,-107.58979034423828
-0.45844289660453796,0.18483108282089233,-107.91551971435547
0.28722459077835083,0.2638530135154724,-108.32687377929688
-0.1382187306880951,-0.21659629046916962,-108.77034759521484
-0.02776947245001793,-0.7547797560691833,-109.0781478881836
-0.6398208141326904,0.9051735401153564,-109.58140563964844
-0.9044551253318787,1.0381982326507568,-110.59842681884766
-1.008661150932312,0.41318854689598083,-111.64102172851562
-0.25946953892707825,-0.7856708765029907,-112.36854553222656
-0.03402454033493996,-1.1079620122909546,-112.41818237304688
0.1647663712501526,-0.5686284899711609,-112.64212036132812
0.2829935550689697,0.30385449528694153,-113.10909271240234
-0.9558641314506531,-0.3738451898097992,-113.2723388671875
-0.5212347507476807,0.05133984610438347,-112.8404312133789
0.011777959764003754,-0.5093258023262024,-112.08138275146484
-0.05542738363146782,-0.7576438188552856,-111.64636993408203
0.10352284461259842,-0.07135538011789322,-111.930908203125
0.56050044298172,0.1372288465499878,-112.81745910644531
0.12943556904792786,0.31274646520614624,-113.790283203125
-0.04759194329380989,0.5464126467704773,-114.78693389892578
0.5739402770996094,1.3698718547821045,-115.61292266845703
-0.0514783039689064,0.7291180491447449,-117.0514907836914
-0.1493242233991623,0.27916020154953003,-119.65365600585938
-0.6198408603668213,-0.9965080618858337,-122.23870849609375
-0.799940288066864,-0.3904940187931061,-123.90323638916016
-0.5004317760467529,0.08609694987535477,-124.6604995727539
-0.28539296984672546,0.20553746819496155,-125.05284118652344
-0.3051672875881195,0.45568764209747314,-125.39994049072266
-0.09461164474487305,0.5052372217178345,-125.74994659423828
-0.11143968999385834,-0.27686017751693726,-125.85123443603516
-0.30965930223464966,-0.7320191860198975,-125.60394287109375
-0.1968557983636856,-0.19503533840179443,-125.27662658691406
-0.21733441948890686,0.37668734788894653,-125.02583312988281
-0.2702743113040924,0.2894303798675537,-124.94768524169922
-0.2521257698535919,-0.2869762182235718,-124.97940063476562
-0.24941392242908478,-0.03807656839489937,-124.88056945800781
-0.22346647083759308,0.026487374678254128,-124.497314453125
-0.19629858434200287,0.18695949018001556,-123.94442749023438
-0.11629846692085266,0.19083794951438904,-123.31927490234375
-0.15944749116897583,0.04663366079330444,-122.6717300415039
-0.2972366511821747,-0.1791388988494873,-122.10128784179688
-0.29485800862312317,-0.11325967311859131,-121.57768249511719
-0.2503928542137146,0.2558264136314392,-121.1888427734375
-0.1922730952501297,0.3190743029117584,-120.93191528320312
-0.22293110191822052,0.2159217894077301,-120.67675018310547
-0.20951710641384125,0.024510761722922325,-120.38148498535156
-0.2045915573835373,-0.10502783954143524,-120.05406188964844
-0.29082298278808594,-0.2352134883403778,-119.8052749633789
-0.14969108998775482,-0.31323444843292236,-119.65274047851562
-0.09207488596439362,-0.018508756533265114,-119.52432250976562
0.0036221391055732965,0.08655475825071335,-119.32120513916016
-0.05489204451441765,0.11257362365722656,-119.08200073242188
-0.18070097267627716,0.09929937869310379,-118.84952545166016
-0.18489597737789154,0.23850086331367493,-118.57534790039062
-0.8499647974967957,-1.2249723672866821,-117.45100402832031
0.1848345249891281,0.27191245555877686,-116.82147979736328
0.18579146265983582,-0.0005005502607673407,-116.39279174804688
0.11022454500198364,-0.014413408003747463,-116.1097183227539
-0.3603508472442627,-0.14361567795276642,-115.9080810546875
-0.27578046917915344,-0.31454429030418396,-115.61520385742188
0.18086738884449005,-0.19255094230175018,-115.20191955566406
-0.08518078923225403,-0.05365944653749466,-114.69782257080078
-0.5602315068244934,-0.0038978145457804203,-114.19013214111328
-0.5934326648712158,0.1329873651266098,-113.78128051757812
-0.17712250351905823,0.23911689221858978,-113.52542877197266
0.1940120905637741,0.21667613089084625,-113.42231750488281
0.10115975886583328,0.197769895195961,-113.41212463378906
-0.10567552596330643,0.18380923569202423,-113.39740753173828
-0.21323323249816895,0.045581500977277756,-113.40872955322266
-0.02249481901526451,0.04465070739388466,-113.50807189941406
-0.12845966219902039,0.09735102951526642,-113.5847396850586
-0.05580895021557808,-0.002255804603919387,-113.60188293457031
0.13260850310325623,0.07600221037864685,-113.53278350830078
0.2229529470205307,0.007895581424236298,-113.40032958984375
-0.11360100656747818,-0.024179449304938316,-113.2861557006836
-0.507789134979248,0.11700263619422913,-113.24279022216797
-0.5285962820053101,0.0429910272359848,-113.2454833984375
-0.3966519236564636,0.06268303841352463,-113.29182434082031
-0.13780033588409424,-0.020290659740567207,-113.36197662353516
0.00443147961050272,0.009027226828038692,-113.36022186279297
-0.10951915383338928,-0.09165080636739731,-113.32926177978516
-0.30697667598724365,0.0426851361989975,-113.33141326904297
-0.3266742527484894,-0.03590840473771095,-113.36468505859375
-0.17614606022834778,0.007890566252171993,-113.43141174316406
-0.3363129794597626,-0.11382763832807541,-113.46984100341797
-0.1979668289422989,-0.010115595534443855,-113.44110107421875
-0.2547735273838043,-0.05383767560124397,-113.39984130859375
-0.23053207993507385,-0.056691475212574005,-113.3232421875
-0.3014674484729767,-0.08947279304265976,-113.30142974853516
-0.26847654581069946,0.10149206221103668,-113.35235595703125
-0.07782250642776489,0.019054871052503586,-113.38068389892578
-0.16691255569458008,0.0967845469713211,-113.38404083251953
-0.03014843352138996,0.007014045957475901,-113.36445617675781
0.09661029279232025,-0.057185400277376175,-113.30643463134766
-0.17638583481311798,-0.13029463589191437,-113.28809356689453
-0.2270074337720871,0.12324139475822449,-113.29158782958984
-0.07524777203798294,0.03485846519470215,-113.2953109741211
-0.14672806859016418,-0.001539110206067562,-113.28687286376953
-0.1684877574443817,-0.03604744374752045,-113.28266906738281
-0.5033600926399231,-0.12462274730205536,-113.34217834472656
-0.37843286991119385,0.18009085953235626,-113.31179809570312
-0.3175409734249115,-0.013301675207912922,-113.28148651123047
-0.30148202180862427,-0.05761583521962166,-113.26748657226562
0.04576089605689049,0.12564808130264282,-113.32268524169922
-0.4191790521144867,-0.2628835439682007,-113.34366607666016
-0.09080582857131958,0.1528306007385254,-113.42304229736328
0.024917252361774445,0.026566386222839355,-113.47891235351562
0.1981508582830429,-0.004026976879686117,-113.45330810546875
-0.009419618174433708,0.1168440654873848,-113.42321014404297
-0.2242124378681183,-0.05672207102179527,-113.4354476928711
-0.13759072124958038,0.09150547534227371,-113.45911407470703
-0.10311485081911087,0.13029061257839203,-113.49146270751953
-0.16544513404369354,0.039861299097537994,-113.536376953125
-0.3791421353816986,0.13546492159366608,-113.59040069580078
0.045408863574266434,0.11755035072565079,-113.59761047363281
-0.10738353431224823,0.03809534013271332,-113.56640625
0.0035255816765129566,-0.0034846088383346796,-113.48247528076172
-0.2520362138748169,-0.015553903765976429,-113.33653259277344
-0.3379182517528534,-0.14185461401939392,-113.16220092773438
-0.2622548043727875,0.02862948179244995,-113.02765655517578
-0.44487208127975464,0.21623457968235016,-113.04939270019531
-0.45136305689811707,-0.11701449751853943,-113.11813354492188
0.026291633024811745,-0.10263034701347351,-113.08582305908203
-0.03576983883976936,-0.08595912903547287,-112.970703125
-0.4540053904056549,-0.0721966102719307,-112.86521911621094
-0.29908713698387146,-0.0075195347890257835,-112.77132415771484
-0.14865335822105408,-0.02906232886016369,-112.74443054199219
-0.13029427826404572,-0.12789520621299744,-112.7103271484375
0.11614903807640076,0.024254536256194115,-112.71974182128906
-0.5284958481788635,-0.0982854887843132,-112.76717376708984
-0.5033422708511353,-0.06339164078235626,-112.72962188720703
-0.0470176562666893,0.039940424263477325,-112.71633911132812
0.019160816445946693,-0.1337537318468094,-112.75914001464844
-0.28145235776901245,0.04331954941153526,-112.8132553100586
-0.31286385655403137,0.056461580097675323,-112.90845489501953
0.021613674238324165,0.048181597143411636,-112.97044372558594
0.13886776566505432,0.10868445783853531,-112.98350524902344
-0.20675800740718842,0.03578713536262512,-112.95626068115234
-0.10946633666753769,0.0038292240351438522,-112.93017578125
-0.2706402540206909,0.009868962690234184,-113.00391387939453
-0.17077280580997467,-0.06576453894376755,-113.05291748046875
-0.02771633304655552,-0.05837390199303627,-113.05191040039062
-0.23076221346855164,-0.034035325050354004,-113.01018524169922
-0.2831100523471832,0.02209506556391716,-112.92543029785156
-0.2302762269973755,0.026583094149827957,-112.85590362548828
-0.0987434983253479,0.00021158295567147434,-112.8370590209961
-0.14945679903030396,-0.005278090946376324,-112.83940887451172
-0.04680241271853447,-0.04283608868718147,-112.78861999511719
-0.11930987238883972,0.023525996133685112,-112.73410034179688
-0.17851386964321136,0.05863555148243904,-112.66202545166016
-0.14095816016197205,-0.005653508938848972,-112.60352325439453
-0.26483169198036194,0.02536461316049099,-112.56121826171875
-0.3346191346645355,-0.04852345958352089,-112.52252960205078
-0.24905157089233398,0.051313966512680054,-112.53195190429688
-0.15132050216197968,0.02293720655143261,-112.57502746582031
-0.11720670014619827,0.06078149750828743,-112.60730743408203
-0.09720511734485626,0.07331878691911697,-112.64867401123047
-0.12033280730247498,-0.06902141869068146,-112.69991302490234
-0.2356262356042862,-0.08190576732158661,-112.73722076416016
-0.2342991679906845,-0.03864699602127075,-112.746826171875
-0.2718999981880188,0.03730973228812218,-112.71942901611328
-0.2344304770231247,0.07488922029733658,-112.7198715209961
-0.2821812629699707,0.0393034964799881,-112.73351287841797
-0.19770246744155884,-0.05521726980805397,-112.70429992675781
-0.22918099164962769,-0.008568927645683289,-112.6625747680664
-0.18179696798324585,-0.04968251660466194,-112.63975524902344
-0.161275714635849,-0.10552263259887695,-112.61428833007812
-0.17230185866355896,-0.05328124016523361,-112.58940124511719
-0.1948029100894928,-0.04305635020136833,-112.58009338378906
-0.29605671763420105,0.03215256333351135,-112.55208587646484
-0.37869369983673096,0.12645620107650757,-112.52252960205078
-0.22096164524555206,0.03096090257167816,-112.50357055664062
-0.20813992619514465,0.021510662510991096,-112.49950408935547
-0.17257194221019745,-0.005908970255404711,-112.53512573242188
-0.19649243354797363,0.04259862005710602,-112.6561279296875
-0.14505122601985931,0.08114379644393921,-112.69709777832031
-0.33359676599502563,-0.00615423358976841,-112.66946411132812
0.057746220380067825,-0.14317020773887634,-112.6247329711914
-0.19767460227012634,0.04859523847699165,-112.58158874511719
-0.1081726998090744,0.06803988665342331,-112.55045318603516
-0.06062554195523262,0.048954058438539505,-112.50357818603516
-0.07858050614595413,0.010680203326046467,-112.41163635253906
-0.16186733543872833,0.17840057611465454,-112.33464050292969
-0.33757176995277405,-0.058975499123334885,-112.36058807373047
-0.2279662936925888,-0.00541599839925766,-112.28822326660156
-0.10314600169658661,-0.060599517077207565,-112.2347183227539
-0.08342888951301575,0.15096129477024078,-112.26393127441406
-0.39167389273643494,0.07488449662923813,-112.2666244506836
-0.3247736394405365,0.05169976130127907,-112.19330596923828
-0.2238122969865799,0.017999917268753052,-112.03768157958984
-0.24086527526378632,-0.13451962172985077,-111.84038543701172
-0.1082732081413269,0.01771635003387928,-111.67604064941406
-0.09626742452383041,-0.09052126854658127,-111.62639617919922
-0.23081369698047638,-0.15216314792633057,-111.63765716552734
-0.04602668061852455,-0.02439858950674534,-111.6791000366211
-0.1201200932264328,-0.03195817396044731,-111.78875732421875
-0.24148204922676086,-0.05894197151064873,-111.88516998291016
-0.12951348721981049,0.03671574592590332,-111.96492004394531
-0.09713166207075119,-0.02334180660545826,-111.99169921875
-0.14595122635364532,-0.06017978861927986,-111.96417999267578
-0.13785278797149658,-0.13282480835914612,-111.89859008789062
-0.10254783928394318,-0.1029551774263382,-111.82666015625
0.04770825430750847,-0.03790683299303055,-111.79451751708984
-0.08317552506923676,0.027310460805892944,-111.80018615722656
-0.14366425573825836,0.0674775019288063,-111.81412506103516
-0.248672753572464,0.019114995375275612,-111.8077392578125
-0.24863284826278687,0.027122724801301956,-111.7548599243164
-0.24000044167041779,0.04395852982997894,-111.67571258544922
-0.12060820311307907,0.11098447442054749,-111.6294174194336
-0.13876934349536896,0.06690043210983276,-111.63041687011719
-0.07117834687232971,-0.002618230879306793,-111.62968444824219
-0.11786583811044693,-0.04164222255349159,-111.62142181396484
-0.13113391399383545,-0.008498912677168846,-111.59123992919922
-0.09521355479955673,0.04204435274004936,-111.58633422851562
-0.1257162243127823,0.1052936539053917,-111.57364654541016
-0.07421804964542389,0.027193592861294746,-111.52831268310547
-0.09227003157138824,-0.07235635071992874,-111.48262023925781
-0.10263390839099884,-0.007975109852850437,-111.47457122802734
-0.19888512790203094,0.006477265618741512,-111.45659637451172
-0.2613386809825897,0.0001498374913353473,-111.46187591552734
-0.28138208389282227,0.05519009754061699,-111.44052124023438
-0.20475968718528748,-0.036626480519771576,-111.40634155273438
-0.06187321990728378,0.00804948341101408,-111.44688415527344
-0.10672056674957275,0.00194690958596766,-111.52186584472656
-0.158391535282135,0.06588265299797058,-111.55134582519531
-0.175963893532753,0.025777358561754227,-111.58649444580078
-0.2151775062084198,-0.036426983773708344,-111.59667205810547
-0.1809999793767929,0.006630009040236473,-111.5781021118164
-0.07258259505033493,0.02401752956211567,-111.5838394165039
-0.13935019075870514,0.019563334062695503,-111.64557647705078
-0.11154129356145859,0.03381289914250374,-111.70775604248047
-0.09179607033729553,-0.018720801919698715,-111.73644256591797
-0.12400168925523758,-0.03433653339743614,-111.71597290039062
-0.13987931609153748,-0.06680385768413544,-111.70066833496094
-0.17576538026332855,-0.06754596531391144,-111.72871398925781
-0.13233788311481476,-0.007528027985244989,-111.78927612304688
-0.0925775021314621,-0.06792881339788437,-111.88829803466797
-0.18832403421401978,-0.06587935239076614,-111.99820709228516
-0.2647038400173187,-0.10015703737735748,-112.06995391845703
-0.09276401996612549,-0.057248178869485855,-112.06716918945312
-0.06433552503585815,-0.04392359405755997,-112.07135772705078
-0.15227742493152618,-0.08635714650154114,-112.0873031616211
-0.20477153360843658,0.09254839271306992,-112.17013549804688
-0.3714345097541809,0.049071963876485825,-112.19129943847656
-0.24373090267181396,0.07948216050863266,-112.17591094970703
-0.2538474500179291,0.05512217804789543,-112.19580078125
-0.20662406086921692,-0.0053773862309753895,-112.20277404785156
-0.18635721504688263,0.013087032362818718,-112.1794662475586
-0.0651802197098732,0.1028059720993042,-112.14364624023438
0.06694002449512482,-0.06173029541969299,-112.1639175415039
-0.15752847492694855,-0.0205339677631855,-112.1978988647461
-0.1715666800737381,-0.03458024933934212,-112.2117691040039
-0.20584014058113098,0.052989501506090164,-112.22760772705078
-0.1682078242301941,0.047890737652778625,-112.25749969482422
-0.06885448098182678,-0.022412048652768135,-112.27857208251953
-0.10083533823490143,-0.053707774728536606,-112.24697875976562
-0.20946168899536133,0.04467635601758957,-112.21651458740234
-0.176278218626976,0.02822893112897873,-112.1600570678711
-0.06581377983093262,-0.02185388095676899,-112.1294174194336
-0.05974632501602173,0.0026671101804822683,-112.12361907958984
-0.11764641851186752,-0.017656993120908737,-112.16163635253906
-0.22656482458114624,0.030087554827332497,-112.20494079589844
-0.17844121158123016,0.06316356360912323,-112.20167541503906
-0.12695403397083282,-0.014074540697038174,-112.1988296508789
-0.12084786593914032,-0.037180472165346146,-112.16402435302734
-0.09954144060611725,0.005179367959499359,-112.12744903564453
-0.11996942013502121,0.008893552236258984,-112.11520385742188
-0.13343755900859833,0.04173874109983444,-112.15132141113281
-0.14147838950157166,0.014306281693279743,-112.17387390136719
-0.10392537713050842,0.01409898791462183,-112.19158172607422
-0.261860191822052,0.006823291536420584,-112.19271850585938
-0.1581304967403412,-0.031284648925065994,-112.14862823486328
-0.1364830881357193,0.05163560062646866,-112.08336639404297
-0.14004258811473846,0.001453826087526977,-112.04432678222656
-0.2699359953403473,-0.15554969012737274,-112.02770233154297
-0.3836249113082886,-0.15999549627304077,-111.95722198486328
-0.5849190950393677,0.07461647689342499,-111.84842681884766
-0.22128640115261078,-0.7511438131332397,-111.929443359375
-0.9847399592399597,-0.7552750706672668,-112.36355590820312
0.3713718056678772,-0.5912230610847473,-112.9854736328125
-0.30474787950515747,-2.9232215881347656,-112.38577270507812
