faccX,faccY,yaw,posX,posY,velX,velY
0,0,-83.74263763427734,0.0,0.0,0.0,0.0
0,0,-83.74385070800781,0.0,0.0,0.0,0.0
0,-0.17446450889110565,-83.74067687988281,0.0,-1.211559089521567e-05,0.0,-0.0014538709074258804
0.10302472114562988,-1.6655230522155762,-83.78005981445312,7.154494524002075e-06,-0.0001641236866513888,0.000858539342880249,-0.016787100583314896
0.9614716172218323,-2.7256879806518555,-83.65892791748047,9.538684040307998e-05,-0.0007488539069890976,0.0097293421626091,-0.05338052585721016
0.37018659710884094,-2.555422067642212,-83.50904083251953,0.0003500188079973062,-0.002005273091296355,0.020826493948698045,-0.09738977625966072
-0.7531009912490845,-1.6891456842422485,-83.59408569335938,0.0006705357631047568,-0.003923197678393788,0.017635540664196016,-0.13276117419203123
0.3411310613155365,-1.0041844844818115,-83.49079132080078,0.0009358524179293051,-0.006322920732200146,0.014202457914749783,-0.15520559226473174
-0.22400331497192383,-0.3206627070903778,-83.41344451904297,0.0011806939211156634,-0.009001683880471522,0.015178522467613222,-0.16624598552783332
0.4154951870441437,-1.688854455947876,-83.42621612548828,0.0014469673422475657,-0.011912000108924178,0.016774288068215053,-0.18299196188648542
-0.21940264105796814,-2.053816795349121,-83.31358337402344,0.0017401563479668566,-0.015221773866150114,0.018408392618099848,-0.21418088898062707
1.6530381441116333,-1.3616325855255127,-83.32247924804688,0.0021465209126472476,-0.019028639333943526,0.030355355143547057,-0.24264296715458233
-1.769266963005066,0,-83.44426727294922,0.0026443720526165434,-0.02316724660495917,0.02938678165276845,-0.25398990536729493
1.178742527961731,-1.1030821800231934,-83.4212646484375,0.003093143105506897,-0.02747701462358236,0.024465744694073994,-0.2631822568674882
-0.13748221099376678,-0.7090804576873779,-83.33778381347656,0.0035732152613086833,-0.03198923019899262,0.03314291400214036,-0.27828361218174297
0.15790218114852905,-1.3840280771255493,-83.19927978515625,0.004127015214827326,-0.03677264516138368,0.03331308042009671,-0.295726183305184
0.1440921574831009,-0.9688900113105774,-83.17256164550781,0.004703205050900578,-0.04186481197261147,0.03582969990869363,-0.31533383404215176
0.8866807818412781,-1.0009626150131226,-83.078125,0.00537194817016522,-0.04725717119458648,0.04441947440306345,-0.33174927259484926
0,-0.7873530387878418,-83.00922393798828,0.006173847797844145,-0.05291051432490348,0.05180848091840744,-0.34665190304319066
0.7662718296051025,-0.7455764412879944,-82.97285461425781,0.007090535801317957,-0.05879449947840637,0.05819407949844996,-0.35942631537715597
-0.5769773721694946,-1.0544158220291138,-83.04315185546875,0.00807358257472515,-0.064909937530756,0.059771533310413356,-0.37442625090479853
-0.10456116497516632,-0.9358434677124023,-83.10140991210938,0.009022445731485883,-0.07128858749651247,0.054092045500874514,-0.39101174498597785
-0.7195538878440857,0.10160171240568161,-83.12557983398438,0.009866749611165787,-0.07786338336817507,0.04722442006071408,-0.39796375961353386
-0.16149413585662842,0,-83.15692901611328,0.010592639388309583,-0.08448905702059469,0.039882353196541466,-0.39711707867681983
0,-0.7299307584762573,-83.1872787475586,0.011246130404373009,-0.09115836463454698,0.03853656873106956,-0.4031998349974553
0.5899826884269714,-0.18942449986934662,-83.21932983398438,0.011929377569920485,-0.09794220599966745,0.043453091134627655,-0.41086112881700204
0.7870030403137207,-0.7244865894317627,-83.2962875366211,0.01274921976443794,-0.10485335752781895,0.05492797220746676,-0.41847705456117795
1.5566949844360352,-0.7643922567367554,-83.24687957763672,0.013827442775170007,-0.11193136946815584,0.0744587890803814,-0.4308843782792489
-1.191981554031372,0.18955127894878387,-83.242431640625,0.015093749914732243,-0.11915269528515637,0.07749806766708692,-0.43567471976081534
0.361644446849823,-0.6662849187850952,-83.18135833740234,0.01632772207674053,-0.1264470471172697,0.07057859177390734,-0.4396475000927846
-0.9561193585395813,0.202332004904747,-83.15886688232422,0.017462748959660532,-0.13380672440450225,0.06562463417649268,-0.4435137743751208
-0.5203923583030701,-0.39286696910858154,-83.09416961669922,0.018453957326710225,-0.141211852238824,0.053320369869470585,-0.4451015657434861
0.6367814540863037,-0.5550087094306946,-82.99095153808594,0.019350712733964125,-0.14869603636778064,0.05429027900099753,-0.4530005297313134
0.29682543873786926,-0.5547016859054565,-82.88262176513672,0.02032038452931576,-0.15632310841853422,0.06207033644119897,-0.46224811635911467
0.4801097512245178,-0.2521308660507202,-82.84097290039062,0.021408843969305355,-0.16408327372951642,0.0685447963575522,-0.46897172095874945
-0.48529675602912903,0,-82.80579376220703,0.02255089703326424,-0.1719169781667491,0.06850157131751378,-0.47107281150917213
0.27072662115097046,-0.6186625361442566,-82.77633666992188,0.02367768918474515,-0.1798111543680231,0.06671348686019579,-0.4762283326437076
-0.2635456323623657,0.16132676601409912,-82.8392333984375,0.024790079312192067,-0.1877800526738995,0.06677332843343417,-0.4800394640614589
0.4481208324432373,-0.5092223286628723,-82.83989715576172,0.025915785841643807,-0.19580486982232997,0.06831145510077477,-0.4829385937501987
-0.21629609167575836,-0.5470556616783142,-82.98780059814453,0.02707040903365446,-0.20392719902305143,0.07024332794050377,-0.49174091033637524
-1.3170883655548096,-0.30640503764152527,-83.02830505371094,0.028134646134244067,-0.21218214896611046,0.05746512413024903,-0.49885308283070723
0.27996405959129333,-0.14124462008476257,-83.00247955322266,0.029020375681834083,-0.22052745379507546,0.04882242158055307,-0.5025834966450929
-0.2019895613193512,0.43932536244392395,-82.99998474121094,0.029839497603889965,-0.2288831453542743,0.049472209066152587,-0.5000994904587666
-0.11679182946681976,-0.41525450348854065,-82.89405822753906,0.030641896825076804,-0.23721646527449294,0.04681569747626783,-0.4998988999674717
1.2215477228164673,0,-82.80001831054688,0.03149887760894166,-0.24557695072558194,0.05602199658751489,-0.5033593541632095
-0.9075577855110168,0.27098268270492554,-82.8517837524414,0.032454382408824235,-0.2539474550531143,0.05863857939839364,-0.5011011651406685
2.3561325073242188,-0.8477127552032471,-83.02359771728516,0.03353228753225671,-0.26233919183827115,0.07071003541350365,-0.5059072490781545
-0.5781439542770386,0.27275094389915466,-83.1082763671875,0.03483425954977672,-0.27081090722646983,0.08552660668889682,-0.5106985975056887
-1.179964303970337,-0.6948875784873962,-83.09325408935547,0.036137612143324484,-0.27935186556229996,0.07087570453683535,-0.514216402793924
-0.9660160541534424,0.6600427627563477,-83.08970642089844,0.03716984747184648,-0.2879245587210689,0.052992534885803855,-0.5145067762583494
1.0801973342895508,0.16165776550769806,-83.07723236083984,0.03806098564217488,-0.2964426091220231,0.053944045553604755,-0.507659271856149
0.8294203281402588,-0.7447405457496643,-83.08333587646484,0.03909266540573703,-0.30494408884603125,0.06985752607385318,-0.512518295024832
1.2409337759017944,-0.8112758994102478,-83.05842590332031,0.0404007320975264,-0.313594117127359,0.08711047694087029,-0.525485098734498
-0.8885300755500793,0.943466305732727,-82.95708465576172,0.04187704585906533,-0.3223430222169394,0.09004717444380125,-0.524383512015144
-0.851871132850647,-0.8446164727210999,-82.84428405761719,0.04325697090476752,-0.33107588284545486,0.07554383104046186,-0.5235597634067137
-1.3614329099655151,0.617501974105835,-82.87818908691406,0.04436233308580187,-0.33981765074241504,0.057099630683660516,-0.5254523842285076
1.2594586610794067,0.6107028722763062,-82.84452056884766,0.045306912052134676,-0.3484898984763359,0.05624984527627628,-0.5152173438419898
0.2232058346271515,-0.6963816285133362,-82.70612335205078,0.04634737228560779,-0.3570828041206633,0.0686053827404976,-0.5159313334772984
0.7106179594993591,-0.11931703984737396,-82.75269317626953,0.047555644205874874,-0.36573830541947666,0.07638724769155185,-0.5227288223803043
-0.6716473698616028,0.31816184520721436,-82.7735366821289,0.04883147129168114,-0.3744366437921095,0.07671200260519982,-0.5210717823356389
-0.3150678277015686,0,-82.79457092285156,0.050041482779714805,-0.38309907892511963,0.06848937595884005,-0.5184204336255788
-0.16170631349086761,-0.48776137828826904,-82.8718032836914,0.05114986306366822,-0.39177329180348264,0.06451625811556976,-0.522485111777981
1.3435699939727783,-0.14782968163490295,-83.00332641601562,0.052307207898961185,-0.40052551526783253,0.07436512211958568,-0.5277817039440074
-2.669259548187256,-0.2888604998588562,-83.12736511230469,0.052307207898961185,-0.40052551526783253,0.07436512211958568,-0.5277817039440074
1.1999731063842773,0.004914713092148304,-83.02745056152344,0.052307207898961185,-0.40052551526783253,0.07436512211958568,-0.5277817039440074
-0.27093878388404846,1.2479937076568604,-82.95421600341797,0.052307207898961185,-0.40052551526783253,0.07436512211958568,-0.5277817039440074
-0.8912272453308105,1.9065842628479004,-83.11100769042969,0.052307207898961185,-0.40052551526783253,0.07436512211958568,-0.5277817039440074
0.38305532932281494,3.5526442527770996,-83.75543212890625,0.052307207898961185,-0.40052551526783253,0.07436512211958568,-0.5277817039440074
-1.36514413356781,2.0113065242767334,-84.70477294921875,0.052307207898961185,-0.40052551526783253,0.07436512211958568,-0.5277817039440074
0.2644784450531006,2.8359897136688232,-85.89508819580078,0.052307207898961185,-0.40052551526783253,0.07436512211958568,-0.5277817039440074
-0.629275381565094,2.2892966270446777,-87.38861083984375,0.052307207898961185,-0.40052551526783253,0.07436512211958568,-0.5277817039440074
-1.234740138053894,2.0559632778167725,-89.05479431152344,0.052307207898961185,-0.40052551526783253,0.07436512211958568,-0.5277817039440074
0.4364614188671112,1.7734110355377197,-90.79155731201172,0.052307207898961185,-0.40052551526783253,0.07436512211958568,-0.5277817039440074
-0.7342334389686584,0.62470543384552,-92.58729553222656,0.052307207898961185,-0.40052551526783253,0.07436512211958568,-0.5277817039440074
0.19416147470474243,1.4087518453598022,-94.51014709472656,0.052307207898961185,-0.40052551526783253,0.07436512211958568,-0.5277817039440074
-0.3302637040615082,1.7146785259246826,-96.48295593261719,0.052307207898961185,-0.40052551526783253,0.07436512211958568,-0.5277817039440074
-1.3292096853256226,1.1709755659103394,-98.50944519042969,0.052307207898961185,-0.40052551526783253,0.07436512211958568,-0.5277817039440074
0.7322243452072144,0.7699801921844482,-100.58570098876953,0.052307207898961185,-0.40052551526783253,0.07436512211958568,-0.5277817039440074
-0.8247459530830383,0.9269431233406067,-102.7001953125,0.052307207898961185,-0.40052551526783253,0.07436512211958568,-0.5277817039440074
0.01540349517017603,1.6777772903442383,-104.86761474609375,0.052307207898961185,-0.40052551526783253,0.07436512211958568,-0.5277817039440074
0.264835923910141,1.8397393226623535,-107.05970001220703,0.052307207898961185,-0.40052551526783253,0.07436512211958568,-0.5277817039440074
-1.2304567098617554,0.750845730304718,-109.26897430419922,0.052307207898961185,-0.40052551526783253,0.07436512211958568,-0.5277817039440074
0.5093744993209839,0.7329472899436951,-111.4813232421875,0.052307207898961185,-0.40052551526783253,0.07436512211958568,-0.5277817039440074
-0.6520732045173645,0.6564794778823853,-113.68146514892578,0.052307207898961185,-0.40052551526783253,0.07436512211958568,-0.5277817039440074
-0.8756397366523743,0.6599742770195007,-115.8877944946289,0.052307207898961185,-0.40052551526783253,0.07436512211958568,-0.5277817039440074
0.47525376081466675,0.8076775074005127,-118.08253479003906,0.052307207898961185,-0.40052551526783253,0.07436512211958568,-0.5277817039440074
-0.7473844289779663,1.2343779802322388,-120.14774322509766,0.052307207898961185,-0.40052551526783253,0.07436512211958568,-0.5277817039440074
0.47759073972702026,0.2896212041378021,-122.17401123046875,0.052307207898961185,-0.40052551526783253,0.07436512211958568,-0.5277817039440074
0.46573859453201294,1.0277867317199707,-124.11160278320312,0.052307207898961185,-0.40052551526783253,0.07436512211958568,-0.5277817039440074
0.2295643836259842,0.18520908057689667,-126.05967712402344,0.052307207898961185,-0.40052551526783253,0.07436512211958568,-0.5277817039440074
-0.9451981782913208,0.40687865018844604,-127.94862365722656,0.052307207898961185,-0.40052551526783253,0.07436512211958568,-0.5277817039440074
1.1214014291763306,0.32356980443000793,-129.89990234375,0.052307207898961185,-0.40052551526783253,0.07436512211958568,-0.5277817039440074
0.15046928822994232,0.7246266007423401,-131.89801025390625,0.052307207898961185,-0.40052551526783253,0.07436512211958568,-0.5277817039440074
-1.9659109115600586,0.47106602787971497,-133.9098358154297,0.052307207898961185,-0.40052551526783253,0.07436512211958568,-0.5277817039440074
0.1404639482498169,-0.06446859240531921,-135.9156036376953,0.052307207898961185,-0.40052551526783253,0.07436512211958568,-0.5277817039440074
-0.16602124273777008,0.8093867897987366,-137.91213989257812,0.052307207898961185,-0.40052551526783253,0.07436512211958568,-0.5277817039440074
0.7944294214248657,0.8485656380653381,-140.08706665039062,0.052307207898961185,-0.40052551526783253,0.07436512211958568,-0.5277817039440074
-1.0350896120071411,0.8541455268859863,-142.3763427734375,0.052307207898961185,-0.40052551526783253,0.07436512211958568,-0.5277817039440074
1.283713459968567,0.6375083327293396,-144.71116638183594,0.052307207898961185,-0.40052551526783253,0.07436512211958568,-0.5277817039440074
0.3736984431743622,0.44809845089912415,-147.10813903808594,0.052307207898961185,-0.40052551526783253,0.07436512211958568,-0.5277817039440074
-0.19067545235157013,1.3929294347763062,-149.45504760742188,0.052307207898961185,-0.40052551526783253,0.07436512211958568,-0.5277817039440074
-0.4695132076740265,0.5431808829307556,-151.8748779296875,0.052307207898961185,-0.40052551526783253,0.07436512211958568,-0.5277817039440074
0.5198105573654175,-0.025960249826312065,-154.27310180664062,0.052307207898961185,-0.40052551526783253,0.07436512211958568,-0.5277817039440074
0.1119115799665451,-0.586007297039032,-156.76292419433594,0.052307207898961185,-0.40052551526783253,0.07436512211958568,-0.5277817039440074
0.45600947737693787,1.7744946479797363,-159.1524200439453,0.052307207898961185,-0.40052551526783253,0.07436512211958568,-0.5277817039440074
-0.32731953263282776,0.9931125640869141,-161.54469299316406,0.052307207898961185,-0.40052551526783253,0.07436512211958568,-0.5277817039440074
0.7226687669754028,-0.7889912724494934,-163.8304901123047,0.052307207898961185,-0.40052551526783253,0.07436512211958568,-0.5277817039440074
-0.805859386920929,0.47300565242767334,-166.2432861328125,0.052307207898961185,-0.40052551526783253,0.07436512211958568,-0.5277817039440074
0.5206910967826843,0.11418085545301437,-168.66433715820312,0.052307207898961185,-0.40052551526783253,0.07436512211958568,-0.5277817039440074
1.1538212299346924,-0.18945685029029846,-171.19720458984375,0.052307207898961185,-0.40052551526783253,0.07436512211958568,-0.5277817039440074
0.15757840871810913,0.8257409930229187,-173.60128784179688,0.052307207898961185,-0.40052551526783253,0.07436512211958568,-0.5277817039440074
2.1283040046691895,-1.4205796718597412,-176.0423583984375,0.052307207898961185,-0.40052551526783253,0.07436512211958568,-0.5277817039440074
-0.809751570224762,1.246506690979004,-178.5366973876953,0.052307207898961185,-0.40052551526783253,0.07436512211958568,-0.5277817039440074
0.9902958273887634,-0.9170968532562256,178.87623596191406,0.052307207898961185,-0.40052551526783253,0.07436512211958568,-0.5277817039440074
0.397311806678772,-0.674671471118927,176.48089599609375,0.052307207898961185,-0.40052551526783253,0.07436512211958568,-0.5277817039440074
-0.3774590790271759,0.9622436165809631,174.47445678710938,0.052307207898961185,-0.40052551526783253,0.07436512211958568,-0.5277817039440074
0.25562572479248047,-2.494635581970215,172.94482421875,0.052307207898961185,-0.40052551526783253,0.07436512211958568,-0.5277817039440074
-0.9079145789146423,-1.0340114831924438,171.84193420410156,0.052307207898961185,-0.40052551526783253,0.07436512211958568,-0.5277817039440074
-0.7136437296867371,-0.6036885976791382,171.16868591308594,0.052307207898961185,-0.40052551526783253,0.07436512211958568,-0.5277817039440074
-1.3177282810211182,-1.0603886842727661,170.90731811523438,0.052307207898961185,-0.40052551526783253,0.07436512211958568,-0.5277817039440074
-0.9101395606994629,-0.7757765650749207,170.90708923339844,0.052307207898961185,-0.40052551526783253,0.07436512211958568,-0.5277817039440074
0.13350145518779755,0.71173495054245,171.00384521484375,0.052307207898961185,-0.40052551526783253,0.07436512211958568,-0.5277817039440074
0.8428851366043091,-0.07894695550203323,170.9960479736328,0.052307207898961185,-0.40052551526783253,0.07436512211958568,-0.5277817039440074
0.5526277422904968,0.09780699014663696,170.9653778076172,0.052307207898961185,-0.40052551526783253,0.07436512211958568,-0.5277817039440074
0.40219804644584656,0.11986555904150009,170.99668884277344,0.052307207898961185,-0.40052551526783253,0.07436512211958568,-0.5277817039440074
-0.07298967242240906,0.1927085965871811,171.00515747070312,0.052307207898961185,-0.40052551526783253,0.07436512211958568,-0.5277817039440074
-0.381125807762146,0.24129684269428253,171.003662109375,0.052307207898961185,-0.40052551526783253,0.07436512211958568,-0.5277817039440074
-0.3924017548561096,0.24561472237110138,171.01039123535156,0.052307207898961185,-0.40052551526783253,0.07436512211958568,-0.5277817039440074
-0.02239524945616722,0.19375067949295044,171.00927734375,0.052307207898961185,-0.40052551526783253,0.07436512211958568,-0.5277817039440074
0.30692562460899353,0.1450626105070114,171.00645446777344,0.052307207898961185,-0.40052551526783253,0.07436512211958568,-0.5277817039440074
0.2689519226551056,0.13126538693904877,171.008544921875,0.052307207898961185,-0.40052551526783253,0.07436512211958568,-0.5277817039440074
-0.03266826272010803,0.20146328210830688,171.01010131835938,0.052307207898961185,-0.40052551526783253,0.07436512211958568,-0.5277817039440074
-0.188979834318161,0.20683391392230988,171.0120391845703,0.052307207898961185,-0.40052551526783253,0.07436512211958568,-0.5277817039440074
-0.08757731318473816,0.1902596354484558,171.0123748779297,0.052307207898961185,-0.40052551526783253,0.07436512211958568,-0.5277817039440074
0.1063167005777359,0.16183602809906006,171.0123291015625,0.052307207898961185,-0.40052551526783253,0.07436512211958568,-0.5277817039440074
0.14159271121025085,0.16791442036628723,171.01220703125,0.052307207898961185,-0.40052551526783253,0.07436512211958568,-0.5277817039440074
0.0005879803211428225,0.19199824333190918,171.0145721435547,0.052307207898961185,-0.40052551526783253,0.07436512211958568,-0.5277817039440074
-0.07117974758148193,0.18230950832366943,171.0162353515625,0.052307207898961185,-0.40052551526783253,0.07436512211958568,-0.5277817039440074
-0.009339828975498676,0.17271067202091217,171.01670837402344,0.052307207898961185,-0.40052551526783253,0.07436512211958568,-0.5277817039440074
0.08262660354375839,0.1718176007270813,171.01724243164062,0.052307207898961185,-0.40052551526783253,0.07436512211958568,-0.5277817039440074
0.055516403168439865,0.17353859543800354,171.0177764892578,0.052307207898961185,-0.40052551526783253,0.07436512211958568,-0.5277817039440074
-0.025479627773165703,0.1841997653245926,171.01841735839844,0.052307207898961185,-0.40052551526783253,0.07436512211958568,-0.5277817039440074
-0.024971971288323402,0.1801154464483261,171.01919555664062,0.052307207898961185,-0.40052551526783253,0.07436512211958568,-0.5277817039440074
0.0280968826264143,0.1720699667930603,171.02024841308594,0.052307207898961185,-0.40052551526783253,0.07436512211958568,-0.5277817039440074
0.04525080695748329,0.17075297236442566,171.0199737548828,0.052307207898961185,-0.40052551526783253,0.07436512211958568,-0.5277817039440074
-0.004999344237148762,0.1649554818868637,171.02037048339844,0.052307207898961185,-0.40052551526783253,0.07436512211958568,-0.5277817039440074
-0.014943735674023628,0.18979065120220184,171.02056884765625,0.052307207898961185,-0.40052551526783253,0.07436512211958568,-0.5277817039440074
0.006775143090635538,0.1719025820493698,171.0200958251953,0.052307207898961185,-0.40052551526783253,0.07436512211958568,-0.5277817039440074
0.03190168738365173,0.17930878698825836,171.02197265625,0.052307207898961185,-0.40052551526783253,0.07436512211958568,-0.5277817039440074
0.020093122497200966,0.169903963804245,171.0210418701172,0.052307207898961185,-0.40052551526783253,0.07436512211958568,-0.5277817039440074
-0.004149521701037884,0.18228812515735626,171.02114868164062,0.052307207898961185,-0.40052551526783253,0.07436512211958568,-0.5277817039440074
0.0034086608793586493,0.17973017692565918,171.02169799804688,0.052307207898961185,-0.40052551526783253,0.07436512211958568,-0.5277817039440074
0.02419915422797203,0.16764654219150543,171.02174377441406,0.052307207898961185,-0.40052551526783253,0.07436512211958568,-0.5277817039440074
0.023974912241101265,0.17069223523139954,171.02166748046875,0.052307207898961185,-0.40052551526783253,0.07436512211958568,-0.5277817039440074
0.011972112581133842,0.19015774130821228,171.02296447753906,0.052307207898961185,-0.40052551526783253,0.07436512211958568,-0.5277817039440074
0.0130650969222188,0.17837630212306976,171.0237579345703,0.052307207898961185,-0.40052551526783253,0.07436512211958568,-0.5277817039440074
0.02527143619954586,0.1669607311487198,171.02496337890625,0.052307207898961185,-0.40052551526783253,0.07436512211958568,-0.5277817039440074
0.024728447198867798,0.18676017224788666,171.02532958984375,0.052307207898961185,-0.40052551526783253,0.07436512211958568,-0.5277817039440074
0.0030781247187405825,0.18697291612625122,171.0249481201172,0.052307207898961185,-0.40052551526783253,0.07436512211958568,-0.5277817039440074
9.145696253654023e-07,0.1749681979417801,171.02528381347656,0.052307207898961185,-0.40052551526783253,0.07436512211958568,-0.5277817039440074
0.013520481996238232,0.17069001495838165,171.0249786376953,0.052307207898961185,-0.40052551526783253,0.07436512211958568,-0.5277817039440074
0,0.16285236179828644,171.02537536621094,0.05354756552331513,-0.4092987143351801,0.07447779280288766,-0.5250021841377018
-0.4761314392089844,0.3116225302219391,171.00796508789062,0.05475579738675153,-0.41801580109219594,0.07051003080947946,-0.5210482267041999
-1.4889642000198364,0.42832234501838684,170.9869384765625,0.05579449959196307,-0.42664855314315203,0.05413423381590595,-0.5148820194105306
-2.780271530151367,0.7684887051582336,171.031005859375,0.05640026211874406,-0.43514680825484303,0.01855726939781259,-0.5049085939923921
-3.1293182373046875,0.1536986529827118,171.24122619628906,0.05629916176374538,-0.4434979106992898,-0.030689311997654532,-0.4972236993412175
-1.1787407398223877,0.14463965594768524,171.2813720703125,0.055488502468150645,-0.4517642544168566,-0.06658980347371349,-0.49473754676679754
-1.0138384103775024,1.0880305767059326,171.30465698242188,0.054226409969269314,-0.45992427809681335,-0.0848612963920459,-0.48446529482801737
-1.737887978553772,-0.21512925624847412,171.2824249267578,0.05262096291905943,-0.4679380815300263,-0.10779234963313986,-0.47719111715753854
-2.1462414264678955,0.330258309841156,171.22549438476562,0.050554692549825045,-0.47588327174281914,-0.14016009467498708,-0.47623170837759954
-0.8897194266319275,1.4716134071350098,171.24916076660156,0.048007860357109994,-0.4836953369021002,-0.16545976845081894,-0.4612161107361315
-0.6596969366073608,-0.3095940053462982,171.1787567138672,0.04514259919103806,-0.49130157628924487,-0.17837157147781302,-0.45153261572122555
-0.27678319811820984,-0.42285504937171936,171.14559936523438,0.042104706323718565,-0.49887798440228737,-0.1861755726005261,-0.4576363578438757
-2.1711535453796387,0.5316334366798401,171.1653289794922,0.03883178450652244,-0.5064977029783444,-0.20657504546300817,-0.45672987128297465
-0.6325863599777222,1.2497377395629883,171.28973388671875,0.03519416292204471,-0.5139861611680437,-0.2299395446743195,-0.4418851114809511
-0.9276219010353088,-0.5315871238708496,171.27903747558594,0.031253489381569036,-0.5213010414555255,-0.24294128018276143,-0.43590052301684995
-0.840253472328186,0.751674473285675,171.365478515625,0.027081698922039436,-0.5285507663287636,-0.2576735749607906,-0.4340664617717264
-0.624243438243866,-0.4049546718597412,171.46847534179688,0.02268543816501431,-0.5357611295943044,-0.26987771588222437,-0.431177130093177
-1.5384845733642578,0.2978065013885498,171.52993774414062,0.01803728678839334,-0.542954855941029,-0.2879004493122921,-0.43207003151377027
0,1.2899011373519897,171.60598754882812,0.013132106760038176,-0.5500457656580127,-0.30072115409032757,-0.4188391345242658
-1.3598105907440186,-0.25323787331581116,171.57962036132812,0.008025656234175494,-0.5569544273956368,-0.3120529090131944,-0.41020027399063097
0.17716699838638306,0.09208158403635025,171.49246215820312,0.002742646390041863,-0.5638022900377917,-0.32190827228284136,-0.4115432430679598
-1.5851988792419434,0,171.4479217529297,-0.0027202714730649065,-0.5706549495344774,-0.333641871289971,-0.41077589653432356
-0.9707091450691223,0.19076402485370636,171.42852783203125,-0.008458462940697136,-0.5774879669749902,-0.3549411048258966,-0.4091861963272093
-1.248008131980896,-0.2682301700115204,171.46792602539062,-0.014528225609812775,-0.5843131165071908,-0.37343041546798006,-0.40983174753685775
0.9118273258209229,0,171.5778045654297,-0.02077541175692911,-0.5911622727279447,-0.37623192218597984,-0.4120669989536204
-0.8097973465919495,0,171.67330932617188,-0.027038858378137874,-0.5980300560438384,-0.3753816723590717,-0.4120669989536204
0.6432920098304749,0.08272920548915863,171.7147216796875,-0.033306782454730836,-0.6048920942760175,-0.37676921683208403,-0.41137758890787746
-0.9998342394828796,0.11609306931495667,171.5901641845703,-0.03961102927899143,-0.6117345803220652,-0.3797404020791874,-0.40972073661784314
-1.026982069015503,2.7091009616851807,171.52012634277344,-0.046080787112845835,-0.6183670652357653,-0.3966305379833406,-0.38617745302617534
-0.6458346247673035,0.122041255235672,171.54913330078125,-0.05280746390519198,-0.6246067490211377,-0.4105706770981973,-0.36258460121850156
0.2676790654659271,-0.18241967260837555,171.60494995117188,-0.05967656932622453,-0.6306540186537636,-0.41372197342570877,-0.3630877546966074
0.47846150398254395,0.3764388859272003,171.62762451171875,-0.06652012023266353,-0.6366920076755599,-0.4075041353469715,-0.3614709279189505
-0.07102528214454651,-0.5578914880752563,171.52073669433594,-0.07328356163970763,-0.6427291240160249,-0.4041088334983215,-0.36298303293685097
-0.41672560572624207,-0.4317930340766907,171.43405151367188,-0.08005258045411513,-0.6488475693234552,-0.40817342423057806,-0.37123040395478385
-0.40798839926719666,0.7912188768386841,171.50306701660156,-0.08691274266386043,-0.6550097825947321,-0.4150460409388567,-0.3682351885984339
0.138860821723938,0.5453360080718994,171.5901641845703,-0.09384886609461521,-0.6610542194265872,-0.4172887707517172,-0.357097231224179
-0.4631074070930481,0.5053273439407349,171.52902221679688,-0.10082619606446112,-0.6669328772142115,-0.4199908256297931,-0.3483417032907404
-1.3140156269073486,-1.0081899166107178,171.43508911132812,-0.10794945448009659,-0.6727734932810481,-0.4348001842464631,-0.3525322247296569
0.4126095175743103,1.772139310836792,171.4099578857422,-0.1152587218640191,-0.67859597831861,-0.4423119018242384,-0.34616597977777297
-0.5965434312820435,-1.1067914962768555,171.50177001953125,-0.122643360082875,-0.6843192066055618,-0.44384468443846953,-0.3406214146564402
1.5330249071121216,1.8238060474395752,171.5752716064453,-0.1299757380543613,-0.689946437506005,-0.43604067213988557,-0.33464629339675084
-1.2248412370681763,-1.0450538396835327,171.72158813476562,-0.13722168094627302,-0.6954697957148567,-0.43347247488951934,-0.3281566916654505
0.28128230571746826,-0.08066214621067047,171.8439483642578,-0.1445117471202199,-0.7010172486305235,-0.44133546598410855,-0.3375376582145688
0.9179641008377075,1.388350009918213,171.8033905029297,-0.15178405721949983,-0.7065520646102311,-0.4313417459294821,-0.3266402593503393
-0.31738120317459106,-1.2311129570007324,171.7672119140625,-0.1589313791726535,-0.7119851496929508,-0.4263368884489561,-0.325329950576027
-0.5707091093063354,0.4787270426750183,171.67820739746094,-0.1660986669185028,-0.7174595645577128,-0.43373764105296386,-0.3315998331954079
-1.5882738828659058,-0.3792226314544678,171.6486053466797,-0.1734775569771753,-0.7229793184157459,-0.45172916598773255,-0.33077062976857
-0.4800480604171753,-0.44189485907554626,171.8440704345703,-0.1811500098785877,-0.7285491842931756,-0.4689651821817582,-0.3376132755229868
1.3381327390670776,0.9328413605690002,172.0343780517578,-0.1811500098785877,-0.7285491842931756,-0.4689651821817582,-0.3376132755229868
0.3531106412410736,-0.9780437350273132,172.16319274902344,-0.1811500098785877,-0.7285491842931756,-0.4689651821817582,-0.3376132755229868
0.5566688776016235,0.3422287702560425,172.13607788085938,-0.1811500098785877,-0.7285491842931756,-0.4689651821817582,-0.3376132755229868
0.0722862109541893,1.961046576499939,171.95022583007812,-0.1811500098785877,-0.7285491842931756,-0.4689651821817582,-0.3376132755229868
0.32198628783226013,0.293303906917572,171.8776397705078,-0.1811500098785877,-0.7285491842931756,-0.4689651821817582,-0.3376132755229868
3.183866500854492,-0.5904731750488281,171.63209533691406,-0.1811500098785877,-0.7285491842931756,-0.4689651821817582,-0.3376132755229868
2.243819236755371,0.8070687651634216,170.97079467773438,-0.1811500098785877,-0.7285491842931756,-0.4689651821817582,-0.3376132755229868
1.518478274345398,0.11092306673526764,170.17840576171875,-0.1811500098785877,-0.7285491842931756,-0.4689651821817582,-0.3376132755229868
3.0370137691497803,0.5537810325622559,169.14007568359375,-0.1811500098785877,-0.7285491842931756,-0.4689651821817582,-0.3376132755229868
1.0879909992218018,0.3769161105155945,167.88706970214844,-0.1811500098785877,-0.7285491842931756,-0.4689651821817582,-0.3376132755229868
3.1045632362365723,-0.34289059042930603,166.4473876953125,-0.1811500098785877,-0.7285491842931756,-0.4689651821817582,-0.3376132755229868
0.8787408471107483,0.36828723549842834,164.81309509277344,-0.1811500098785877,-0.7285491842931756,-0.4689651821817582,-0.3376132755229868
2.8182003498077393,-1.1930419206619263,163.17474365234375,-0.1811500098785877,-0.7285491842931756,-0.4689651821817582,-0.3376132755229868
0.34107640385627747,1.55692720413208,161.3983612060547,-0.1811500098785877,-0.7285491842931756,-0.4689651821817582,-0.3376132755229868
1.358466386795044,-0.5713765025138855,159.63963317871094,-0.1811500098785877,-0.7285491842931756,-0.4689651821817582,-0.3376132755229868
1.57424795627594,0.4638429582118988,157.74468994140625,-0.1811500098785877,-0.7285491842931756,-0.4689651821817582,-0.3376132755229868
1.9621552228927612,-1.0826653242111206,155.7925567626953,-0.1811500098785877,-0.7285491842931756,-0.4689651821817582,-0.3376132755229868
0.8778200745582581,0.27114149928092957,153.85073852539062,-0.1811500098785877,-0.7285491842931756,-0.4689651821817582,-0.3376132755229868
1.1421061754226685,-0.40270504355430603,151.9464874267578,-0.1811500098785877,-0.7285491842931756,-0.4689651821817582,-0.3376132755229868
0.4493958055973053,0.22391612827777863,150.09580993652344,-0.1811500098785877,-0.7285491842931756,-0.4689651821817582,-0.3376132755229868
1.2675654888153076,-1.4850307703018188,148.2274169921875,-0.1811500098785877,-0.7285491842931756,-0.4689651821817582,-0.3376132755229868
0.6667548418045044,1.0650084018707275,146.38925170898438,-0.1811500098785877,-0.7285491842931756,-0.4689651821817582,-0.3376132755229868
0.9796891212463379,-0.7301170229911804,144.5142822265625,-0.1811500098785877,-0.7285491842931756,-0.4689651821817582,-0.3376132755229868
0.0614423006772995,1.2484824657440186,142.80630493164062,-0.1811500098785877,-0.7285491842931756,-0.4689651821817582,-0.3376132755229868
0.6506146788597107,-0.5636657476425171,141.26173400878906,-0.1811500098785877,-0.7285491842931756,-0.4689651821817582,-0.3376132755229868
0.9313021302223206,0.5440954566001892,139.76736450195312,-0.1811500098785877,-0.7285491842931756,-0.4689651821817582,-0.3376132755229868
0.8220995664596558,-1.3409450054168701,138.4293670654297,-0.1811500098785877,-0.7285491842931756,-0.4689651821817582,-0.3376132755229868
0.28002235293388367,1.1286896467208862,137.20236206054688,-0.1811500098785877,-0.7285491842931756,-0.4689651821817582,-0.3376132755229868
0.7302256226539612,1.3521687984466553,136.08035278320312,-0.1811500098785877,-0.7285491842931756,-0.4689651821817582,-0.3376132755229868
0.9780381321907043,-0.3187722861766815,134.9644317626953,-0.1811500098785877,-0.7285491842931756,-0.4689651821817582,-0.3376132755229868
1.0085574388504028,0.12902286648750305,133.8865966796875,-0.1811500098785877,-0.7285491842931756,-0.4689651821817582,-0.3376132755229868
0.3114250600337982,-1.0912740230560303,132.89468383789062,-0.1811500098785877,-0.7285491842931756,-0.4689651821817582,-0.3376132755229868
0.253266841173172,0.6511973142623901,131.98475646972656,-0.1811500098785877,-0.7285491842931756,-0.4689651821817582,-0.3376132755229868
0.34899550676345825,0.3800659477710724,130.8802490234375,-0.1811500098785877,-0.7285491842931756,-0.4689651821817582,-0.3376132755229868
0.9136679172515869,0.5854788422584534,129.80331420898438,-0.1811500098785877,-0.7285491842931756,-0.4689651821817582,-0.3376132755229868
1.330899715423584,-0.6996867656707764,128.60890197753906,-0.1811500098785877,-0.7285491842931756,-0.4689651821817582,-0.3376132755229868
0.6561293005943298,0.9606652855873108,127.45105743408203,-0.1811500098785877,-0.7285491842931756,-0.4689651821817582,-0.3376132755229868
-0.6832702159881592,-0.5762357115745544,126.23707580566406,-0.1811500098785877,-0.7285491842931756,-0.4689651821817582,-0.3376132755229868
0.12751731276512146,-0.32899847626686096,124.80371856689453,-0.1811500098785877,-0.7285491842931756,-0.4689651821817582,-0.3376132755229868
0.8351156711578369,-1.9913958311080933,123.29688262939453,-0.1811500098785877,-0.7285491842931756,-0.4689651821817582,-0.3376132755229868
0.26330581307411194,2.2177734375,121.71241760253906,-0.1811500098785877,-0.7285491842931756,-0.4689651821817582,-0.3376132755229868
0.5868861079216003,-0.8955802321434021,120.01428985595703,-0.1811500098785877,-0.7285491842931756,-0.4689651821817582,-0.3376132755229868
0.6475344896316528,1.673182487487793,118.14820098876953,-0.1811500098785877,-0.7285491842931756,-0.4689651821817582,-0.3376132755229868
0.4401187002658844,-1.638207197189331,116.36067199707031,-0.1811500098785877,-0.7285491842931756,-0.4689651821817582,-0.3376132755229868
0.5860708355903625,2.0469353199005127,114.5706787109375,-0.1811500098785877,-0.7285491842931756,-0.4689651821817582,-0.3376132755229868
0.16026312112808228,-1.9026578664779663,112.67304229736328,-0.1811500098785877,-0.7285491842931756,-0.4689651821817582,-0.3376132755229868
2.591325283050537,2.331817626953125,110.64659118652344,-0.1811500098785877,-0.7285491842931756,-0.4689651821817582,-0.3376132755229868
-1.8195451498031616,-2.630415678024292,108.55291748046875,-0.1811500098785877,-0.7285491842931756,-0.4689651821817582,-0.3376132755229868
1.8688000440597534,0.48101747035980225,106.28402709960938,-0.1811500098785877,-0.7285491842931756,-0.4689651821817582,-0.3376132755229868
-0.7794268131256104,-1.0599861145019531,103.89466857910156,-0.1811500098785877,-0.7285491842931756,-0.4689651821817582,-0.3376132755229868
0.7282901406288147,0.9843262434005737,101.48442840576172,-0.1811500098785877,-0.7285491842931756,-0.4689651821817582,-0.3376132755229868
-0.2544810473918915,-1.135543704032898,99.07872772216797,-0.1811500098785877,-0.7285491842931756,-0.4689651821817582,-0.3376132755229868
0.6554912328720093,0.18306860327720642,96.7730484008789,-0.1811500098785877,-0.7285491842931756,-0.4689651821817582,-0.3376132755229868
-0.43419283628463745,-1.1582517623901367,94.53546142578125,-0.1811500098785877,-0.7285491842931756,-0.4689651821817582,-0.3376132755229868
-0.09672477096319199,0.9709007143974304,92.43701171875,-0.1811500098785877,-0.7285491842931756,-0.4689651821817582,-0.3376132755229868
-1.3620327711105347,0.04942876100540161,90.80176544189453,-0.1811500098785877,-0.7285491842931756,-0.4689651821817582,-0.3376132755229868
-1.0645427703857422,-0.1436377316713333,89.5483627319336,-0.1811500098785877,-0.7285491842931756,-0.4689651821817582,-0.3376132755229868
-1.2440004348754883,0.28063932061195374,88.57051849365234,-0.1811500098785877,-0.7285491842931756,-0.4689651821817582,-0.3376132755229868
-1.08769953250885,0.5664530396461487,87.80955505371094,-0.1811500098785877,-0.7285491842931756,-0.4689651821817582,-0.3376132755229868
-1.0930365324020386,1.1242280006408691,87.48548889160156,-0.1811500098785877,-0.7285491842931756,-0.4689651821817582,-0.3376132755229868
-0.9995537400245667,1.4176169633865356,87.4909896850586,-0.1811500098785877,-0.7285491842931756,-0.4689651821817582,-0.3376132755229868
0.7407921552658081,1.3871583938598633,87.60478210449219,-0.1811500098785877,-0.7285491842931756,-0.4689651821817582,-0.3376132755229868
0.1395743191242218,1.1153340339660645,87.65196228027344,-0.1811500098785877,-0.7285491842931756,-0.4689651821817582,-0.3376132755229868
0.14433841407299042,0.29536283016204834,87.6455307006836,-0.1811500098785877,-0.7285491842931756,-0.4689651821817582,-0.3376132755229868
0.34008458256721497,-0.135501429438591,87.65148162841797,-0.1811500098785877,-0.7285491842931756,-0.4689651821817582,-0.3376132755229868
-0.0416715182363987,-0.5552833080291748,87.67166137695312,-0.1811500098785877,-0.7285491842931756,-0.4689651821817582,-0.3376132755229868
0.18623210489749908,-0.6772411465644836,87.66510009765625,-0.1811500098785877,-0.7285491842931756,-0.4689651821817582,-0.3376132755229868
0.15413765609264374,-0.14397622644901276,87.66873168945312,-0.1811500098785877,-0.7285491842931756,-0.4689651821817582,-0.3376132755229868
0.1532580405473709,0.18958579003810883,87.66322326660156,-0.1811500098785877,-0.7285491842931756,-0.4689651821817582,-0.3376132755229868
0.19692201912403107,0.3667670488357544,87.65949249267578,-0.1811500098785877,-0.7285491842931756,-0.4689651821817582,-0.3376132755229868
0.1616276055574417,0.39979642629623413,87.66024780273438,-0.1811500098785877,-0.7285491842931756,-0.4689651821817582,-0.3376132755229868
0.19977569580078125,0.24144048988819122,87.65998077392578,-0.1811500098785877,-0.7285491842931756,-0.4689651821817582,-0.3376132755229868
0.1651221066713333,0.048746440559625626,87.6632080078125,-0.1811500098785877,-0.7285491842931756,-0.4689651821817582,-0.3376132755229868
0.15119847655296326,-0.0010799389565363526,87.66345977783203,-0.1811500098785877,-0.7285491842931756,-0.4689651821817582,-0.3376132755229868
0.1562027484178543,0.05622844398021698,87.66384887695312,-0.1811500098785877,-0.7285491842931756,-0.4689651821817582,-0.3376132755229868
0.18027861416339874,0.17968741059303284,87.66390228271484,-0.1811500098785877,-0.7285491842931756,-0.4689651821817582,-0.3376132755229868
0.16924142837524414,0.16722747683525085,87.6650619506836,-0.1811500098785877,-0.7285491842931756,-0.4689651821817582,-0.3376132755229868
0.1653405725955963,0.1043567880988121,87.66495513916016,-0.1811500098785877,-0.7285491842931756,-0.4689651821817582,-0.3376132755229868
0.1650417149066925,0.08526822179555893,87.66693878173828,-0.1811500098785877,-0.7285491842931756,-0.4689651821817582,-0.3376132755229868
0.16821177303791046,0.12768606841564178,87.66620635986328,-0.1811500098785877,-0.7285491842931756,-0.4689651821817582,-0.3376132755229868
0.16579410433769226,0.14870993793010712,87.66607666015625,-0.1811500098785877,-0.7285491842931756,-0.4689651821817582,-0.3376132755229868
0.159119114279747,0.1319785714149475,87.66607666015625,-0.1811500098785877,-0.7285491842931756,-0.4689651821817582,-0.3376132755229868
0.17097702622413635,0.0914747342467308,87.66703796386719,-0.1811500098785877,-0.7285491842931756,-0.4689651821817582,-0.3376132755229868
0.16083990037441254,0.11340595781803131,87.66588592529297,-0.1811500098785877,-0.7285491842931756,-0.4689651821817582,-0.3376132755229868
0.15508541464805603,0.14277417957782745,87.66663360595703,-0.1811500098785877,-0.7285491842931756,-0.4689651821817582,-0.3376132755229868
0.16172301769256592,0.12137322127819061,87.66707611083984,-0.1811500098785877,-0.7285491842931756,-0.4689651821817582,-0.3376132755229868
0.1491800844669342,0.09741181880235672,87.666748046875,-0.1811500098785877,-0.7285491842931756,-0.4689651821817582,-0.3376132755229868
0.1734340786933899,0.10880738496780396,87.66692352294922,-0.1811500098785877,-0.7285491842931756,-0.4689651821817582,-0.3376132755229868
0.15775913000106812,0.1291574388742447,87.66705322265625,-0.1811500098785877,-0.7285491842931756,-0.4689651821817582,-0.3376132755229868
0.16423821449279785,0.1302274912595749,87.6674575805664,-0.1811500098785877,-0.7285491842931756,-0.4689651821817582,-0.3376132755229868
0.14949661493301392,0.09749054908752441,87.66716003417969,-0.1811500098785877,-0.7285491842931756,-0.4689651821817582,-0.3376132755229868
0.16326187551021576,0.10875748842954636,87.66854095458984,-0.1811500098785877,-0.7285491842931756,-0.4689651821817582,-0.3376132755229868
0.1774412989616394,0.12025529146194458,87.66983032226562,-0.1811500098785877,-0.7285491842931756,-0.4689651821817582,-0.3376132755229868
0.14970694482326508,0.11766835302114487,87.67021179199219,-0.1811500098785877,-0.7285491842931756,-0.4689651821817582,-0.3376132755229868
0.15830355882644653,0.11186377704143524,87.67056274414062,-0.1811500098785877,-0.7285491842931756,-0.4689651821817582,-0.3376132755229868
0.16489464044570923,0.11331769824028015,87.6717300415039,-0.1811500098785877,-0.7285491842931756,-0.4689651821817582,-0.3376132755229868
0.172339528799057,0.1095653623342514,87.67060089111328,-0.1811500098785877,-0.7285491842931756,-0.4689651821817582,-0.3376132755229868
0.17022934556007385,0.10850170999765396,87.6701889038086,-0.1811500098785877,-0.7285491842931756,-0.4689651821817582,-0.3376132755229868
0.16949760913848877,0.10021395236253738,87.67156982421875,-0.1811500098785877,-0.7285491842931756,-0.4689651821817582,-0.3376132755229868
0.1601625382900238,0.09502863883972168,87.67152404785156,-0.1811500098785877,-0.7285491842931756,-0.4689651821817582,-0.3376132755229868
0.14898063242435455,0.11723227798938751,87.6708755493164,-0.1811500098785877,-0.7285491842931756,-0.4689651821817582,-0.3376132755229868
0.16165094077587128,0.10075651109218597,87.67057800292969,-0.1811500098785877,-0.7285491842931756,-0.4689651821817582,-0.3376132755229868
0.14891433715820312,0.12576225399971008,87.67052459716797,-0.1889445292150938,-0.7341603417487607,-0.46637713819897425,-0.335725619147221
0.15517528355121613,0.11141898483037949,87.67017364501953,-0.19669636418363856,-0.7397392978151844,-0.46384305802639575,-0.3337491088236369
0.128457173705101,0.2111750692129135,87.671142578125,-0.20440738511899126,-0.745279380597381,-0.46147945421592645,-0.3310608250399428
0.18831245601177216,1.1031962633132935,87.63994598388672,-0.2120767114649708,-0.7507057852277323,-0.45883970730161916,-0.32010773060222436
1.1378974914550781,2.3895280361175537,87.69331359863281,-0.21963194200697927,-0.7557983637725312,-0.4477879577393954,-0.29100169477363397
-1.0339226722717285,4.001790523529053,87.81121826171875,-0.2270878541624148,-0.7602045504521163,-0.4469215009128675,-0.2377407067765789
-0.7503576278686523,1.8833136558532715,87.93748474121094,-0.23466045419847234,-0.7637582077748244,-0.4617905034140373,-0.1886981719483929
1.5707082748413086,1.201763391494751,88.13406372070312,-0.24229999379377765,-0.7666889358456762,-0.45495424802259854,-0.16298919655382604
-0.2213086634874344,1.4174505472183228,88.19917297363281,-0.24978885628781028,-0.7692235325980515,-0.4437092512613163,-0.1411624137312171
0.811445951461792,1.5184948444366455,88.13568878173828,-0.25714302871938954,-0.7713723543969291,-0.43879144052819663,-0.11669620213409236
0.28965699672698975,1.5376137495040894,88.03546905517578,-0.26437975391234636,-0.7731050613356959,-0.42961558262662347,-0.09122863051791957
0.15526394546031952,1.4477680921554565,87.86495208740234,-0.2715091163351382,-0.7744182203275459,-0.4259079081083959,-0.06635044850409003
-0.44352635741233826,2.0411670207977295,87.8082275390625,-0.27862759969333034,-0.7752817739753257,-0.4283100948746627,-0.03727598922948014
0.5119199156761169,0.2715080976486206,87.75350952148438,-0.2857613517219175,-0.7757424380237027,-0.4277401485557979,-0.018003696575760553
0.1303614377975464,1.024393081665039,87.65325164794922,-0.2928457513260785,-0.7759525064958464,-0.4223878039435174,-0.007204520081480056
0.30197063088417053,1.142192006111145,87.5596923828125,-0.29985552499814533,-0.7759221245327754,-0.41878503670450307,0.010850355649988144
0.45134925842285156,1.1462706327438354,87.5004653930664,-0.3067829617286852,-0.7755823642553551,-0.4125073709602779,0.029920877640446313
0.20518408715724945,0.8104109168052673,87.46353149414062,-0.3136124919845801,-0.7749478022981845,-0.4070362597471104,0.04622655722002217
0.3239280879497528,0.9115424156188965,87.44916534423828,-0.32035968574598284,-0.7740577795853213,-0.4026269916212187,0.06057616832355687
-0.19055914878845215,0.9800804853439331,87.45027923583984,-0.32706087387445026,-0.7729168140784729,-0.4015155837948745,0.07633969249824711
-0.8316593170166016,1.379889726638794,87.44966888427734,-0.33382378766449017,-0.7714805990498922,-0.4100340710099166,0.0960061109314365
0.6248953938484192,-0.592336118221283,87.48003387451172,-0.34067204745376434,-0.7698258059782281,-0.4117571037029848,0.1025690576682491
1.4638680219650269,0.7487297058105469,87.474365234375,-0.347389612833827,-0.7681054610179525,-0.3943507419045394,0.1038723375648263
0.15246066451072693,0.34902024269104004,87.46864318847656,-0.35384988015123076,-0.7662980227565594,-0.3808813361839081,0.11302025380233953
-0.3994029760360718,0.6798544526100159,87.60514831542969,-0.3602150511925963,-0.7643429022282356,-0.38293918877995264,0.121594209596515
0.4027748703956604,0.35495612025260925,87.67975616455078,-0.36659713684626494,-0.762244470222956,-0.3829110896602894,0.13021763103703687
-0.6994102597236633,1.0270202159881592,87.72032165527344,-0.37299958802041755,-0.7599782057934331,-0.3853830512380228,0.14173410050570995
-1.3713797330856323,1.659512996673584,87.75720977783203,-0.3795664437349964,-0.7574294059785698,-0.4026396345114336,0.16412187727789113
1.9072604179382324,0.09331360459327698,87.8900146484375,-0.38623989037373885,-0.7545723172877392,-0.39817396213766193,0.17872876562178164
0.6484383940696716,0.10378387570381165,88.08616638183594,-0.392698643991866,-0.7515798172023556,-0.37687647203759606,0.18037124462425738
-0.39503350853919983,0,88.19872283935547,-0.39896232096433076,-0.7485664225783607,-0.37476476465817543,0.18123611025512248
0.7432176470756531,0.3887852132320404,88.11109161376953,-0.4051842209212353,-0.7455188217676342,-0.37186323017037165,0.18447598703205614
-0.08567993342876434,1.1328983306884766,87.95938873291016,-0.41133627908284937,-0.7423385495154388,-0.36638374922331424,0.1971566832313938
-0.29220858216285706,0.5168578624725342,87.87541198730469,-0.4174689171612651,-0.7389380383926127,-0.36953282018657774,0.21090465150773555
0.16768592596054077,0,87.86441802978516,-0.4236364449043888,-0.7353870679603677,-0.3705705089882637,0.21521180036167334
1.1440646648406982,0,87.79782104492188,-0.42972152626316534,-0.7318002046210065,-0.35963925406492003,0.21521180036167334
0.4850371479988098,0.5693959593772888,87.86239624023438,-0.4356023817605779,-0.7281737998955774,-0.3460634056245908,0.21995676668981742
0.8562481999397278,0.2357499897480011,87.81831359863281,-0.44127696037182534,-0.7244519408709468,-0.334886027725103,0.2266663162658615
-1.3218473196029663,-0.0865146592259407,87.65308380126953,-0.4468907274394426,-0.7206638053685628,-0.3387660203889633,0.227909944020212
0.3493589758872986,0.42866501212120056,87.51573944091797,-0.4526043616920167,-0.716841545860386,-0.3468700899199272,0.23076119696100583
-0.16856397688388824,0.19679337739944458,87.4316635131836,-0.45837297464908466,-0.7129520913006525,-0.3453634649282321,0.2359733502070112
-0.2796002924442291,0.9687414765357971,87.34251403808594,-0.46416015491659185,-0.7089382622101235,-0.3490981671726331,0.24568614065647157
-0.143789142370224,0.2854599058628082,87.24700927734375,-0.47000785974688675,-0.7047563958809602,-0.35262641246275356,0.2561378188431266
1.3423805236816406,0.5262600779533386,87.11448669433594,-0.4758017311086749,-0.7004310627902541,-0.3426381509518251,0.26290215204159445
0.3026076555252075,-0.36003342270851135,87.11970520019531,-0.4813981316676493,-0.6960378167385022,-0.32892991612510136,0.2642873741686347
-2.0214691162109375,0.6647751331329346,87.19509887695312,-0.48699966231561526,-0.6916118645502455,-0.3432537616308158,0.26682688842217156
1.097508192062378,0.3525657057762146,87.24673461914062,-0.4927847222958614,-0.6870941010738406,-0.3509534359987204,0.2753047287464145
2.0783324241638184,-0.7222610712051392,87.21125030517578,-0.4984134017419355,-0.6825313622173329,-0.3244880975301688,0.2722239340345068
-0.6590880155563354,-0.5434454679489136,87.07115173339844,-0.503722978061285,-0.6780821929375324,-0.3126610607917731,0.26167637954155637
0.32530897855758667,0.2502991259098053,87.04684448242188,-0.5089571748409394,-0.6737412773300369,-0.31544255276676264,0.25923349335789714
-0.7440314888954163,1.3219259977340698,87.11160278320312,-0.5142436286724922,-0.6693115368071522,-0.3189319070195779,0.27233536938826275
0,0.3019556701183319,87.18397521972656,-0.5196108293095474,-0.6646598444237469,-0.3251321694270397,0.2858677166203661
0.7222525477409363,-0.1868380457162857,87.33228302001953,-0.5249795423730715,-0.6598873882006018,-0.31911339819586526,0.2868270301570498
0.4061586558818817,0.5008590221405029,87.47006225585938,-0.5302197371205288,-0.6550851306857326,-0.3097099714990084,0.2894438716272516
0.11859887838363647,-0.5619236826896667,87.40608978271484,-0.5353451284834105,-0.6502653067600388,-0.30533699204679576,0.2889349994560086
-0.2339649349451065,0.6015618443489075,87.2718734741211,-0.5404420898825628,-0.6454469707856567,-0.3062983758514747,0.2892653174698356
0.41915032267570496,0.15273582935333252,87.06122589111328,-0.5455342027170506,-0.6405735003782634,-0.304755164287053,0.29555113141735423
-0.14009007811546326,0,87.05284118652344,-0.5505940762715181,-0.635637041533158,-0.302429662249051,0.29682392999529866
0.8300880789756775,-0.10126569122076035,86.96234893798828,-0.5555866541144981,-0.6306970083729045,-0.2966796789085492,0.29598004923512566
1.3929332494735718,0.0927501767873764,87.00984191894531,-0.5603769389484983,-0.6257645989074881,-0.2781545011714721,0.29590908661484744
-0.37917935848236084,-0.17535558342933655,86.8817367553711,-0.5649424477255929,-0.620838517283813,-0.2697065520798787,0.2952207082261644
-0.48457100987434387,-0.5158778429031372,86.67366790771484,-0.5694975395913934,-0.6159661744679834,-0.27690447181618455,0.2894604296733938
-0.1338876336812973,0.35697755217552185,86.50430297851562,-0.5694975395913934,-0.6159661744679834,-0.27690447181618455,0.2894604296733938
0.018674388527870178,0.6148217916488647,86.35543060302734,-0.5694975395913934,-0.6159661744679834,-0.27690447181618455,0.2894604296733938
0.24542638659477234,-0.8169775009155273,86.16739654541016,-0.5694975395913934,-0.6159661744679834,-0.27690447181618455,0.2894604296733938
0.6689189672470093,-2.4396941661834717,85.72264099121094,-0.5694975395913934,-0.6159661744679834,-0.27690447181618455,0.2894604296733938
-1.3389643430709839,-2.41978120803833,85.03057861328125,-0.5694975395913934,-0.6159661744679834,-0.27690447181618455,0.2894604296733938
4.699883720604703e-05,-1.5406872034072876,84.23993682861328,-0.5694975395913934,-0.6159661744679834,-0.27690447181618455,0.2894604296733938
0.7046087980270386,-2.8017587661743164,83.1686019897461,-0.5694975395913934,-0.6159661744679834,-0.27690447181618455,0.2894604296733938
-0.21881040930747986,-2.664766788482666,81.74514770507812,-0.5694975395913934,-0.6159661744679834,-0.27690447181618455,0.2894604296733938
0.6684536933898926,-2.7108848094940186,80.18359375,-0.5694975395913934,-0.6159661744679834,-0.27690447181618455,0.2894604296733938
-0.07891463488340378,-2.4132533073425293,78.49266815185547,-0.5694975395913934,-0.6159661744679834,-0.27690447181618455,0.2894604296733938
-0.3628212511539459,-0.30556684732437134,76.68440246582031,-0.5694975395913934,-0.6159661744679834,-0.27690447181618455,0.2894604296733938
1.8572847843170166,-0.8856344819068909,74.77363586425781,-0.5694975395913934,-0.6159661744679834,-0.27690447181618455,0.2894604296733938
0.33424800634384155,-1.3363621234893799,72.79978942871094,-0.5694975395913934,-0.6159661744679834,-0.27690447181618455,0.2894604296733938
0.3866518437862396,-2.3863255977630615,70.7695083618164,-0.5694975395913934,-0.6159661744679834,-0.27690447181618455,0.2894604296733938
0.7396671772003174,-1.0663810968399048,68.71223449707031,-0.5694975395913934,-0.6159661744679834,-0.27690447181618455,0.2894604296733938
1.1753188371658325,-1.391716718673706,66.87266540527344,-0.5694975395913934,-0.6159661744679834,-0.27690447181618455,0.2894604296733938
0.14834678173065186,-1.0282785892486572,65.0748062133789,-0.5694975395913934,-0.6159661744679834,-0.27690447181618455,0.2894604296733938
1.0421959161758423,-0.63736492395401,63.3575325012207,-0.5694975395913934,-0.6159661744679834,-0.27690447181618455,0.2894604296733938
-0.569015622138977,-1.2963742017745972,61.83416748046875,-0.5694975395913934,-0.6159661744679834,-0.27690447181618455,0.2894604296733938
0.4180736541748047,-0.4825493395328522,60.37004852294922,-0.5694975395913934,-0.6159661744679834,-0.27690447181618455,0.2894604296733938
0.5729448199272156,-0.48578351736068726,59.05416488647461,-0.5694975395913934,-0.6159661744679834,-0.27690447181618455,0.2894604296733938
-0.09361057728528976,-0.21220611035823822,57.67332458496094,-0.5694975395913934,-0.6159661744679834,-0.27690447181618455,0.2894604296733938
0.882707953453064,-0.39310911297798157,56.491783142089844,-0.5694975395913934,-0.6159661744679834,-0.27690447181618455,0.2894604296733938
-0.6068273782730103,-0.7712147235870361,55.189697265625,-0.5694975395913934,-0.6159661744679834,-0.27690447181618455,0.2894604296733938
1.8498841524124146,-1.684362530708313,53.97317886352539,-0.5694975395913934,-0.6159661744679834,-0.27690447181618455,0.2894604296733938
-2.187493085861206,-0.4974137842655182,52.70679473876953,-0.5694975395913934,-0.6159661744679834,-0.27690447181618455,0.2894604296733938
0.9505434632301331,-0.4307432770729065,51.379425048828125,-0.5694975395913934,-0.6159661744679834,-0.27690447181618455,0.2894604296733938
-0.5791395902633667,-0.619436502456665,49.84943389892578,-0.5694975395913934,-0.6159661744679834,-0.27690447181618455,0.2894604296733938
0.7091937065124512,-0.421760618686676,48.1782341003418,-0.5694975395913934,-0.6159661744679834,-0.27690447181618455,0.2894604296733938
-1.1095256805419922,0.10801538079977036,46.37208938598633,-0.5694975395913934,-0.6159661744679834,-0.27690447181618455,0.2894604296733938
0.5450222492218018,-1.065686583518982,44.521358489990234,-0.5694975395913934,-0.6159661744679834,-0.27690447181618455,0.2894604296733938
-0.1913653314113617,-0.1719101220369339,42.63198471069336,-0.5694975395913934,-0.6159661744679834,-0.27690447181618455,0.2894604296733938
-0.2453909069299698,-1.1870396137237549,40.668617248535156,-0.5694975395913934,-0.6159661744679834,-0.27690447181618455,0.2894604296733938
-0.5844883918762207,-0.3393092751502991,38.686302185058594,-0.5694975395913934,-0.6159661744679834,-0.27690447181618455,0.2894604296733938
-0.7103129625320435,0.038120515644550323,36.63438415527344,-0.5694975395913934,-0.6159661744679834,-0.27690447181618455,0.2894604296733938
1.1784898042678833,-1.5416758060455322,34.443843841552734,-0.5694975395913934,-0.6159661744679834,-0.27690447181618455,0.2894604296733938
-0.7693426609039307,0.3649632930755615,32.23166275024414,-0.5694975395913934,-0.6159661744679834,-0.27690447181618455,0.2894604296733938
-0.9893398880958557,0.09568411856889725,29.848735809326172,-0.5694975395913934,-0.6159661744679834,-0.27690447181618455,0.2894604296733938
2.78707218170166,-1.8848772048950195,27.66250228881836,-0.5694975395913934,-0.6159661744679834,-0.27690447181618455,0.2894604296733938
-4.188647270202637,2.363527774810791,25.470157623291016,-0.5694975395913934,-0.6159661744679834,-0.27690447181618455,0.2894604296733938
3.0052499771118164,-1.9366123676300049,23.496131896972656,-0.5694975395913934,-0.6159661744679834,-0.27690447181618455,0.2894604296733938
0.3089248836040497,-0.07726095616817474,21.40618896484375,-0.5694975395913934,-0.6159661744679834,-0.27690447181618455,0.2894604296733938
-1.993628978729248,0.21164996922016144,19.38899803161621,-0.5694975395913934,-0.6159661744679834,-0.27690447181618455,0.2894604296733938
-0.6808834671974182,0.8753864169120789,17.387916564941406,-0.5694975395913934,-0.6159661744679834,-0.27690447181618455,0.2894604296733938
1.3326818943023682,-1.2960911989212036,15.356922149658203,-0.5694975395913934,-0.6159661744679834,-0.27690447181618455,0.2894604296733938
-1.218144416809082,1.3111430406570435,13.274250984191895,-0.5694975395913934,-0.6159661744679834,-0.27690447181618455,0.2894604296733938
-0.41721197962760925,-0.5832078456878662,11.202824592590332,-0.5694975395913934,-0.6159661744679834,-0.27690447181618455,0.2894604296733938
0.33809325098991394,-1.1778712272644043,9.065871238708496,-0.5694975395913934,-0.6159661744679834,-0.27690447181618455,0.2894604296733938
-1.2293204069137573,0.1816255748271942,6.86572790145874,-0.5694975395913934,-0.6159661744679834,-0.27690447181618455,0.2894604296733938
-0.07879255712032318,0.5071921944618225,4.6500163078308105,-0.5694975395913934,-0.6159661744679834,-0.27690447181618455,0.2894604296733938
0.6227091550827026,-0.2447373867034912,3.0984013080596924,-0.5694975395913934,-0.6159661744679834,-0.27690447181618455,0.2894604296733938
-0.08561357855796814,2.776883363723755,1.7951416969299316,-0.5694975395913934,-0.6159661744679834,-0.27690447181618455,0.2894604296733938
0.07742486149072647,1.38003671169281,0.977257490158081,-0.5694975395913934,-0.6159661744679834,-0.27690447181618455,0.2894604296733938
1.5421066284179688,0.7610655426979065,0.4729938209056854,-0.5694975395913934,-0.6159661744679834,-0.27690447181618455,0.2894604296733938
0.5405544638633728,1.53803288936615,0.35479921102523804,-0.5694975395913934,-0.6159661744679834,-0.27690447181618455,0.2894604296733938
1.664198398590088,0.0075143189169466496,0.4199889898300171,-0.5694975395913934,-0.6159661744679834,-0.27690447181618455,0.2894604296733938
0.08968910574913025,-0.3066015839576721,0.4136727750301361,-0.5694975395913934,-0.6159661744679834,-0.27690447181618455,0.2894604296733938
0.9167122840881348,0.10068273544311523,0.40226292610168457,-0.5694975395913934,-0.6159661744679834,-0.27690447181618455,0.2894604296733938
-0.18647311627864838,-0.28527387976646423,0.4266883134841919,-0.5694975395913934,-0.6159661744679834,-0.27690447181618455,0.2894604296733938
-0.09540407359600067,0.11655230820178986,0.42100468277931213,-0.5694975395913934,-0.6159661744679834,-0.27690447181618455,0.2894604296733938
-0.2314624786376953,-0.31686341762542725,0.42484262585639954,-0.5694975395913934,-0.6159661744679834,-0.27690447181618455,0.2894604296733938
0.025090528652071953,0.08995568007230759,0.4241859018802643,-0.5694975395913934,-0.6159661744679834,-0.27690447181618455,0.2894604296733938
0.2677415907382965,-0.22031725943088531,0.42310047149658203,-0.5694975395913934,-0.6159661744679834,-0.27690447181618455,0.2894604296733938
0.31040337681770325,0.02000187709927559,0.4263343811035156,-0.5694975395913934,-0.6159661744679834,-0.27690447181618455,0.2894604296733938
0.14470869302749634,-0.1592080146074295,0.4249681830406189,-0.5694975395913934,-0.6159661744679834,-0.27690447181618455,0.2894604296733938
-0.03628560155630112,-0.07691029459238052,0.4256756007671356,-0.5694975395913934,-0.6159661744679834,-0.27690447181618455,0.2894604296733938
0.05186624825000763,-0.10455600172281265,0.4239463210105896,-0.5694975395913934,-0.6159661744679834,-0.27690447181618455,0.2894604296733938
0.1948722004890442,-0.08640433847904205,0.4233230650424957,-0.5694975395913934,-0.6159661744679834,-0.27690447181618455,0.2894604296733938
0.1778947114944458,-0.08882487565279007,0.42429405450820923,-0.5694975395913934,-0.6159661744679834,-0.27690447181618455,0.2894604296733938
0.07865256071090698,-0.09942913055419922,0.42197084426879883,-0.5694975395913934,-0.6159661744679834,-0.27690447181618455,0.2894604296733938
0.07200922816991806,-0.1075553447008133,0.4228760004043579,-0.5694975395913934,-0.6159661744679834,-0.27690447181618455,0.2894604296733938
0.1394626647233963,-0.09606432914733887,0.4220569133758545,-0.5694975395913934,-0.6159661744679834,-0.27690447181618455,0.2894604296733938
0.16827090084552765,-0.09934461116790771,0.422746479511261,-0.5694975395913934,-0.6159661744679834,-0.27690447181618455,0.2894604296733938
0.09711845964193344,-0.07623216509819031,0.42343056201934814,-0.5694975395913934,-0.6159661744679834,-0.27690447181618455,0.2894604296733938
0.07743585854768753,-0.11163987219333649,0.424579381942749,-0.5694975395913934,-0.6159661744679834,-0.27690447181618455,0.2894604296733938
0.11891143769025803,-0.09097617119550705,0.4239368140697479,-0.5694975395913934,-0.6159661744679834,-0.27690447181618455,0.2894604296733938
0.15156415104866028,-0.09455576539039612,0.4245526194572449,-0.5694975395913934,-0.6159661744679834,-0.27690447181618455,0.2894604296733938
0.11056448519229889,-0.11703193187713623,0.4262922406196594,-0.5694975395913934,-0.6159661744679834,-0.27690447181618455,0.2894604296733938
0.08599859476089478,-0.09457997977733612,0.42552247643470764,-0.5694975395913934,-0.6159661744679834,-0.27690447181618455,0.2894604296733938
0.11505187302827835,-0.10641078650951385,0.4252772927284241,-0.5694975395913934,-0.6159661744679834,-0.27690447181618455,0.2894604296733938
0.13433901965618134,-0.09410892426967621,0.42549535632133484,-0.5694975395913934,-0.6159661744679834,-0.27690447181618455,0.2894604296733938
0.11278610676527023,-0.09884100407361984,0.4241316616535187,-0.5694975395913934,-0.6159661744679834,-0.27690447181618455,0.2894604296733938
0.10275300592184067,-0.10113365948200226,0.42323964834213257,-0.5694975395913934,-0.6159661744679834,-0.27690447181618455,0.2894604296733938
0.10977371782064438,-0.09932083636522293,0.4224400520324707,-0.5694975395913934,-0.6159661744679834,-0.27690447181618455,0.2894604296733938
0.12940385937690735,-0.09705740958452225,0.4220579266548157,-0.5694975395913934,-0.6159661744679834,-0.27690447181618455,0.2894604296733938
0.11547452956438065,-0.10258639603853226,0.42357465624809265,-0.5694975395913934,-0.6159661744679834,-0.27690447181618455,0.2894604296733938
0.09767019748687744,-0.1000964343547821,0.42345792055130005,-0.5694975395913934,-0.6159661744679834,-0.27690447181618455,0.2894604296733938
0.0932026207447052,-0.09366800636053085,0.4236723482608795,-0.5694975395913934,-0.6159661744679834,-0.27690447181618455,0.2894604296733938
0.11829519271850586,-0.08227694779634476,0.4240003228187561,-0.5694975395913934,-0.6159661744679834,-0.27690447181618455,0.2894604296733938
0.10033685714006424,-0.09848430007696152,0.42379313707351685,-0.5694975395913934,-0.6159661744679834,-0.27690447181618455,0.2894604296733938
0.10441793501377106,-0.1050000861287117,0.4241497218608856,-0.5694975395913934,-0.6159661744679834,-0.27690447181618455,0.2894604296733938
0.10654287040233612,-0.1154816597700119,0.42323410511016846,-0.5694975395913934,-0.6159661744679834,-0.27690447181618455,0.2894604296733938
0.11294283717870712,-0.09380897134542465,0.42363423109054565,-0.5694975395913934,-0.6159661744679834,-0.27690447181618455,0.2894604296733938
0.10946246981620789,-0.09565601497888565,0.42425546050071716,-0.5694975395913934,-0.6159661744679834,-0.27690447181618455,0.2894604296733938
0.09164223819971085,-0.09569495171308517,0.4242473244667053,-0.5694975395913934,-0.6159661744679834,-0.27690447181618455,0.2894604296733938
0.09968524426221848,-0.10205791890621185,0.42544540762901306,-0.5694975395913934,-0.6159661744679834,-0.27690447181618455,0.2894604296733938
0.09461332112550735,-0.09693524986505508,0.42554140090942383,-0.5694975395913934,-0.6159661744679834,-0.27690447181618455,0.2894604296733938
0.10278162360191345,-0.09842097014188766,0.4264267385005951,-0.5740989061393904,-0.611155400377594,-0.27525951394345605,0.28783246117333594
0.15439294278621674,-0.12499545514583588,0.42325395345687866,-0.5786687053602266,-0.6063737077209056,-0.2731163925568883,0.2859706576292716
1.1228859424591064,0,0.3981688916683197,-0.5831319453135883,-0.6016162103336917,-0.2624724018465106,0.28492902883638965
2.538330316543579,-0.09410759806632996,0.4447760283946991,-0.5872522342152661,-0.5968739284362843,-0.23196226635482156,0.28414479885250354
2.6085023880004883,0.33729881048202515,0.46625757217407227,-0.5907608530500309,-0.5921212935101026,-0.18907199381695433,0.286171392289301
1.4326672554016113,-0.5718111991882324,0.3911213278770447,-0.5936314161661883,-0.5873680558878299,-0.15539558012193683,0.28421712238341595
1.0109862089157104,0,0.30258628726005554,-0.5960516443443097,-0.582670812959161,-0.13503180125262582,0.27945202905684735
1.936598777770996,0.16055938601493835,0.3329409062862396,-0.5980974809633335,-0.5780021291841847,-0.1104685930302366,0.28079002394030517
1.3586868047714233,-0.22457465529441833,0.2769176959991455,-0.5997097849039387,-0.5733267409566574,-0.0830078798423831,0.28025656336297616
1.9148073196411133,-0.735580325126648,0.21152178943157196,-0.6008659235871164,-0.568722475663137,-0.0557287621389453,0.2722552718594673
1.054907202720642,0.8092493414878845,0.23281575739383698,-0.6015885061142682,-0.5641797718948987,-0.030981141119264005,0.27286918032914426
1.7471524477005005,-0.586396336555481,0.21703432500362396,-0.6019102709905322,-0.559616476319626,-0.0076306440324211515,0.27472628870358096
0,0.06609070301055908,0.2437494695186615,-0.6019161183599823,-0.5550738371768958,0.006928959698416353,0.27039040842403994
1.1900938749313354,0.1662731021642685,0.2418942153453827,-0.6017179902903607,-0.5505511939944692,0.01684640865617748,0.2723267734671635
2.0077598094940186,-0.6980792284011841,0.32518744468688965,-0.6012151436402282,-0.5460493454176718,0.043495189359722096,0.2678950557485225
0.8078984618186951,-0.26481014490127563,0.4326885938644409,-0.6002946919931694,-0.5416512951394535,0.06695900828732804,0.2598709776376687
1.3295316696166992,2.3334498405456543,0.3601289987564087,-0.5990302758736976,-0.5371764566444059,0.08477092604928965,0.27710964176803854
0.18428640067577362,-1.8120875358581543,0.33714184165000916,-0.597512300851328,-0.5325217568993353,0.09738607663506026,0.2814543276404344
1.3010785579681396,-0.1612413376569748,0.317034512758255,-0.5957860492297268,-0.5279678881659888,0.10976411795709287,0.2650099203611416
0.9602267742156982,0,0.4021831750869751,-0.5937996121712624,-0.5235622534750849,0.12860832905862485,0.2636662425473335
0.4645582437515259,-0.4979119896888733,0.4437037408351898,-0.5915571966162598,-0.5192023933208022,0.14048153754168505,0.2595169759665929
0.4368378818035126,-0.45481953024864197,0.378028005361557,-0.5891532407040682,-0.5149432722991324,0.14799317192131037,0.2515775466337803
0.2927137613296509,-0.6167864203453064,0.36839717626571655,-0.5866360245301621,-0.5108247302684717,0.15407276894742006,0.2426474970454974
0.8114137649536133,0.5313089489936829,0.3221198618412018,-0.5839914695250465,-0.506786541253224,0.16327383166644727,0.24193518478423387
0.8108333945274353,1.1889485120773315,0.29795482754707336,-0.5811575829445307,-0.5026348258498012,0.176792557995456,0.2562706636264923
1.2734423875808716,0.4888868033885956,0.2934369146823883,-0.5780662989375156,-0.4982471317813412,0.19416152284635857,0.27025262458870836
0.49648910760879517,-0.8309141993522644,0.45853739976882935,-0.5747073616473548,-0.4937666732740269,0.20891095197293913,0.26740239628901113
0.1823083758354187,-0.5087406039237976,0.5469425320625305,-0.5711783737336777,-0.4894029982527709,0.21456759766830757,0.25623860626171063
-0.06259039789438248,-0.8276776671409607,0.4178207516670227,-0.5675939333574045,-0.4852251616394552,0.21556524748448289,0.245101787336171
0.3294663727283478,0.4277132451534271,0.30571338534355164,-0.5639826461788552,-0.4811679071576015,0.2177892139414326,0.24176875048627489
1.3037649393081665,0.3045978844165802,0.1084069088101387,-0.5602394071053843,-0.47708757304327676,0.23139947487507023,0.2478713432326916
0,-1.4163479804992676,0.05214937403798103,-0.5562922099589034,-0.4730335888571821,0.24226418270263828,0.2386067590986692
0.5487383604049683,0.5906772017478943,0.14677424728870392,-0.5522163667499425,-0.46911414778739535,0.24683700237267966,0.2317261692757411
0.44142818450927734,0.09244535863399506,0.2064305990934372,-0.5480336551447788,-0.4652046058994398,0.25508839024696506,0.2374188572789235
-0.5148986577987671,-0.26222091913223267,0.2278304398059845,-0.5437872840901966,-0.46125941491427014,0.25447613630288596,0.2360040609414382
0.6904844641685486,0,0.21170012652873993,-0.5395338216930395,-0.45734422368463035,0.25593935135596746,0.23381888661533626
0.8598828911781311,0.5508239269256592,0.12497279793024063,-0.5351605014374299,-0.45340899057944933,0.2688590793171898,0.2384090860063834
0.5166910886764526,0.1350400745868683,0.04835463687777519,-0.5305839213668757,-0.44938787636812677,0.2803305291493113,0.24412461935232113
0,-0.7923700213432312,-0.06462427973747253,-0.5258758645554513,-0.44536478062522394,0.2846362882216151,0.2386468697960181
0.3153490424156189,-0.989469051361084,-0.2564554512500763,-0.5211100271793677,-0.44151107161978365,0.2872641969084119,0.22379821085681548
0.20045004785060883,0.5645617246627808,-0.37548163533210754,-0.516286471182959,-0.4378106088920797,0.29156252266063043,0.22025731646766294
0.4080674648284912,-0.6159709095954895,-0.27392151951789856,-0.5113848376446791,-0.4341432236999056,0.2966335019329563,0.2198289065932237
-0.84649658203125,0.3810737729072571,-0.1737699806690216,-0.5064713924122689,-0.43049572089117744,0.29297992595626665,0.2178714304541551
0.5725436806678772,-0.15892019867897034,-0.12943266332149506,-0.5016074181533703,-0.4268491030520645,0.2906969851115719,0.21972271023939083
0.568332850933075,0.8653104901313782,-0.2625204026699066,-0.49668324086459403,-0.42313800300005716,0.3002042895415798,0.22560929600149424
0.8888092041015625,-0.4998674988746643,-0.29253146052360535,-0.4915786456184125,-0.419352470081195,0.31234714000020175,0.22865465426196685
0.15817494690418243,-1.5264387130737305,-0.22807639837265015,-0.48630015271903376,-0.41568227488599196,0.32107200792524965,0.2117687691623969
-0.948777973651886,-0.9523047804832458,-0.27941426634788513,-0.4810038555749149,-0.41232493036478235,0.3144836493690188,0.19111257338275542
0.7289714813232422,0.45719724893569946,-0.398017942905426,-0.47577772575850963,-0.40917410327587167,0.31265192859961344,0.18698667728652588
0.497669517993927,1.7159212827682495,-0.36965134739875793,-0.47048167687911907,-0.40590674764528345,0.3228739369272565,0.2050959983840588
0.8051865696907043,0.23542974889278412,-0.29286059737205505,-0.4650099684797978,-0.40235297051723934,0.3337310709912951,0.22135725698123407
-0.08995074033737183,0.06893035024404526,-0.1585446149110794,-0.45939811480846005,-0.39864254678288985,0.33969136956923957,0.22389359114070764
-0.8570114970207214,-2.3593270778656006,-0.11722641438245773,-0.45380235324878926,-0.3950700422588518,0.33180001759125544,0.20480695174386135
0.4607834815979004,0.21054182946681976,-0.33037927746772766,-0.44829986879000605,-0.39180581426092626,0.32849811746273194,0.18690040800720484
0.5549569129943848,1.7434850931167603,-0.5632991790771484,-0.44275436263822493,-0.38855511114673785,0.336962620751001,0.20318396569540134
0.18744803965091705,-1.975096344947815,-0.5735278725624084,-0.4370867630595523,-0.38518479583319165,0.3431493286897118,0.20125387193014255
-0.538188099861145,0.22611889243125916,-0.4808690547943115,-0.43139196453001616,-0.38195202140189183,0.3402264948546266,0.1866790598258379
0,0.44271814823150635,-0.4388578236103058,-0.4257588971227072,-0.37879425672141515,0.33574159402245035,0.19225270183136095
0,-1.209609031677246,-0.44118061661720276,-0.4201632038889997,-0.3756433013355762,0.33574159402245035,0.18586194446931312
0.08757639676332474,1.222862958908081,-0.41883718967437744,-0.4145614289610725,-0.3725446818494744,0.3364713973288114,0.1859723938629034
-0.2438838928937912,0.9774776101112366,-0.4504666030406952,-0.40896442702615693,-0.36929234052335524,0.3351688348610575,0.2043085652713977
0.6383731961250305,-1.2128125429153442,-0.5413691997528076,-0.4033508846879705,-0.3659035404724989,0.3384562457213178,0.20234744083136347
0.3150617182254791,-0.7717704772949219,-0.7180240750312805,-0.3976437365013408,-0.36266890139060187,0.34640153667423873,0.18580924899627793
0.5122767686843872,0.5686686038970947,-0.7470576167106628,-0.3918129234951792,-0.359586184870761,0.35329602406515426,0.18411673338462936
-0.3479880094528198,-0.7228677272796631,-0.6568905115127563,-0.38591324748581335,-0.35652828092014094,0.35466509705875066,0.18283174068977462
-0.19613219797611237,-0.3078521192073822,-0.5935308933258057,-0.38003994866035007,-0.35355266300909516,0.3501307619968429,0.1742424086357159
0.21717672049999237,0.08894399553537369,-0.513578474521637,-0.37420297453522744,-0.35066382481819935,0.3503061330178752,0.17241817427178252
0.4487469494342804,1.233247995376587,-0.4437519907951355,-0.3683182942856285,-0.3476983696920785,0.35585549693399415,0.18343644086271552
0.1353289633989334,-1.0937705039978027,-0.4729838967323303,-0.3623468085094485,-0.34463140974079864,0.3607227962076043,0.18459875329087205
0,-1.443290114402771,-0.45812132954597473,-0.35632536406130794,-0.34173094861778414,0.36185053756926205,0.16345658147086728
0.32576650381088257,-0.3859443962574005,-0.49394893646240234,-0.35027189909461115,-0.33913370243428775,0.3645652584343527,0.14821296054869917
0,0.7775759100914001,-0.5322533845901489,-0.34417318878016284,-0.33663628979223764,0.3672799792994434,0.15147655649731584
0.5874032378196716,1.982197642326355,-0.5045289993286133,-0.33801106390032354,-0.33392002957614225,0.372175006281274,0.17447466943413048
0.25856444239616394,-1.2076315879821777,-0.4633396565914154,-0.3317493993733984,-0.3309583291095773,0.3792247369497393,0.18092938655366528
-0.10135084390640259,-0.07704858481884003,-0.36065444350242615,-0.32541806947989654,-0.32803205323457185,0.3805348502704873,0.17022371844699014
0.06770315021276474,-1.199398398399353,-0.49093499779701233,-0.3190781586207838,-0.32528363341206773,0.3802544528230403,0.1595866602535052
-1.2320984601974487,0.3382263481616974,-0.6453112363815308,-0.31282144519248206,-0.3226836593557758,0.37055115857316795,0.15241022650152475
1.120492696762085,-0.4178985357284546,-0.7646515369415283,-0.3066533429498345,-0.32014902170488696,0.36962111054453994,0.15174629160513511
0.07067030668258667,0.10813161730766296,-0.7589064836502075,-0.3004102714544085,-0.3176414284363584,0.37954746890657887,0.14916490061829518
0.0035938455257564783,-0.13320638239383698,-0.6886361837387085,-0.3004102714544085,-0.3176414284363584,0.37954746890657887,0.14916490061829518
0.025997301563620567,-0.6998814940452576,-0.6491147875785828,-0.3004102714544085,-0.3176414284363584,0.37954746890657887,0.14916490061829518
-0.888134241104126,0.928939938545227,-0.6313170194625854,-0.3004102714544085,-0.3176414284363584,0.37954746890657887,0.14916490061829518
-1.937111735343933,-0.10407030582427979,-0.8984071016311646,-0.3004102714544085,-0.3176414284363584,0.37954746890657887,0.14916490061829518
-4.372654914855957,0.08296525478363037,-1.631897211074829,-0.3004102714544085,-0.3176414284363584,0.37954746890657887,0.14916490061829518
-2.3819966316223145,0.18708807229995728,-2.60736083984375,-0.3004102714544085,-0.3176414284363584,0.37954746890657887,0.14916490061829518
-1.9605615139007568,-1.8617019653320312,-3.7773733139038086,-0.3004102714544085,-0.3176414284363584,0.37954746890657887,0.14916490061829518
-2.136225938796997,0.9618762731552124,-5.035063743591309,-0.3004102714544085,-0.3176414284363584,0.37954746890657887,0.14916490061829518
-0.5230027437210083,-1.2449374198913574,-6.468219757080078,-0.3004102714544085,-0.3176414284363584,0.37954746890657887,0.14916490061829518
-2.087017774581909,0.75493323802948,-8.11435604095459,-0.3004102714544085,-0.3176414284363584,0.37954746890657887,0.14916490061829518
-2.5963032245635986,0.6246374249458313,-9.963038444519043,-0.3004102714544085,-0.3176414284363584,0.37954746890657887,0.14916490061829518
-0.8846582174301147,-0.77568519115448,-11.969402313232422,-0.3004102714544085,-0.3176414284363584,0.37954746890657887,0.14916490061829518
-1.6019707918167114,0.570604145526886,-13.924420356750488,-0.3004102714544085,-0.3176414284363584,0.37954746890657887,0.14916490061829518
-1.9199869632720947,0.2644961178302765,-15.996036529541016,-0.3004102714544085,-0.3176414284363584,0.37954746890657887,0.14916490061829518
-1.0655516386032104,-0.9318016767501831,-18.199138641357422,-0.3004102714544085,-0.3176414284363584,0.37954746890657887,0.14916490061829518
-0.7323623895645142,-0.13516494631767273,-20.414148330688477,-0.3004102714544085,-0.3176414284363584,0.37954746890657887,0.14916490061829518
-0.4527263045310974,-1.403272271156311,-22.551239013671875,-0.3004102714544085,-0.3176414284363584,0.37954746890657887,0.14916490061829518
-0.9235002398490906,-0.22587727010250092,-24.7164363861084,-0.3004102714544085,-0.3176414284363584,0.37954746890657887,0.14916490061829518
-1.2857022285461426,-2.38375186920166,-26.82677459716797,-0.3004102714544085,-0.3176414284363584,0.37954746890657887,0.14916490061829518
-0.9387208819389343,1.2135077714920044,-28.988422393798828,-0.3004102714544085,-0.3176414284363584,0.37954746890657887,0.14916490061829518
-1.3900333642959595,-1.6817935705184937,-31.21852684020996,-0.3004102714544085,-0.3176414284363584,0.37954746890657887,0.14916490061829518
-0.36248597502708435,0.7102561593055725,-33.4227294921875,-0.3004102714544085,-0.3176414284363584,0.37954746890657887,0.14916490061829518
-1.2142012119293213,-0.7860527038574219,-35.6164665222168,-0.3004102714544085,-0.3176414284363584,0.37954746890657887,0.14916490061829518
-1.3249961137771606,-0.869718074798584,-37.79581832885742,-0.3004102714544085,-0.3176414284363584,0.37954746890657887,0.14916490061829518
-0.12870481610298157,2.3281891345977783,-39.93031692504883,-0.3004102714544085,-0.3176414284363584,0.37954746890657887,0.14916490061829518
-1.6705896854400635,-2.5176196098327637,-42.03264236450195,-0.3004102714544085,-0.3176414284363584,0.37954746890657887,0.14916490061829518
0.07700679451227188,1.3208389282226562,-44.187705993652344,-0.3004102714544085,-0.3176414284363584,0.37954746890657887,0.14916490061829518
-0.830365777015686,0.21093058586120605,-46.33486557006836,-0.3004102714544085,-0.3176414284363584,0.37954746890657887,0.14916490061829518
-0.5768730044364929,-0.6446172595024109,-48.57206726074219,-0.3004102714544085,-0.3176414284363584,0.37954746890657887,0.14916490061829518
-0.4089793860912323,0.5507095456123352,-50.86838912963867,-0.3004102714544085,-0.3176414284363584,0.37954746890657887,0.14916490061829518
-0.38597047328948975,0.5094814896583557,-53.19297790527344,-0.3004102714544085,-0.3176414284363584,0.37954746890657887,0.14916490061829518
-0.9413406848907471,-0.33577853441238403,-55.406044006347656,-0.3004102714544085,-0.3176414284363584,0.37954746890657887,0.14916490061829518
-0.0804695263504982,-0.17312967777252197,-57.70997619628906,-0.3004102714544085,-0.3176414284363584,0.37954746890657887,0.14916490061829518
-0.49093565344810486,-0.04991476237773895,-60.0317497253418,-0.3004102714544085,-0.3176414284363584,0.37954746890657887,0.14916490061829518
0.12428626418113708,1.5094808340072632,-62.34713363647461,-0.3004102714544085,-0.3176414284363584,0.37954746890657887,0.14916490061829518
-1.4082748889923096,-0.5717684030532837,-64.71298217773438,-0.3004102714544085,-0.3176414284363584,0.37954746890657887,0.14916490061829518
0.43018755316734314,2.065850257873535,-67.08050537109375,-0.3004102714544085,-0.3176414284363584,0.37954746890657887,0.14916490061829518
-1.3663241863250732,-1.4489421844482422,-69.42243194580078,-0.3004102714544085,-0.3176414284363584,0.37954746890657887,0.14916490061829518
0.4510669708251953,1.0466030836105347,-71.71955108642578,-0.3004102714544085,-0.3176414284363584,0.37954746890657887,0.14916490061829518
-0.5619603991508484,0.0032026960980147123,-73.92342376708984,-0.3004102714544085,-0.3176414284363584,0.37954746890657887,0.14916490061829518
1.1124428510665894,0.09828250110149384,-76.18107604980469,-0.3004102714544085,-0.3176414284363584,0.37954746890657887,0.14916490061829518
-2.1913163661956787,-0.42296522855758667,-78.37191772460938,-0.3004102714544085,-0.3176414284363584,0.37954746890657887,0.14916490061829518
2.2244796752929688,1.4404847621917725,-80.623291015625,-0.3004102714544085,-0.3176414284363584,0.37954746890657887,0.14916490061829518
0.8718577027320862,1.5132148265838623,-82.86033630371094,-0.3004102714544085,-0.3176414284363584,0.37954746890657887,0.14916490061829518
-2.7242064476013184,-2.6668307781219482,-84.95855712890625,-0.3004102714544085,-0.3176414284363584,0.37954746890657887,0.14916490061829518
1.8210070133209229,1.0254062414169312,-86.59278106689453,-0.3004102714544085,-0.3176414284363584,0.37954746890657887,0.14916490061829518
2.232717752456665,-0.25634557008743286,-87.90254211425781,-0.3004102714544085,-0.3176414284363584,0.37954746890657887,0.14916490061829518
1.1843117475509644,-0.2579514980316162,-88.9196548461914,-0.3004102714544085,-0.3176414284363584,0.37954746890657887,0.14916490061829518
0.8739368915557861,-1.2359035015106201,-89.43572998046875,-0.3004102714544085,-0.3176414284363584,0.37954746890657887,0.14916490061829518
2.1187760829925537,0.0349293053150177,-89.53727722167969,-0.3004102714544085,-0.3176414284363584,0.37954746890657887,0.14916490061829518
-0.5652286410331726,-0.8289713859558105,-89.44100952148438,-0.3004102714544085,-0.3176414284363584,0.37954746890657887,0.14916490061829518
0.17832161486148834,-0.41264206171035767,-89.33255004882812,-0.3004102714544085,-0.3176414284363584,0.37954746890657887,0.14916490061829518
-0.23898008465766907,-1.4349026679992676,-89.3553237915039,-0.3004102714544085,-0.3176414284363584,0.37954746890657887,0.14916490061829518
-0.16114696860313416,-0.17982307076454163,-89.36437225341797,-0.3004102714544085,-0.3176414284363584,0.37954746890657887,0.14916490061829518
0.13694575428962708,-0.2474459409713745,-89.32059478759766,-0.3004102714544085,-0.3176414284363584,0.37954746890657887,0.14916490061829518
-0.2279214709997177,0.1908443421125412,-89.31004333496094,-0.3004102714544085,-0.3176414284363584,0.37954746890657887,0.14916490061829518
-0.1429186761379242,-0.04645591974258423,-89.28226470947266,-0.3004102714544085,-0.3176414284363584,0.37954746890657887,0.14916490061829518
-0.054769743233919144,0.1609170287847519,-89.25013732910156,-0.3004102714544085,-0.3176414284363584,0.37954746890657887,0.14916490061829518
-0.14813350141048431,0.11295977979898453,-89.2424545288086,-0.3004102714544085,-0.3176414284363584,0.37954746890657887,0.14916490061829518
-0.10175258666276932,0.1781054437160492,-89.2270278930664,-0.3004102714544085,-0.3176414284363584,0.37954746890657887,0.14916490061829518
-0.11358698457479477,-0.06505922973155975,-89.21900939941406,-0.3004102714544085,-0.3176414284363584,0.37954746890657887,0.14916490061829518
-0.07734949141740799,-0.2245543897151947,-89.21157836914062,-0.3004102714544085,-0.3176414284363584,0.37954746890657887,0.14916490061829518
-0.0971212238073349,-0.21676787734031677,-89.20055389404297,-0.3004102714544085,-0.3176414284363584,0.37954746890657887,0.14916490061829518
-0.09533748030662537,-0.11816515028476715,-89.18975830078125,-0.3004102714544085,-0.3176414284363584,0.37954746890657887,0.14916490061829518
-0.12423864006996155,-0.003027818165719509,-89.17965698242188,-0.3004102714544085,-0.3176414284363584,0.37954746890657887,0.14916490061829518
-0.08458785712718964,-0.023681271821260452,-89.17115020751953,-0.3004102714544085,-0.3176414284363584,0.37954746890657887,0.14916490061829518
-0.1136837750673294,-0.10518991947174072,-89.16447448730469,-0.3004102714544085,-0.3176414284363584,0.37954746890657887,0.14916490061829518
-0.09727700054645538,-0.1532524973154068,-89.15945434570312,-0.3004102714544085,-0.3176414284363584,0.37954746890657887,0.14916490061829518
-0.11299702525138855,-0.11192797869443893,-89.14582824707031,-0.3004102714544085,-0.3176414284363584,0.37954746890657887,0.14916490061829518
-0.10428138822317123,-0.060827478766441345,-89.14252471923828,-0.3004102714544085,-0.3176414284363584,0.37954746890657887,0.14916490061829518
-0.09706456959247589,-0.05859103053808212,-89.13548278808594,-0.3004102714544085,-0.3176414284363584,0.37954746890657887,0.14916490061829518
-0.10407260805368423,-0.10600791871547699,-89.13169860839844,-0.3004102714544085,-0.3176414284363584,0.37954746890657887,0.14916490061829518
-0.10131306201219559,-0.10931035131216049,-89.12236022949219,-0.3004102714544085,-0.3176414284363584,0.37954746890657887,0.14916490061829518
-0.09934606403112411,-0.09871333092451096,-89.11502075195312,-0.3004102714544085,-0.3176414284363584,0.37954746890657887,0.14916490061829518
-0.1063055768609047,-0.0560227632522583,-89.11087036132812,-0.3004102714544085,-0.3176414284363584,0.37954746890657887,0.14916490061829518
-0.09088504314422607,-0.08089449256658554,-89.1050033569336,-0.3004102714544085,-0.3176414284363584,0.37954746890657887,0.14916490061829518
-0.09530691057443619,-0.10366834700107574,-89.09823608398438,-0.3004102714544085,-0.3176414284363584,0.37954746890657887,0.14916490061829518
-0.106699138879776,-0.1150064766407013,-89.0899658203125,-0.3004102714544085,-0.3176414284363584,0.37954746890657887,0.14916490061829518
-0.10677032917737961,-0.0896524041891098,-89.082275390625,-0.3004102714544085,-0.3176414284363584,0.37954746890657887,0.14916490061829518
-0.09335429966449738,-0.0826387032866478,-89.07798767089844,-0.3004102714544085,-0.3176414284363584,0.37954746890657887,0.14916490061829518
-0.09056278318166733,-0.0941372737288475,-89.07492065429688,-0.3004102714544085,-0.3176414284363584,0.37954746890657887,0.14916490061829518
-0.10152410715818405,-0.09366272389888763,-89.06865692138672,-0.3004102714544085,-0.3176414284363584,0.37954746890657887,0.14916490061829518
-0.0978187769651413,-0.09821391850709915,-89.06356811523438,-0.3004102714544085,-0.3176414284363584,0.37954746890657887,0.14916490061829518
-0.09592331945896149,-0.09570925682783127,-89.05805206298828,-0.3004102714544085,-0.3176414284363584,0.37954746890657887,0.14916490061829518
-0.09534870088100433,-0.09080016613006592,-89.0537338256836,-0.3004102714544085,-0.3176414284363584,0.37954746890657887,0.14916490061829518
-0.09225301444530487,-0.09227289259433746,-89.05258178710938,-0.3004102714544085,-0.3176414284363584,0.37954746890657887,0.14916490061829518
-0.09241175651550293,-0.08967893570661545,-89.04994201660156,-0.3004102714544085,-0.3176414284363584,0.37954746890657887,0.14916490061829518
-0.10628674924373627,-0.09289126843214035,-89.04708099365234,-0.3004102714544085,-0.3176414284363584,0.37954746890657887,0.14916490061829518
-0.10575908422470093,-0.09136898070573807,-89.04283142089844,-0.3004102714544085,-0.3176414284363584,0.37954746890657887,0.14916490061829518
-0.1040308028459549,-0.08714954555034637,-89.03882598876953,-0.3004102714544085,-0.3176414284363584,0.37954746890657887,0.14916490061829518
-0.09654146432876587,-0.08659473806619644,-89.0329818725586,-0.3004102714544085,-0.3176414284363584,0.37954746890657887,0.14916490061829518
-0.10499230772256851,-0.07450556755065918,-89.03063201904297,-0.2940984757068024,-0.3151665342806102,0.37786802080615106,0.14782239807148806
0,-0.14227697253227234,-89.03221130371094,-0.28780796649251394,-0.31271788198914674,0.376993084908463,0.1460158769041303
-0.40227922797203064,-1.8082185983657837,-89.09949493408203,-0.2815526844682043,-0.31041973512205695,0.37364075800869606,0.12976174714664648
0.24281933903694153,-3.11674165725708,-89.21495056152344,-0.275336412104791,-0.3085990504651422,0.37231192560090365,0.08872041168312261
0,-2.96894907951355,-89.08247375488281,-0.26911435089067615,-0.3075429943493659,0.3743354200928782,0.038006322210034034
0,-0.7596012353897095,-89.09519958496094,-0.2628754272224615,-0.30716848275106695,0.3743354200928782,0.006935069585840208
-0.2855176329612732,-1.2164288759231567,-89.15376281738281,-0.25665633116764697,-0.3071901225712552,0.37195610648486754,-0.009531848008433676
0.2353312373161316,-1.4473646879196167,-89.163330078125,-0.25046054789259675,-0.30753397236888486,0.37153788652115805,-0.031730127707123454
-0.13401705026626587,-2.213646173477173,-89.1451416015625,-0.24426121407647677,-0.30831704469604504,0.37238217141324026,-0.062238551552096705
-0.5917776226997375,-1.3196099996566772,-89.15262603759766,-0.23810524696076762,-0.30959971890060317,0.3663338824718569,-0.09168235299487879
0.5257537961006165,-0.74322509765625,-89.22908782958984,-0.23200426724086162,-0.3112710105544979,0.3657836839168642,-0.10887264547248651
-0.502004086971283,-1.6335556507110596,-89.21278381347656,-0.2259062232235577,-0.31325060886434264,0.3659815981596087,-0.12867915170888075
1.2158793210983276,-2.187373399734497,-89.16877746582031,-0.21975695525186095,-0.3156606036879938,0.3719305584440007,-0.1605202271292604
-0.13873200118541718,-1.2940208911895752,-89.06065368652344,-0.21348331071391144,-0.3185777042992401,0.3809067861099416,-0.18953184622029434
-0.8104237914085388,-0.22853592038154602,-88.92926788330078,-0.20720077787545366,-0.32184230151482635,0.372997154504992,-0.20221981965005367
0.12022218108177185,-0.7627105712890625,-88.93426513671875,-0.2010320893010876,-0.3252814684042488,0.3672454744189356,-0.21048020708064208
-0.7656152248382568,-1.0729809999465942,-89.03203582763672,-0.1949561503554773,-0.32891695043692865,0.36186719905429826,-0.2257776368409392
0.4492587149143219,-0.8951940536499023,-89.01237487792969,-0.18894699957331706,-0.3328165898741107,0.35923089480493214,-0.24217909562091
-1.2919350862503052,-0.3312576413154602,-89.00630950927734,-0.18301833718568875,-0.33693807839105405,0.3522085917104656,-0.252399526412288
0.8228196501731873,-0.567368745803833,-89.05770111083984,-0.177180771451353,-0.3412071417748088,0.34829929640982293,-0.25988807963828214
0.11813806742429733,-0.8414841294288635,-89.02961730957031,-0.17131043889191166,-0.3456364467740047,0.3561406107231353,-0.2716285202652213
0.27334481477737427,-0.9618180394172668,-88.94703674316406,-0.16534757573526207,-0.350288818095706,0.3594029680748159,-0.28665603833893905
-0.9218495488166809,-0.798702597618103,-88.83875274658203,-0.15940256131832342,-0.3551886771122602,0.3539987619578217,-0.3013270436475671
-0.852558970451355,-0.42178618907928467,-88.90666961669922,-0.15362580476619778,-0.3602955506721292,0.3392120242972547,-0.31149778353671204
-0.5125651359558105,-0.9441503286361694,-89.06021881103516,-0.14806707131307736,-0.3655820371003602,0.327835990077195,-0.3228805878510075
0.8153083324432373,0,-89.15220642089844,-0.1425821143120347,-0.3710289462262545,0.33035885004792354,-0.3307485072563089
1.523819088935852,-0.46233686804771423,-89.16366577148438,-0.1369136940736402,-0.37657352807414074,0.34985157855941595,-0.3346013144900398
-1.2362581491470337,0,-89.26813507080078,-0.13106286492127572,-0.3821823233759225,0.3522479197243228,-0.33845412172377076
-0.7460036277770996,-0.9564018845558167,-89.40882110595703,-0.12532972332704562,-0.38788964220219063,0.33572907158328835,-0.34642413742840256
1.138002634048462,-0.35602352023124695,-89.491455078125,-0.1197070166474442,-0.39375451847910753,0.33899572996888305,-0.3573610158016281
-2.1903810501098633,-0.5143729448318481,-89.59415435791016,-0.11413016964907818,-0.3997709796080974,0.330225909835038,-0.3646143196771539
0.795307457447052,-0.1623256653547287,-89.43746948242188,-0.10872328459576247,-0.40589487789509066,0.31860029656284794,-0.37025347476204207
1.1074249744415283,-0.2932504713535309,-89.30864715576172,-0.1032811454563894,-0.41209740637284054,0.33445640016191946,-0.3740499425679442
-0.2790191173553467,-0.7679780721664429,-89.26297760009766,-0.09764934393583755,-0.4184052685089396,0.3413597823043043,-0.382893513763944
0.24091559648513794,-0.9066235423088074,-89.27506256103516,-0.09196266030860402,-0.424903118850455,0.3410422529637192,-0.3968485272179044
-0.21755553781986237,-0.976912796497345,-89.38572692871094,-0.0862770005329125,-0.43164806210539275,0.34123692011926315,-0.41254466337462237
0,1.3510849475860596,-89.43400573730469,-0.08060482655438449,-0.43849782231781087,0.33942395730409763,-0.40942656211554973
-0.7327006459236145,-0.08076727390289307,-89.50030517578125,-0.07499864258861644,-0.44523338184795314,0.33331811858806754,-0.39884058150152335
-0.5932100415229797,1.212346076965332,-89.60834503173828,-0.06953541774322132,-0.4518021430116547,0.3222688628593459,-0.3894107581426697
0.4416148364543915,-1.494367003440857,-89.61371612548828,-0.06417479747369531,-0.45831190710059333,0.32100556948377434,-0.39176093252996574
2.1188526153564453,-1.6440285444259644,-89.5842056274414,-0.058646894409256654,-0.4650592001113613,0.34234279824886465,-0.41791422876218925
0.3124786615371704,2.3341622352600098,-89.34960174560547,-0.05277233865532463,-0.4719765113066454,0.3626038922229781,-0.41216311467190553
-1.9681921005249023,-0.3728824853897095,-89.15648651123047,-0.046843920551538035,-0.4787096965685473,0.3488062802314137,-0.3958191167563197
0.3038072884082794,-2.2049241065979004,-88.91920471191406,-0.04114606482630035,-0.48548569619448506,0.3349364067971085,-0.41730083835621645
-0.5473142862319946,-0.4622552990913391,-88.7514419555664,-0.035580701587864076,-0.4926259309591504,0.3329071818152442,-0.43952733340362676
-0.28909337520599365,1.119497537612915,-88.54439544677734,-0.030090332422987646,-0.499905744693758,0.32593711796992764,-0.4340503147492803
0.3507971167564392,-1.575209140777588,-88.46707916259766,-0.024653762141436737,-0.5071715632453546,0.32645131581618136,-0.4378479114423192
-1.086451530456543,2.4074034690856934,-88.33434295654297,-0.01926399398989622,-0.5144112371632608,0.3203208623686805,-0.4309129587064183
-0.683677613735199,-1.5089799165725708,-88.20191192626953,-0.014048238585431527,-0.5215307292838877,0.3055697861670827,-0.42342609576880896
0.5091056823730469,1.0448534488677979,-88.15921020507812,-0.008967531866769187,-0.5286200618847362,0.3041150200723981,-0.4272938163330154
0.603594183921814,-0.435960590839386,-88.16841888427734,-0.003821677374847631,-0.5356993412640345,0.3133875189581886,-0.4222197091827786
-0.2504095435142517,-0.8799673914909363,-88.26714324951172,0.0014259746522615937,-0.5428277203047427,0.3163307242949183,-0.43318577570219796
-1.3334437608718872,0.31787604093551636,-88.39419555664062,0.00658816357770564,-0.550086517354679,0.3031319467583672,-0.4378698702901598
1.5120211839675903,0.27192988991737366,-88.61949157714844,0.011652763900282293,-0.5573433897809835,0.3046200919508314,-0.4329548208663857
0.9163978695869446,-0.3485366702079773,-89.19324493408203,0.016898405644848548,-0.5645646233773879,0.3248569173971192,-0.43359321070214074
0.1109754666686058,1.0372934341430664,-89.62564086914062,0.016898405644848548,-0.5645646233773879,0.3248569173971192,-0.43359321070214074
-2.7226879596710205,1.5554231405258179,-89.99051666259766,0.016898405644848548,-0.5645646233773879,0.3248569173971192,-0.43359321070214074
0.8802201747894287,-1.9073247909545898,-89.8766860961914,0.016898405644848548,-0.5645646233773879,0.3248569173971192,-0.43359321070214074
-0.8231555223464966,0.786062479019165,-90.02227020263672,0.016898405644848548,-0.5645646233773879,0.3248569173971192,-0.43359321070214074
1.100379228591919,3.802673816680908,-90.36931610107422,0.016898405644848548,-0.5645646233773879,0.3248569173971192,-0.43359321070214074
-3.4078807830810547,0.7683230042457581,-91.09584045410156,0.016898405644848548,-0.5645646233773879,0.3248569173971192,-0.43359321070214074
2.201878786087036,3.8689234256744385,-92.02186584472656,0.016898405644848548,-0.5645646233773879,0.3248569173971192,-0.43359321070214074
-1.3849945068359375,1.4888137578964233,-93.1556396484375,0.016898405644848548,-0.5645646233773879,0.3248569173971192,-0.43359321070214074
-0.8472439646720886,1.177025318145752,-94.68817901611328,0.016898405644848548,-0.5645646233773879,0.3248569173971192,-0.43359321070214074
1.080854892730713,2.4673912525177,-96.377197265625,0.016898405644848548,-0.5645646233773879,0.3248569173971192,-0.43359321070214074
-1.8354483842849731,2.09677791595459,-98.1702880859375,0.016898405644848548,-0.5645646233773879,0.3248569173971192,-0.43359321070214074
0.9359191060066223,1.882373571395874,-100.07209777832031,0.016898405644848548,-0.5645646233773879,0.3248569173971192,-0.43359321070214074
-0.44036993384361267,0.9042342305183411,-101.87545776367188,0.016898405644848548,-0.5645646233773879,0.3248569173971192,-0.43359321070214074
-1.1093051433563232,0.5216426849365234,-103.61372375488281,0.016898405644848548,-0.5645646233773879,0.3248569173971192,-0.43359321070214074
2.235774278640747,0.6828591823577881,-105.25579071044922,0.016898405644848548,-0.5645646233773879,0.3248569173971192,-0.43359321070214074
-1.725023627281189,0.9341509342193604,-106.90184020996094,0.016898405644848548,-0.5645646233773879,0.3248569173971192,-0.43359321070214074
0.44855475425720215,1.243760108947754,-108.59918212890625,0.016898405644848548,-0.5645646233773879,0.3248569173971192,-0.43359321070214074
-1.1141777038574219,0.6698919534683228,-110.37519836425781,0.016898405644848548,-0.5645646233773879,0.3248569173971192,-0.43359321070214074
-0.19753821194171906,0.40308499336242676,-112.22761535644531,0.016898405644848548,-0.5645646233773879,0.3248569173971192,-0.43359321070214074
-0.9381430149078369,1.1272265911102295,-114.1364517211914,0.016898405644848548,-0.5645646233773879,0.3248569173971192,-0.43359321070214074
-2.196582794189453,0.8960558772087097,-116.0323486328125,0.016898405644848548,-0.5645646233773879,0.3248569173971192,-0.43359321070214074
-0.5794519186019897,1.6246099472045898,-117.98638153076172,0.016898405644848548,-0.5645646233773879,0.3248569173971192,-0.43359321070214074
-0.21672961115837097,1.899490237236023,-119.8270263671875,0.016898405644848548,-0.5645646233773879,0.3248569173971192,-0.43359321070214074
0.44096148014068604,-1.0745265483856201,-121.60320281982422,0.016898405644848548,-0.5645646233773879,0.3248569173971192,-0.43359321070214074
-1.2164771556854248,0.8393256664276123,-123.56086730957031,0.016898405644848548,-0.5645646233773879,0.3248569173971192,-0.43359321070214074
0.7327670454978943,0.8201466202735901,-125.6017837524414,0.016898405644848548,-0.5645646233773879,0.3248569173971192,-0.43359321070214074
-1.1901772022247314,1.280745029449463,-127.69335174560547,0.016898405644848548,-0.5645646233773879,0.3248569173971192,-0.43359321070214074
0.29162150621414185,0.4852769076824188,-129.90345764160156,0.016898405644848548,-0.5645646233773879,0.3248569173971192,-0.43359321070214074
-0.7396498918533325,1.7042313814163208,-132.18991088867188,0.016898405644848548,-0.5645646233773879,0.3248569173971192,-0.43359321070214074
-0.20708684623241425,0.2320578545331955,-134.5548095703125,0.016898405644848548,-0.5645646233773879,0.3248569173971192,-0.43359321070214074
0.6875971555709839,0.21422062814235687,-136.92660522460938,0.016898405644848548,-0.5645646233773879,0.3248569173971192,-0.43359321070214074
-0.5192223787307739,0.3014809787273407,-139.37887573242188,0.016898405644848548,-0.5645646233773879,0.3248569173971192,-0.43359321070214074
1.4991497993469238,1.2018259763717651,-141.85374450683594,0.016898405644848548,-0.5645646233773879,0.3248569173971192,-0.43359321070214074
0.1475614309310913,0.08757220953702927,-144.35379028320312,0.016898405644848548,-0.5645646233773879,0.3248569173971192,-0.43359321070214074
0.8250696063041687,0.9591456055641174,-146.9299774169922,0.016898405644848548,-0.5645646233773879,0.3248569173971192,-0.43359321070214074
-0.5509571433067322,0.6223351955413818,-149.49395751953125,0.016898405644848548,-0.5645646233773879,0.3248569173971192,-0.43359321070214074
0.7992910742759705,-0.2626630663871765,-151.97239685058594,0.016898405644848548,-0.5645646233773879,0.3248569173971192,-0.43359321070214074
0.35566890239715576,-0.014592603780329227,-154.556640625,0.016898405644848548,-0.5645646233773879,0.3248569173971192,-0.43359321070214074
-1.040084719657898,0.5195499658584595,-157.1811981201172,0.016898405644848548,-0.5645646233773879,0.3248569173971192,-0.43359321070214074
1.054835319519043,-0.21708650887012482,-159.8372802734375,0.016898405644848548,-0.5645646233773879,0.3248569173971192,-0.43359321070214074
-0.46100640296936035,1.455520749092102,-162.433837890625,0.016898405644848548,-0.5645646233773879,0.3248569173971192,-0.43359321070214074
1.5958830118179321,-0.18351198732852936,-164.92669677734375,0.016898405644848548,-0.5645646233773879,0.3248569173971192,-0.43359321070214074
-0.6211080551147461,0.035549651831388474,-167.35769653320312,0.016898405644848548,-0.5645646233773879,0.3248569173971192,-0.43359321070214074
0.1498272866010666,0.113603875041008,-169.8582763671875,0.016898405644848548,-0.5645646233773879,0.3248569173971192,-0.43359321070214074
0.4521251916885376,-0.34749704599380493,-172.0377960205078,0.016898405644848548,-0.5645646233773879,0.3248569173971192,-0.43359321070214074
0.8455327153205872,-1.5458004474639893,-173.75357055664062,0.016898405644848548,-0.5645646233773879,0.3248569173971192,-0.43359321070214074
0.4763072729110718,-1.8929452896118164,-175.07852172851562,0.016898405644848548,-0.5645646233773879,0.3248569173971192,-0.43359321070214074
-0.49635326862335205,-1.8793901205062866,-175.8983154296875,0.016898405644848548,-0.5645646233773879,0.3248569173971192,-0.43359321070214074
-0.4926183521747589,-1.4965384006500244,-176.20834350585938,0.016898405644848548,-0.5645646233773879,0.3248569173971192,-0.43359321070214074
-0.9074991345405579,-1.439921259880066,-176.1272735595703,0.016898405644848548,-0.5645646233773879,0.3248569173971192,-0.43359321070214074
-0.907679557800293,-0.024675477296113968,-175.91246032714844,0.016898405644848548,-0.5645646233773879,0.3248569173971192,-0.43359321070214074
-0.34287816286087036,1.4383196830749512,-175.7852783203125,0.016898405644848548,-0.5645646233773879,0.3248569173971192,-0.43359321070214074
0.6865201592445374,-0.42764362692832947,-175.87355041503906,0.016898405644848548,-0.5645646233773879,0.3248569173971192,-0.43359321070214074
1.1533113718032837,0.2608430087566376,-175.90347290039062,0.016898405644848548,-0.5645646233773879,0.3248569173971192,-0.43359321070214074
0.3811614215373993,0.22905704379081726,-175.8417510986328,0.016898405644848548,-0.5645646233773879,0.3248569173971192,-0.43359321070214074
-0.4797549247741699,-0.09716107696294785,-175.83859252929688,0.016898405644848548,-0.5645646233773879,0.3248569173971192,-0.43359321070214074
-0.8489975333213806,0.1183907613158226,-175.85670471191406,0.016898405644848548,-0.5645646233773879,0.3248569173971192,-0.43359321070214074
-0.48082152009010315,0.09791937470436096,-175.82992553710938,0.016898405644848548,-0.5645646233773879,0.3248569173971192,-0.43359321070214074
0.2984793484210968,0.030811605975031853,-175.84161376953125,0.016898405644848548,-0.5645646233773879,0.3248569173971192,-0.43359321070214074
0.34887397289276123,0.18600337207317352,-175.85009765625,0.016898405644848548,-0.5645646233773879,0.3248569173971192,-0.43359321070214074
-0.03431636840105057,0.07474245876073837,-175.83633422851562,0.016898405644848548,-0.5645646233773879,0.3248569173971192,-0.43359321070214074
-0.3807733952999115,0.03154886141419411,-175.84690856933594,0.016898405644848548,-0.5645646233773879,0.3248569173971192,-0.43359321070214074
-0.24792827665805817,0.14903533458709717,-175.84112548828125,0.016898405644848548,-0.5645646233773879,0.3248569173971192,-0.43359321070214074
0.06839865446090698,0.038762085139751434,-175.8402862548828,0.016898405644848548,-0.5645646233773879,0.3248569173971192,-0.43359321070214074
0.061997171491384506,0.1412704437971115,-175.8455352783203,0.016898405644848548,-0.5645646233773879,0.3248569173971192,-0.43359321070214074
-0.15328867733478546,0.08195452392101288,-175.84207153320312,0.016898405644848548,-0.5645646233773879,0.3248569173971192,-0.43359321070214074
-0.22076745331287384,0.05908052995800972,-175.8445587158203,0.016898405644848548,-0.5645646233773879,0.3248569173971192,-0.43359321070214074
-0.04649107903242111,0.10822618007659912,-175.8428192138672,0.016898405644848548,-0.5645646233773879,0.3248569173971192,-0.43359321070214074
0.018052997067570686,0.08177030086517334,-175.8428955078125,0.016898405644848548,-0.5645646233773879,0.3248569173971192,-0.43359321070214074
-0.11690597236156464,0.1104523316025734,-175.84371948242188,0.016898405644848548,-0.5645646233773879,0.3248569173971192,-0.43359321070214074
-0.1585606336593628,0.06615549325942993,-175.8406524658203,0.016898405644848548,-0.5645646233773879,0.3248569173971192,-0.43359321070214074
-0.08951564133167267,0.09210487455129623,-175.84234619140625,0.016898405644848548,-0.5645646233773879,0.3248569173971192,-0.43359321070214074
-0.020394496619701385,0.09505195170640945,-175.84242248535156,0.016898405644848548,-0.5645646233773879,0.3248569173971192,-0.43359321070214074
-0.09588652849197388,0.09059060364961624,-175.84121704101562,0.016898405644848548,-0.5645646233773879,0.3248569173971192,-0.43359321070214074
-0.1282784789800644,0.09614098817110062,-175.8412628173828,0.016898405644848548,-0.5645646233773879,0.3248569173971192,-0.43359321070214074
-0.07931911200284958,0.08210237324237823,-175.84024047851562,0.016898405644848548,-0.5645646233773879,0.3248569173971192,-0.43359321070214074
-0.05426210165023804,0.08130762726068497,-175.84019470214844,0.016898405644848548,-0.5645646233773879,0.3248569173971192,-0.43359321070214074
-0.08833939582109451,0.09206943213939667,-175.83969116210938,0.016898405644848548,-0.5645646233773879,0.3248569173971192,-0.43359321070214074
-0.09963559359312057,0.08387380838394165,-175.8394317626953,0.016898405644848548,-0.5645646233773879,0.3248569173971192,-0.43359321070214074
-0.06981360912322998,0.09183159470558167,-175.83876037597656,0.016898405644848548,-0.5645646233773879,0.3248569173971192,-0.43359321070214074
-0.07645407319068909,0.08897728472948074,-175.83914184570312,0.016898405644848548,-0.5645646233773879,0.3248569173971192,-0.43359321070214074
-0.09566458314657211,0.07540319114923477,-175.83888244628906,0.016898405644848548,-0.5645646233773879,0.3248569173971192,-0.43359321070214074
-0.09250778704881668,0.07468628883361816,-175.837890625,0.016898405644848548,-0.5645646233773879,0.3248569173971192,-0.43359321070214074
-0.07501361519098282,0.1047874242067337,-175.83755493164062,0.016898405644848548,-0.5645646233773879,0.3248569173971192,-0.43359321070214074
-0.0813714787364006,0.08457852154970169,-175.83810424804688,0.016898405644848548,-0.5645646233773879,0.3248569173971192,-0.43359321070214074
-0.06866378337144852,0.08763475716114044,-175.8387908935547,0.016898405644848548,-0.5645646233773879,0.3248569173971192,-0.43359321070214074
-0.09319636970758438,0.09200441092252731,-175.8381805419922,0.016898405644848548,-0.5645646233773879,0.3248569173971192,-0.43359321070214074
-0.08524364233016968,0.08573944121599197,-175.83859252929688,0.016898405644848548,-0.5645646233773879,0.3248569173971192,-0.43359321070214074
-0.0765145793557167,0.08960171788930893,-175.83871459960938,0.016898405644848548,-0.5645646233773879,0.3248569173971192,-0.43359321070214074
-0.09685612469911575,0.09313824772834778,-175.8382110595703,0.016898405644848548,-0.5645646233773879,0.3248569173971192,-0.43359321070214074
-0.08780425786972046,0.08391682803630829,-175.83848571777344,0.016898405644848548,-0.5645646233773879,0.3248569173971192,-0.43359321070214074
-0.07465158402919769,0.07578755170106888,-175.83804321289062,0.016898405644848548,-0.5645646233773879,0.3248569173971192,-0.43359321070214074
-0.07155317068099976,0.08138885349035263,-175.8372802734375,0.022302534493501214,-0.571780261860952,0.3236385444412009,-0.43228340732554554
-0.19531947374343872,0,-175.84046936035156,0.027677977411658422,-0.5789793333126632,0.3214146057376639,-0.4316051668797926
-0.4823131263256073,0,-175.85081481933594,0.032987829687836916,-0.5861727527606597,0.31576766740375517,-0.4316051668797926
-0.8623217344284058,0.31654059886932373,-175.8282470703125,0.038157246723680475,-0.5933441902226236,0.30456237689747173,-0.4289673285558816
-4.20644998550415,-0.5770197510719299,-175.72776794433594,0.04288128830253191,-0.6005117345285691,0.2623226125647004,-0.43113798815757
-3.042585611343384,-1.090613842010498,-175.5977020263672,0.046749926595495844,-0.6078131755529371,0.20191398259097096,-0.44503493476659023
-0.23043107986450195,1.3203634023666382,-175.6144561767578,0.04988786681290037,-0.6152144696351334,0.17463884349757192,-0.44312035509695574
-1.6045095920562744,-0.11261840909719467,-175.6212158203125,0.05267108776897651,-0.6225159377066611,0.15934767123156546,-0.43305581348637706
-2.1300110816955566,-0.3025606572628021,-175.60292053222656,0.05506754057604762,-0.6297623664777091,0.12822666561696686,-0.436515639039377
-1.496772050857544,0.22005289793014526,-175.5838623046875,0.0569527917299031,-0.6370433568338746,0.09800347284569103,-0.4372032037004825
-1.3391247987747192,-0.19372448325157166,-175.6038818359375,0.05838924566277349,-0.6443282485334189,0.0743709990987555,-0.4369838002448277
-1.092633843421936,-0.8057253360748291,-175.6258544921875,0.05945989018648909,-0.6516807181082859,0.0541063437471167,-0.4453125487392144
-1.8931621313095093,0.40024423599243164,-175.64891052246094,0.060154315639584684,-0.659130752330334,0.02922471062435466,-0.4486915579065677
-0.2851243019104004,0.7186983823776245,-175.64266967773438,0.06049012425879477,-0.6665312406136122,0.011072323680855412,-0.4393670360868172
-1.6594618558883667,-0.6010404229164124,-175.71527099609375,0.06053962228140634,-0.6738458538567633,-0.0051325609674676455,-0.4383865530913071
-0.954784095287323,1.2473645210266113,-175.70758056640625,0.060272534740894675,-0.6811074127903608,-0.026917943893931727,-0.43300051894038877
-0.3915806710720062,-1.3132855892181396,-175.74468994140625,0.05973040478944308,-0.6883286659579917,-0.03813765028025947,-0.4335498611753182
-1.295525312423706,1.0819618701934814,-175.8616180419922,0.05897761714702933,-0.6955705611247348,-0.0521968668093904,-0.435477558833857
-0.3046327233314514,0.31037428975105286,-175.85728454589844,0.05799654728105649,-0.7027318304275252,-0.06553151710735004,-0.4238747575009859
-1.1869145631790161,-0.23333749175071716,-175.74505615234375,0.056800775656592986,-0.7097910599415693,-0.07796107782827061,-0.4232327841843164
-0.7640290260314941,-1.4468175172805786,-175.71986389160156,0.05536594216575997,-0.7169616171091573,-0.09421894107169153,-0.4372340759262439
-0.5356725454330444,0.4719713628292084,-175.77304077148438,0.05370536942765785,-0.7243165493575427,-0.10504978750056268,-0.44535779388000535
-0.8359275460243225,0.5978536009788513,-175.7114715576172,0.0518592896296306,-0.7316648858552783,-0.11647978826270741,-0.4364425858482715
0,0.3837222754955292,-175.60333251953125,0.04985990930122268,-0.7388707639613277,-0.12344585114624343,-0.4282627868776517
-0.9367218017578125,-0.10931548476219177,-175.593994140625,0.04773742832366322,-0.7459894210488209,-0.13125186616089188,-0.42597606362154056
0,0.6279849410057068,-175.57321166992188,0.04548484709585962,-0.7530530033969408,-0.13905788117554033,-0.4216538181528446
-1.3569670915603638,-1.1020077466964722,-175.56825256347656,0.043072981917131145,-0.7601134852832168,-0.1503659402718767,-0.4256040082002676
-0.44910094141960144,0.5647571086883545,-175.68304443359375,0.0404414615214207,-0.7672441944919718,-0.1654165072133764,-0.43008109685033524
-1.0748121738433838,-1.0859816074371338,-175.70266723632812,0.037578692434860055,-0.7744484089185572,-0.17811578317390125,-0.4344246343399084
-0.5805069804191589,0.3458571135997772,-175.56951904296875,0.03449514332958236,-0.7817402170251833,-0.19191010945942244,-0.4405923384552197
1.096278190612793,0.13114199042320251,-175.44363403320312,0.03133245895041099,-0.7890502977283242,-0.18761201604114217,-0.4366173459216949
-0.5953418016433716,0.15312935411930084,-175.36727905273438,0.028240379265625937,-0.7963075124280926,-0.18343754613306365,-0.43424841805050735
-0.698377251625061,0.5529996752738953,-175.20306396484375,0.025093245229153457,-0.8034959493241154,-0.19421853824363391,-0.4283640094722307
0.15909022092819214,-0.4934910237789154,-175.15866088867188,0.02181881910351672,-0.8106312169367432,-0.19871259683277448,-0.4278681040431059
-1.7212468385696411,-0.6310192942619324,-175.1842498779297,0.018398459391189823,-0.8178404429984367,-0.21173056864645323,-0.43723902336011294
-0.561062216758728,0.8328448534011841,-175.26107788085938,0.014711122896017798,-0.8251137443906095,-0.23074981077418966,-0.43555714370061915
-0.21163079142570496,0.7859407067298889,-175.38287353515625,0.010811633479768497,-0.8322606144550552,-0.2371889191757266,-0.4220672640328602
0.17913773655891418,-0.3066976070404053,-175.56153869628906,0.006856228364696193,-0.839261788084791,-0.23745969463294986,-0.41807357153544783
-0.2631455361843109,0.5338075757026672,-175.67056274414062,0.0028927329125063763,-0.8462139094181136,-0.23815975962982816,-0.4161809884632623
0.6555426120758057,-1.2634836435317993,-175.67173767089844,-0.0010493466177205167,-0.8532009311749894,-0.23488978399739904,-0.4222616223618384
-0.5279744267463684,0.13817735016345978,-175.7521209716797,-0.004955317449251512,-0.8603167711513928,-0.2338267157863204,-0.43163917480657454
-0.5258474349975586,1.2825056314468384,-175.82083129882812,-0.008925611452755736,-0.8674120988577795,-0.24260856463418645,-0.41980014995982207
-1.0920337438583374,-0.5160565972328186,-175.77401733398438,-0.013081440389634947,-0.8743555423964006,-0.25609090779131893,-0.4134130746747052
0.6294499635696411,0.4533388018608093,-175.7940673828125,-0.017381746059788088,-0.881250115710102,-0.2599457726270581,-0.41393572296947195
-0.2328946590423584,0.4464980661869049,-175.84213256835938,-0.021686637040757996,-0.8880865557548677,-0.2566411450893307,-0.40643708240240767
-0.19884636998176575,-0.8136570453643799,-175.86810302734375,-0.02599397147481796,-0.894886004279573,-0.2602389869978651,-0.40949674056221996
-0.38612687587738037,-0.18746043741703033,-175.89639282226562,-0.030371911066855932,-0.9017804720030254,-0.2651137640466913,-0.41783938625206507
0.35974591970443726,0.996261715888977,-175.85638427734375,-0.03479230581181279,-0.9086882950184436,-0.2653336053481325,-0.4110993755981322
-0.4043697118759155,0.8683493137359619,-175.76931762695312,-0.039217631442071355,-0.9154104644013552,-0.2657054702828948,-0.3955609503512577
-0.13153626024723053,0.42419859766960144,-175.7602081298828,-0.04368327163929482,-0.9219133866355841,-0.270171353383921,-0.38478971775621135
-0.41840410232543945,-2.2420413494110107,-175.87283325195312,-0.04822431783198328,-0.9284527876781696,-0.27475418973869326,-0.39993840735405645
-0.2737918794155121,0.29660165309906006,-175.94212341308594,-0.05285162349302684,-0.9352535277796478,-0.28052248958653453,-0.4161504048233227
-0.9957727789878845,0.19691725075244904,-175.86294555664062,-0.05761516253185821,-0.9421550957139356,-0.2911021950732295,-0.41203774729122683
1.3630424737930298,-0.2023628056049347,-175.73068237304688,-0.062441360943161675,-0.9490227696656541,-0.2880416142831866,-0.41208312691499754
-0.28978028893470764,0,-175.63021850585938,-0.0671675224183774,-0.9559048747535156,-0.2790977627427006,-0.413769483628372
-0.8646935224533081,1.8977457284927368,-175.60887145996094,-0.0671675224183774,-0.9559048747535156,-0.2790977627427006,-0.413769483628372
0.29323095083236694,-1.4115252494812012,-175.57977294921875,-0.0671675224183774,-0.9559048747535156,-0.2790977627427006,-0.413769483628372
-0.7909377813339233,0.39215293526649475,-175.64239501953125,-0.0671675224183774,-0.9559048747535156,-0.2790977627427006,-0.413769483628372
0.7784273624420166,0.5971959233283997,-175.794921875,-0.0671675224183774,-0.9559048747535156,-0.2790977627427006,-0.413769483628372
1.7203352451324463,0.1501430720090866,-176.1593475341797,-0.0671675224183774,-0.9559048747535156,-0.2790977627427006,-0.413769483628372
3.189202308654785,-0.3535410165786743,-176.80453491210938,-0.0671675224183774,-0.9559048747535156,-0.2790977627427006,-0.413769483628372
0.6838976144790649,1.2827882766723633,-177.58181762695312,-0.0671675224183774,-0.9559048747535156,-0.2790977627427006,-0.413769483628372
4.1043291091918945,1.1102043390274048,-178.54129028320312,-0.0671675224183774,-0.9559048747535156,-0.2790977627427006,-0.413769483628372
1.2985835075378418,-0.1456199735403061,-179.6587677001953,-0.0671675224183774,-0.9559048747535156,-0.2790977627427006,-0.413769483628372
1.5536926984786987,0.976784348487854,178.99209594726562,-0.0671675224183774,-0.9559048747535156,-0.2790977627427006,-0.413769483628372
1.7237331867218018,-0.43082675337791443,177.3888702392578,-0.0671675224183774,-0.9559048747535156,-0.2790977627427006,-0.413769483628372
1.9153743982315063,0.19394905865192413,175.679443359375,-0.0671675224183774,-0.9559048747535156,-0.2790977627427006,-0.413769483628372
1.3508872985839844,-0.5070412158966064,173.8175506591797,-0.0671675224183774,-0.9559048747535156,-0.2790977627427006,-0.413769483628372
2.243307113647461,-0.21095307171344757,171.86260986328125,-0.0671675224183774,-0.9559048747535156,-0.2790977627427006,-0.413769483628372
0.8760412931442261,1.1211974620819092,169.8892822265625,-0.0671675224183774,-0.9559048747535156,-0.2790977627427006,-0.413769483628372
0.885466992855072,-0.4558705985546112,167.9230194091797,-0.0671675224183774,-0.9559048747535156,-0.2790977627427006,-0.413769483628372
0.7906360030174255,1.3290218114852905,165.92279052734375,-0.0671675224183774,-0.9559048747535156,-0.2790977627427006,-0.413769483628372
0.9274047017097473,0.40019354224205017,163.94117736816406,-0.0671675224183774,-0.9559048747535156,-0.2790977627427006,-0.413769483628372
0.9374405145645142,0.5598332285881042,161.93850708007812,-0.0671675224183774,-0.9559048747535156,-0.2790977627427006,-0.413769483628372
1.0288528203964233,0.2327425330877304,159.9293212890625,-0.0671675224183774,-0.9559048747535156,-0.2790977627427006,-0.413769483628372
0.7003092169761658,-0.6271510720252991,157.8826446533203,-0.0671675224183774,-0.9559048747535156,-0.2790977627427006,-0.413769483628372
0.04700123891234398,0.5765208005905151,155.7509002685547,-0.0671675224183774,-0.9559048747535156,-0.2790977627427006,-0.413769483628372
1.1155681610107422,-0.3244905471801758,153.6824188232422,-0.0671675224183774,-0.9559048747535156,-0.2790977627427006,-0.413769483628372
0.5152210593223572,-0.0362326018512249,151.59445190429688,-0.0671675224183774,-0.9559048747535156,-0.2790977627427006,-0.413769483628372
0.9147511124610901,1.2399446964263916,149.6431427001953,-0.0671675224183774,-0.9559048747535156,-0.2790977627427006,-0.413769483628372
0.5048433542251587,0.3641026020050049,147.7509307861328,-0.0671675224183774,-0.9559048747535156,-0.2790977627427006,-0.413769483628372
1.1891027688980103,0.767297089099884,145.80633544921875,-0.0671675224183774,-0.9559048747535156,-0.2790977627427006,-0.413769483628372
