sep=,
DeviceTag:,Movella DOT,,,,,,,,,,,,,,,,,
FirmwareVersion:,3.0.0,,,,,,,,,,,,,,,,,
AppVersion:,2023.6.1,,,,,,,,,,,,,,,,,
SyncStatus:,Un-synced,,,,,,,,,,,,,,,,,
OutputRate:,60Hz,,,,,,,,,,,,,,,,,
FilterProfile:,Dynamic,,,,,,,,,,,,,,,,,
Measurement Mode:,Sensor fusion Mode - Complete (Euler),,,,,,,,,,,,,,,,,
StartTime:,2024-10-22 13:28:50.379 +0700,,,,,,,,,,,,,,,,,
 2024,,,,,,,,,,,,,,,,,,,

PacketCounter,SampleTimeFine,Euler_X,Euler_Y,Euler_Z,FreeAcc_X,FreeAcc_Y,FreeAcc_Z
1, 29565006, -0.6411759853363037, -0.7165178060531616, -6.952674865722656, 0.02026533, -0.0070106722, 0.31540585
2, 29581673, -0.6501116156578064, -0.7535184025764465, -6.843446254730225, 0.016635623, -0.004461647, 0.31081772
3, 29598340, -0.658970296382904, -0.7917189002037048, -6.864409446716309, -0.0017008218, 1.4014263E-4, 0.34536648
4, 29615007, -0.6660387516021729, -0.8190260529518127, -6.844367504119873, -0.0026028713, 0.008737072, 0.3439169
5, 29631674, -0.6689136028289795, -0.8406969308853149, -6.839541912078857, -0.012517249, -0.0025221063, 0.33129883
6, 29648341, -0.6747042536735535, -0.8574864268302917, -6.839544773101807, -0.024919383, 0.021332793, 0.32207584
7, 29665008, -0.6764472126960754, -0.8696242570877075, -6.837677478790283, -0.019801687, 0.010442843, 0.3175192
8, 29681675, -0.6781702637672424, -0.8808594346046448, -6.835175037384033, -0.016444352, 0.0050350274, 0.31780052
9, 29698342, -0.6808457970619202, -0.8931657671928406, -6.831071853637695, -0.030512396, 0.015576779, 0.32407284
10, 29715009, -0.684086799621582, -0.9047117233276367, -6.830880165100098, -0.021001853, 0.0149832815, 0.3346281
11, 29731676, -0.6862439513206482, -0.9160775542259216, -6.8255133628845215, -0.02443432, 0.008740265, 0.31540203
12, 29748343, -0.688983678817749, -0.9266482591629028, -6.824158191680908, -0.03194872, 0.008037403, 0.33106518
13, 29765010, -0.6929386258125305, -0.9391528367996216, -6.81780481338501, -0.021423291, 0.015859418, 0.3202753
14, 29781677, -0.6963703632354736, -0.9513291716575623, -6.812095642089844, -0.038882494, 0.0012343712, 0.3347187
15, 29798344, -0.6998840570449829, -0.9656640887260437, -6.809382438659668, -0.023806358, 0.011850325, 0.33027554
16, 29815011, -0.7032217383384705, -0.9781321883201599, -6.809467315673828, -0.032024827, 0.017981334, 0.3149624
17, 29831678, -0.7072805762290955, -0.9904200434684753, -6.807140827178955, -0.046301845, 0.0115407035, 0.30566025
18, 29848345, -0.7098091244697571, -1.004286289215088, -6.800726413726807, -0.039219465, 0.0028473455, 0.34341908
19, 29865012, -0.7138760089874268, -1.0182747840881348, -6.793059825897217, -0.051478647, 0.017205318, 0.31651974
20, 29881679, -0.7178174257278442, -1.0294188261032104, -6.781339168548584, -0.03507453, 0.014933885, 0.33135605
21, 29898346, -0.7227573990821838, -1.0430132150650024, -6.777658462524414, -0.05426091, 0.022309056, 0.34285355
22, 29915013, -0.72801274061203, -1.0558058023452759, -6.772956848144531, -0.05504384, 0.019920414, 0.31118774
23, 29931680, -0.7326768040657043, -1.0686990022659302, -6.767172336578369, -0.034072462, 0.016085686, 0.32271862
24, 29948347, -0.7369914650917053, -1.0831429958343506, -6.761855125427246, -0.04091363, 0.018895052, 0.3177595
25, 29965014, -0.7411731481552124, -1.0972399711608887, -6.760109901428223, -0.04137419, 0.012763861, 0.3381405
26, 29981681, -0.7455862164497375, -1.1108065843582153, -6.756428241729736, -0.048847508, 0.028177604, 0.33890724
27, 29998348, -0.7499400973320007, -1.125739574432373, -6.755196571350098, -0.06555507, 0.014117033, 0.33532238
28, 30015015, -0.7549331188201904, -1.1394375562667847, -6.755630970001221, -0.061285358, 0.012483974, 0.34208202
29, 30031682, -0.7596660852432251, -1.1552767753601074, -6.750814437866211, -0.05105555, 0.033034522, 0.33977795
30, 30048349, -0.7641422748565674, -1.1706403493881226, -6.747191905975342, -0.054844074, 0.023849413, 0.33320713
31, 30065016, -0.7682626247406006, -1.1861801147460938, -6.7438812255859375, -0.048865102, 0.025158402, 0.32301426
32, 30081683, -0.7732079029083252, -1.2002580165863037, -6.740669250488281, -0.057710055, 0.036809295, 0.31838226
33, 30098350, -0.777755618095398, -1.2144509553909302, -6.738705158233643, -0.06366616, 0.035954416, 0.33579445
34, 30115017, -0.7822650671005249, -1.2288581132888794, -6.734882831573486, -0.08230388, 0.026495744, 0.32708168
35, 30131684, -0.7864818572998047, -1.2432295083999634, -6.726507186889648, -0.080537416, 0.03677045, 0.32653046
36, 30148351, -0.7914891242980957, -1.2569383382797241, -6.723285675048828, -0.06555739, 0.034957815, 0.3472929
37, 30165018, -0.7973271608352661, -1.271674633026123, -6.720098495483398, -0.07342448, 0.032242555, 0.3148222
38, 30181685, -0.8013869524002075, -1.2840033769607544, -6.7163825035095215, -0.08066904, 0.04094811, 0.32482624
39, 30198352, -0.8059549331665039, -1.2985304594039917, -6.71234130859375, -0.06527329, 0.048279073, 0.3217945
40, 30215019, -0.8091254830360413, -1.3126451969146729, -6.711223125457764, -0.07877341, 0.055213798, 0.32190228
41, 30231686, -0.8133247494697571, -1.3255228996276855, -6.709442615509033, -0.08618989, 0.04341756, 0.30714417
42, 30248353, -0.8165419101715088, -1.3396074771881104, -6.706660270690918, -0.09554635, 0.04140497, 0.3446064
43, 30265020, -0.8199136853218079, -1.3534762859344482, -6.70269775390625, -0.09671743, 0.05089322, 0.31190777
44, 30281687, -0.8236268162727356, -1.3688406944274902, -6.698973655700684, -0.07082127, 0.039867077, 0.32921505
45, 30298354, -0.8281537294387817, -1.3822686672210693, -6.693938255310059, -0.09203187, 0.045248613, 0.3208313
46, 30315021, -0.8318042755126953, -1.3969388008117676, -6.689770221710205, -0.086625844, 0.053046566, 0.32372856
47, 30331688, -0.8343272805213928, -1.4101616144180298, -6.6905012130737305, -0.11229094, 0.030984491, 0.31587029
48, 30348355, -0.8379241228103638, -1.424365520477295, -6.687597751617432, -0.10098142, 0.05205567, 0.3343687
49, 30365022, -0.8425755500793457, -1.440202236175537, -6.684642314910889, -0.10901591, 0.033794224, 0.33876324
50, 30381689, -0.8468639850616455, -1.454624891281128, -6.683229446411133, -0.11105665, 0.061915066, 0.31185627
51, 30398356, -0.8513934016227722, -1.4688841104507446, -6.680173397064209, -0.1108362, 0.06544016, 0.33514977
52, 30415023, -0.8558241724967957, -1.481978416442871, -6.677267074584961, -0.105773844, 0.0528012, 0.33011532
53, 30431690, -0.8604867458343506, -1.4969537258148193, -6.67664909362793, -0.10799029, 0.05631639, 0.30766392
54, 30448357, -0.863958477973938, -1.5115059614181519, -6.676037788391113, -0.118351385, 0.05703408, 0.32301712
55, 30465024, -0.8677139282226562, -1.526581048965454, -6.674973487854004, -0.12636983, 0.058971196, 0.31255436
56, 30481691, -0.8721187114715576, -1.5400162935256958, -6.67052698135376, -0.124013186, 0.06477713, 0.3291397
57, 30498358, -0.8756894469261169, -1.5561436414718628, -6.670923709869385, -0.12892005, 0.05664415, 0.30404472
58, 30515025, -0.879131019115448, -1.5694777965545654, -6.6703338623046875, -0.1347355, 0.055185944, 0.31747532
59, 30531692, -0.8840462565422058, -1.5831551551818848, -6.669423580169678, -0.12652196, 0.066459075, 0.31978798
60, 30548359, -0.8880807757377625, -1.5972391366958618, -6.667486667633057, -0.13501568, 0.058849305, 0.32683468
61, 30565026, -0.8927617073059082, -1.61070716381073, -6.6655144691467285, -0.14589512, 0.061559156, 0.3187189
62, 30581693, -0.8969826102256775, -1.6247681379318237, -6.663948059082031, -0.13683677, 0.06479701, 0.33286953
63, 30598360, -0.9011660814285278, -1.6390169858932495, -6.663097381591797, -0.1360132, 0.06612161, 0.3167553
64, 30615027, -0.904043436050415, -1.6536988019943237, -6.663225173950195, -0.14001459, 0.0492088, 0.32646275
65, 30631694, -0.9067239761352539, -1.6662287712097168, -6.663785457611084, -0.1269431, 0.06164303, 0.32517338
66, 30648361, -0.9103651642799377, -1.6800343990325928, -6.6639862060546875, -0.15293515, 0.06539724, 0.3352766
67, 30665028, -0.9137930870056152, -1.6942542791366577, -6.6634697914123535, -0.14578703, 0.07180096, 0.32703018
68, 30681695, -0.9170739054679871, -1.7068511247634888, -6.663161277770996, -0.1492617, 0.0829329, 0.33488178
69, 30698362, -0.9231920838356018, -1.7207075357437134, -6.661475658416748, -0.14926983, 0.07711883, 0.34420967
70, 30715029, -0.9263330101966858, -1.7343811988830566, -6.66060733795166, -0.15140834, 0.06458105, 0.33020496
71, 30731696, -0.9301692247390747, -1.748255729675293, -6.659595966339111, -0.15750088, 0.07141907, 0.33807468
72, 30748363, -0.9335461854934692, -1.7613787651062012, -6.659930229187012, -0.15613005, 0.075757265, 0.30823994
73, 30765030, -0.93897545337677, -1.773503065109253, -6.66018009185791, -0.16780205, 0.060996044, 0.3357134
74, 30781697, -0.9437768459320068, -1.787900686264038, -6.660619258880615, -0.16800657, 0.08005975, 0.3466978
75, 30798364, -0.9476361274719238, -1.8012820482254028, -6.6623854637146, -0.16601186, 0.07948004, 0.3303852
76, 30815031, -0.9523436427116394, -1.8137847185134888, -6.663280963897705, -0.17241889, 0.09186802, 0.33178902
77, 30831698, -0.956615149974823, -1.8266738653182983, -6.6627607345581055, -0.1681064, 0.08346867, 0.32223225
78, 30848365, -0.9600452184677124, -1.8393309116363525, -6.664364814758301, -0.17668207, 0.079563715, 0.3303814
79, 30865032, -0.9647616744041443, -1.8537949323654175, -6.66636323928833, -0.18039711, 0.0865787, 0.32413387
80, 30881699, -0.968565046787262, -1.866841197013855, -6.667494773864746, -0.18781403, 0.08223088, 0.3486061
81, 30898366, -0.9710740447044373, -1.8809895515441895, -6.671769618988037, -0.17334889, 0.08339323, 0.32202244
82, 30915033, -0.9748894572257996, -1.8945047855377197, -6.673078536987305, -0.1869868, 0.07542151, 0.3024273
83, 30931700, -0.97864830493927, -1.9074116945266724, -6.67520809173584, -0.17925595, 0.10514836, 0.3295288
84, 30948367, -0.9832679629325867, -1.921040654182434, -6.676173686981201, -0.19493216, 0.07524671, 0.33331108
85, 30965034, -0.986596405506134, -1.9343492984771729, -6.679118633270264, -0.19139794, 0.07288704, 0.32182312
86, 30981701, -0.9903731942176819, -1.946273684501648, -6.681443214416504, -0.19921888, 0.082841896, 0.32789516
87, 30998368, -0.9935049414634705, -1.9601082801818848, -6.68311071395874, -0.20303074, 0.07646403, 0.3463936
88, 31015035, -0.9962709546089172, -1.9726002216339111, -6.685613632202148, -0.19658786, 0.086256474, 0.31874943
89, 31031702, -1.000667929649353, -1.9845404624938965, -6.690539836883545, -0.20590232, 0.10054908, 0.33589458
90, 31048369, -1.0040053129196167, -1.9976401329040527, -6.695519924163818, -0.20858878, 0.07909196, 0.33219624
91, 31065036, -1.0082178115844727, -2.0105326175689697, -6.699960708618164, -0.20930515, 0.09764296, 0.3316641
92, 31081703, -1.0122138261795044, -2.022913694381714, -6.702734470367432, -0.20382152, 0.081301846, 0.31114578
93, 31098370, -1.015133023262024, -2.0348315238952637, -6.706411838531494, -0.22455293, 0.09465996, 0.3347559
94, 31115037, -1.0194787979125977, -2.047417640686035, -6.7100443840026855, -0.2095785, 0.09399056, 0.345356
95, 31131704, -1.0233964920043945, -2.0584964752197266, -6.713668346405029, -0.2158403, 0.08954046, 0.3351364
96, 31148371, -1.027394413948059, -2.0690877437591553, -6.718614101409912, -0.20959298, 0.09950078, 0.35829353
97, 31165038, -1.0308568477630615, -2.0801122188568115, -6.723865032196045, -0.19777712, 0.095621176, 0.31390858
98, 31181705, -1.034010648727417, -2.0897216796875, -6.726436138153076, -0.22232997, 0.096425585, 0.34206963
99, 31198372, -1.038345456123352, -2.101529836654663, -6.731167793273926, -0.21389702, 0.09509076, 0.33074093
100, 31215039, -1.042932391166687, -2.1123836040496826, -6.735450267791748, -0.21512789, 0.10433038, 0.34764385
101, 31231706, -1.046622633934021, -2.124627113342285, -6.741499900817871, -0.22040185, 0.10504481, 0.35065174
102, 31248373, -1.0504326820373535, -2.137674331665039, -6.745474815368652, -0.2152153, 0.09791419, 0.34412003
103, 31265040, -1.0550752878189087, -2.1485087871551514, -6.750670433044434, -0.22117037, 0.10145417, 0.33368492
104, 31281707, -1.0581947565078735, -2.1594974994659424, -6.756397724151611, -0.24107878, 0.10660164, 0.33189774
105, 31298374, -1.0615345239639282, -2.1715734004974365, -6.760656833648682, -0.22417878, 0.10548585, 0.33129597
106, 31315041, -1.0650163888931274, -2.183108329772949, -6.764475345611572, -0.23039539, 0.10339742, 0.34533882
107, 31331708, -1.0686428546905518, -2.1941347122192383, -6.767984867095947, -0.24251044, 0.106142156, 0.32473183
108, 31348375, -1.0710104703903198, -2.2047507762908936, -6.7733635902404785, -0.22709295, 0.11538711, 0.3146782
109, 31365042, -1.0748560428619385, -2.2151050567626953, -6.778407573699951, -0.23835069, 0.10065727, 0.332057
110, 31381709, -1.0783454179763794, -2.2246949672698975, -6.78548526763916, -0.23808837, 0.085585766, 0.34385777
111, 31398376, -1.081821322441101, -2.2341136932373047, -6.791937351226807, -0.25553536, 0.10775607, 0.3257389
112, 31415043, -1.0850913524627686, -2.246093511581421, -6.799122333526611, -0.24126117, 0.09659793, 0.31112957
113, 31431710, -1.0882599353790283, -2.2554514408111572, -6.807908535003662, -0.24055336, 0.10832822, 0.31706715
114, 31448377, -1.091353416442871, -2.2649624347686768, -6.814420700073242, -0.24808145, 0.10286582, 0.31954098
115, 31465044, -1.0944851636886597, -2.2763864994049072, -6.823634147644043, -0.24033691, 0.105282634, 0.35252953
116, 31481711, -1.0978193283081055, -2.2875466346740723, -6.832948207855225, -0.24936134, 0.10295575, 0.32509708
117, 31498378, -1.1004337072372437, -2.297987461090088, -6.838521957397461, -0.25856832, 0.12122633, 0.32311153
118, 31515045, -1.1031197309494019, -2.3066256046295166, -6.848461627960205, -0.26298127, 0.112474546, 0.32461262
119, 31531712, -1.1065073013305664, -2.3151793479919434, -6.85589075088501, -0.26153055, 0.10858392, 0.32274914
120, 31548379, -0.6422595381736755, -0.7620761394500732, -7.18218994140625, 1.7220277E-4, 0.012365299, 0.34455776
121, 31565046, -0.6420631408691406, -0.7612889409065247, -7.18035364151001, -0.007742922, -0.011442445, 0.34002113
122, 31581713, -0.6413586139678955, -0.7615935206413269, -7.180397987365723, 0.011111632, -0.0062240185, 0.32334805
123, 31598380, -0.6414145231246948, -0.760413408279419, -7.1785783767700195, 0.0037900463, 0.005001284, 0.33090496
124, 31615047, -0.6406885385513306, -0.7595111727714539, -7.177183151245117, 0.0032341557, 0.0046089943, 0.3442955
125, 31631714, -0.6412836909294128, -0.759824812412262, -7.17495059967041, -0.003576333, -0.004776842, 0.33405113
126, 31648381, -0.6410836577415466, -0.7588971257209778, -7.173108100891113, 0.016662052, -0.0014397377, 0.33936882
127, 31665048, -0.6413516998291016, -0.7577928900718689, -7.172206878662109, 0.005523089, -0.014582425, 0.32609177
128, 31681715, -0.6409875154495239, -0.757507860660553, -7.170620441436768, 0.0025354612, -0.008654065, 0.341321
129, 31698382, -0.6407694220542908, -0.7577514052391052, -7.171131134033203, 0.0168979, 0.007989977, 0.34416103
130, 31715049, -0.6405557990074158, -0.7573052644729614, -7.1699981689453125, 0.0052985842, 0.011142603, 0.33399582
131, 31731716, -0.6409749984741211, -0.7558238506317139, -7.167520999908447, 0.01242498, 0.0011182772, 0.32241535
132, 31748383, -0.6412309408187866, -0.7551858425140381, -7.165884494781494, -0.0019945109, 3.2415666E-4, 0.33340073
133, 31765050, -0.6403806209564209, -0.7564103603363037, -7.165189743041992, 0.0085404925, -0.0023716402, 0.34208584
134, 31781717, -0.6410491466522217, -0.7559869885444641, -7.164639949798584, 0.008550935, 0.011606493, 0.32005596
135, 31798384, -0.6402683854103088, -0.756447434425354, -7.1624369621276855, 0.014595236, -0.019450607, 0.34989643
136, 31815051, -0.6406781077384949, -0.7557910680770874, -7.161754608154297, -1.4024042E-4, -0.008318754, 0.33228302
137, 31831718, -0.6415647268295288, -0.7548579573631287, -7.160649299621582, 0.015905105, -0.0010306112, 0.34264088
138, 31848385, -0.6405653357505798, -0.7563814520835876, -7.158808708190918, 0.013165171, -0.004897043, 0.33295727
139, 31865052, -0.6402055621147156, -0.7566653490066528, -7.157524585723877, -0.0028552243, 0.005304654, 0.33734608
140, 31881719, -0.6410640478134155, -0.7570942640304565, -7.1569318771362305, 0.009834675, -0.006597844, 0.31538868
141, 31898386, -0.6413365602493286, -0.7571152448654175, -7.155534267425537, 0.00483696, -0.010180086, 0.32414818
142, 31915053, -0.6408619284629822, -0.7565920948982239, -7.154704570770264, 0.005990706, 0.010842163, 0.34415054
143, 31931720, -0.640978991985321, -0.7557623386383057, -7.152815341949463, -0.0025861287, -0.0020977668, 0.3319044
144, 31948387, -0.640641450881958, -0.7555512189865112, -7.150471210479736, 0.003447827, -0.0028041727, 0.33557796
145, 31965054, -0.6410677433013916, -0.7558358311653137, -7.149283409118652, 0.005582886, 0.0021989169, 0.3448553
146, 31981721, -0.6393366456031799, -0.7559418678283691, -7.147304058074951, 0.01930536, -0.0027595048, 0.34169483
147, 31998388, -0.638861358165741, -0.7563614249229431, -7.144864082336426, -0.0015638573, 0.013699346, 0.34973812
148, 32015055, -0.6377391219139099, -0.7565244436264038, -7.143195152282715, -1.228064E-4, 0.0047789863, 0.3411169
149, 32031722, -0.6382647752761841, -0.7570266127586365, -7.141676425933838, -0.010226207, -0.005779612, 0.32238865
150, 32048389, -0.6385008096694946, -0.7566157579421997, -7.1400933265686035, 0.0024067876, -0.009653566, 0.32073212
151, 32065056, -0.6389155387878418, -0.756523847579956, -7.138970375061035, 0.00432485, -1.3361186E-4, 0.34321117
152, 32081723, -0.638252854347229, -0.756070077419281, -7.13770055770874, 0.0065925564, 0.011093165, 0.33900833
153, 32098390, -0.6376843452453613, -0.7561366558074951, -7.1358642578125, 0.0152377235, -0.009791809, 0.3288288
154, 32115057, -0.6374342441558838, -0.7554815411567688, -7.135715961456299, -7.4980914E-4, 0.010806998, 0.33300018
155, 32131724, -0.6366063952445984, -0.7567741870880127, -7.134843826293945, -0.0087743085, 0.0033729153, 0.33234596
156, 32148391, -0.6367402672767639, -0.7569292187690735, -7.133145809173584, 0.0017655917, -6.8197993E-4, 0.33185673
157, 32165058, -0.6376869678497314, -0.7567451596260071, -7.132627010345459, -0.010786208, -0.008360118, 0.34597492
158, 32181725, -0.6378206014633179, -0.757282018661499, -7.132156848907471, 0.00408208, -0.0025995255, 0.36391544
159, 32198392, -0.636954128742218, -0.7573373317718506, -7.131467342376709, 0.012194853, -0.003980179, 0.33729362
160, 32215059, -0.6358703374862671, -0.7568488121032715, -7.129864692687988, -0.0060188477, 0.006325675, 0.34187984
161, 32231726, -0.634666919708252, -0.7562716007232666, -7.128178596496582, 0.0035789872, -0.00805841, 0.33655262
162, 32248393, -0.6337875127792358, -0.7549788951873779, -7.127269268035889, -0.0046282164, 0.0027044823, 0.3205719
163, 32265060, -0.6339741945266724, -0.7544233202934265, -7.126016616821289, 0.018115725, -0.008084087, 0.34488583
164, 32281727, -0.6339156031608582, -0.7548767328262329, -7.123987674713135, 0.0037990496, -0.0012320523, 0.3359623
165, 32298394, -0.634514331817627, -0.754406750202179, -7.122580051422119, 0.004706079, 0.0041936687, 0.30935955
166, 32315061, -0.6347061395645142, -0.7543649673461914, -7.1216044425964355, -0.0070357127, 4.9901364E-4, 0.30545616
167, 32331728, -0.6351081728935242, -0.7547425031661987, -7.1205949783325195, 0.0063948734, -0.0026077395, 0.34409523
168, 32348395, -0.6350142955780029, -0.7555208802223206, -7.119264125823975, 0.0140090445, 0.010164898, 0.32821274
169, 32365062, -0.6362835764884949, -0.7552576661109924, -7.1176958084106445, 0.01967009, 0.0032946195, 0.3343258
170, 32381729, -0.6366081237792969, -0.7554094195365906, -7.115609169006348, 0.008355375, 0.0014321313, 0.34234428
171, 32398396, -0.6368852853775024, -0.7550654411315918, -7.1156792640686035, 0.014593091, -0.0073438743, 0.3330803
172, 32415063, -0.637374758720398, -0.7549623847007751, -7.115572929382324, -0.0020682493, -0.0094859665, 0.3315344
173, 32431730, -0.6380269527435303, -0.7539349794387817, -7.114392280578613, 0.005478533, 0.0146287065, 0.35498905
174, 32448397, -0.6388646960258484, -0.7530428767204285, -7.113111972808838, 0.006212899, 0.0034461368, 0.34006023
175, 32465064, -0.6374672651290894, -0.7542845606803894, -7.113348960876465, 0.010968521, 0.0031217565, 0.32575035
176, 32481731, -0.6382907032966614, -0.7542275786399841, -7.111255168914795, 0.013412782, 0.0019398794, 0.33507156
177, 32498398, -0.6377080678939819, -0.7545055150985718, -7.112066268920898, 0.014484841, 0.012060221, 0.32164478
178, 32515065, -0.6374519467353821, -0.7558420896530151, -7.11027193069458, 0.010760752, -0.0025900402, 0.33746243
179, 32531732, -0.6367449164390564, -0.755297064781189, -7.1090312004089355, 0.008501308, -0.031778548, 0.32870102
180, 32548399, -0.6373863220214844, -0.7553463578224182, -7.10645866394043, 0.011359983, 8.7591936E-4, 0.3302288
181, 32565066, -0.637625515460968, -0.7558366656303406, -7.1052961349487305, 0.011853144, -0.011490948, 0.33183098
182, 32581733, -0.6374330520629883, -0.7551633715629578, -7.104784965515137, -0.0018363266, -0.009846241, 0.32743263
183, 32598400, -0.6371070146560669, -0.7562901377677917, -7.104832649230957, 0.0044960957, 0.011147363, 0.32725906
184, 32615067, -0.6367334723472595, -0.7565351724624634, -7.104288578033447, 0.016528098, -0.024464792, 0.33687973
185, 32631734, -0.6356318593025208, -0.7569692730903625, -7.101654529571533, 0.0030574477, 0.004034737, 0.34599876
186, 32648401, -0.6355510950088501, -0.7564467787742615, -7.10106897354126, 0.010138303, -0.007460213, 0.32641792
187, 32665068, -0.6347547769546509, -0.7557125687599182, -7.100135803222656, 0.009300046, -0.0055718077, 0.33250618
188, 32681735, -0.6357135772705078, -0.7545314431190491, -7.099233627319336, 0.007059084, -0.00616286, 0.3120966
189, 32698402, -0.6353296637535095, -0.7534704804420471, -7.098923683166504, 0.011254205, -0.0067224246, 0.34735775
190, 32715069, -0.6354049444198608, -0.7536458373069763, -7.098272323608398, -0.0032015436, -0.022786524, 0.35759926
191, 32731736, -0.6360113620758057, -0.7525725364685059, -7.097872257232666, -0.0072165593, -0.0059314054, 0.31432247
192, 32748403, -0.6345815062522888, -0.7534095644950867, -7.097384929656982, 0.010981765, -0.011071134, 0.320858
193, 32765070, -0.6351854205131531, -0.7522419691085815, -7.095795154571533, 0.011690719, 0.0026285334, 0.34128284
194, 32781737, -0.6350342035293579, -0.751632571220398, -7.096125602722168, -6.246838E-4, 0.005022902, 0.32566357
195, 32798404, -0.6359456777572632, -0.7523554563522339, -7.095304012298584, -0.0029369323, -0.016466178, 0.30344105
196, 32815071, -0.6354386806488037, -0.7524741291999817, -7.094371795654297, 0.004866359, -0.0056274417, 0.3234291
197, 32831738, -0.6359420418739319, -0.7514975666999817, -7.093742847442627, 0.019131633, -0.0071981857, 0.33514786
198, 32848405, -0.6361024379730225, -0.7507489323616028, -7.093516826629639, 0.012877803, -0.005587139, 0.3163929
199, 32865072, -0.6360084414482117, -0.7516323328018188, -7.092970371246338, 0.012697352, -0.008391759, 0.3349495
200, 32881739, -0.6360047459602356, -0.751093327999115, -7.092300891876221, 0.004215594, -0.0044967243, 0.32082653
201, 32898406, -0.636612594127655, -0.7504458427429199, -7.0921454429626465, -0.007906495, 0.0041238978, 0.34662437
202, 32915073, -0.6374040842056274, -0.7494997382164001, -7.090583324432373, 0.014769778, -8.821986E-4, 0.3326521
203, 32931740, -0.63735032081604, -0.7498918175697327, -7.090066909790039, 0.014442806, -0.0068926015, 0.32742882
204, 32948407, -0.6374064087867737, -0.7496820092201233, -7.089536666870117, 0.003547486, 0.009796367, 0.34696102
205, 32965074, -0.6379536390304565, -0.7488386631011963, -7.09027624130249, 0.002850852, -0.011541126, 0.34657574
206, 32981741, -0.637880802154541, -0.74933922290802, -7.089415550231934, 0.023019746, -0.01893138, 0.32348156
207, 32998408, -0.6389084458351135, -0.7492491602897644, -7.088100910186768, 0.008186875, -0.0022567404, 0.32591343
208, 33015075, -0.6402609944343567, -0.749082624912262, -7.087610721588135, 0.015513238, -0.016125789, 0.33745003
209, 33031742, -0.6413114666938782, -0.7494531869888306, -7.086873531341553, -3.4614475E-4, 0.0030585933, 0.3231125
210, 33048409, -0.6417862772941589, -0.7479499578475952, -7.087047576904297, 0.01722453, -5.25479E-4, 0.33887768
211, 33065076, -0.6426569223403931, -0.7485766410827637, -7.087832927703857, 0.0065362314, -0.00201228, 0.3350153
212, 33081743, -0.6433284282684326, -0.7470574378967285, -7.086064338684082, 0.016582007, 0.010204773, 0.32597256
213, 33098410, -0.6439404487609863, -0.7485948204994202, -7.08439302444458, 0.013874155, -0.0039530154, 0.34983253
214, 33115077, -0.6444261074066162, -0.7482660412788391, -7.083597183227539, -0.008259432, -0.005165657, 0.32533073
215, 33131744, -0.6442418694496155, -0.7473320364952087, -7.0838727951049805, 0.005940122, 0.009793116, 0.33381557
216, 33148411, -0.643383264541626, -0.747053325176239, -7.082642078399658, 0.0021143837, 6.460921E-4, 0.31668377
217, 33165078, -0.6429956555366516, -0.7467607259750366, -7.08170223236084, 0.0152977435, -0.005866, 0.34359932
218, 33181745, -0.6433508396148682, -0.7456886172294617, -7.081009864807129, 0.007429221, 2.1103813E-4, 0.32919025
219, 33198412, -0.6445584297180176, -0.746375560760498, -7.081168174743652, -0.007898731, -0.0013456946, 0.34465408
220, 33215079, -0.6444923281669617, -0.7454344034194946, -7.080586910247803, -0.003425294, 0.0045353887, 0.3291912
221, 33231746, -0.6440429091453552, -0.7451534867286682, -7.080068588256836, 0.0014141315, -3.5821443E-4, 0.3445921
222, 33248413, -0.6441448330879211, -0.7448866367340088, -7.07826566696167, -0.0027336194, -0.01627138, 0.344512
223, 33265080, -0.6438630223274231, -0.7439768314361572, -7.077147483825684, 0.0044269604, -0.014586888, 0.3350315
224, 33281747, -0.6438882350921631, -0.7448745965957642, -7.077175140380859, 0.0036494636, -0.0056163915, 0.3261528
225, 33298414, -0.6435127258300781, -0.7449203729629517, -7.077274799346924, 0.006886574, 0.0069089253, 0.3321352
226, 33315081, -0.6428011059761047, -0.7439749836921692, -7.077268600463867, 0.0047404864, 0.0033298086, 0.34918308
227, 33331748, -0.641258955001831, -0.7428359389305115, -7.077901363372803, 0.004258599, 0.005079325, 0.3144846
228, 33348415, -0.6411247849464417, -0.7416337132453918, -7.077723503112793, 0.008424999, -0.0023749997, 0.3398981
229, 33365082, -0.6411285400390625, -0.7412566542625427, -7.076282024383545, -0.0012476493, -0.0015403535, 0.339468
230, 33381749, -0.639755129814148, -0.7397923469543457, -7.075728893280029, 0.011368393, -0.0047872146, 0.32794
231, 33398416, -0.6398352384567261, -0.7384040355682373, -7.074379920959473, 0.0070157154, -0.009820251, 0.34948635
232, 33415083, -0.6400027871131897, -0.7388290166854858, -7.073703765869141, 0.004432248, -0.004430271, 0.33074284
233, 33431750, -0.640952467918396, -0.7396562099456787, -7.071996688842773, 0.01631039, -0.00987687, 0.32393932
234, 33448417, -0.6410916447639465, -0.7408827543258667, -7.071444988250732, 0.016894547, 0.0051531508, 0.31514263
235, 33465084, -0.6405052542686462, -0.7421301603317261, -7.0698347091674805, 0.0073253578, -0.0017632169, 0.32576275
236, 33481751, -0.6415541172027588, -0.7411656379699707, -7.068397521972656, -0.0018272464, -0.009210948, 0.34722996
237, 33498418, -0.6413687467575073, -0.7414389252662659, -7.068915367126465, -0.0027205579, -0.0042340406, 0.32876968
238, 33515085, -0.6408474445343018, -0.742245078086853, -7.068609237670898, 0.0023974557, 0.010166557, 0.3234234
239, 33531752, -0.6407896280288696, -0.7414126992225647, -7.067723274230957, 0.014052057, -0.00564973, 0.3344822
240, 33548419, -0.6383079886436462, -0.7638350129127502, -7.073959827423096, -0.011858151, -0.022213995, 0.3229046
241, 33565086, -0.6374068856239319, -0.7638618350028992, -7.072544097900391, 0.006882788, -0.011675709, 0.31872654
242, 33581753, -0.6370583772659302, -0.7641363143920898, -7.072887420654297, -0.0034154037, -0.0173338, 0.32500172
243, 33598420, -0.6369866132736206, -0.7649690508842468, -7.071784973144531, 5.089669E-4, -0.008478762, 0.3409233
244, 33615087, -0.6375329494476318, -0.7643939852714539, -7.069691181182861, -0.0033052468, -0.0012775931, 0.32782364
245, 33631754, -0.6385549902915955, -0.7644376754760742, -7.069482803344727, 0.003831913, -0.003936161, 0.3220873
246, 33648421, -0.6387616991996765, -0.7638777494430542, -7.069246292114258, -0.001411163, -0.007857445, 0.32359982
247, 33665088, -0.6394218802452087, -0.7641214728355408, -7.06810998916626, -0.0054641655, -0.010887526, 0.3330145
248, 33681755, -0.6397812366485596, -0.7644566893577576, -7.068176746368408, 0.012197961, -0.008216071, 0.35639095
249, 33698422, -0.6392541527748108, -0.764581561088562, -7.067643165588379, 0.0054435744, -0.0024212948, 0.32260323
250, 33715089, -0.6396358013153076, -0.7657183408737183, -7.06865119934082, 0.006088549, -0.0035788824, 0.31425285
251, 33731756, -0.6398515701293945, -0.765259861946106, -7.06727933883667, 0.0081323795, -0.006618372, 0.32071304
252, 33748423, -0.6407874822616577, -0.7648115754127502, -7.06866979598999, 0.006406768, -0.0076539987, 0.31477928
253, 33765090, -0.6397495269775391, -0.7644534111022949, -7.069234848022461, -0.004326324, -0.0038065165, 0.33288383
254, 33781757, -0.6397669315338135, -0.7657456398010254, -7.068702697753906, -4.3223216E-4, 0.012319727, 0.34098053
255, 33798424, -0.6404839754104614, -0.7657080292701721, -7.068034648895264, -0.0064129536, -0.005432559, 0.32379055
256, 33815091, -0.6407027840614319, -0.7655432820320129, -7.0681071281433105, 0.011398449, -0.0068336013, 0.3305893
257, 33831758, -0.6404181122779846, -0.7658531665802002, -7.068066120147705, -0.0030585025, 0.007421828, 0.34906673
258, 33848425, -0.6405812501907349, -0.7666975855827332, -7.06727409362793, -0.014039202, -0.008805446, 0.3296318
259, 33865092, -0.6398683786392212, -0.7669343948364258, -7.066715240478516, 0.007295407, -2.660363E-4, 0.31976795
260, 33881759, -0.6392322778701782, -0.7673874497413635, -7.065628528594971, -0.0041351295, -0.0074365553, 0.3479166
261, 33898426, -0.6388186812400818, -0.7666493654251099, -7.064395427703857, -0.004543215, -0.010644057, 0.33687592
262, 33915093, -0.6385622620582581, -0.7668846845626831, -7.0653462409973145, 0.007529013, -0.004465258, 0.31716728
263, 33931760, -0.6394912600517273, -0.7663482427597046, -7.064625263214111, -0.0010181783, 0.0033453463, 0.3218565
264, 33948427, -0.6389948725700378, -0.7670236825942993, -7.064676284790039, -5.4628664E-4, -0.0035095445, 0.3277092
265, 33965094, -0.63944411277771, -0.7672868967056274, -7.06404972076416, -0.012143661, 0.0013809818, 0.3444805
266, 33981761, -0.6392326354980469, -0.7676740884780884, -7.063734531402588, -0.0052787964, -0.01903588, 0.33066463
267, 33998428, -0.6384155750274658, -0.7682139277458191, -7.063363075256348, -0.007929789, -0.020777646, 0.33027267
268, 34015095, -0.6386570334434509, -0.7694821357727051, -7.062544345855713, 9.0431946E-4, -0.006516688, 0.3346386
269, 34031762, -0.6391977071762085, -0.7695086002349854, -7.061593055725098, 0.005661527, -0.005396427, 0.33324146
270, 34048429, -0.6398347020149231, -0.7712156176567078, -7.061300277709961, -5.1486207E-4, -0.004026858, 0.3283291
271, 34065096, -0.6391308903694153, -0.7714126110076904, -7.060072422027588, -6.790463E-4, -0.0020253067, 0.3293543
272, 34081763, -0.6393398642539978, -0.7714720964431763, -7.060517311096191, -0.0055695586, 4.1762E-5, 0.328125
273, 34098430, -0.6400837302207947, -0.7723661065101624, -7.060600280761719, 0.017149996, -5.1144656E-4, 0.3341875
274, 34115097, -0.6399604082107544, -0.7724218368530273, -7.060178756713867, -0.00974541, -0.00718291, 0.3122759
275, 34131764, -0.6386932134628296, -0.7728570699691772, -7.059300899505615, -8.699893E-4, -0.011175452, 0.32269096
276, 34148431, -0.6370072960853577, -0.7728608846664429, -7.058718681335449, 0.011012106, -0.011216607, 0.34579086
277, 34165098, -0.6370991468429565, -0.7734532952308655, -7.0595293045043945, 0.018027933, 0.0014645826, 0.35023117
278, 34181765, -0.63727205991745, -0.7731307148933411, -7.058809757232666, 0.0064575267, -0.005336155, 0.35035133
279, 34198432, -0.6372535824775696, -0.7737770676612854, -7.058645248413086, 0.009626486, 0.006861013, 0.3365078
280, 34215099, -0.6375950574874878, -0.7739549279212952, -7.0572428703308105, -0.0074395067, 5.7317102E-5, 0.33005524
281, 34231766, -0.6372750401496887, -0.7732467651367188, -7.056654930114746, -0.009472755, 2.5086536E-4, 0.3393402
282, 34248433, -0.6384480595588684, -0.772553026676178, -7.055912971496582, 0.013027397, 2.8346333E-4, 0.3379755
283, 34265100, -0.6388036012649536, -0.7719006538391113, -7.05446720123291, 3.3855927E-4, -0.008143464, 0.33449078
284, 34281767, -0.6399692296981812, -0.7717536687850952, -7.05441427230835, 0.01084079, -0.0049099717, 0.35363483
285, 34298434, -0.6393855214118958, -0.7726757526397705, -7.053654193878174, -0.006814505, 0.005852907, 0.3446169
286, 34315101, -0.6407799124717712, -0.7721543312072754, -7.0517096519470215, 0.0045728027, 0.0034253884, 0.35896587
287, 34331768, -0.6414890289306641, -0.7718762159347534, -7.051077365875244, 0.001032127, -0.0054427152, 0.3552494
288, 34348435, -0.6424077153205872, -0.7728304266929626, -7.050205230712891, -0.004514263, 0.014012104, 0.3283186
289, 34365102, -0.6418328881263733, -0.7731996178627014, -7.04909610748291, 5.996154E-4, -0.0084561305, 0.32530594
290, 34381769, -0.6428930163383484, -0.7725104689598083, -7.047943115234375, 0.006251741, 0.0039065597, 0.32437706
291, 34398436, -0.6428111791610718, -0.7725628614425659, -7.047827243804932, -0.0058788517, -0.004168817, 0.34829617
292, 34415103, -0.6427704691886902, -0.7730440497398376, -7.048237323760986, 0.0013607609, 0.006248546, 0.33316135
293, 34431770, -0.641735315322876, -0.7739176750183105, -7.048041343688965, 0.0022270342, 0.002526978, 0.33796024
294, 34448437, -0.6413494348526001, -0.7739230990409851, -7.047524929046631, 0.018549033, -0.011587533, 0.30230808
295, 34465104, -0.6412692666053772, -0.7730807065963745, -7.048124313354492, 0.012970729, -0.002729226, 0.32253647
296, 34481771, -0.6404739618301392, -0.7740598320960999, -7.048058032989502, -0.0011228243, -0.005462999, 0.35557365
297, 34498438, -0.6411440372467041, -0.7743682861328125, -7.047502517700195, -0.0051910323, 0.0029036428, 0.34933758
298, 34515105, -0.6413982510566711, -0.7751548886299133, -7.046550750732422, -5.987493E-4, 0.006000914, 0.33494568
299, 34531772, -0.6407944560050964, -0.7754188776016235, -7.046093463897705, -0.011597783, -9.4735966E-4, 0.33385563
300, 34548439, -0.6413047909736633, -0.7747864127159119, -7.04726505279541, -0.002014103, 0.0016238217, 0.33880806
301, 34565106, -0.6417896151542664, -0.7747167944908142, -7.046938896179199, -4.6773578E-4, -0.0024710195, 0.33003712
302, 34581773, -0.6429552435874939, -0.7746995091438293, -7.045674800872803, 0.0109746605, -0.005721911, 0.3360672
303, 34598440, -0.6439088582992554, -0.774539589881897, -7.04634952545166, -0.0043795058, -0.0059133493, 0.33155823
304, 34615107, -0.6447447538375854, -0.7752166986465454, -7.046081066131592, 0.013396319, -0.011275216, 0.3300743
305, 34631774, -0.6451701521873474, -0.775545597076416, -7.046426296234131, -0.010252018, -0.0038028494, 0.33770657
306, 34648441, -0.6450377702713013, -0.7768024206161499, -7.046976089477539, 0.003407895, 0.0037741768, 0.34330368
307, 34665108, -0.6449890732765198, -0.7766116261482239, -7.046645164489746, -0.0013759178, -0.00951906, 0.3364973
308, 34681775, -0.643760621547699, -0.7778039574623108, -7.047560691833496, 0.005302475, 0.0018703354, 0.35942936
309, 34698442, -0.6428383588790894, -0.7774090766906738, -7.0483880043029785, -0.0038174337, -0.002037984, 0.34297848
310, 34715109, -0.6428830623626709, -0.7779200077056885, -7.04836893081665, 0.005714898, 0.011516016, 0.35099697
311, 34731776, -0.6425092816352844, -0.7782562375068665, -7.047775745391846, 0.002459341, -0.014898103, 0.34092808
312, 34748443, -0.6416382789611816, -0.7785807847976685, -7.046939373016357, -2.9347252E-4, 0.0010871042, 0.34398746
313, 34765110, -0.6418664455413818, -0.7793043851852417, -7.046375751495361, -0.001839372, 0.014724408, 0.3504858
314, 34781777, -0.6420787572860718, -0.7798239588737488, -7.045448303222656, -0.0024603398, 0.0024961997, 0.35311222
315, 34798444, -0.6431799530982971, -0.7791701555252075, -7.044882297515869, -0.007787708, -0.0011089386, 0.3289137
316, 34815111, -0.6420456171035767, -0.7795469760894775, -7.0453715324401855, 0.0062581394, 0.0024637554, 0.33819008
317, 34831778, -0.6416021585464478, -0.7794125080108643, -7.044563293457031, 0.0013653638, -0.019322108, 0.32504463
318, 34848445, -0.6426553726196289, -0.7787543535232544, -7.043704509735107, 0.001446988, -0.011452817, 0.3465538
319, 34865112, -0.6427354216575623, -0.7792772054672241, -7.042860507965088, 0.002843008, 0.0020977808, 0.32101822
320, 34881779, -0.642565131187439, -0.7803066372871399, -7.042395114898682, -6.9922535E-4, 0.0064913365, 0.34798622
321, 34898446, -0.6421502232551575, -0.7806916236877441, -7.043148994445801, -0.0021792164, -0.0036503158, 0.31019497
322, 34915113, -0.64163738489151, -0.7815229892730713, -7.043363094329834, 0.0018211487, 0.004880699, 0.30923367
323, 34931780, -0.6425678730010986, -0.7814850211143494, -7.04303503036499, -0.0029415842, 0.005632394, 0.33525944
324, 34948447, -0.6430230736732483, -0.7802428603172302, -7.042309284210205, -0.007481146, 6.712304E-4, 0.32361984
325, 34965114, -0.6426569223403931, -0.7802371978759766, -7.042591094970703, -0.007720344, -0.015242759, 0.34313965
326, 34981781, -0.6422182321548462, -0.7802262306213379, -7.041340351104736, -0.015071, -0.0021438384, 0.32582188
327, 34998448, -0.6426043510437012, -0.7808498740196228, -7.0410003662109375, 0.0065384246, -0.0053819544, 0.34712982
328, 35015115, -0.6427978873252869, -0.7793003916740417, -7.040998458862305, -0.001499276, 0.008480466, 0.33049583
329, 35031782, -0.6425213813781738, -0.7791451215744019, -7.040852069854736, 0.0011411523, 7.249782E-4, 0.3339672
330, 35048449, -0.6421970725059509, -0.7787891626358032, -7.041082382202148, 0.0015629982, 5.744842E-4, 0.3235712
331, 35065116, -0.6428472399711609, -0.7792009711265564, -7.041818618774414, -5.8509404E-4, 0.0043602525, 0.3244753
332, 35081783, -0.6413374543190002, -0.7808265686035156, -7.042714595794678, -0.0049335035, 0.002689926, 0.32738686
333, 35098450, -0.6411830186843872, -0.7810888290405273, -7.0413031578063965, -0.0015912027, 0.008818774, 0.32455254
334, 35115117, -0.641037106513977, -0.780978262424469, -7.040449142456055, 0.0032783065, -2.170171E-4, 0.3445015
335, 35131784, -0.6412748098373413, -0.7807396650314331, -7.040027618408203, -0.0011810983, -0.0034573544, 0.32375717
336, 35148451, -0.641223669052124, -0.780037522315979, -7.039486885070801, -0.0017800223, 0.011758105, 0.30836105
337, 35165118, -0.6410393118858337, -0.7783141732215881, -7.038590908050537, -0.008121319, -0.0015449355, 0.33055496
338, 35181785, -0.6396632790565491, -0.778637707233429, -7.037633419036865, 0.0033445081, -0.0065407087, 0.33254528
339, 35198452, -0.6401219964027405, -0.7790472507476807, -7.03680419921875, 0.0019822526, 0.0027820726, 0.35158157
340, 35215119, -0.6389638781547546, -0.7789793610572815, -7.036299228668213, 0.0027234913, -0.0090417275, 0.31688404
341, 35231786, -0.6382617950439453, -0.778907060623169, -7.0353875160217285, -1.4994227E-4, 0.0021519547, 0.32741547
342, 35248453, -0.6385819911956787, -0.7789696455001831, -7.034650802612305, -0.0023059133, 0.0019494661, 0.34818554
343, 35265120, -0.6372028589248657, -0.7797260880470276, -7.034360408782959, 0.002693862, 0.009115376, 0.33474064
344, 35281787, -0.6372280716896057, -0.781126081943512, -7.03402853012085, 9.492316E-6, 0.011168331, 0.3315134
345, 35298454, -0.6371524333953857, -0.7812832593917847, -7.034790992736816, -0.0073880847, 0.00248925, 0.31952858
346, 35315121, -0.6369995474815369, -0.7811805009841919, -7.034753799438477, 0.008967849, 0.005480185, 0.33576775
347, 35331788, -0.6375597715377808, -0.7809380292892456, -7.035054683685303, 0.0013346378, 0.0031512708, 0.3356409
348, 35348455, -0.6371329426765442, -0.7804993987083435, -7.034429550170898, 0.0049562603, 8.9023117E-4, 0.3250513
349, 35365122, -0.6373758912086487, -0.7811976671218872, -7.033557891845703, 1.3236856E-4, -0.0027801031, 0.3228531
350, 35381789, -0.6376137733459473, -0.7793324589729309, -7.0334272384643555, 0.0051001604, 0.014512784, 0.3341217
351, 35398456, -0.6384714841842651, -0.7791094183921814, -7.032501220703125, 0.0021570118, -0.010223022, 0.33129692
352, 35415123, -0.6381383538246155, -0.7794308662414551, -7.030956745147705, 0.0011588308, -0.0017024493, 0.35015202
353, 35431790, -0.638361394405365, -0.7799540162086487, -7.030836582183838, -0.006669983, 0.00858698, 0.34456635
354, 35448457, -0.6378516554832458, -0.7804095149040222, -7.0306501388549805, -0.004725937, -2.150474E-4, 0.32626247
355, 35465124, -0.6375385522842407, -0.7798815369606018, -7.030379772186279, -1.7522718E-4, -0.004994355, 0.33812046
356, 35481791, -0.6383440494537354, -0.7790707349777222, -7.030369281768799, -0.010512278, -0.0020116866, 0.3333063
357, 35498458, -0.6384089589118958, -0.7787917852401733, -7.02996301651001, -0.0012072005, 0.009998709, 0.31334305
358, 35515125, -0.6389133930206299, -0.7786493897438049, -7.030090808868408, 0.0029465992, 0.010756802, 0.3301859
359, 35531792, -0.6399468779563904, -0.7803502082824707, -7.031115531921387, 0.0077990238, 0.001626413, 0.3175764
360, 35548459, -0.6397572755813599, -0.7652825117111206, -7.032654285430908, 0.00581309, 0.0030992515, 0.33642483
361, 35565126, -0.6409031748771667, -0.7651738524436951, -7.033025741577148, 0.0023049423, 0.0037204535, 0.33907986
362, 35581793, -0.6413833498954773, -0.7653891444206238, -7.033628463745117, 0.0033988918, -0.008311888, 0.34924412
363, 35598460, -0.6414861679077148, -0.766823947429657, -7.033318996429443, 0.016410021, 4.1684468E-4, 0.34298897
364, 35615127, -0.6413426995277405, -0.7666860222816467, -7.033219814300537, 0.017522724, -0.007252318, 0.33591175
365, 35631794, -0.6407656669616699, -0.7662013173103333, -7.032979488372803, 0.0030408239, 0.0072045457, 0.3309517
366, 35648461, -0.6405885815620422, -0.7672035098075867, -7.032462120056152, 0.011156593, -0.021270989, 0.31009388
367, 35665128, -0.6395525336265564, -0.7676006555557251, -7.031383514404297, 0.0015572357, -0.0030386236, 0.33635998
368, 35681795, -0.6402458548545837, -0.7674562335014343, -7.030349254608154, -0.005678249, -0.013621829, 0.31474972
369, 35698462, -0.640598475933075, -0.7690927386283875, -7.030306339263916, 0.008463556, -0.004915804, 0.33816528
370, 35715129, -0.6394858956336975, -0.7685639262199402, -7.0285964012146, 0.0102148075, 0.00602154, 0.32496262
371, 35731796, -0.6401792764663696, -0.7693135738372803, -7.027844429016113, 0.010039496, -0.006411057, 0.3351755
372, 35748463, -0.6407526135444641, -0.7704025506973267, -7.027005672454834, 0.013711472, -0.0056454903, 0.32775402
373, 35765130, -0.6409997344017029, -0.7691197395324707, -7.025953769683838, 0.012446131, 0.0017651446, 0.32447052
374, 35781797, -0.6404328346252441, -0.7691763043403625, -7.025672912597656, 0.0081117675, 0.0049104295, 0.32866478
375, 35798464, -0.640501856803894, -0.7700625658035278, -7.0261945724487305, 0.00464001, -9.470733E-4, 0.31224537
376, 35815131, -0.641531765460968, -0.7713345289230347, -7.026048183441162, 0.011040171, 0.005601294, 0.34231663
377, 35831798, -0.6418225169181824, -0.7700458765029907, -7.024703025817871, 0.017674148, -0.0072460733, 0.34678268
378, 35848465, -0.6420371532440186, -0.7700684666633606, -7.024221897125244, -0.0036149449, 1.0405925E-4, 0.32389545
379, 35865132, -0.6425164341926575, -0.770193874835968, -7.023956298828125, 0.0030597667, 0.0037762234, 0.3401413
380, 35881799, -0.6407650709152222, -0.7702291011810303, -7.024040699005127, -0.011093772, 0.0036641806, 0.32249928
381, 35898466, -0.6405728459358215, -0.7705119252204895, -7.02251672744751, 0.011220497, -0.0067389994, 0.34121037
382, 35915133, -0.640427827835083, -0.7707024216651917, -7.0220866203308105, 0.005920376, -7.492853E-4, 0.35120392
383, 35931800, -0.6406183242797852, -0.7704125046730042, -7.022373676300049, 0.01002135, -0.0032773146, 0.32625866
384, 35948467, -0.6398290991783142, -0.7705391049385071, -7.021279811859131, 0.012494326, 0.014148538, 0.3287964
385, 35965134, -0.6400346755981445, -0.7700638175010681, -7.021047115325928, -2.2076095E-4, 0.002616104, 0.3325224
386, 35981801, -0.6400584578514099, -0.7696906924247742, -7.021430492401123, 0.0046122945, -0.0069749104, 0.34681225
387, 35998468, -0.6400609612464905, -0.7697266936302185, -7.020441055297852, 0.0027800961, -0.010235615, 0.31391716
388, 36015135, -0.6400174498558044, -0.7693508267402649, -7.018910884857178, -0.0014403594, 0.001513092, 0.32985497
389, 36031802, -0.6392500996589661, -0.7683866024017334, -7.017758369445801, -0.0014260475, 0.0031346574, 0.34160137
390, 36048469, -0.6398938298225403, -0.7669165134429932, -7.016955852508545, 0.0025774816, 0.004550235, 0.31365013
391, 36065136, -0.6391510963439941, -0.7665497660636902, -7.015974044799805, 9.0660347E-4, 0.0025576344, 0.350811
392, 36081803, -0.6385505795478821, -0.7671521306037903, -7.014830589294434, -0.0035539747, -0.0122909425, 0.32411957
393, 36098470, -0.6378751397132874, -0.7666383981704712, -7.0149736404418945, 0.0037845771, 0.0030808677, 0.3354721
394, 36115137, -0.6373094320297241, -0.7658445239067078, -7.0143842697143555, 0.006646521, -2.767649E-4, 0.32150078
395, 36131804, -0.6379231214523315, -0.7668694853782654, -7.013989448547363, -0.0018502612, 0.003464594, 0.3326702
396, 36148471, -0.6382275819778442, -0.7684538960456848, -7.012029647827148, 0.009208958, -0.00688883, 0.33316135
397, 36165138, -0.6396176218986511, -0.7692736387252808, -7.012082099914551, 5.2167225E-4, -0.006700653, 0.33578968
398, 36181805, -0.6392117142677307, -0.7683326601982117, -7.012396812438965, 0.010570745, -0.010512136, 0.33381748
399, 36198472, -0.6398487091064453, -0.7693045735359192, -7.012753963470459, 0.01066381, -0.005520658, 0.3317194
400, 36215139, -0.6399028301239014, -0.7691525220870972, -7.0127668380737305, -0.0016141826, -0.007783573, 0.34578133
401, 36231806, -0.6394954919815063, -0.7686960697174072, -7.012280464172363, 3.5259867E-4, 0.0034558352, 0.3267498
402, 36248473, -0.6405426859855652, -0.7674052715301514, -7.012454986572266, 9.0895034E-4, -0.0017119835, 0.3341217
403, 36265140, -0.6403941512107849, -0.7676163911819458, -7.013203144073486, -0.010272997, -0.004078455, 0.32749748
404, 36281807, -0.6400256156921387, -0.7676470875740051, -7.012353420257568, 0.007350105, -0.006622535, 0.32834053
405, 36298474, -0.6400701403617859, -0.7685583829879761, -7.01183557510376, 0.0097925775, -0.025367428, 0.34138584
406, 36315141, -0.6404227018356323, -0.7697352170944214, -7.011889457702637, -0.0056964513, -0.008290179, 0.31851673
407, 36331808, -0.639968752861023, -0.76978999376297, -7.011099815368652, -0.003194091, -0.010740273, 0.3287897
408, 36348475, -0.6393972039222717, -0.7694892287254333, -7.009602069854736, -0.0013192084, -0.0014536654, 0.31844425
409, 36365142, -0.639762282371521, -0.7702207565307617, -7.008690357208252, 0.00973517, -0.0010821449, 0.33062363
410, 36381809, -0.6404639482498169, -0.7699524164199829, -7.008632183074951, -0.0063896803, 0.0028767479, 0.33214283
411, 36398476, -0.6402336359024048, -0.7706413865089417, -7.010260581970215, 0.0045972355, 0.0015732867, 0.33849335
412, 36415143, -0.6400545835494995, -0.7705094814300537, -7.010135650634766, 0.00620597, -0.0041001914, 0.31960487
413, 36431810, -0.6408761143684387, -0.7711718082427979, -7.010032653808594, 0.005250075, 0.0050541586, 0.3281145
414, 36448477, -0.6400280594825745, -0.7724688649177551, -7.009407043457031, -0.0011991609, 0.0019590002, 0.33007336
415, 36465144, -0.6403560042381287, -0.7724074721336365, -7.008613109588623, -0.0016014912, -0.020243555, 0.32583714
416, 36481811, -0.639624834060669, -0.7730211019515991, -7.0068817138671875, -0.0043389173, -0.0022972801, 0.3512907
417, 36498478, -0.6399720311164856, -0.7738534808158875, -7.006685733795166, 0.01413264, 0.007935405, 0.3310585
418, 36515145, -0.6397714614868164, -0.7737324237823486, -7.006013870239258, -0.0010515237, 0.0035328772, 0.3353796
419, 36531812, -0.6398504972457886, -0.7725628018379211, -7.005540370941162, -0.0012571136, 0.0104924245, 0.33389378
420, 36548479, -0.6392779350280762, -0.7730960249900818, -7.005080223083496, 0.01221279, 0.010133369, 0.3343153
421, 36565146, -0.6402528882026672, -0.7735757827758789, -7.005022048950195, 3.0200093E-4, -0.0029571112, 0.32466316
422, 36581813, -0.6392820477485657, -0.7741284370422363, -7.004369735717773, 0.0056169294, 0.006499439, 0.34340572
423, 36598480, -0.639585018157959, -0.773628830909729, -7.005087852478027, 2.6598043E-4, -0.001788851, 0.32620907
424, 36615147, -0.6390787959098816, -0.7733274698257446, -7.00433874130249, 0.0111174155, 0.0030396085, 0.34205818
425, 36631814, -0.639068603515625, -0.772001326084137, -7.004374980926514, 0.0057103927, 0.010059711, 0.33778954
426, 36648481, -0.6382415294647217, -0.7730463147163391, -7.005606651306152, 0.0015297995, -0.0045416644, 0.33831978
427, 36665148, -0.63839191198349, -0.7731351852416992, -7.0058393478393555, 0.0016124853, -0.0013043936, 0.33902073
428, 36681815, -0.6386055946350098, -0.7730262875556946, -7.005260944366455, -0.0026853266, -0.0023540384, 0.32987022
429, 36698482, -0.6389614343643188, -0.7727725505828857, -7.0058207511901855, 0.0016483312, -0.021197144, 0.3222227
430, 36715149, -0.6385332345962524, -0.7727248072624207, -7.005997657775879, -0.005926104, -0.0017835565, 0.36240768
431, 36731816, -0.6373558640480042, -0.7727825045585632, -7.005330562591553, 0.01570731, -0.001680545, 0.34559155
432, 36748483, -0.6372688412666321, -0.7731406092643738, -7.005068778991699, -0.009197576, 0.003096929, 0.33426666
433, 36765150, -0.6383411884307861, -0.773514986038208, -7.004444599151611, 0.00943868, 0.0010242551, 0.33792305
434, 36781817, -0.6382173895835876, -0.7732359766960144, -7.0029425621032715, 0.0037262263, -0.011737866, 0.3235197
435, 36798484, -0.6376481652259827, -0.7735629677772522, -7.002719402313232, -0.0028101725, -0.005402839, 0.3350973
436, 36815151, -0.6365039944648743, -0.7734168767929077, -7.001564979553223, -0.0049165864, -0.01050573, 0.32359123
437, 36831818, -0.6366031765937805, -0.7747211456298828, -7.002048492431641, 6.781662E-4, 0.008388409, 0.33193684
438, 36848485, -0.6375389099121094, -0.7751758694648743, -7.000577449798584, -0.010941382, -0.0032620598, 0.3314209
439, 36865152, -0.6368614435195923, -0.7753445506095886, -6.999973773956299, 0.0013637992, 0.0017680015, 0.34702396
440, 36881819, -0.6363053321838379, -0.7746670842170715, -6.999456405639648, -0.0074513424, 0.0066925366, 0.33720875
441, 36898486, -0.6361135244369507, -0.7752302885055542, -6.999326705932617, 0.006739174, 0.0028799295, 0.32678032
442, 36915153, -0.6367391347885132, -0.7748567461967468, -6.998590469360352, 0.006421241, 0.004495792, 0.34613323
443, 36931820, -0.6364416480064392, -0.7760606408119202, -6.997413635253906, 0.0015454384, -0.0033041013, 0.34165192
444, 36948487, -0.6367985606193542, -0.7752307653427124, -6.996670722961426, -0.0060120234, 0.0075314823, 0.34263992
445, 36965154, -0.6363332867622375, -0.7763462662696838, -6.995940208435059, -0.01349999, 0.002323501, 0.3473463
446, 36981821, -0.6367515921592712, -0.7769483327865601, -6.99515438079834, -4.1541978E-4, -0.014028574, 0.34066677
447, 36998488, -0.6368200182914734, -0.7765527367591858, -6.99552059173584, 0.0017194991, -0.006419446, 0.33928967
448, 37015155, -0.6377291679382324, -0.7774658203125, -6.995713233947754, 0.0043402934, -0.012800831, 0.32449532
449, 37031822, -0.6378219723701477, -0.7779401540756226, -6.995975017547607, -6.567579E-4, 0.0032606, 0.35019493
450, 37048489, -0.6371315121650696, -0.7786637544631958, -6.995357990264893, -0.0050386316, -0.003655352, 0.3128338
451, 37065156, -0.6373893022537231, -0.7785311937332153, -6.993905067443848, 0.003246386, -0.013780468, 0.33681583
452, 37081823, -0.6381911635398865, -0.7794478535652161, -6.994055271148682, 0.00808922, -0.0072635077, 0.3580227
453, 37098490, -0.6382398009300232, -0.779638409614563, -6.995121955871582, 0.00825388, 0.009467548, 0.35131168
454, 37115157, -0.6378592252731323, -0.7796187996864319, -6.994763374328613, -6.116013E-4, 0.0014321941, 0.30777073
455, 37131824, -0.6377906203269958, -0.779839277267456, -6.995574951171875, 0.0035009463, -0.007845207, 0.32713032
456, 37148491, -0.637298047542572, -0.7802078723907471, -6.994649410247803, 0.0034339274, -0.027705416, 0.32438564
457, 37165158, -0.6366785764694214, -0.7799057364463806, -6.9939045906066895, -0.013020307, -0.010721966, 0.3554802
458, 37181825, -0.6375762224197388, -0.7788938879966736, -6.992498397827148, -0.013066823, -7.0033595E-4, 0.3179636
459, 37198492, -0.637372612953186, -0.778498113155365, -6.992170810699463, -0.005427509, 0.014503406, 0.34123325
460, 37215159, -0.6374349594116211, -0.7796048521995544, -6.992790222167969, -0.0037419281, 0.005063162, 0.33085537
461, 37231826, -0.6370700597763062, -0.7800868153572083, -6.992979526519775, 5.4241705E-4, -0.0055826134, 0.34000015
462, 37248493, -0.6370564699172974, -0.7796030044555664, -6.993039131164551, -0.00343274, 0.0016079731, 0.3513193
463, 37265160, -0.6381277441978455, -0.7796292901039124, -6.992430210113525, 0.008148793, -0.0040850136, 0.3392582
464, 37281827, -0.6380814909934998, -0.7802020311355591, -6.991746425628662, 0.006761553, -0.011884924, 0.34692955
465, 37298494, -0.6378389000892639, -0.7798593640327454, -6.992305755615234, 0.0038725436, -0.0040271794, 0.32430553
466, 37315161, -0.6385505795478821, -0.7804781198501587, -6.991093158721924, 0.0065150326, 0.015986526, 0.33211803
467, 37331828, -0.6387546062469482, -0.7811519503593445, -6.9911322593688965, -0.01792643, 0.0010285298, 0.34295845
468, 37348495, -0.6388238668441772, -0.7816819548606873, -6.992068767547607, 0.00867824, -0.014153372, 0.32790947
469, 37365162, -0.6390916109085083, -0.7815642952919006, -6.992620944976807, -0.0010762428, -0.0028991306, 0.3642912
470, 37381829, -0.6393322944641113, -0.7815756797790527, -6.9933648109436035, -4.506091E-4, 3.2044074E-4, 0.34749222
471, 37398496, -0.6401758790016174, -0.7829372882843018, -6.9937591552734375, -0.0027017267, 0.0062288274, 0.327631
472, 37415163, -0.63974529504776, -0.7838414907455444, -6.994875431060791, 0.0025889785, -0.009974971, 0.32495975
473, 37431830, -0.6408998370170593, -0.783141016960144, -6.995243549346924, -0.0076646362, 5.075281E-4, 0.3486309
474, 37448497, -0.6406210660934448, -0.7833918929100037, -6.995628833770752, 0.011884834, -0.013366172, 0.34000492
475, 37465164, -0.6396799087524414, -0.7838993072509766, -6.997341632843018, -0.0046070977, 0.003507016, 0.3282299
476, 37481831, -0.6403155326843262, -0.782624363899231, -6.99566125869751, 0.00408676, 5.347897E-4, 0.3407774
477, 37498498, -0.6398156881332397, -0.7822810411453247, -6.995269775390625, 0.0065737395, 0.0043660393, 0.32910633
478, 37515165, -0.6395292282104492, -0.7821652293205261, -6.9950151443481445, -0.0044906754, -0.0024445122, 0.33659935
479, 37531832, -0.6395750045776367, -0.7831419706344604, -6.995215892791748, -0.007232638, 0.0023097375, 0.35010624
480, 37548499, -0.6429356932640076, -0.7654337286949158, -7.000825881958008, 0.0045008245, -0.0037191438, 0.30491352
481, 37565166, -0.6434413194656372, -0.7659328579902649, -7.00020170211792, 0.009924695, -5.936085E-4, 0.3187027
482, 37581833, -0.6424628496170044, -0.7667218446731567, -7.000240325927734, 0.0056965, 0.0010235775, 0.31090832
483, 37598500, -0.6422328352928162, -0.7660249471664429, -6.9992876052856445, 0.0015874449, -0.007487223, 0.3355589
484, 37615167, -0.6418020129203796, -0.7655202746391296, -6.998141765594482, -0.0036633075, -0.0056421375, 0.31491756
485, 37631834, -0.641510546207428, -0.7664783596992493, -6.99735689163208, 0.0074861753, -0.005773633, 0.32514477
486, 37648501, -0.6415321230888367, -0.7658029794692993, -6.997281551361084, 0.0048935576, -0.010842299, 0.3303547
487, 37665168, -0.6413048505783081, -0.7645304799079895, -6.998249053955078, 0.0041366383, -0.002473066, 0.3235674
488, 37681835, -0.6400641798973083, -0.7648355960845947, -6.998176574707031, 0.0076720123, -0.017608937, 0.34476852
489, 37698502, -0.6406033635139465, -0.76545250415802, -6.999416351318359, 0.010461545, 6.405602E-4, 0.3320427
490, 37715169, -0.6400159597396851, -0.7667096853256226, -6.999184608459473, -0.0012055171, 0.0016068835, 0.34467793
491, 37731836, -0.639955461025238, -0.7659608721733093, -6.999088287353516, 0.003401462, -0.015213039, 0.3118372
492, 37748503, -0.6412961483001709, -0.76607745885849, -6.998712062835693, 0.004226686, 0.017520577, 0.32763386
493, 37765170, -0.6409119963645935, -0.7641605138778687, -6.996527194976807, 0.013728759, -0.007110038, 0.3373232
494, 37781837, -0.6397339105606079, -0.7641327381134033, -6.995697975158691, -0.0069739223, -0.0029071283, 0.33454227
495, 37798504, -0.6391438245773315, -0.7635415196418762, -6.995474815368652, 0.0054412135, -0.0029215168, 0.33731937
496, 37815171, -0.6405401229858398, -0.7628856897354126, -6.996011257171631, 0.007891963, -0.0062370454, 0.31379986
497, 37831838, -0.6401227712631226, -0.763172447681427, -6.996541976928711, -0.0016857138, -0.0014922284, 0.31322193
498, 37848505, -0.6392000913619995, -0.7624393701553345, -6.996776103973389, -0.0048070303, -0.0050937207, 0.32593536
499, 37865172, -0.6391677856445312, -0.7616481781005859, -6.997402667999268, -0.003764922, 4.02931E-4, 0.34537125
500, 37881839, -0.6394792795181274, -0.7616809606552124, -6.997861385345459, 0.0049222303, 2.8469964E-5, 0.35689068
501, 37898506, -0.6394915580749512, -0.7613711953163147, -6.998748302459717, 0.010352994, -0.0069776135, 0.34871292
502, 37915173, -0.6394990086555481, -0.7618570327758789, -6.998874664306641, -0.0080772275, -9.537298E-4, 0.33126163
503, 37931840, -0.6397448778152466, -0.7617703080177307, -6.997341632843018, 0.009294248, 0.0011781647, 0.3260708
504, 37948507, -0.6398033499717712, -0.7609817981719971, -6.996570110321045, 0.0029552884, -0.016057044, 0.3294134
505, 37965174, -0.6410036683082581, -0.7610300183296204, -6.99608039855957, 0.005924099, 0.0018346362, 0.34113693
506, 37981841, -0.6407573819160461, -0.7614262700080872, -6.995309352874756, 0.0018460493, 0.0010245903, 0.32921886
507, 37998508, -0.6400901675224304, -0.7616757750511169, -6.994139194488525, -0.004853458, -0.010623424, 0.32733822
508, 38015175, -0.640139639377594, -0.7608727216720581, -6.994382858276367, 0.009306416, 0.003627245, 0.31313705
509, 38031842, -0.6413091421127319, -0.7603111863136292, -6.993215560913086, 0.023540111, 0.012960786, 0.34066582
510, 38048509, -0.6421204209327698, -0.759770393371582, -6.992751598358154, 0.011024755, 0.006382901, 0.33584404
511, 38065176, -0.6418087482452393, -0.7599226236343384, -6.993023872375488, -0.008509941, 7.6001386E-5, 0.3370409
512, 38081843, -0.6428369879722595, -0.7594741582870483, -6.9936652183532715, -0.002702062, 0.0017995237, 0.33821774
513, 38098510, -0.6434484124183655, -0.7604715824127197, -6.992873668670654, -0.0040823733, -0.0026825117, 0.34273052
514, 38115177, -0.6439124941825867, -0.7596002221107483, -6.992827415466309, -0.0033439214, 0.0042732046, 0.33421326
515, 38131844, -0.6438335180282593, -0.758152425289154, -6.992455959320068, 0.009190001, -0.0020314394, 0.31050873
516, 38148511, -0.6446021795272827, -0.7593802213668823, -6.992860317230225, 0.0154314535, -0.0052296026, 0.32577324
517, 38165178, -0.6454411745071411, -0.7588479518890381, -6.9929962158203125, 0.00694417, -9.5296843E-4, 0.32343864
518, 38181845, -0.6461639404296875, -0.7591375708580017, -6.992653846740723, 0.0070330026, 0.010420649, 0.33580494
519, 38198512, -0.6454749703407288, -0.760364830493927, -6.992745399475098, -0.010363608, 0.008479617, 0.34267807
520, 38215179, -0.6444762945175171, -0.7593034505844116, -6.992654323577881, -4.2741964E-4, 0.010588277, 0.33823013
521, 38231846, -0.6436271667480469, -0.7603618502616882, -6.992058277130127, -0.0069620237, 0.010604195, 0.3338461
522, 38248513, -0.6431906819343567, -0.7610324025154114, -6.991446495056152, 0.016876332, 5.3221924E-4, 0.34919453
523, 38265180, -0.6434034109115601, -0.7627094388008118, -6.990630626678467, 0.010084408, -0.0038066981, 0.3265915
524, 38281847, -0.6433731317520142, -0.7633806467056274, -6.989820957183838, 0.005243635, 0.011546704, 0.3356533
525, 38298514, -0.6435974836349487, -0.7640459537506104, -6.990289688110352, 0.0061290604, -0.0011930912, 0.36210442
526, 38315181, -0.6429823637008667, -0.7631285190582275, -6.990242958068848, -0.0041731754, -0.0026066918, 0.34096146
527, 38331848, -0.6435688734054565, -0.7637883424758911, -6.989948272705078, -0.0014954763, -0.00494352, 0.34546375
528, 38348515, -0.6440462470054626, -0.764447033405304, -6.990292072296143, -0.009287355, 3.3336956E-4, 0.35628796
529, 38365182, -0.6440138220787048, -0.7633772492408752, -6.990311622619629, 0.0022089228, -2.8759832E-4, 0.33611393
530, 38381849, -0.6440345048904419, -0.7637794017791748, -6.990379810333252, -0.006188005, 0.011208046, 0.32842445
531, 38398516, -0.6431623101234436, -0.7634762525558472, -6.990633010864258, 0.009252186, 0.0033383337, 0.34273815
532, 38415183, -0.6430857181549072, -0.762928307056427, -6.99094820022583, 0.014388905, 0.0075118477, 0.34609413
533, 38431850, -0.6441871523857117, -0.7633110880851746, -6.991204738616943, 0.010586579, 0.0064247474, 0.33384705
534, 38448517, -0.6437040567398071, -0.7622084021568298, -6.9906439781188965, 0.003469515, -0.0053461855, 0.3326645
535, 38465184, -0.6435347199440002, -0.7613645195960999, -6.990403175354004, 0.006279792, -0.005182553, 0.31739616
536, 38481851, -0.6442545056343079, -0.7617741823196411, -6.989752769470215, -0.007837695, -0.0031211348, 0.32486534
537, 38498518, -0.6446555852890015, -0.7628385424613953, -6.990148544311523, -0.0010515237, 0.00845612, 0.3473196
538, 38515185, -0.645362377166748, -0.7620219588279724, -6.9906535148620605, 3.9721746E-4, -0.0063511906, 0.32701206
539, 38531852, -0.6462785005569458, -0.7615213990211487, -6.990863800048828, 0.0101121105, 0.00218354, 0.31830406
540, 38548519, -0.6458213329315186, -0.7619196772575378, -6.9899210929870605, -0.0046711275, -0.0027908597, 0.35144234
541, 38565186, -0.6462770104408264, -0.7609068155288696, -6.989753246307373, 0.018412333, -0.0091547975, 0.31368065
542, 38581853, -0.645665168762207, -0.7595760822296143, -6.989400386810303, 0.005565249, -0.00420474, 0.3265152
543, 38598520, -0.6461759209632874, -0.7597514986991882, -6.990142345428467, -0.007393103, 5.9458637E-4, 0.31692982
544, 38615187, -0.6474269032478333, -0.7620182633399963, -6.990644931793213, 0.020112947, 0.008725966, 0.34022808
545, 38631854, -0.6481473445892334, -0.7618082761764526, -6.990595817565918, 0.014266916, 0.0058691497, 0.30069542
546, 38648521, -0.6482642292976379, -0.7616609930992126, -6.9901652336120605, 0.006757516, 0.0052373204, 0.34344196
547, 38665188, -0.6478785872459412, -0.7619978189468384, -6.990413188934326, -0.0068568257, 0.0028160957, 0.3268366
548, 38681855, -0.6479690670967102, -0.7619577050209045, -6.991456508636475, 0.013803839, 2.789791E-4, 0.35779667
549, 38698522, -0.6487318277359009, -0.7614693641662598, -6.992074012756348, 0.010908941, 0.003209412, 0.35058594
550, 38715189, -0.6488374471664429, -0.7622102499008179, -6.992007255554199, 0.0031379613, 0.00485123, 0.337327
551, 38731856, -0.6493615508079529, -0.7605372667312622, -6.992057800292969, 2.6463933E-4, -0.00570081, 0.34123993
552, 38748523, -0.6490947604179382, -0.7603049278259277, -6.992208480834961, 0.0057366975, -0.009988046, 0.3313675
553, 38765190, -0.6490042805671692, -0.7598388195037842, -6.991060733795166, 0.009683698, -0.008587528, 0.32833004
554, 38781857, -0.6482185125350952, -0.7605540752410889, -6.990801811218262, 1.01460915E-4, 0.002950392, 0.33400154
555, 38798524, -0.6488280296325684, -0.7604617476463318, -6.990914344787598, 0.003980521, 4.9675753E-5, 0.3308754
556, 38815191, -0.6483646631240845, -0.7609848380088806, -6.9909138679504395, 0.001026162, 0.008219975, 0.32506275
557, 38831858, -0.6489704847335815, -0.7614280581474304, -6.989682197570801, 7.853687E-5, -0.012147335, 0.31028366
558, 38848525, -0.6499988436698914, -0.762855589389801, -6.989086151123047, 0.010400072, -0.0029433025, 0.3443861
559, 38865192, -0.649014949798584, -0.7622866034507751, -6.987967491149902, 0.0017309472, 0.0029896675, 0.33312702
560, 38881859, -0.6483858227729797, -0.7627063989639282, -6.9876909255981445, 0.009870332, 0.0062653334, 0.3454361
561, 38898526, -0.6489627957344055, -0.7634113430976868, -6.987362861633301, 0.00169017, -0.0033292465, 0.32958508
562, 38915193, -0.6488678455352783, -0.7643283605575562, -6.98739767074585, -0.01564949, 0.002148721, 0.34259987
563, 38931860, -0.6482738256454468, -0.7641983032226562, -6.987395286560059, 0.0047247144, -0.006078302, 0.30574322
564, 38948527, -0.6483700275421143, -0.7639031410217285, -6.988055229187012, 0.007135141, -0.0019073408, 0.33072472
565, 38965194, -0.6475510597229004, -0.7638525366783142, -6.987865447998047, 3.48785E-4, -0.019775128, 0.32009602
566, 38981861, -0.6455445885658264, -0.763299286365509, -6.987608909606934, 0.0048078545, -0.003092232, 0.34675026
567, 38998528, -0.6447461247444153, -0.7635935544967651, -6.987149238586426, 0.0022481421, 4.9145607E-4, 0.33972454
568, 39015195, -0.6455414295196533, -0.7642332315444946, -6.987584114074707, 0.0036159228, -0.019341722, 0.32126236
569, 39031862, -0.6456880569458008, -0.7637563347816467, -6.987146854400635, 0.008956841, 0.0019157015, 0.3472967
570, 39048529, -0.646232545375824, -0.7635663747787476, -6.987648010253906, 0.008489581, -0.0054272017, 0.3346138
571, 39065196, -0.645912766456604, -0.7641090750694275, -6.987563610076904, 0.0016108719, -0.005695152, 0.32206059
572, 39081863, -0.6450759172439575, -0.7653480172157288, -6.987548351287842, 0.02203052, -0.0068680574, 0.3352747
573, 39098530, -0.6444246768951416, -0.7652349472045898, -6.9869794845581055, 0.0060399766, -0.0072281295, 0.34923077
574, 39115197, -0.6439611911773682, -0.7657960653305054, -6.986754417419434, 0.0013608866, 0.0014429927, 0.33697033
575, 39131864, -0.6440687775611877, -0.765652060508728, -6.985274314880371, -0.008848256, 7.0537894E-4, 0.34670067
576, 39148531, -0.64462810754776, -0.7644053101539612, -6.986018180847168, 0.003991236, 0.0037827054, 0.3291893
577, 39165198, -0.6449830532073975, -0.7647567987442017, -6.986563682556152, 0.008901411, -0.017342838, 0.33095074
578, 39181865, -0.644660472869873, -0.7639298439025879, -6.985515594482422, 0.00759548, -9.2855666E-4, 0.3323412
579, 39198532, -0.6450628042221069, -0.7626113295555115, -6.985395431518555, 0.0049679736, 0.008050445, 0.337574
580, 39215199, -0.6454523205757141, -0.7632715702056885, -6.985190391540527, 0.0019424394, 0.0032587806, 0.3338213
581, 39231866, -0.6440351605415344, -0.7641569972038269, -6.984462261199951, 0.004281502, -0.0036567766, 0.31797695
582, 39248533, -0.6437410116195679, -0.7644365429878235, -6.984187126159668, 0.006283096, 6.9664797E-4, 0.3168192
583, 39265200, -0.6424777507781982, -0.7656197547912598, -6.984155178070068, -0.010604258, 0.0034699966, 0.34557915
584, 39281867, -0.6427289247512817, -0.7660027146339417, -6.983738899230957, 0.0028206706, 0.0072299703, 0.3060789
585, 39298534, -0.6415351629257202, -0.7658635973930359, -6.984637260437012, 0.0072956933, -0.010104978, 0.32392788
586, 39315201, -0.6422153115272522, -0.7661844491958618, -6.985470294952393, -0.0030392103, -0.0044745896, 0.34305477
587, 39331868, -0.6411094069480896, -0.7663805484771729, -6.986255168914795, 0.009886048, -0.014935715, 0.3172264
588, 39348535, -0.6408020853996277, -0.7675361633300781, -6.985160827636719, -0.0019211777, -0.0067902817, 0.32976723
589, 39365202, -0.6411342024803162, -0.7675889134407043, -6.984480381011963, 0.005088573, -0.0010575795, 0.32108784
590, 39381869, -0.6415656805038452, -0.7677655220031738, -6.984578609466553, 0.013009879, -0.01489051, 0.31696892
591, 39398536, -0.6407919526100159, -0.767435610294342, -6.985898494720459, -0.0037197585, -0.005309641, 0.339386
592, 39415203, -0.6414006352424622, -0.7671244144439697, -6.986598014831543, 0.011986798, 0.005593604, 0.32980442
593, 39431870, -0.6416652798652649, -0.7672179937362671, -6.986648082733154, 0.004483705, 0.0013967603, 0.3223486
594, 39448537, -0.6413346529006958, -0.76910400390625, -6.987242221832275, 0.0052540353, 0.009202339, 0.32313633
595, 39465204, -0.6411610841751099, -0.7693219184875488, -6.987216472625732, -0.01138106, -0.008328875, 0.31943703
596, 39481871, -0.641006350517273, -0.7699487805366516, -6.9886298179626465, 0.018074928, -0.0041540302, 0.35468674
597, 39498538, -0.6414584517478943, -0.7690821290016174, -6.988015174865723, -0.011907726, 0.0029748667, 0.30770588
598, 39515205, -0.6418088674545288, -0.7690412998199463, -6.988314151763916, -0.0016841491, -0.0019878196, 0.31877327
599, 39531872, -0.6426509618759155, -0.7686446905136108, -6.9870429039001465, -0.0025922335, -0.011386421, 0.34126377
600, 39548539, -0.642734706401825, -0.7668746709823608, -6.986209869384766, 0.018940523, -0.012905799, 0.3320923
601, 39565206, -0.6419935822486877, -0.7666550278663635, -6.987381935119629, -2.5269538E-4, -0.0020085294, 0.34904003
602, 39581873, -0.6429586410522461, -0.7659364938735962, -6.9868364334106445, 0.0028630125, 0.006960403, 0.3298807
603, 39598540, -0.6430615782737732, -0.7650065422058105, -6.986114025115967, 0.0048373165, -9.680416E-4, 0.32290936
604, 39615207, -0.6419061422348022, -0.7639940977096558, -6.986841678619385, 0.0076461337, -0.019092128, 0.30715466
605, 39631874, -0.6413614749908447, -0.7636573910713196, -6.985701560974121, 0.0046103736, -0.014095146, 0.30666828
606, 39648541, -0.6409435272216797, -0.7647217512130737, -6.985215663909912, 0.009388816, -0.0024546962, 0.32746315
607, 39665208, -0.6409285068511963, -0.7668446898460388, -6.985469818115234, 0.006514481, -0.009889101, 0.34043217
608, 39681875, -0.6407740116119385, -0.7670344114303589, -6.985254764556885, 0.0073451316, -0.0074823406, 0.33084106
609, 39698542, -0.6415848731994629, -0.7671577334403992, -6.985158443450928, 0.007119733, 0.003621514, 0.35373497
610, 39715209, -0.6410190463066101, -0.7686595320701599, -6.985049724578857, 1.3173294E-4, 0.0029591054, 0.31254387
611, 39731876, -0.640323281288147, -0.7679194808006287, -6.98493766784668, 0.0036393497, -9.1267325E-4, 0.32975388
612, 39748543, -0.6401868462562561, -0.7675018310546875, -6.984801292419434, 0.004589636, -0.004154631, 0.33393478
613, 39765210, -0.6400469541549683, -0.7676669359207153, -6.985427379608154, 0.0030858128, 0.0043086032, 0.34269714
614, 39781877, -0.6409690976142883, -0.7677147388458252, -6.984148979187012, 0.0064332965, -0.008246252, 0.327178
615, 39798544, -0.6408179402351379, -0.7676556706428528, -6.983656883239746, -6.1734975E-4, 0.0014112818, 0.34526443
616, 39815211, -0.6392956972122192, -0.7691104412078857, -6.983458042144775, 0.0028126312, -0.002781074, 0.31898308
617, 39831878, -0.6382325887680054, -0.7699878215789795, -6.983386516571045, -0.005819387, 0.002692877, 0.31916237
618, 39848545, -0.6383688449859619, -0.7684491276741028, -6.98271369934082, 0.006100681, -1.8193954E-4, 0.32895184
619, 39865212, -0.6385694146156311, -0.7683927416801453, -6.982980728149414, 0.018041736, -1.453393E-4, 0.33497143
620, 39881879, -0.6387726068496704, -0.7684032917022705, -6.981640338897705, 0.019272739, 2.2178073E-4, 0.32338524
621, 39898546, -0.6393164396286011, -0.7681536078453064, -6.980605602264404, -0.0068794284, -0.002659916, 0.33337593
622, 39915213, -0.6388029456138611, -0.7666054964065552, -6.979336261749268, 0.004777687, -0.017815232, 0.31852055
623, 39931880, -0.6379770040512085, -0.7650183439254761, -6.978396892547607, 0.01574727, -0.012673729, 0.33852482
624, 39948547, -0.6377308964729309, -0.7640919089317322, -6.977810382843018, 0.0073635364, -0.0010516564, 0.32735157
625, 39965214, -0.6370631456375122, -0.7622168660163879, -6.9775004386901855, 0.0015246099, -0.0107380655, 0.34349728
626, 39981881, -0.6367093920707703, -0.7621427774429321, -6.976951599121094, 0.0053651, 0.0019744437, 0.33892918
627, 39998548, -0.6379618644714355, -0.7618197202682495, -6.976805210113525, -0.012247026, 0.010990792, 0.36304665
628, 40015215, -0.6383843421936035, -0.7616601586341858, -6.975672721862793, 0.0064176577, -0.006296695, 0.31060314
629, 40031882, -0.6383484601974487, -0.7621774077415466, -6.97618293762207, 0.008325481, -0.0054090624, 0.31902695
630, 40048549, -0.6379461288452148, -0.7606272101402283, -6.976682186126709, -0.0039511714, -5.0758394E-5, 0.32914734
631, 40065216, -0.6384578943252563, -0.7607632279396057, -6.975637912750244, 0.008748835, 0.0023400479, 0.3295393
632, 40081883, -0.639155387878418, -0.7603387832641602, -6.9743804931640625, 0.011945824, -0.010298038, 0.33269024
633, 40098550, -0.6379247307777405, -0.7611493468284607, -6.974621772766113, -0.009436462, -0.004289458, 0.3532753
634, 40115217, -0.6376723051071167, -0.7610423564910889, -6.974232196807861, -0.010381366, 3.3885264E-4, 0.32963276
635, 40131884, -0.6343966126441956, -0.7942706346511841, -6.975277900695801, -0.015521617, -0.0022340259, 0.3590927
636, 40148551, -0.6459068655967712, -0.8463329076766968, -7.015819072723389, -0.007875612, -0.03328909, 0.3416195
637, 40165218, -0.6292620301246643, -0.9112919569015503, -7.329492092132568, 0.19417636, -0.11632342, 0.3229828
638, 40181885, -0.6217314600944519, -0.9065884351730347, -7.615150451660156, -0.059127796, 0.051507946, 0.3034935
639, 40198552, -0.6092897653579712, -0.8838103413581848, -7.678524494171143, -0.06557804, 0.055978775, 0.35340786
640, 40215219, -0.5961132645606995, -0.8572964668273926, -7.624490737915039, 0.045590036, -0.0034052827, 0.34098816
641, 40231886, -0.584348201751709, -0.8367876410484314, -7.568840026855469, -0.043720122, 0.003495512, 0.33539486
642, 40248553, -0.5900816321372986, -0.829862654209137, -7.515079498291016, 0.011926714, 0.009978198, 0.33711815
643, 40265220, -0.6093510389328003, -0.8289688229560852, -7.510485649108887, -0.02457955, 0.017477565, 0.33107758
644, 40281887, -0.6269847750663757, -0.8510724306106567, -7.510826110839844, -0.01283141, 0.011379502, 0.3583851
645, 40298554, -0.6493592262268066, -0.7880739569664001, -7.5072503089904785, 0.05346364, 0.0026381444, 0.32200432
646, 40315221, -0.6681773066520691, -0.6909469366073608, -7.50577449798584, 0.0016435047, -0.006862337, 0.3463564
647, 40331888, -0.6730241179466248, -0.6337152123451233, -7.507180690765381, -0.010860107, -0.0033622845, 0.32628632
648, 40348555, -0.6670427322387695, -0.647851288318634, -7.507758617401123, -0.019916814, -0.014592875, 0.32762146
649, 40365222, -0.6601850986480713, -0.6612426042556763, -7.507845401763916, 0.026462033, -0.011735317, 0.35069275
650, 40381889, -0.6547224521636963, -0.6705145835876465, -7.508509635925293, 0.015463527, -0.01392962, 0.32301235
651, 40398556, -0.6241244077682495, -0.7481848001480103, -7.491018772125244, 0.007902304, 0.006074918, 0.33773518
652, 40415223, -0.6244978904724121, -0.7886205315589905, -7.475326061248779, 0.006796701, 0.0061738295, 0.3323555
653, 40431890, -0.6366396546363831, -0.7969881892204285, -7.473121643066406, -0.016382134, 0.008111418, 0.33643246
654, 40448557, -0.6498329043388367, -0.7862476110458374, -7.479197025299072, 0.018402003, -0.009172825, 0.32795143
655, 40465224, -0.6518105864524841, -0.7657963633537292, -7.55091667175293, 0.04421594, -0.008486396, 0.34231853
656, 40481891, -0.644557774066925, -0.7552475333213806, -7.685100078582764, 0.29683843, -0.05704357, 0.31754398
657, 40498558, -0.6404680609703064, -0.7637425065040588, -7.705390930175781, 0.3357648, -0.0577847, 0.36146164
658, 40515225, -0.6435447931289673, -0.765459418296814, -7.702975749969482, -0.07599908, 0.05181078, 0.3294735
659, 40531892, -0.648129940032959, -0.7605509757995605, -7.700474739074707, 0.023206498, 0.034675237, 0.31919384
660, 40548559, -0.648980438709259, -0.7567116022109985, -7.710973739624023, 0.12206448, -0.0155892465, 0.3142128
661, 40565226, -0.650998055934906, -0.7463151216506958, -7.821529865264893, 0.025340663, -0.022496419, 0.35213947
662, 40581893, -0.6531675457954407, -0.7482747435569763, -7.982680320739746, -0.27043095, 0.03237786, 0.31964874
663, 40598560, -0.6529785394668579, -0.7587234377861023, -8.045827865600586, 0.08872574, -4.7083703E-4, 0.3132944
664, 40615227, -0.6550906300544739, -0.7625423669815063, -7.993146896362305, 0.28440917, -0.05882304, 0.31113815
665, 40631894, -0.6500730514526367, -0.7630706429481506, -7.882360458374023, 0.26418653, -0.08947563, 0.36178017
666, 40648561, -0.6545807123184204, -0.7748268842697144, -7.741016387939453, -0.19532663, 0.05244456, 0.35380936
667, 40665228, -0.6589974761009216, -0.7797311544418335, -7.695161819458008, 0.1339232, -0.013732503, 0.28568745
668, 40681895, -0.6538971662521362, -0.7884364128112793, -7.647852420806885, 0.44472215, -0.11214585, 0.3923807
669, 40698562, -0.652677595615387, -0.8070554733276367, -7.480639934539795, 0.09537154, -0.13269861, 0.31368828
670, 40715229, -0.6531797647476196, -0.8069616556167603, -7.3366522789001465, -0.24253368, -0.066662, 0.34025478
671, 40731896, -0.6580447554588318, -0.8037427067756653, -7.284522533416748, 0.09157554, -0.030524753, 0.30055046
672, 40748563, -0.6617565751075745, -0.8113488554954529, -7.221075057983398, 0.13287346, 0.036028355, 0.35933018
673, 40765230, -0.6696884632110596, -0.8226431608200073, -7.272286891937256, -0.26626104, 0.17937055, 0.29612923
674, 40781897, -0.6791257858276367, -0.8312758207321167, -7.367743968963623, -0.14168859, 0.21921588, 0.32795906
675, 40798564, -0.6770281195640564, -0.8355220556259155, -7.437555313110352, 0.105457164, 0.09408428, 0.3329649
676, 40815231, -0.666331946849823, -0.8328810930252075, -7.483293533325195, 0.053333417, -0.1032556, 0.36040688
677, 40831898, -0.6618331074714661, -0.8268591165542603, -7.573204517364502, 0.040093735, -0.027479835, 0.3383236
678, 40848565, -0.6539475917816162, -0.8281928300857544, -7.6174702644348145, 0.2022985, -0.025296938, 0.32478905
679, 40865232, -0.6444478034973145, -0.8306272625923157, -7.619747161865234, 0.07077929, -0.154311, 0.3173275
680, 40881899, -0.6381858587265015, -0.8382133841514587, -7.634125709533691, -0.07266726, 0.011978185, 0.33544636
681, 40898566, -0.6394684314727783, -0.8371032476425171, -7.687145709991455, -0.36545977, 0.043168798, 0.34579182
682, 40915233, -0.6351943016052246, -0.8317491412162781, -7.797636985778809, 0.1977499, 0.09493122, 0.3381214
683, 40931900, -0.6276123523712158, -0.8432413935661316, -7.8490777015686035, 0.188397, -0.072823554, 0.3322096
684, 40948567, -0.6220513582229614, -0.8619813323020935, -7.78202486038208, 0.08932705, 0.045979362, 0.3298378
685, 40965234, -0.6164188385009766, -0.8648076057434082, -7.7025556564331055, -0.10661748, -0.07386988, 0.32693672
686, 40981901, -0.6126269102096558, -0.8528924584388733, -7.776398181915283, -0.020383239, -0.11189854, 0.2819662
687, 40998568, -0.6015200018882751, -0.845547080039978, -7.854361534118652, 0.29054123, -0.045149498, 0.32142353
688, 41015235, -0.5930420160293579, -0.8350895643234253, -7.899629592895508, 0.18031248, -0.12278713, 0.36570358
689, 41031902, -0.5922502875328064, -0.8192681074142456, -7.93812370300293, -0.021398757, -0.026060874, 0.35630894
690, 41048569, -0.5953594446182251, -0.8261261582374573, -7.897531986236572, 0.19124497, -0.07845118, 0.33670425
691, 41065236, -0.5943891406059265, -0.8261489272117615, -7.889057159423828, 0.094701745, 0.02502335, 0.29321098
692, 41081903, -0.5935470461845398, -0.8226667642593384, -7.873505115509033, -0.028022043, 0.059622675, 0.30999565
693, 41098570, -0.590042233467102, -0.8145664930343628, -7.90641450881958, -0.20033312, -0.0030773508, 0.36698818
694, 41115237, -0.5887975692749023, -0.8011447787284851, -7.969819068908691, -0.004038865, 0.09362663, 0.36625385
695, 41131904, -0.5840677618980408, -0.7858555912971497, -7.999354362487793, -0.05903404, 0.10130382, 0.3135376
696, 41148571, -0.5861835479736328, -0.770526111125946, -8.008262634277344, -0.2937112, 0.12969726, 0.30723
697, 41165238, -0.5778959393501282, -0.755047619342804, -7.998837947845459, -0.016409388, 0.027907742, 0.302907
698, 41181905, -0.561616837978363, -0.7553838491439819, -7.922482490539551, 0.093463756, -0.12151393, 0.3699131
699, 41198572, -0.5529024600982666, -0.7582036256790161, -7.923714637756348, 0.3099356, -0.19709373, 0.36324692
700, 41215239, -0.5472355484962463, -0.7459762096405029, -7.854124069213867, 0.32543784, -0.035694662, 0.3356886
701, 41231906, -0.5505388379096985, -0.7214722633361816, -7.800381660461426, -1.8383242E-4, -0.14175583, 0.384758
702, 41248573, -0.5548616051673889, -0.7132482528686523, -7.792462348937988, -0.03979471, 0.05142777, 0.29578114
703, 41265240, -0.5551112294197083, -0.6955753564834595, -7.762148857116699, -0.2764033, 0.124019876, 0.30524254
704, 41281907, -0.5452576279640198, -0.667637825012207, -7.709933757781982, -0.09648729, 0.06807493, 0.34703636
705, 41298574, -0.5395953059196472, -0.6485937833786011, -7.61694860458374, 0.30891016, -0.14376199, 0.34596157
706, 41315241, -0.5473711490631104, -0.6632705926895142, -7.406337261199951, 0.27095965, -0.14079466, 0.33313084
707, 41331908, -0.5536537766456604, -0.6594815254211426, -7.221052646636963, 0.07335944, -0.02440444, 0.3080349
708, 41348575, -0.5554331541061401, -0.6447098851203918, -7.093498229980469, -0.258635, 0.06193273, 0.3577757
709, 41365242, -0.5591124892234802, -0.626181423664093, -7.072520732879639, -0.23145714, 0.12451057, 0.3550253
710, 41381909, -0.5644415616989136, -0.6209145188331604, -7.102639198303223, -0.10726881, 0.1740966, 0.33146286
711, 41398576, -0.5613810420036316, -0.6141574382781982, -7.180511474609375, -0.032923866, 0.03749907, 0.35869884
712, 41415243, -0.5563108325004578, -0.6091132760047913, -7.276376247406006, 0.16462313, -0.022743072, 0.3352337
713, 41431910, -0.5493082404136658, -0.6167050004005432, -7.292113304138184, 0.097833216, 0.008518533, 0.34319687
714, 41448577, -0.5434007048606873, -0.6349720358848572, -7.262156963348389, -0.18452749, -0.10828205, 0.29015636
715, 41465244, -0.5341521501541138, -0.6438845992088318, -7.317931175231934, 0.16475393, -0.074431874, 0.35555077
716, 41481911, -0.5344094038009644, -0.6527614593505859, -7.328763008117676, -0.032489367, 0.021893224, 0.323246
717, 41498578, -0.5396718978881836, -0.6499608755111694, -7.379245758056641, 0.06282325, -0.019872446, 0.35174465
718, 41515245, -0.5500295162200928, -0.6483377814292908, -7.36607551574707, 0.30011, -0.06550971, 0.3280306
719, 41531912, -0.562376081943512, -0.657575786113739, -7.284076690673828, 0.13347538, -0.067194365, 0.3128109
720, 41548579, -0.5785442590713501, -0.6611590385437012, -7.245457172393799, 0.015526457, -0.087454975, 0.3249588
721, 41565246, -0.5951134562492371, -0.6596447825431824, -7.218524932861328, -0.07641704, -0.050104495, 0.33788967
722, 41581913, -0.6090320944786072, -0.659973680973053, -7.185171127319336, -0.15092997, 0.06711584, 0.3419571
723, 41598580, -0.619857668876648, -0.6635083556175232, -7.111495494842529, -0.10475581, 0.07970887, 0.30838394
724, 41615247, -0.623792827129364, -0.6671461462974548, -7.037323474884033, 0.050087973, 0.001560522, 0.3295679
725, 41631914, -0.630633533000946, -0.6697209477424622, -7.006028652191162, -0.042942133, -0.037825998, 0.35534668
726, 41648581, -0.6406219005584717, -0.6686996221542358, -7.014786243438721, -0.12079029, 0.060190614, 0.2942276
727, 41665248, -0.6469098329544067, -0.6656060814857483, -7.038187503814697, 0.0627736, 0.057885446, 0.35003662
728, 41681915, -0.6491190195083618, -0.6682918667793274, -7.0208234786987305, -0.17277373, 0.044149674, 0.334445
729, 41698582, -0.6556079387664795, -0.659713864326477, -7.075618267059326, -0.074424006, 0.0418661, 0.3480072
730, 41715249, -0.6561523675918579, -0.6624826192855835, -7.09472131729126, 0.045578577, -0.030222353, 0.29014206
731, 41731916, -0.6568622589111328, -0.6749352812767029, -7.090877056121826, 0.11246278, -0.043641094, 0.36676788
732, 41748583, -0.6550657749176025, -0.6831345558166504, -7.123132228851318, -0.014052811, -0.044857576, 0.28961182
733, 41765250, -0.6567865014076233, -0.6838525533676147, -7.169567584991455, -0.21930754, 0.0783465, 0.34105587
734, 41781917, -0.6577258706092834, -0.6767642498016357, -7.246603488922119, 0.055328675, 0.01891129, 0.30771732
735, 41798584, -0.6479352116584778, -0.6821870803833008, -7.273386478424072, 0.11973196, -0.033755172, 0.33064365
736, 41815251, -0.6385002732276917, -0.6926295161247253, -7.280051231384277, 0.034322537, -0.10664458, 0.34009457
737, 41831918, -0.6329604387283325, -0.698502779006958, -7.303457260131836, -0.08771857, 0.031301275, 0.32226467
738, 41848585, -0.6349369287490845, -0.6991915106773376, -7.350795745849609, -0.017402146, -0.05474318, 0.3345976
739, 41865252, -0.6383132338523865, -0.6967452764511108, -7.409024715423584, 0.019955093, 0.03597622, 0.28927612
740, 41881919, -0.6347168684005737, -0.6978549361228943, -7.438905239105225, 0.025399351, -0.044267476, 0.32620525
741, 41898586, -0.6371496319770813, -0.6922688484191895, -7.459616661071777, 0.065850906, 0.011402273, 0.32141685
742, 41915253, -0.6320356726646423, -0.6856292486190796, -7.506795406341553, 0.1787935, -0.053844437, 0.34998512
743, 41931920, -0.6251622438430786, -0.6919418573379517, -7.519894123077393, 0.040504094, -0.02535505, 0.3288784
744, 41948587, -0.6332294344902039, -0.702504575252533, -7.511053085327148, 0.06833577, 0.0010590951, 0.3132906
745, 41965254, -0.6418933272361755, -0.7022926807403564, -7.486612319946289, 0.01569249, -0.09743048, 0.3229437
746, 41981921, -0.6506271362304688, -0.7004107236862183, -7.451577663421631, -0.2079574, 0.010900629, 0.31175613
747, 41998588, -0.6506161093711853, -0.6961656808853149, -7.454404354095459, -0.13178396, 0.064084366, 0.3594103
748, 42015255, -0.6521098017692566, -0.6986168026924133, -7.454345703125, 0.083606586, 0.028308699, 0.3218298
749, 42031922, -0.6520665884017944, -0.6992919445037842, -7.455477714538574, 0.08678212, 0.003958376, 0.31146908
750, 42048589, -0.6502025127410889, -0.6981335282325745, -7.444056987762451, -0.02854665, 0.034159385, 0.3146925
751, 42065256, -0.6475719213485718, -0.6937434077262878, -7.464460372924805, -0.16834785, 0.11504931, 0.3025446
752, 42081923, -0.6450967192649841, -0.6967244744300842, -7.480905532836914, 0.054411884, 0.05333411, 0.32318687
753, 42098590, -0.6433127522468567, -0.7014790773391724, -7.464715480804443, -0.057976305, -0.114862636, 0.33516693
754, 42115257, -0.6369479894638062, -0.7009375095367432, -7.490257740020752, -0.055741925, 0.041868854, 0.34968185
755, 42131924, -0.6277619004249573, -0.6967884302139282, -7.535656452178955, 0.10406835, -0.05775572, 0.30781746
756, 42148591, -0.6201862692832947, -0.6950981020927429, -7.550556659698486, 0.02651666, 0.0057838485, 0.37198353
757, 42165258, -0.6125838756561279, -0.6926942467689514, -7.534964084625244, -0.12554327, 0.11504656, 0.30344868
758, 42181925, -0.6108787059783936, -0.6918429136276245, -7.4268293380737305, -0.16798694, -0.01569481, 0.35730553
759, 42198592, -0.6064658164978027, -0.6917734146118164, -7.348030090332031, -0.25320524, -0.029429302, 0.3334856
760, 42215259, -0.6040319204330444, -0.6830246448516846, -7.308342456817627, -0.24556832, 0.013660742, 0.3138981
761, 42231926, -0.5977817177772522, -0.6749404668807983, -7.247312545776367, -0.05234357, -0.0028559926, 0.34658813
762, 42248593, -0.6004267334938049, -0.6671199798583984, -7.21993350982666, -0.12729758, -0.013614733, 0.33781815
763, 42265260, -0.6052483320236206, -0.6618936657905579, -7.221540927886963, -0.032488573, 0.0497529, 0.35355854
764, 42281927, -0.6095739006996155, -0.6606784462928772, -7.180837631225586, -0.049541052, -0.00871944, 0.33420467
765, 42298594, -0.6143763661384583, -0.6598801612854004, -7.10604190826416, 0.016565401, -0.063378915, 0.34735775
766, 42315261, -0.6224969625473022, -0.6554819941520691, -7.031303882598877, 0.15178534, -0.098205164, 0.34037971
767, 42331928, -0.6289715766906738, -0.6600813269615173, -6.9619598388671875, 0.07230411, -0.058497924, 0.32903957
768, 42348595, -0.6376097798347473, -0.6658338904380798, -6.893802642822266, 0.0527423, -0.011345252, 0.31997108
769, 42365262, -0.6415766477584839, -0.6711711883544922, -6.867756366729736, -0.010101975, 0.025112476, 0.32736397
770, 42381929, -0.6441580057144165, -0.6697585582733154, -6.843803405761719, 0.13811609, -0.111407906, 0.3451872
771, 42398596, -0.6427342295646667, -0.6704698801040649, -6.824221134185791, 0.077413835, -0.13015486, 0.33943748
772, 42415263, -0.6453171968460083, -0.6732813119888306, -6.831482887268066, 0.07306487, -0.066992424, 0.33123016
773, 42431930, -0.6497289538383484, -0.6747630834579468, -6.888245105743408, -0.09358305, 0.06441411, 0.34505367
774, 42448597, -0.6579147577285767, -0.6731252074241638, -7.007446765899658, -0.24212004, 0.27575696, 0.32178783
775, 42465264, -0.6661982536315918, -0.6730388402938843, -7.1271185874938965, -0.1892147, 0.18383715, 0.33407688
776, 42481931, -0.6700082421302795, -0.6693977117538452, -7.215994358062744, -0.13286969, 0.07966383, 0.34214973
777, 42498598, -0.6726927757263184, -0.6690641641616821, -7.242831707000732, -0.034592073, 0.010128923, 0.36528397
778, 42515265, -0.6711636185646057, -0.6647599935531616, -7.224579811096191, 0.14785732, -0.047904197, 0.3427372
779, 42531932, -0.6695486903190613, -0.6642354130744934, -7.216039657592773, 0.02859249, -0.017966077, 0.34235764
780, 42548599, -0.6691994071006775, -0.6626003384590149, -7.218254089355469, 0.04695195, -0.021643298, 0.34442806
781, 42565266, -0.6692327260971069, -0.6631691455841064, -7.220353603363037, -0.03233513, -0.008706737, 0.35578156
782, 42581933, -0.6662154197692871, -0.6653724312782288, -7.215010643005371, 0.24502426, -0.05763588, 0.33742142
783, 42598600, -0.6673897504806519, -0.6664312481880188, -7.245265960693359, 0.027405433, -0.013348368, 0.31192398
784, 42615267, -0.6674898862838745, -0.6712716817855835, -7.26910400390625, 0.07921558, 0.09581534, 0.33459663
785, 42631934, -0.6671898365020752, -0.6736902594566345, -7.276865482330322, 0.063399196, 0.044410057, 0.33121872
786, 42648601, -0.6631321310997009, -0.6723954081535339, -7.34712553024292, 0.01514858, -3.783655E-4, 0.32710266
787, 42665268, -0.6582459211349487, -0.6724599599838257, -7.441258907318115, 0.088551655, -0.008379403, 0.3091154
788, 42681935, -0.6564249396324158, -0.6831144094467163, -7.521321773529053, 0.028376175, 0.069527216, 0.3330183
789, 42698602, -0.6554060578346252, -0.6906881332397461, -7.621541976928711, -0.0744918, 0.09072626, 0.3459978
790, 42715269, -0.6413885951042175, -0.694324254989624, -7.719880104064941, -0.10247688, -0.06027696, 0.31895638
791, 42731936, -0.619512140750885, -0.6932200193405151, -7.919244766235352, 0.09536812, -0.15507664, 0.34036064
792, 42748603, -0.5980644822120667, -0.7060373425483704, -8.072587966918945, 0.24868222, -0.12617294, 0.3494463
793, 42765270, -0.5901576280593872, -0.7212808132171631, -8.2041654586792, -0.10143092, 0.007092548, 0.3427782
794, 42781937, -0.5820527076721191, -0.7305256724357605, -8.377080917358398, 0.020907996, 0.050186902, 0.3138361
795, 42798604, -0.5701949000358582, -0.7353497743606567, -8.430930137634277, 0.038335267, 0.034269217, 0.32993507
796, 42815271, -0.5528676509857178, -0.723612904548645, -8.4813232421875, -0.16059847, -1.3942669E-4, 0.30526257
797, 42831938, -0.5302481651306152, -0.7022457718849182, -8.547428131103516, 0.10665724, -0.021397978, 0.34781075
798, 42848605, -0.5196990370750427, -0.6951850056648254, -8.604089736938477, 0.24328436, -0.08571006, 0.33178902
799, 42865272, -0.5239768028259277, -0.7230686545372009, -8.562063217163086, -0.11057848, -0.026174316, 0.35159302
800, 42881939, -0.5261293053627014, -0.7320369482040405, -8.57017993927002, -0.04957837, -0.0026436832, 0.34700775
801, 42898606, -0.5236015319824219, -0.7285943031311035, -8.57518482208252, 0.013686739, 0.02684214, 0.32458115
802, 42915273, -0.5172324180603027, -0.7256215214729309, -8.59634780883789, 0.032535832, -0.01934225, 0.32751846
803, 42931940, -0.5124377012252808, -0.7288076281547546, -8.639863967895508, 0.0015588353, -0.046904575, 0.34340096
804, 42948607, -0.5087252259254456, -0.7212296724319458, -8.70211124420166, -0.2213107, 0.042102776, 0.32750893
805, 42965274, -0.5084441900253296, -0.7094556093215942, -8.77194595336914, -0.09454017, 0.008892833, 0.30176926
806, 42981941, -0.5023328065872192, -0.7110424041748047, -8.764589309692383, 0.12691858, 0.032846205, 0.32186127
807, 42998608, -0.5011293888092041, -0.7143040895462036, -8.76120662689209, -0.14970836, -0.03455655, 0.3361292
808, 43015275, -0.4985310733318329, -0.7168074250221252, -8.795230865478516, 0.06765882, -0.004778955, 0.32242298
809, 43031942, -0.5010097622871399, -0.7204556465148926, -8.82094955444336, 0.03608173, 0.0050471844, 0.32756042
810, 43048609, -0.4992566406726837, -0.7194113731384277, -8.838396072387695, 0.012199239, 0.0018364767, 0.35239697
811, 43065276, -0.5069124102592468, -0.711287260055542, -8.822790145874023, -0.09741343, 0.012350547, 0.31837368
812, 43081943, -0.5066014528274536, -0.7050637006759644, -8.792525291442871, 0.10812743, -0.027853625, 0.29942322
813, 43098610, -0.5090002417564392, -0.7156862020492554, -8.734922409057617, 0.18110274, -0.032183297, 0.31556702
814, 43115277, -0.5261205434799194, -0.7301903963088989, -8.678261756896973, -0.018230189, -9.641336E-4, 0.34754276
815, 43131944, -0.5300260186195374, -0.7397890090942383, -8.692148208618164, -0.15693104, 0.0048611416, 0.30043793
816, 43148611, -0.5282395482063293, -0.7446847558021545, -8.700979232788086, 0.096159756, -0.025029797, 0.3378477
817, 43165278, -0.5382689237594604, -0.7554360628128052, -8.646398544311523, -0.10744708, 0.0025127851, 0.3290968
818, 43181945, -0.5372994542121887, -0.7618158459663391, -8.62430191040039, -0.0860934, 0.022609785, 0.32009125
819, 43198612, -0.5400651693344116, -0.7673199772834778, -8.656289100646973, 0.08712027, -0.055582467, 0.3340845
820, 43215279, -0.5445734858512878, -0.7742829918861389, -8.649815559387207, 0.004692361, 0.0275458, 0.33754826
821, 43231946, -0.5453891158103943, -0.7844083905220032, -8.661646842956543, 0.0019835168, 0.009761415, 0.34194374
822, 43248613, -0.5470729470252991, -0.7904039621353149, -8.661837577819824, -0.0017486885, -0.01645477, 0.32906342
823, 43265280, -0.5293412804603577, -0.7890720367431641, -8.721213340759277, -0.009636475, 0.05672699, 0.30116367
824, 43281947, -0.508010745048523, -0.7846825122833252, -8.798494338989258, 0.27834192, -0.08848299, 0.3389969
825, 43298614, -0.5039584040641785, -0.7943463921546936, -8.875656127929688, -0.03184925, -0.041448712, 0.3313322
826, 43315281, -0.4954685866832733, -0.8074292540550232, -8.944722175598145, -0.071210355, 0.040699124, 0.31552505
827, 43331948, -0.492549329996109, -0.8183353543281555, -8.96910285949707, -0.13569167, -0.011180185, 0.31229115
828, 43348615, -0.48871850967407227, -0.8197303414344788, -8.988247871398926, 0.041902274, 0.028165704, 0.33594608
829, 43365282, -0.488941490650177, -0.8174127340316772, -9.039543151855469, 0.11205637, -0.0698418, 0.34315586
830, 43381949, -0.4846373498439789, -0.8181763887405396, -9.093424797058105, 0.15579586, -0.03502034, 0.34059715
831, 43398616, -0.48671117424964905, -0.8242515921592712, -9.135113716125488, 0.0316162, 0.035231702, 0.32249546
832, 43415283, -0.49155494570732117, -0.8362910151481628, -9.111673355102539, -0.181523, 0.033100534, 0.32795238
833, 43431950, -0.48647984862327576, -0.8383398056030273, -9.151689529418945, -0.065106645, 0.0027349184, 0.34521294
834, 43448617, -0.4850887358188629, -0.8411373496055603, -9.168780326843262, 0.05055823, 0.004225254, 0.32296467
835, 43465284, -0.4824085235595703, -0.8455620408058167, -9.19445514678955, 0.074241154, 0.0038993163, 0.3238516
836, 43481951, -0.4728584885597229, -0.8553958535194397, -9.212839126586914, -0.008567384, 0.01611187, 0.3185854
837, 43498618, -0.471653550863266, -0.8582385182380676, -9.264954566955566, -0.053785075, 0.0030640797, 0.3344307
838, 43515285, -0.4675227105617523, -0.8595261573791504, -9.277097702026367, -0.10300552, -0.016107736, 0.33593178
839, 43531952, -0.47778522968292236, -0.8522831797599792, -9.308497428894043, -0.008053347, 0.026786866, 0.3329134
840, 43548619, -0.47655779123306274, -0.8412380814552307, -9.36185073852539, 0.17810111, -0.09908571, 0.359828
841, 43565286, -0.49093788862228394, -0.841076672077179, -9.380804061889648, 0.13245717, 0.025643367, 0.32469273
842, 43581953, -0.509689450263977, -0.8426647186279297, -9.405162811279297, 0.044523723, -0.009967162, 0.32520676
843, 43598620, -0.4978688657283783, -0.8417573571205139, -9.468260765075684, -0.05444382, 0.015329835, 0.32817554
844, 43615287, -0.49376505613327026, -0.8437113761901855, -9.549850463867188, -0.07456135, 0.022962783, 0.3217783
845, 43631954, -0.4957756996154785, -0.8353881239891052, -9.607172012329102, 0.02376978, 0.012214893, 0.33746624
846, 43648621, -0.49948346614837646, -0.8292679786682129, -9.578043937683105, -0.07355098, 0.010312165, 0.36327934
847, 43665288, -0.5034427642822266, -0.8205761909484863, -9.566243171691895, 0.12774178, -0.022521107, 0.31774235
848, 43681955, -0.5072371363639832, -0.8185878992080688, -9.527532577514648, 0.27700284, -0.0275092, 0.33882046
849, 43698622, -0.510694146156311, -0.8183899521827698, -9.463510513305664, -0.13993677, 0.018133057, 0.33611584
850, 43715289, -0.516883373260498, -0.8129525780677795, -9.434656143188477, -0.012062876, -0.012805613, 0.30514908
851, 43731956, -0.5232599377632141, -0.8120617270469666, -9.40761661529541, -0.15405661, -0.03019327, 0.31517506
852, 43748623, -0.5389848947525024, -0.7996755838394165, -9.408106803894043, -0.2073128, 0.01289506, 0.32602978
853, 43765290, -0.5575442910194397, -0.7827202081680298, -9.406694412231445, 0.071525306, 0.01859346, 0.33384037
854, 43781957, -0.5852329134941101, -0.7772411704063416, -9.34039306640625, -0.1652722, 0.054198135, 0.2958269
855, 43798624, -0.5973561406135559, -0.7664163112640381, -9.299135208129883, 0.030066298, -0.044357743, 0.33142757
856, 43815291, -0.60105961561203, -0.7609580755233765, -9.275794982910156, -0.107626185, 0.03129742, 0.33936977
857, 43831958, -0.599431037902832, -0.7608210444450378, -9.249732971191406, -0.18203887, 0.05414352, 0.31448936
858, 43848625, -0.6013160943984985, -0.753123939037323, -9.212779998779297, -0.07188199, -0.030141884, 0.35203457
859, 43865292, -0.6044694781303406, -0.7390279173851013, -9.230871200561523, 0.09792383, -0.03408825, 0.3257513
860, 43881959, -0.6058658957481384, -0.7331356406211853, -9.23936939239502, 0.15018986, 0.004414859, 0.32530975
861, 43898626, -0.6004146933555603, -0.7319732308387756, -9.258408546447754, -0.1279305, -0.0017931885, 0.3320837
862, 43915293, -0.6025483012199402, -0.7327848672866821, -9.254799842834473, -0.13554938, 0.02385113, 0.32250118
863, 43931960, -0.6024482846260071, -0.7235890626907349, -9.26266860961914, -0.09426867, 0.020196557, 0.29799652
864, 43948627, -0.5982752442359924, -0.7033173441886902, -9.268527030944824, -0.19397183, 0.023264129, 0.340724
865, 43965294, -0.593914806842804, -0.6786878705024719, -9.300237655639648, -0.0036318377, 0.01050776, 0.31528282
866, 43981961, -0.5905482769012451, -0.6701658964157104, -9.343265533447266, 0.008865855, -0.03569906, 0.3236742
867, 43998628, -0.5896969437599182, -0.6776232123374939, -9.353682518005371, 0.21740448, -0.020333173, 0.3459568
868, 44015295, -0.5976409316062927, -0.6844359636306763, -9.313925743103027, -0.14265521, 0.036782086, 0.30940056
869, 44031962, -0.5975518822669983, -0.6787827610969543, -9.309839248657227, -0.25549522, 0.02304021, 0.3391266
870, 44048629, -0.5987815856933594, -0.6701921820640564, -9.265059471130371, 0.294513, -0.0111432, 0.34007168
871, 44065296, -0.6021276116371155, -0.6709458827972412, -9.19126033782959, 0.08359987, -0.027597787, 0.34129906
872, 44081963, -0.6047797203063965, -0.6793437600135803, -9.136609077453613, -0.010003906, -0.004116138, 0.31989002
873, 44098630, -0.6068371534347534, -0.6860458850860596, -9.097318649291992, -0.21250701, -1.2517424E-4, 0.34260178
874, 44115297, -0.6054849028587341, -0.6761455535888672, -9.094902038574219, -0.17248303, -8.693676E-4, 0.31777287
875, 44131964, -0.6061233878135681, -0.6600283980369568, -9.10768985748291, -0.19002527, 9.996617E-4, 0.32836437
876, 44148631, -0.6098788380622864, -0.6489617824554443, -9.106573104858398, 0.010395102, 0.0058945115, 0.3191595
877, 44165298, -0.6130484938621521, -0.6499349474906921, -9.112950325012207, 0.109202765, -0.021258041, 0.3422842
878, 44181965, -0.6145692467689514, -0.6581696271896362, -9.139429092407227, 0.19396654, -0.019516042, 0.31866837
879, 44198632, -0.6181607246398926, -0.6604048609733582, -9.135164260864258, -0.14778508, -0.022143474, 0.3022461
880, 44215299, -0.6179620623588562, -0.6556154489517212, -9.144684791564941, -0.12623411, 0.038507007, 0.30430412
881, 44231966, -0.6169834136962891, -0.6509018540382385, -9.155224800109863, 0.20793252, -0.020464022, 0.34474087
882, 44248633, -0.621359646320343, -0.6514283418655396, -9.127625465393066, -3.2743948E-4, -0.031939805, 0.30995846
883, 44265300, -0.6133342981338501, -0.6491373777389526, -9.17263126373291, -0.046302866, 0.03396233, 0.33795547
884, 44281967, -0.6105599403381348, -0.6517444252967834, -9.171135902404785, 0.07464763, -0.03001812, 0.35524464
885, 44298634, -0.6138270497322083, -0.6509628891944885, -9.131399154663086, -0.33795494, 0.047311578, 0.31064987
886, 44315301, -0.6105450391769409, -0.6410837769508362, -9.132536888122559, 0.054615337, -0.012649702, 0.32343578
887, 44331968, -0.6151707768440247, -0.6398980617523193, -9.13216781616211, 0.26817042, -0.05096193, 0.31920242
888, 44348635, -0.6183026432991028, -0.6443857550621033, -9.117535591125488, -0.020254841, 0.019158944, 0.3320856
889, 44365302, -0.6196953058242798, -0.6472529768943787, -9.132040977478027, -0.043622382, -0.006756978, 0.32923508
890, 44381969, -0.6220304369926453, -0.6475561857223511, -9.137317657470703, 0.10295495, -0.0117850695, 0.34217453
891, 44398636, -0.6214179992675781, -0.6462492346763611, -9.099030494689941, -0.059776027, 0.008555472, 0.30393124
892, 44415303, -0.6239607930183411, -0.6397221684455872, -9.074849128723145, 0.03656418, -0.008155513, 0.32875156
893, 44431970, -0.6225957870483398, -0.6415427327156067, -9.069538116455078, 0.082805455, 0.04227986, 0.34781456
894, 44448637, -0.6204986572265625, -0.6515303254127502, -9.083900451660156, 0.07931121, -0.049229987, 0.33469868
895, 44465304, -0.6076958775520325, -0.6528380513191223, -9.12190055847168, -0.11143804, 0.06831518, 0.34762573
896, 44481971, -0.5968101024627686, -0.6529927849769592, -9.174229621887207, -0.16425686, -0.016361756, 0.32631207
897, 44498638, -0.5962206721305847, -0.6531469225883484, -9.213248252868652, 0.15001595, -0.024503589, 0.33644676
898, 44515305, -0.5959798693656921, -0.6483585238456726, -9.237146377563477, 0.08212105, 0.018338809, 0.31846523
899, 44531972, -0.600138247013092, -0.6466019153594971, -9.228087425231934, -0.09799296, -0.0118023185, 0.31858253
900, 44548639, -0.5927468538284302, -0.641622006893158, -9.257710456848145, 0.30066752, -0.05348541, 0.34716988
901, 44565306, -0.5955713987350464, -0.6428308486938477, -9.225122451782227, 0.11060431, -0.039811693, 0.33586025
902, 44581973, -0.6086158752441406, -0.6457526683807373, -9.190226554870605, -0.05942532, -0.006883469, 0.33419418
903, 44598640, -0.6122416257858276, -0.6429663896560669, -9.157716751098633, 0.11127674, 0.026679153, 0.33267307
904, 44615307, -0.6267557144165039, -0.6523019075393677, -9.118056297302246, 0.23070714, -0.066517614, 0.33563137
905, 44631974, -0.6264434456825256, -0.6584026217460632, -9.10230827331543, -0.100193165, 0.046470854, 0.31182384
906, 44648641, -0.6252153515815735, -0.6641476154327393, -9.09226131439209, -0.20315497, 0.006106339, 0.33938694
907, 44665308, -0.6222716569900513, -0.6677841544151306, -9.137174606323242, -0.008385878, 0.04390387, 0.30635262
908, 44681975, -0.6187193393707275, -0.6687999963760376, -9.152395248413086, -0.12840082, -0.033425532, 0.32221317
909, 44698642, -0.62012779712677, -0.6699744462966919, -9.173816680908203, 0.07231051, 0.013986627, 0.3205576
910, 44715309, -0.6157082915306091, -0.6710771322250366, -9.17442798614502, 0.10906214, -0.021000208, 0.3085413
911, 44731976, -0.6140691637992859, -0.6779625415802002, -9.158368110656738, -0.1287058, 0.033033602, 0.31466675
912, 44748643, -0.6154330372810364, -0.679599940776825, -9.135298728942871, -0.07317144, -0.010220493, 0.34873295
913, 44765310, -0.6138942241668701, -0.6773936748504639, -9.126017570495605, 0.13183962, -0.03896245, 0.3040228
914, 44781977, -0.6098813414573669, -0.6771029233932495, -9.125513076782227, 0.11464697, -0.03398175, 0.3510952
915, 44798644, -0.6172059178352356, -0.6772463321685791, -9.14006519317627, -0.08428694, 0.036791965, 0.35263824
916, 44815311, -0.6182299256324768, -0.679603099822998, -9.133706092834473, -0.17474833, 0.026062341, 0.33977032
917, 44831978, -0.6203504800796509, -0.679012656211853, -9.100662231445312, -0.32362375, 0.03362466, 0.30928993
918, 44848645, -0.6206076145172119, -0.6764917969703674, -9.094647407531738, 0.05258038, -0.015093166, 0.32829475
919, 44865312, -0.6257375478744507, -0.6691407561302185, -9.069677352905273, 0.058293648, -0.009364516, 0.34469604
920, 44881979, -0.6353452205657959, -0.6627575159072876, -9.054313659667969, -0.06558678, 2.4090505E-4, 0.31812477
921, 44898646, -0.6408474445343018, -0.6537699699401855, -9.08407974243164, 0.20855327, -0.028901665, 0.30963135
922, 44915313, -0.6485894322395325, -0.6551481485366821, -9.046219825744629, 0.08649141, -0.011998539, 0.33316803
923, 44931980, -0.6530601382255554, -0.661170244216919, -9.007325172424316, -0.07881985, 0.030481335, 0.32851315
924, 44948647, -0.6552907824516296, -0.6642960906028748, -8.954832077026367, -0.1934245, 0.028037548, 0.3001051
925, 44965314, -0.6583564281463623, -0.6629951000213623, -8.908734321594238, -0.19224651, 0.016789444, 0.3252201
926, 44981981, -0.6599208116531372, -0.6570517420768738, -8.877660751342773, 0.2635748, -0.035963073, 0.32009888
927, 44998648, -0.6617310643196106, -0.6561068892478943, -8.842473983764648, 0.01160393, -0.011186292, 0.31792736
928, 45015315, -0.6600517630577087, -0.6579983234405518, -8.846933364868164, 0.04951709, -0.026497776, 0.3070259
929, 45031982, -0.6614394783973694, -0.6591541171073914, -8.859175682067871, 0.09665371, 0.016362399, 0.3435974
930, 45048649, -0.6611672639846802, -0.661531925201416, -8.86014461517334, -0.2837674, 0.029402351, 0.31164074
931, 45065316, -0.6600140333175659, -0.6606019735336304, -8.937714576721191, 0.01893514, -0.011455807, 0.3493061
932, 45081983, -0.6536130309104919, -0.6657082438468933, -8.975900650024414, 0.09173171, -0.0038857867, 0.30714417
933, 45098650, -0.64844810962677, -0.668981671333313, -9.025796890258789, 0.021456929, -0.011660511, 0.335989
934, 45115317, -0.6391581892967224, -0.6700329780578613, -9.115859031677246, -0.032395404, 0.021860195, 0.32503128
935, 45131984, -0.6375841498374939, -0.6687067151069641, -9.155852317810059, -0.04177042, -0.020394964, 0.33821678
936, 45148651, -0.6390420794487, -0.6673610806465149, -9.1725435256958, 0.055999253, -0.0032921294, 0.3281269
937, 45165318, -0.6429988145828247, -0.669467568397522, -9.144789695739746, 0.06073054, 0.009239812, 0.3292179
938, 45181985, -0.6498504877090454, -0.6748988628387451, -9.141510009765625, 0.1582645, -0.007167334, 0.3416605
939, 45198652, -0.6534748077392578, -0.684562087059021, -9.08016300201416, -0.13361771, 0.031339347, 0.29985142
940, 45215319, -0.6517311930656433, -0.6834678649902344, -9.079183578491211, -0.013585254, -0.017808793, 0.34611416
941, 45231986, -0.6509115695953369, -0.6813437938690186, -9.083303451538086, 0.12504856, -0.03273503, 0.31918335
942, 45248653, -0.648542046546936, -0.6822522878646851, -9.09743595123291, 0.10027639, -0.038365085, 0.3418703
943, 45265320, -0.6540020704269409, -0.6848010420799255, -9.110529899597168, -0.073516056, 0.013803322, 0.31752968
944, 45281987, -0.6538151502609253, -0.6862921714782715, -9.120645523071289, 0.034526963, -0.0066389283, 0.3668785
945, 45298654, -0.6529551148414612, -0.6832160949707031, -9.161133766174316, -0.15227221, 0.05682119, 0.3378458
946, 45315321, -0.6551566123962402, -0.6814272403717041, -9.185247421264648, -0.059211154, -0.021417389, 0.3295431
947, 45331988, -0.6543383002281189, -0.6886152625083923, -9.201263427734375, 0.266482, -0.038954157, 0.33119678
948, 45348655, -0.6540005207061768, -0.6951480507850647, -9.172534942626953, -0.06826573, 0.038391884, 0.3275423
949, 45365322, -0.6585108637809753, -0.6997972130775452, -9.149558067321777, -0.050100654, 0.031693652, 0.33508205
950, 45381989, -0.6490522027015686, -0.6958923935890198, -9.188255310058594, 0.098231696, -0.04752039, 0.32306957
951, 45398656, -0.6521131992340088, -0.6960278749465942, -9.214388847351074, -0.14685866, -0.003096388, 0.3211012
952, 45415323, -0.6579028964042664, -0.6903071403503418, -9.248917579650879, -0.029174477, 0.053280234, 0.34337425
953, 45431990, -0.6637336015701294, -0.692767858505249, -9.22646427154541, -0.326582, 0.0208295, 0.32361984
954, 45448657, -0.66346675157547, -0.6915517449378967, -9.246137619018555, 0.25126582, -0.035577234, 0.36684322
955, 45465324, -0.6553823947906494, -0.6973246335983276, -9.225651741027832, 0.17238504, -0.02987303, 0.31872463
956, 45481991, -0.6625292301177979, -0.6996181011199951, -9.211709022521973, -0.14745365, 0.013792733, 0.3218069
957, 45498658, -0.6594259738922119, -0.6969146132469177, -9.24331283569336, 0.06771314, -0.024986401, 0.3888359
958, 45515325, -0.6640249490737915, -0.6952170729637146, -9.253509521484375, 0.045817845, 0.0038013197, 0.29804134
959, 45531992, -0.6565846800804138, -0.6970349550247192, -9.264510154724121, -0.119517826, 0.0025392957, 0.34362984
960, 45548659, -0.6622059345245361, -0.6948243975639343, -9.301194190979004, 0.25140366, -0.021928221, 0.3269186
961, 45565326, -0.6709386706352234, -0.6992245316505432, -9.260306358337402, -0.2355274, 0.050840802, 0.31632137
962, 45581993, -0.6691983938217163, -0.6885294318199158, -9.284445762634277, 0.1419398, -0.046356574, 0.34047127
963, 45598660, -0.6760729551315308, -0.687599241733551, -9.240705490112305, 0.07572814, -0.012200196, 0.3192482
964, 45615327, -0.6894211769104004, -0.6824820041656494, -9.198172569274902, 0.1359901, 0.0012117615, 0.3506441
965, 45631994, -0.6990161538124084, -0.6835584044456482, -9.178290367126465, 0.08711169, -0.018332874, 0.35803986
966, 45648661, -0.7074974775314331, -0.6835775375366211, -9.177766799926758, 0.0064178463, 0.051460743, 0.3166151
967, 45665328, -0.7105734348297119, -0.6845024228096008, -9.168902397155762, -0.1539337, 0.037276085, 0.33000278
968, 45681995, -0.711018979549408, -0.6854816675186157, -9.155468940734863, 0.13212591, -0.010342217, 0.32379436
969, 45698662, -0.7069129943847656, -0.6885343790054321, -9.173018455505371, 0.17979532, -0.09104254, 0.32152462
970, 45715329, -0.7043958306312561, -0.6932004690170288, -9.167415618896484, 0.12306642, 0.03228825, 0.3506832
971, 45731996, -0.7060812711715698, -0.701487123966217, -9.184128761291504, 0.0063298764, -0.023886606, 0.34265995
972, 45748663, -0.7037814259529114, -0.7056044936180115, -9.219557762145996, 0.10617811, 0.060827103, 0.33476734
973, 45765330, -0.7014480829238892, -0.7050423622131348, -9.233595848083496, -0.089644484, 6.027446E-4, 0.32378387
974, 45781997, -0.6908257603645325, -0.7020961046218872, -9.268922805786133, 0.27883548, -0.052129045, 0.3426485
975, 45798664, -0.6875180006027222, -0.6982251405715942, -9.301101684570312, 0.2841891, -0.07180332, 0.3647709
976, 45815331, -0.6820477843284607, -0.7035289406776428, -9.344637870788574, 0.19121313, -0.048946444, 0.31464386
977, 45831998, -0.6813998222351074, -0.7070720195770264, -9.365199089050293, 0.124179564, 0.027712526, 0.30192566
978, 45848665, -0.6807634234428406, -0.7160997986793518, -9.354806900024414, -0.18320844, 0.029122697, 0.34028816
979, 45865332, -0.6765220761299133, -0.7210579514503479, -9.341819763183594, -0.08370407, 0.02272122, 0.35669422
980, 45881999, -0.6779332160949707, -0.726542592048645, -9.27237319946289, 0.08287582, 0.0068836855, 0.3357048
981, 45898666, -0.6744874715805054, -0.7263450026512146, -9.268974304199219, 0.113841966, -0.042310186, 0.32372475
982, 45915333, -0.6714926362037659, -0.730379045009613, -9.278124809265137, 0.072175354, -0.09690921, 0.36205292
983, 45932000, -0.669604480266571, -0.7329434752464294, -9.335196495056152, -0.04873903, 0.107692316, 0.2991686
984, 45948667, -0.6648917198181152, -0.7321069836616516, -9.371042251586914, -0.1721542, -0.037898578, 0.34907913
985, 45965334, -0.6548794507980347, -0.7367675304412842, -9.440542221069336, -0.05104528, 0.025056068, 0.36461353
986, 45982001, -0.6520757079124451, -0.7398586273193359, -9.468214988708496, -0.07431096, 0.029929075, 0.3417015
987, 45998668, -0.647466242313385, -0.7447376847267151, -9.481073379516602, -0.058754202, 0.022070954, 0.2967682
988, 46015335, -0.646888792514801, -0.7519178986549377, -9.464225769042969, -0.063299164, -0.010512765, 0.32240105
989, 46032002, -0.6426272988319397, -0.7508637309074402, -9.521323204040527, -0.05315157, 0.038741753, 0.3498211
990, 46048669, -0.6367096900939941, -0.7504599690437317, -9.56314468383789, 0.0058269547, 0.010891476, 0.3251438
991, 46065336, -0.6332648396492004, -0.7536410689353943, -9.594785690307617, 0.009076288, 0.048282716, 0.3361454
992, 46082003, -0.6265733242034912, -0.7607439756393433, -9.609963417053223, 0.22340772, 0.029067216, 0.35710907
993, 46098670, -0.6230198740959167, -0.7735868096351624, -9.578474998474121, -0.021886444, -0.034374513, 0.30714512
994, 46115337, -0.6234303712844849, -0.7789806723594666, -9.5873384475708, -0.1357633, -0.0127615, 0.3176813
995, 46132004, -0.6247795820236206, -0.7785608768463135, -9.599248886108398, 0.014101188, -0.07012613, 0.3661499
996, 46148671, -0.616460382938385, -0.778780996799469, -9.619794845581055, 0.0011097349, -0.005585016, 0.3245678
997, 46165338, -0.6161574125289917, -0.7833674550056458, -9.596335411071777, 0.019066507, 0.034136605, 0.35770607
998, 46182005, -0.609717071056366, -0.7840387225151062, -9.571931838989258, 0.018224003, -0.025876835, 0.33023548
999, 46198672, -0.6091185212135315, -0.7859657406806946, -9.559152603149414, 0.2835013, -0.05590432, 0.35775185
1000, 46215339, -0.6139586567878723, -0.7907045483589172, -9.46828842163086, 0.30431625, -0.038085155, 0.35399628
1001, 46232006, -0.618776261806488, -0.7990292906761169, -9.407108306884766, -0.17767304, 0.023069428, 0.31937218
1002, 46248673, -0.6209920644760132, -0.8001139760017395, -9.421104431152344, -0.009384457, 0.07167661, 0.3129797
1003, 46265340, -0.6123126745223999, -0.800788164138794, -9.412334442138672, -0.1473448, 0.10030812, 0.31715012
1004, 46282007, -0.6039314866065979, -0.7963907122612, -9.396844863891602, -0.11475436, 0.017338542, 0.33383846
1005, 46298674, -0.5965836048126221, -0.7804973125457764, -9.334487915039062, 0.059370536, -0.06008274, 0.34561062
1006, 46315341, -0.6025252938270569, -0.7705454230308533, -9.279379844665527, 0.117838435, -0.002422381, 0.310524
1007, 46332008, -0.6025649905204773, -0.7703683376312256, -9.26768684387207, 0.23149633, -0.099567, 0.34461498
1008, 46348675, -0.6038973927497864, -0.7836511135101318, -9.242955207824707, 0.004201436, 0.019809535, 0.3271942
1009, 46365342, -0.604386568069458, -0.7907726764678955, -9.240077018737793, -0.19965139, 0.06109506, 0.32848072
1010, 46382009, -0.6033554077148438, -0.7903685569763184, -9.27411937713623, -0.08493405, -0.012762656, 0.2966051
1011, 46398676, -0.6023100018501282, -0.7925002574920654, -9.315000534057617, 0.06366303, 0.019205434, 0.3528347
1012, 46415343, -0.6044543385505676, -0.7970922589302063, -9.298877716064453, 0.030027086, -0.017994141, 0.33594608
1013, 46432010, -0.6035577654838562, -0.7967131733894348, -9.313425064086914, 0.0051308586, 0.006161554, 0.33356094
1014, 46448677, -0.6018310785293579, -0.7981611490249634, -9.292244911193848, 0.17016102, -0.018573452, 0.30913067
1015, 46465344, -0.6074275374412537, -0.8043951392173767, -9.251436233520508, 0.015755184, -0.056247544, 0.32518482
1016, 46482011, -0.6173856258392334, -0.8067821860313416, -9.253791809082031, -0.0478285, 0.02106912, 0.3083868
1017, 46498678, -0.6215618848800659, -0.8095226287841797, -9.239577293395996, 0.13925885, -0.02474551, 0.3157301
1018, 46515345, -0.6283825635910034, -0.8114357590675354, -9.261941909790039, 0.0111382725, 0.0070919855, 0.3444996
1019, 46532012, -0.629817545413971, -0.8124459385871887, -9.294260025024414, 0.06334474, 0.041832544, 0.2792616
1020, 46548679, -0.6258987784385681, -0.808418333530426, -9.374923706054688, 0.11974888, 0.033397272, 0.339983
1021, 46565346, -0.6179088950157166, -0.8152575492858887, -9.45105266571045, 0.01082418, -0.027650362, 0.33978748
1022, 46582013, -0.6101502776145935, -0.8213616609573364, -9.471840858459473, -0.17633638, 0.06736907, 0.33491898
1023, 46598680, -0.6110151410102844, -0.816398024559021, -9.527212142944336, -0.004440616, 0.02850641, 0.30346966
1024, 46615347, -0.6021170616149902, -0.8100566267967224, -9.545469284057617, 0.23271336, -0.047325607, 0.33877945
1025, 46632014, -0.5988461971282959, -0.8115502595901489, -9.586200714111328, 0.1235476, 0.019653993, 0.3150339
1026, 46648681, -0.6038612127304077, -0.8195937871932983, -9.615612983703613, 0.03731192, 0.05260272, 0.34663296
1027, 46665348, -0.5931033492088318, -0.8182685375213623, -9.658580780029297, 0.18757108, -0.069833785, 0.33022404
1028, 46682015, -0.5876483917236328, -0.813829243183136, -9.696691513061523, 0.0030433245, -0.13141462, 0.28040314
1029, 46698682, -0.5941962003707886, -0.8195876479148865, -9.728816986083984, -0.05220797, 0.009148525, 0.34719753
1030, 46715349, -0.5905429720878601, -0.8204582333564758, -9.76128101348877, -0.031201636, 0.05594308, 0.31347275
1031, 46732016, -0.5912827849388123, -0.8243264555931091, -9.744881629943848, 0.069520734, 0.010264651, 0.35606956
1032, 46748683, -0.5833359956741333, -0.8204397559165955, -9.770785331726074, 0.09221305, -0.09613491, 0.33293056
1033, 46765350, -0.5855470895767212, -0.8067813515663147, -9.829005241394043, 0.14480966, -0.062017888, 0.33222485
1034, 46782017, -0.5867995619773865, -0.7906613945960999, -9.87243366241455, 0.10799443, -0.04007311, 0.35639668
1035, 46798684, -0.5843271613121033, -0.7884443998336792, -9.864864349365234, -0.077640995, -0.037409607, 0.33551216
1036, 46815351, -0.6039589643478394, -0.7860772013664246, -9.86443042755127, -0.17748605, 0.058812145, 0.31952095
1037, 46832018, -0.6077489852905273, -0.7785325646400452, -9.866623878479004, 0.010329812, -0.050304156, 0.327487
1038, 46848685, -0.6078821420669556, -0.774843692779541, -9.86064624786377, 0.058623195, 0.065682985, 0.34800148
1039, 46865352, -0.6079572439193726, -0.7796666622161865, -9.853710174560547, -0.06806798, -0.0037178725, 0.31243515
1040, 46882019, -0.6102133393287659, -0.7810977697372437, -9.86279010772705, -0.05886261, 0.07241027, 0.31895256
1041, 46898686, -0.6079397201538086, -0.7818001508712769, -9.885493278503418, -0.22187704, 0.05271406, 0.2991886
1042, 46915353, -0.5958333015441895, -0.7858782410621643, -9.91086196899414, 0.0036784995, -0.049835622, 0.33623886
1043, 46932020, -0.5972411632537842, -0.7938573956489563, -9.83036994934082, -0.0060060937, -0.05806272, 0.35146618
1044, 46948687, -0.5954416394233704, -0.7994857430458069, -9.772928237915039, -0.16799946, -0.040414557, 0.3201542
1045, 46965354, -0.5943073630332947, -0.7973808646202087, -9.761520385742188, -0.1537594, 0.013003327, 0.3165512
1046, 46982021, -0.5964398384094238, -0.7957107424736023, -9.733575820922852, -0.11548558, -0.0019435115, 0.33439445
1047, 46998688, -0.595836877822876, -0.7970042824745178, -9.69957160949707, -0.11511654, 0.08054102, 0.3091135
