sep=,
DeviceTag:,Movella DOT,,,,,,,,,,,,,,,,,
FirmwareVersion:,3.0.0,,,,,,,,,,,,,,,,,
AppVersion:,2023.6.1,,,,,,,,,,,,,,,,,
SyncStatus:,Un-synced,,,,,,,,,,,,,,,,,
OutputRate:,60Hz,,,,,,,,,,,,,,,,,
FilterProfile:,Dynamic,,,,,,,,,,,,,,,,,
Measurement Mode:,Sensor fusion Mode - Complete (Euler),,,,,,,,,,,,,,,,,
StartTime:,2024-11-03 19:45:02.328 +0700,,,,,,,,,,,,,,,,,
 2024,,,,,,,,,,,,,,,,,,,

PacketCounter,SampleTimeFine,Euler_X,Euler_Y,Euler_Z,FreeAcc_X,FreeAcc_Y,FreeAcc_Z
1, 1011435426, -1.9630275964736938, -0.2947811484336853, 6.48321008682251, -0.0099699525, -0.0015870538, 0.31172276
2, 1011452093, -1.9680722951889038, -0.3073709309101105, 6.561454772949219, -0.0015563975, 0.009021919, 0.31481838
3, 1011468760, -1.9657444953918457, -0.3243098855018616, 6.5287957191467285, -0.02022552, 3.9391365E-4, 0.3374195
4, 1011485427, -1.966326117515564, -0.33100801706314087, 6.546277046203613, -0.016296329, -0.004504722, 0.3284073
5, 1011502094, -1.9680798053741455, -0.33796319365501404, 6.557384014129639, -0.006288799, -0.010576493, 0.33549213
6, 1011518761, -1.9745523929595947, -0.34670311212539673, 6.5344390869140625, -0.022319665, -0.0032899152, 0.31846714
7, 1011535428, -1.9802498817443848, -0.3543170690536499, 6.5447163581848145, -0.009781702, 0.0073049483, 0.3382702
8, 1011552095, -1.984873652458191, -0.3667190372943878, 6.561639785766602, -0.019807316, 1.8395117E-4, 0.3187418
9, 1011568762, -1.9884644746780396, -0.3777632713317871, 6.562481880187988, -0.03227774, -0.0031018988, 0.32868004
10, 1011585429, -1.99330472946167, -0.38861918449401855, 6.580948829650879, -0.031555742, -0.0016033143, 0.33395576
11, 1011602096, -1.9958128929138184, -0.4009355902671814, 6.594892501831055, -0.03394168, 0.013202589, 0.3247919
12, 1011618763, -1.9981769323349, -0.4108778238296509, 6.603237628936768, -0.01956917, -0.0063860584, 0.33925915
13, 1011635430, -2.0021965503692627, -0.42238175868988037, 6.600149154663086, -0.022554941, -0.0023933628, 0.3266306
14, 1011652097, -2.005239486694336, -0.4336610734462738, 6.60646915435791, -0.027965298, 0.0035114584, 0.3599701
15, 1011668764, -2.0103957653045654, -0.44759267568588257, 6.609020709991455, -0.028601756, 0.010487982, 0.33145905
16, 1011685431, -2.013754367828369, -0.46067124605178833, 6.620264530181885, -0.040984463, 0.006380289, 0.33048534
17, 1011702098, -2.0181236267089844, -0.47390487790107727, 6.615588665008545, -0.027992947, -5.0311367E-4, 0.33061123
18, 1011718765, -2.020625114440918, -0.487455815076828, 6.620458602905273, -0.048310958, 0.01311514, 0.34352398
19, 1011735432, -2.0248634815216064, -0.5012189745903015, 6.635766506195068, -0.039587997, 0.0026529033, 0.33887863
20, 1011752099, -2.0290093421936035, -0.5146879553794861, 6.6353983879089355, -0.056405593, 0.004631831, 0.3249712
21, 1011768766, -2.0327117443084717, -0.5286980867385864, 6.63360595703125, -0.045076385, 0.0013474618, 0.30956268
22, 1011785433, -2.0366477966308594, -0.5421547293663025, 6.6335129737854, -0.05123131, 0.014309481, 0.33713531
23, 1011802100, -2.0393667221069336, -0.5569899678230286, 6.637301921844482, -0.04088336, 0.01526926, 0.35318947
24, 1011818767, -2.042078733444214, -0.5718977451324463, 6.640838623046875, -0.062990755, 0.0021728952, 0.339427
25, 1011835434, -2.045372724533081, -0.5863332748413086, 6.651343822479248, -0.056798328, 0.0023232915, 0.33172607
26, 1011852101, -2.048935651779175, -0.6003856062889099, 6.657530784606934, -0.0609392, -7.226174E-4, 0.33504963
27, 1011868768, -2.0516834259033203, -0.6156473755836487, 6.647595405578613, -0.05351653, 0.016427657, 0.3531332
28, 1011885435, -2.0542469024658203, -0.62863689661026, 6.656915187835693, -0.059608042, 0.008609802, 0.31945133
29, 1011902102, -2.0572166442871094, -0.6428805589675903, 6.656403064727783, -0.05923903, 0.021609176, 0.35036087
30, 1011918769, -2.060587167739868, -0.6573305130004883, 6.653985500335693, -0.060411584, 0.0045636734, 0.31934357
31, 1011935436, -2.064330577850342, -0.6718051433563232, 6.655773639678955, -0.068057835, 0.031817976, 0.3415804
32, 1011952103, -2.0671353340148926, -0.686458170413971, 6.648759365081787, -0.08303406, 0.035623845, 0.35700893
33, 1011968770, -2.0690627098083496, -0.7002826929092407, 6.646108627319336, -0.09356807, 0.020767078, 0.34015274
34, 1011985437, -2.0720314979553223, -0.7148064374923706, 6.646048069000244, -0.07468207, 0.0074945013, 0.3119955
35, 1012002104, -2.074692726135254, -0.7283440828323364, 6.645028591156006, -0.082482696, 0.033824116, 0.3157997
36, 1012018771, -2.077763795852661, -0.742438793182373, 6.644246578216553, -0.066961646, 0.017513959, 0.31839275
37, 1012035438, -2.0805773735046387, -0.7568863034248352, 6.645692825317383, -0.07668576, 0.02147926, 0.34264565
38, 1012052105, -2.0836451053619385, -0.7701201438903809, 6.65224552154541, -0.083958484, 0.015268757, 0.34289837
39, 1012068772, -2.0873842239379883, -0.7841060161590576, 6.6571550369262695, -0.09758553, 0.010242984, 0.34268284
40, 1012085439, -2.0907931327819824, -0.7991693019866943, 6.65286922454834, -0.100955136, 0.014367343, 0.31999302
41, 1012102106, -2.093313694000244, -0.8130488991737366, 6.652044773101807, -0.10043191, 0.0031641193, 0.33760357
42, 1012118773, -2.0951483249664307, -0.8267525434494019, 6.6529154777526855, -0.099169925, 0.020988677, 0.33613777
43, 1012135440, -2.097606658935547, -0.8406339883804321, 6.648025989532471, -0.097390145, 0.013429385, 0.3433075
44, 1012152107, -2.100466012954712, -0.8548607230186462, 6.643940448760986, -0.09839693, 0.023454389, 0.34550667
45, 1012168774, -2.1040399074554443, -0.8696897625923157, 6.649259090423584, -0.10366123, 0.024471553, 0.3499756
46, 1012185441, -2.107191801071167, -0.8836008310317993, 6.646082878112793, -0.10939477, 0.0140180625, 0.34076023
47, 1012202108, -2.110407590866089, -0.8976210951805115, 6.647924423217773, -0.10906625, 0.011861665, 0.32876396
48, 1012218775, -2.113668203353882, -0.9111044406890869, 6.645135402679443, -0.10715923, 0.017559122, 0.34014797
49, 1012235442, -2.116795063018799, -0.9253489971160889, 6.640958786010742, -0.1199829, 0.025221677, 0.31928062
50, 1012252109, -2.120793342590332, -0.9396037459373474, 6.647180080413818, -0.13220237, 0.026888873, 0.3456669
51, 1012268776, -2.1244430541992188, -0.953815758228302, 6.645277500152588, -0.11624708, 0.012497978, 0.32386112
52, 1012285443, -2.127060890197754, -0.9669678211212158, 6.639972686767578, -0.11622537, 0.013638076, 0.34470272
53, 1012302110, -2.1291611194610596, -0.9820165634155273, 6.64129114151001, -0.13809592, 0.013984563, 0.35692787
54, 1012318777, -2.131411552429199, -0.9962490797042847, 6.635937213897705, -0.13486478, 0.030007228, 0.35267735
55, 1012335444, -2.1351637840270996, -1.0101255178451538, 6.637180328369141, -0.13836929, 0.021654662, 0.35140514
56, 1012352111, -2.1387548446655273, -1.0244905948638916, 6.633131504058838, -0.13745604, 0.016593952, 0.33152294
57, 1012368778, -2.1412875652313232, -1.0376169681549072, 6.635010719299316, -0.13443397, 0.02416347, 0.3403511
58, 1012385445, -2.144010066986084, -1.050681233406067, 6.6265974044799805, -0.13491583, 0.036572404, 0.34391117
59, 1012402112, -2.146160364151001, -1.0640736818313599, 6.625576019287109, -0.16066444, 0.033765838, 0.33803272
60, 1012418779, -2.1495392322540283, -1.0784342288970947, 6.626286506652832, -0.14199372, 0.026639797, 0.35848427
61, 1012435446, -2.151919364929199, -1.0931960344314575, 6.624670028686523, -0.14755002, 0.022101548, 0.33691502
62, 1012452113, -2.154973268508911, -1.1070729494094849, 6.619481563568115, -0.14394294, 0.020297993, 0.3411579
63, 1012468780, -2.1581294536590576, -1.1210243701934814, 6.612321853637695, -0.14911239, 0.026937166, 0.32726765
64, 1012485447, -2.161309242248535, -1.133959174156189, 6.599750995635986, -0.15406011, 0.01638424, 0.3540306
65, 1012502114, -2.162986993789673, -1.1468355655670166, 6.59641170501709, -0.15167339, 0.027158486, 0.32181358
66, 1012518781, -2.1664345264434814, -1.160414218902588, 6.597176551818848, -0.15175082, 0.004951287, 0.32762527
67, 1012535448, -2.1686642169952393, -1.1746540069580078, 6.584801197052002, -0.17043093, 0.037455086, 0.33205223
68, 1012552115, -2.1715407371520996, -1.187574028968811, 6.579040050506592, -0.15749848, 0.010325265, 0.33717632
69, 1012568782, -2.175271987915039, -1.2006425857543945, 6.580605983734131, -0.16399993, 0.029141061, 0.32678795
70, 1012585449, -2.1789073944091797, -1.2137202024459839, 6.574427127838135, -0.16553763, 0.029623387, 0.32424927
71, 1012602116, -2.1816117763519287, -1.226747989654541, 6.571898460388184, -0.18327665, 0.016594188, 0.33366108
72, 1012618783, -2.1844897270202637, -1.2397507429122925, 6.570235252380371, -0.17872697, 0.027241299, 0.35336113
73, 1012635450, -2.1872446537017822, -1.2518317699432373, 6.56934118270874, -0.17736392, 0.008984298, 0.35020733
74, 1012652117, -2.1906445026397705, -1.265368938446045, 6.56589937210083, -0.17574254, 0.018224493, 0.33044243
75, 1012668784, -2.19321346282959, -1.2782825231552124, 6.563902854919434, -0.17502183, 0.011248471, 0.3524456
76, 1012685451, -2.1968495845794678, -1.2907742261886597, 6.568999767303467, -0.17792575, 0.023175737, 0.34765244
77, 1012702118, -2.1992499828338623, -1.3038389682769775, 6.560483932495117, -0.19518057, 0.02340171, 0.3380785
78, 1012718785, -2.2020630836486816, -1.3168047666549683, 6.560667037963867, -0.19531468, 0.02855202, 0.32931995
79, 1012735452, -2.2053022384643555, -1.3285033702850342, 6.560611724853516, -0.20509484, 0.034065288, 0.36776733
80, 1012752119, -2.207686424255371, -1.341408133506775, 6.560120105743408, -0.20589308, 0.035931204, 0.3485794
81, 1012768786, -2.2096409797668457, -1.3543375730514526, 6.560678482055664, -0.19728433, 0.030227529, 0.3384304
82, 1012785453, -2.2135283946990967, -1.366737723350525, 6.560343265533447, -0.21421018, 0.029745454, 0.32996845
83, 1012802120, -2.21834659576416, -1.3794292211532593, 6.559849262237549, -0.19974913, 0.028868081, 0.3359356
84, 1012818787, -2.2218494415283203, -1.3917784690856934, 6.559715270996094, -0.2014194, 0.026281044, 0.34378433
85, 1012835454, -2.2261903285980225, -1.402190089225769, 6.557348251342773, -0.2097169, 0.031010607, 0.34747696
86, 1012852121, -2.228581428527832, -1.4144296646118164, 6.553586006164551, -0.20611863, 0.023917172, 0.35798073
87, 1012868788, -2.2311229705810547, -1.4273734092712402, 6.552349090576172, -0.20808516, 0.027156977, 0.35666943
88, 1012885455, -2.2344539165496826, -1.4403647184371948, 6.5491461753845215, -0.21322647, 0.047433052, 0.34451008
89, 1012902122, -2.237914562225342, -1.4531384706497192, 6.543638706207275, -0.23062095, 0.043729164, 0.34973145
90, 1012918789, -2.240334987640381, -1.4665824174880981, 6.539109706878662, -0.21550111, 0.02833872, 0.34692478
91, 1012935456, -2.2435390949249268, -1.478520393371582, 6.530904769897461, -0.21726282, 0.020755693, 0.33926105
92, 1012952123, -2.2462587356567383, -1.491114616394043, 6.529428482055664, -0.21896482, 0.04603027, 0.34601402
93, 1012968790, -2.249265432357788, -1.501164197921753, 6.527862071990967, -0.23632936, 0.037469137, 0.35036469
94, 1012985457, -2.252380609512329, -1.5137908458709717, 6.525463581085205, -0.22432919, 0.03216497, 0.3398285
95, 1013002124, -2.2547388076782227, -1.525886058807373, 6.5198235511779785, -0.23217165, 0.04431904, 0.33234787
96, 1013018791, -2.257981300354004, -1.5376182794570923, 6.518698692321777, -0.228614, 0.046100345, 0.3612032
97, 1013035458, -2.2592155933380127, -1.550752878189087, 6.517881393432617, -0.228204, 0.03804932, 0.33852005
98, 1013052125, -2.2609660625457764, -1.5626169443130493, 6.514654159545898, -0.23693793, 0.03320482, 0.32489204
99, 1013068792, -2.262458562850952, -1.574651837348938, 6.511948585510254, -0.23851319, 0.021274675, 0.3437109
100, 1013085459, -2.2655651569366455, -1.5860368013381958, 6.5061187744140625, -0.2436256, 0.026367404, 0.3229437
101, 1013102126, -2.2681994438171387, -1.5980039834976196, 6.50507926940918, -0.23839794, 0.031843822, 0.342494
102, 1013118793, -2.2712385654449463, -1.6081432104110718, 6.502386093139648, -0.24187231, 0.04240812, 0.3251772
103, 1013135460, -2.2737174034118652, -1.6183207035064697, 6.50084114074707, -0.24289016, 0.038741052, 0.33544827
104, 1013152127, -2.2755391597747803, -1.6278355121612549, 6.498455047607422, -0.23987259, 0.04557675, 0.33012104
105, 1013168794, -2.2783615589141846, -1.6402497291564941, 6.496646881103516, -0.2637182, 0.032173026, 0.3328209
106, 1013185461, -2.2806806564331055, -1.6507039070129395, 6.492502212524414, -0.24420196, 0.041317545, 0.34258652
107, 1013202128, -2.284047842025757, -1.6597914695739746, 6.491479396820068, -0.23947513, 0.02732974, 0.3065834
108, 1013218795, -2.2853641510009766, -1.6693499088287354, 6.4905900955200195, -0.25542334, 0.051382806, 0.33887196
109, 1013235462, -2.287182331085205, -1.679451584815979, 6.493364334106445, -0.24684106, 0.036495894, 0.33350277
110, 1013252129, -2.2891640663146973, -1.689606785774231, 6.491322040557861, -0.264295, 0.036663864, 0.3402319
111, 1013268796, -2.2908241748809814, -1.7004568576812744, 6.488173484802246, -0.26699838, 0.040546395, 0.34523964
112, 1013285463, -2.2931060791015625, -1.7108389139175415, 6.487170696258545, -0.26524147, 0.034380373, 0.34646416
113, 1013302130, -2.2953643798828125, -1.7206101417541504, 6.482736587524414, -0.24581793, 0.043275446, 0.33818817
114, 1013318797, -2.298495292663574, -1.730586051940918, 6.475980758666992, -0.27263993, 0.043482795, 0.34049225
115, 1013335464, -2.3015506267547607, -1.740938663482666, 6.475516319274902, -0.27271116, 0.044615757, 0.36320114
116, 1013352131, -2.303366184234619, -1.7526719570159912, 6.473742961883545, -0.2712416, 0.039916147, 0.34407043
117, 1013368798, -2.304732084274292, -1.7634732723236084, 6.468746185302734, -0.2674094, 0.02812926, 0.3452921
118, 1013385465, -2.30777907371521, -1.7741552591323853, 6.4649176597595215, -0.263961, 0.0496189, 0.36019135
119, 1013402132, -2.310696601867676, -1.7846356630325317, 6.459462642669678, -0.2726591, 0.031187434, 0.34461403
120, 1013418799, -1.943563461303711, -0.23470376431941986, 6.267823219299316, 0.007810758, -0.0030411312, 0.36191177
121, 1013435466, -1.9434962272644043, -0.23505815863609314, 6.266091346740723, -0.0071451995, 0.01069835, 0.33709145
122, 1013452133, -1.9433783292770386, -0.23501242697238922, 6.265442848205566, 0.0040416312, 0.024142388, 0.3623953
123, 1013468800, -1.9429079294204712, -0.23401042819023132, 6.266536235809326, -0.0015925193, 0.008905748, 0.33164215
124, 1013485467, -1.9426970481872559, -0.2349134236574173, 6.26749324798584, -0.004366203, 9.3855883E-4, 0.34571266
125, 1013502134, -1.941774606704712, -0.23421716690063477, 6.2715020179748535, 1.3746046E-4, 0.0013561927, 0.35569572
126, 1013518801, -1.9410351514816284, -0.23226065933704376, 6.274084091186523, 5.315802E-4, 0.004624525, 0.33460808
127, 1013535468, -1.940061092376709, -0.23154109716415405, 6.274853229522705, -5.0492276E-4, -0.004090441, 0.36677742
128, 1013552135, -1.9397244453430176, -0.23182502388954163, 6.275913238525391, -0.011694936, 0.007992293, 0.3669052
129, 1013568802, -1.938541293144226, -0.23229092359542847, 6.276231288909912, -7.940647E-5, 0.010822972, 0.34033966
130, 1013585469, -1.9366155862808228, -0.23328542709350586, 6.2783918380737305, 0.004735181, 0.002681876, 0.36400414
131, 1013602136, -1.9359453916549683, -0.23276101052761078, 6.279491424560547, -0.004023975, 0.011222501, 0.34852314
132, 1013618803, -1.9352220296859741, -0.23216135799884796, 6.279348373413086, 0.007037721, -0.0029329092, 0.3420229
133, 1013635470, -1.9351682662963867, -0.2314198613166809, 6.280364990234375, 0.01121295, 0.0029031958, 0.3495922
134, 1013652137, -1.9350305795669556, -0.23119699954986572, 6.280381202697754, 0.005866031, 0.013512014, 0.3434105
135, 1013668804, -1.935537576675415, -0.23145216703414917, 6.280337333679199, 0.006383453, 0.0016134003, 0.34434795
136, 1013685471, -1.9346098899841309, -0.23264235258102417, 6.280934810638428, -0.0016763158, 0.00996179, 0.34423447
137, 1013702138, -1.9347994327545166, -0.23308423161506653, 6.28185510635376, -0.00689839, 0.008082969, 0.3546791
138, 1013718805, -1.9353240728378296, -0.2330765277147293, 6.284490585327148, 0.008440038, -0.009734226, 0.3450699
139, 1013735472, -1.9349379539489746, -0.23311756551265717, 6.287043571472168, 0.009516993, 0.0052126576, 0.3410473
140, 1013752139, -1.935037612915039, -0.2325849086046219, 6.288028717041016, 0.0063724765, 0.014181534, 0.3270216
141, 1013768806, -1.9353127479553223, -0.23341430723667145, 6.290061950683594, -0.006688765, -0.011280824, 0.34679317
142, 1013785473, -1.9352182149887085, -0.23257653415203094, 6.29306697845459, -0.0025282528, -0.007695523, 0.34301662
143, 1013802140, -1.9348549842834473, -0.23162932693958282, 6.2948713302612305, -0.0022421353, 0.0094125215, 0.3064909
144, 1013818807, -1.9339159727096558, -0.230488121509552, 6.295974254608154, 0.0062232013, 0.0017509586, 0.34021282
145, 1013835474, -1.9338103532791138, -0.23006923496723175, 6.298034191131592, 0.009094225, 0.006678302, 0.342906
146, 1013852141, -1.9336564540863037, -0.2281399816274643, 6.3002777099609375, 0.0010315926, 0.0013199139, 0.33023834
147, 1013868808, -1.9329674243927002, -0.22850605845451355, 6.30302095413208, 0.0013883368, 0.0053117573, 0.34715843
148, 1013885475, -1.9330692291259766, -0.22767862677574158, 6.304090976715088, 0.0052700583, 0.0023691116, 0.35260677
149, 1013902142, -1.9339115619659424, -0.22736448049545288, 6.306726932525635, 0.0070445905, -0.010053584, 0.34471035
150, 1013918809, -1.9335343837738037, -0.22724071145057678, 6.307934761047363, 0.006504014, -0.0010392934, 0.35272312
151, 1013935476, -1.9338914155960083, -0.22642962634563446, 6.309080123901367, 0.012169278, -0.003089927, 0.3405304
152, 1013952143, -1.9335581064224243, -0.22733204066753387, 6.308886528015137, 0.0066542425, -0.001199147, 0.35024643
153, 1013968810, -1.9338128566741943, -0.22819830477237701, 6.307910442352295, 0.008737369, -0.0067238007, 0.36453342
154, 1013985477, -1.9329665899276733, -0.22807440161705017, 6.310611248016357, 0.009572899, -0.0041158935, 0.34435558
155, 1014002144, -1.9333289861679077, -0.2271958440542221, 6.311885356903076, -0.018570913, -0.0015455921, 0.33180046
156, 1014018811, -1.934146761894226, -0.22801561653614044, 6.312599182128906, 0.017490832, -3.099985E-4, 0.34374046
157, 1014035478, -1.9331343173980713, -0.22805564105510712, 6.315441608428955, -0.009009943, 0.0077852774, 0.3404932
158, 1014052145, -1.933008074760437, -0.2282596379518509, 6.317539215087891, -0.0037114816, -0.0011933636, 0.35009193
159, 1014068812, -1.9332994222640991, -0.22884410619735718, 6.3190178871154785, 0.011392703, 0.004364314, 0.36088753
160, 1014085479, -1.9343239068984985, -0.22763371467590332, 6.3184332847595215, 0.01073876, 0.008068832, 0.3559475
161, 1014102146, -1.9344282150268555, -0.22785653173923492, 6.319106578826904, 1.8082547E-4, -0.014551238, 0.34465408
162, 1014118813, -1.934636116027832, -0.22718414664268494, 6.320907115936279, -0.009146513, 0.014711553, 0.3315935
163, 1014135480, -1.9340280294418335, -0.22642605006694794, 6.322308540344238, 0.005125931, -0.012930504, 0.33595943
164, 1014152147, -1.9343398809432983, -0.22670705616474152, 6.3244829177856445, 0.0042390735, -0.0069946563, 0.32714176
165, 1014168814, -1.9345535039901733, -0.22695355117321014, 6.324626922607422, 0.012658492, -0.005045945, 0.3407936
166, 1014185481, -1.9343770742416382, -0.22663144767284393, 6.324688911437988, 3.1411953E-4, 0.0011993286, 0.34889412
167, 1014202148, -1.9345988035202026, -0.22707822918891907, 6.325352668762207, 0.006158337, 0.013646807, 0.35995865
168, 1014218815, -1.9343403577804565, -0.22701270878314972, 6.325995922088623, 0.0021134478, -0.0070642107, 0.33013153
169, 1014235482, -1.9350435733795166, -0.2257843166589737, 6.327091693878174, -3.7106642E-4, -0.009921377, 0.3453617
170, 1014252149, -1.9354790449142456, -0.22419805824756622, 6.327215671539307, -0.005186482, 0.00370069, 0.36386395
171, 1014268816, -1.9341124296188354, -0.22400891780853271, 6.327898025512695, -0.0063265935, -0.013913277, 0.3616047
172, 1014285483, -1.9339672327041626, -0.22416383028030396, 6.3294453620910645, 0.009836587, -0.0022722466, 0.33933163
173, 1014302150, -1.93364679813385, -0.22354042530059814, 6.331393241882324, 0.0036702922, -0.012362739, 0.33299923
174, 1014318817, -1.9332637786865234, -0.22257429361343384, 6.332742214202881, -0.0028462051, 0.012820172, 0.33154297
175, 1014335484, -1.932073950767517, -0.22247843444347382, 6.333229064941406, 0.00918201, 0.012504502, 0.34680843
176, 1014352151, -1.9323147535324097, -0.22135531902313232, 6.332618236541748, 0.010623379, 0.0018394418, 0.3385439
177, 1014368818, -1.9325788021087646, -0.22172898054122925, 6.333428859710693, 0.012351869, -3.617138E-4, 0.34506702
178, 1014385485, -1.9332295656204224, -0.22108975052833557, 6.333954811096191, -0.005139478, 0.0014100873, 0.35509205
179, 1014402152, -1.9327664375305176, -0.22031167149543762, 6.334669589996338, 0.0048592906, 4.658848E-5, 0.3486166
180, 1014418819, -1.9327646493911743, -0.22104936838150024, 6.334173202514648, -0.0010932648, 5.579163E-4, 0.3207655
181, 1014435486, -1.9331237077713013, -0.2205630987882614, 6.332834243774414, 0.0019890103, 0.00656547, 0.3639288
182, 1014452153, -1.9331384897232056, -0.21919147670269012, 6.33310604095459, 0.0039257063, 0.0099969385, 0.36491108
183, 1014468820, -1.9332506656646729, -0.22045612335205078, 6.3326520919799805, 0.004155965, 0.010240581, 0.34676838
184, 1014485487, -1.9338964223861694, -0.22067175805568695, 6.334547996520996, 0.0048568826, 0.007924568, 0.35225773
185, 1014502154, -1.932831883430481, -0.22056426107883453, 6.336248874664307, 0.0036463623, -0.009656416, 0.34397793
186, 1014518821, -1.9323911666870117, -0.2196355015039444, 6.336859703063965, 0.009312065, 0.005327124, 0.344285
187, 1014535488, -1.9314709901809692, -0.21894556283950806, 6.337409496307373, 0.0088713635, -0.0038699731, 0.33058262
188, 1014552155, -1.9310295581817627, -0.21780194342136383, 6.3398847579956055, 0.0054605505, -0.0030329311, 0.32794
189, 1014568822, -1.9316326379776, -0.2177080661058426, 6.339951038360596, 0.0042873537, -0.011249505, 0.34234047
190, 1014585489, -1.9316189289093018, -0.21664705872535706, 6.340447902679443, 0.015894383, 0.006032922, 0.3397236
191, 1014602156, -1.9311504364013672, -0.21780715882778168, 6.339930057525635, 0.015767807, 0.004647058, 0.34393597
192, 1014618823, -1.931971549987793, -0.21944835782051086, 6.340637683868408, -0.0033006943, -2.699338E-4, 0.31626606
193, 1014635490, -1.933469295501709, -0.21929511427879333, 6.342479228973389, -7.676343E-4, -5.9212773E-4, 0.34321308
194, 1014652157, -1.9330092668533325, -0.21963107585906982, 6.343049049377441, 0.018695058, -0.0048926566, 0.34191036
195, 1014668824, -1.933587670326233, -0.2193697690963745, 6.345077991485596, 0.016907645, 2.221579E-4, 0.33624363
196, 1014685491, -1.9338873624801636, -0.2175726443529129, 6.345431804656982, -0.0108552575, 0.006117801, 0.35324192
197, 1014702158, -1.9343069791793823, -0.21828226745128632, 6.34556770324707, -0.0050999178, 0.008869567, 0.3492937
198, 1014718825, -1.934281826019287, -0.21785344183444977, 6.345908164978027, 0.013572319, -0.0018259332, 0.3222084
199, 1014735492, -1.9350165128707886, -0.21887832880020142, 6.34609317779541, 0.00982776, 0.009791725, 0.32558155
200, 1014752159, -1.9347537755966187, -0.22003798186779022, 6.346485614776611, 0.013865804, -0.003662148, 0.34699726
201, 1014768826, -1.9345614910125732, -0.21995747089385986, 6.346467971801758, 0.011460435, 0.0050488086, 0.35043716
202, 1014785493, -1.9358179569244385, -0.21979545056819916, 6.348079204559326, 3.1132734E-4, 0.008159718, 0.36088657
203, 1014802160, -1.9361029863357544, -0.22039106488227844, 6.348285675048828, 0.005459395, -0.0012389603, 0.3263855
204, 1014818827, -1.9365825653076172, -0.22078999876976013, 6.34795618057251, 0.013782662, 0.0057015363, 0.33718967
205, 1014835494, -1.9359923601150513, -0.21939289569854736, 6.350003719329834, -7.599842E-4, 0.0033316421, 0.35112953
206, 1014852161, -1.9344710111618042, -0.22148285806179047, 6.352293014526367, 1.8543369E-4, -0.004086655, 0.33625603
207, 1014868828, -1.9337725639343262, -0.22200269997119904, 6.353057384490967, 5.7527E-4, 0.006438668, 0.3542452
208, 1014885495, -1.934084415435791, -0.22236230969429016, 6.353558540344238, -0.0078880815, 0.001995412, 0.34851074
209, 1014902162, -1.9343971014022827, -0.22357188165187836, 6.354347229003906, 0.0020133506, -0.012394422, 0.33545685
210, 1014918829, -1.9350303411483765, -0.2228994369506836, 6.356180191040039, 0.015282704, -0.005503727, 0.36135197
211, 1014935496, -1.935686707496643, -0.2232464700937271, 6.355960845947266, 0.0032056177, 0.010602337, 0.35319233
212, 1014952163, -1.9356499910354614, -0.2234898954629898, 6.357732772827148, -0.009738131, 0.0066945623, 0.34019184
213, 1014968830, -1.9348987340927124, -0.22385910153388977, 6.357790946960449, 0.003047711, 0.00161815, 0.35106564
214, 1014985497, -1.9352627992630005, -0.22381417453289032, 6.358130931854248, 0.011064876, -0.005406415, 0.34124374
215, 1015002164, -1.9341042041778564, -0.22322502732276917, 6.358730792999268, 0.011766752, -0.0032860176, 0.36360455
216, 1015018831, -1.9340590238571167, -0.22317788004875183, 6.358951568603516, 0.0047812616, 0.011339455, 0.33748722
217, 1015035498, -1.9337522983551025, -0.22412273287773132, 6.359559059143066, 0.0028167504, 0.012083767, 0.3486023
218, 1015052165, -1.9338679313659668, -0.22476549446582794, 6.360936641693115, -0.012191349, -0.004708817, 0.3414049
219, 1015068832, -1.9335260391235352, -0.22427184879779816, 6.360839366912842, 8.1965345E-4, 0.010291221, 0.338459
220, 1015085499, -1.9341683387756348, -0.2235417366027832, 6.362281322479248, 0.0072430456, 0.0057381084, 0.36163998
221, 1015102166, -1.9326585531234741, -0.2241416722536087, 6.363736629486084, 0.00939722, 0.0032989255, 0.3545227
222, 1015118833, -1.9335395097732544, -0.22390061616897583, 6.364870071411133, -0.006357672, 0.00908819, 0.3480854
223, 1015135500, -1.933066964149475, -0.22376777231693268, 6.364753723144531, -0.002245563, 0.0069106575, 0.3551216
224, 1015152167, -1.9328409433364868, -0.22379891574382782, 6.367920875549316, 0.0033926647, -0.01057708, 0.35879898
225, 1015168834, -1.9321033954620361, -0.22451505064964294, 6.369251728057861, 0.0031731033, 0.0064435434, 0.33465862
226, 1015185501, -1.9321730136871338, -0.2221774309873581, 6.371088027954102, 0.0031983638, 0.008282063, 0.32038784
227, 1015202168, -1.931183099746704, -0.22230492532253265, 6.370577812194824, 0.0140181985, -0.008070662, 0.34070873
228, 1015218835, -1.931137204170227, -0.22394026815891266, 6.372263431549072, 0.0066738683, 0.006754743, 0.35429192
229, 1015235502, -1.9316349029541016, -0.22390489280223846, 6.372580528259277, -0.0031387592, 0.0028492315, 0.3130617
230, 1015252169, -1.9311250448226929, -0.2239917367696762, 6.373391628265381, 0.01499589, -0.009136176, 0.33691978
231, 1015268836, -1.9325599670410156, -0.22432716190814972, 6.374265670776367, 0.011770119, -0.0032525884, 0.36303616
232, 1015285503, -1.9314817190170288, -0.2236759513616562, 6.375237941741943, 0.007253645, 0.010680231, 0.3237152
233, 1015302170, -1.9320272207260132, -0.22404132783412933, 6.377367973327637, 0.00365751, 0.00197978, 0.348917
234, 1015318837, -1.9317644834518433, -0.22501781582832336, 6.377413749694824, -0.006688112, -0.0064810794, 0.36882114
235, 1015335504, -1.931707501411438, -0.2252160757780075, 6.378015041351318, 0.020408543, -0.010681335, 0.34432316
236, 1015352171, -1.9321410655975342, -0.22376877069473267, 6.379633903503418, 0.009069855, -0.010713087, 0.3670826
237, 1015368838, -1.932279109954834, -0.22404296696186066, 6.379979133605957, -0.0041532023, -0.003848516, 0.3554182
238, 1015385505, -1.933455228805542, -0.2239263355731964, 6.379101276397705, -8.163444E-4, 0.015423735, 0.3418789
239, 1015402172, -1.9330570697784424, -0.22446592152118683, 6.379916667938232, 0.001992419, 0.0040172683, 0.359869
240, 1015418839, -1.9342094659805298, -0.230894073843956, 6.3880615234375, 0.0055971174, -0.007875716, 0.34665108
241, 1015435506, -1.9340391159057617, -0.2298005223274231, 6.388350486755371, 0.006158323, 0.0034562787, 0.3387127
242, 1015452173, -1.933529019355774, -0.23056453466415405, 6.388830661773682, 0.003797527, 0.01181442, 0.35663414
243, 1015468840, -1.9343986511230469, -0.23113811016082764, 6.389794826507568, -0.0022875678, -0.0051529096, 0.3309679
244, 1015485507, -1.9349392652511597, -0.23205189406871796, 6.389461517333984, -0.0027854464, -0.009831622, 0.35089874
245, 1015502174, -1.9343730211257935, -0.23243609070777893, 6.391794204711914, 4.9215456E-4, -0.010878082, 0.3487301
246, 1015518841, -1.9354028701782227, -0.23290595412254333, 6.3911943435668945, -0.008166653, -0.0033721959, 0.3509283
247, 1015535508, -1.935808777809143, -0.23286135494709015, 6.39131498336792, 0.008329587, 0.0024421166, 0.33749294
248, 1015552175, -1.9363211393356323, -0.23441606760025024, 6.392507076263428, 0.0083743315, 0.0015904064, 0.3236208
249, 1015568842, -1.9370670318603516, -0.23400671780109406, 6.392014026641846, 0.007844289, -0.0032877778, 0.35086346
250, 1015585509, -1.9376435279846191, -0.23330120742321014, 6.392343044281006, 0.0044422224, -0.017665165, 0.35112953
251, 1015602176, -1.9379088878631592, -0.2328641563653946, 6.392029285430908, 1.8566243E-4, 0.012264798, 0.3529396
252, 1015618843, -1.9380247592926025, -0.23285214602947235, 6.3925628662109375, -0.005512514, 0.005412841, 0.33749294
253, 1015635510, -1.937061071395874, -0.2332698553800583, 6.392274856567383, 0.0018222906, -0.0048988312, 0.35721684
254, 1015652177, -1.9367434978485107, -0.2335250824689865, 6.393677234649658, 0.008056448, 0.00847061, 0.3437891
255, 1015668844, -1.9366867542266846, -0.2338298261165619, 6.3929443359375, 0.005603931, 0.003420782, 0.34637642
256, 1015685511, -1.9361904859542847, -0.23445896804332733, 6.394284248352051, 0.008659786, -3.227667E-4, 0.32300568
257, 1015702178, -1.9366511106491089, -0.23513926565647125, 6.394989967346191, 8.760975E-4, 0.0067380075, 0.35344124
258, 1015718845, -1.9372764825820923, -0.23429442942142487, 6.394430637359619, 0.0057436475, -0.012400052, 0.3393154
259, 1015735512, -1.9374226331710815, -0.23380236327648163, 6.394598484039307, 0.0011037664, -0.00524258, 0.3456745
260, 1015752179, -1.9369419813156128, -0.23448757827281952, 6.396026611328125, 0.0020155734, -0.017069336, 0.33812714
261, 1015768846, -1.9375451803207397, -0.23381301760673523, 6.396872043609619, 0.0064673787, -0.007922696, 0.34697056
262, 1015785513, -1.9365917444229126, -0.23435743153095245, 6.398037910461426, 0.008053734, -0.009302749, 0.34669495
263, 1015802180, -1.9379518032073975, -0.23515090346336365, 6.399271011352539, -0.006083338, 0.0019060067, 0.35377884
264, 1015818847, -1.9382247924804688, -0.2357414811849594, 6.399527549743652, 1.3231966E-4, -0.0041584307, 0.352499
265, 1015835514, -1.9390321969985962, -0.2376229465007782, 6.400510311126709, -0.0016037107, -0.014328717, 0.34825516
266, 1015852181, -1.9386478662490845, -0.23650731146335602, 6.401605606079102, 0.0014367832, 0.007923897, 0.3260088
267, 1015868848, -1.9385349750518799, -0.2374350130558014, 6.4031171798706055, -0.009042755, 0.016726466, 0.35338783
268, 1015885515, -1.9382085800170898, -0.23691752552986145, 6.4040846824646, -0.0023645156, 0.0015946532, 0.34928894
269, 1015902182, -1.9378962516784668, -0.2379027158021927, 6.404792785644531, 0.0028328625, 0.0047532124, 0.34226418
270, 1015918849, -1.9380757808685303, -0.2372143715620041, 6.404052734375, 0.0017271056, 0.0025246767, 0.33877277
271, 1015935516, -1.9392694234848022, -0.23705746233463287, 6.40366792678833, 0.0074382736, -0.0074992366, 0.35837936
272, 1015952183, -1.9382199048995972, -0.23642337322235107, 6.403756141662598, -4.317991E-4, -0.011618022, 0.34304047
273, 1015968850, -1.9379197359085083, -0.2367195039987564, 6.403626441955566, 0.014658231, 0.008287748, 0.33812714
274, 1015985517, -1.9366412162780762, -0.23809513449668884, 6.404522895812988, -0.0032579214, 0.0019617872, 0.36591244
275, 1016002184, -1.9380557537078857, -0.23787830770015717, 6.40400505065918, 0.0020148365, 0.0013823718, 0.34235668
276, 1016018851, -1.9376412630081177, -0.2377389818429947, 6.40485954284668, -0.0034522135, 0.002068892, 0.3427601
277, 1016035518, -1.9367958307266235, -0.2365173101425171, 6.404974460601807, 0.0052026273, 0.007664273, 0.3508005
278, 1016052185, -1.9367356300354004, -0.23693905770778656, 6.40445613861084, 0.008158069, -0.012158322, 0.35404396
279, 1016068852, -1.9374903440475464, -0.23612599074840546, 6.40627384185791, 0.012054745, 0.009510895, 0.33782005
280, 1016085519, -1.9364837408065796, -0.2375115305185318, 6.4066362380981445, 0.0055441028, 0.0023159015, 0.3480959
281, 1016102186, -1.9353939294815063, -0.23876215517520905, 6.40662956237793, -0.0027278534, 0.0018327644, 0.32823563
282, 1016118853, -1.9355663061141968, -0.23851583898067474, 6.407257080078125, -0.004281946, -0.0137613155, 0.343215
283, 1016135520, -1.9345386028289795, -0.2403518557548523, 6.407331943511963, -0.0015273967, 0.004943827, 0.35883236
284, 1016152187, -1.9342288970947266, -0.24012987315654755, 6.4080963134765625, -0.0010362619, 6.3388277E-4, 0.35031986
285, 1016168854, -1.9345661401748657, -0.24094565212726593, 6.408977508544922, -0.00810591, 0.0028845605, 0.3692522
286, 1016185521, -1.9355127811431885, -0.24212007224559784, 6.407729625701904, -0.001002047, -0.0077536786, 0.33402443
287, 1016202188, -1.935831069946289, -0.24304139614105225, 6.407884120941162, 5.6034E-4, -0.0026582954, 0.36161804
288, 1016218855, -1.9354581832885742, -0.24266614019870758, 6.408168315887451, 0.010751127, 0.005861404, 0.3469906
289, 1016235522, -1.9353569746017456, -0.2436857372522354, 6.4103474617004395, -0.0018092466, -0.005428906, 0.3488121
290, 1016252189, -1.9356732368469238, -0.2423013299703598, 6.410342693328857, -0.003981007, 0.001554812, 0.36810875
291, 1016268856, -1.9357417821884155, -0.24197672307491302, 6.410706996917725, 0.0093583055, -8.594073E-4, 0.32977867
292, 1016285523, -1.9358513355255127, -0.24263235926628113, 6.411319255828857, 0.016563082, -0.0050005857, 0.33751392
293, 1016302190, -1.9358586072921753, -0.24344846606254578, 6.4110307693481445, 0.009883974, -0.01678655, 0.3556671
294, 1016318857, -1.9366570711135864, -0.24300940334796906, 6.411218166351318, -0.0017409493, 0.003572729, 0.3582201
295, 1016335524, -1.9369157552719116, -0.24210849404335022, 6.411623954772949, 0.0035070614, -0.0013637922, 0.36973572
296, 1016352191, -1.9377974271774292, -0.24238047003746033, 6.411173343658447, 0.006958734, 0.010175344, 0.3539915
297, 1016368858, -1.937445044517517, -0.24118204414844513, 6.412029266357422, 0.0011770402, 3.6072198E-4, 0.34593678
298, 1016385525, -1.93709397315979, -0.24148480594158173, 6.411954879760742, 0.0019036075, 0.015780797, 0.33739758
299, 1016402192, -1.9379968643188477, -0.24158208072185516, 6.4121904373168945, -0.009808302, 0.0036140787, 0.34528828
300, 1016418859, -1.9381624460220337, -0.24415373802185059, 6.412918567657471, 0.0030836442, -0.010077892, 0.3441038
301, 1016435526, -1.9378149509429932, -0.24542348086833954, 6.413888454437256, -0.008298774, -0.0032775102, 0.3524847
302, 1016452193, -1.9379513263702393, -0.24581030011177063, 6.414463996887207, -0.0044533666, -0.004612441, 0.34440422
303, 1016468860, -1.9376399517059326, -0.2456112504005432, 6.414332389831543, 0.010503286, 8.776795E-4, 0.3529253
304, 1016485527, -1.9383763074874878, -0.24648605287075043, 6.413372039794922, 0.0020844399, -0.004753017, 0.3322115
305, 1016502194, -1.9390100240707397, -0.24529170989990234, 6.414445400238037, 0.002096974, -9.863906E-4, 0.34672737
306, 1016518861, -1.94008469581604, -0.24583451449871063, 6.414694786071777, 0.003095431, 0.013646346, 0.3464365
307, 1016535528, -1.9405404329299927, -0.24597835540771484, 6.414651870727539, 0.010864863, 0.001034432, 0.33744526
308, 1016552195, -1.9405412673950195, -0.2464143931865692, 6.41465950012207, -0.0038271232, 0.0041422257, 0.32431984
309, 1016568862, -1.9400733709335327, -0.24662233889102936, 6.415722846984863, -5.2381307E-4, 0.0046997094, 0.34267235
310, 1016585529, -1.9398891925811768, -0.24808143079280853, 6.416432857513428, 0.00765579, -0.006034808, 0.3254404
311, 1016602196, -1.938928246498108, -0.24841110408306122, 6.417773246765137, 0.005728029, -0.0033867243, 0.33343506
312, 1016618863, -1.9393032789230347, -0.24748051166534424, 6.417701721191406, 0.002010974, 0.0073663164, 0.3511715
313, 1016635530, -1.9391911029815674, -0.2484423965215683, 6.417110443115234, -0.0015620692, -0.0049968557, 0.34158993
314, 1016652197, -1.9386358261108398, -0.24885044991970062, 6.417325019836426, -0.0035836129, -0.0044929455, 0.3385868
315, 1016668864, -1.9390521049499512, -0.24945561587810516, 6.417031764984131, -0.013726647, 0.0010644385, 0.35552597
316, 1016685531, -1.9382634162902832, -0.24840053915977478, 6.417724132537842, -0.009995388, 0.0065011396, 0.33690453
317, 1016702198, -1.9381955862045288, -0.2483762800693512, 6.418346881866455, 0.010401716, 0.019211804, 0.3428049
318, 1016718865, -1.9383323192596436, -0.24781177937984467, 6.418044090270996, 0.009090513, -0.013635324, 0.35951614
319, 1016735532, -1.9388601779937744, -0.24768689274787903, 6.418962001800537, 0.0062419414, 0.0027374749, 0.33287144
320, 1016752199, -1.9393413066864014, -0.24893814325332642, 6.419034004211426, -6.1427994E-4, 0.0093049705, 0.3352785
321, 1016768866, -1.9398661851882935, -0.24744243919849396, 6.418765544891357, -0.0070449207, -0.0016436165, 0.33879185
322, 1016785533, -1.9402484893798828, -0.2470749169588089, 6.4214324951171875, 0.0036442287, -0.013552233, 0.33237076
323, 1016802200, -1.9407539367675781, -0.24731752276420593, 6.421538829803467, 0.009932241, 0.0032186145, 0.34444523
324, 1016818867, -1.9409130811691284, -0.24814409017562866, 6.420541763305664, -0.011017139, 0.0021394242, 0.34435368
325, 1016835534, -1.9414629936218262, -0.2481078803539276, 6.421608924865723, 0.016604973, -0.0057989038, 0.353467
326, 1016852201, -1.942576289176941, -0.24825339019298553, 6.422482967376709, -0.005208938, -0.0019034224, 0.33968258
327, 1016868868, -1.9431025981903076, -0.24856480956077576, 6.422782897949219, 4.7789863E-4, -4.6587083E-4, 0.35673523
328, 1016885535, -1.9431096315383911, -0.24769887328147888, 6.422667503356934, -0.004235918, -0.0055334126, 0.3286476
329, 1016902202, -1.9426138401031494, -0.247893825173378, 6.4226884841918945, 0.0023749194, -0.0032438575, 0.36114407
330, 1016918869, -1.9431354999542236, -0.2481856495141983, 6.423146724700928, -0.004562343, -0.0046421406, 0.35679626
331, 1016935536, -1.9437813758850098, -0.24850939214229584, 6.42346715927124, 0.0053659175, -0.0064832307, 0.37945938
332, 1016952203, -1.9440667629241943, -0.2494598627090454, 6.423783779144287, 6.298979E-4, 0.004580088, 0.35701847
333, 1016968870, -1.9448705911636353, -0.24924694001674652, 6.423454761505127, -0.009623465, -0.007900541, 0.34247303
334, 1016985537, -1.9447561502456665, -0.2487540990114212, 6.4255571365356445, -0.0021542283, 0.011785782, 0.34511662
335, 1017002204, -1.9441642761230469, -0.2483617216348648, 6.424803256988525, -7.18671E-4, 0.003682767, 0.34844017
336, 1017018871, -1.9446306228637695, -0.24897357821464539, 6.425447940826416, 0.0074092415, -0.003780624, 0.34473324
337, 1017035538, -1.9452470541000366, -0.25050491094589233, 6.426816463470459, 0.005131969, 0.010503922, 0.31880474
338, 1017052205, -1.9459857940673828, -0.24999602138996124, 6.427134037017822, 0.0033929301, 0.0017375478, 0.33496284
339, 1017068872, -1.9474117755889893, -0.25102484226226807, 6.427748203277588, 4.5968583E-4, 0.0051289937, 0.34980202
340, 1017085539, -1.9479584693908691, -0.25045183300971985, 6.428598403930664, 0.005518175, 0.005992522, 0.34844112
341, 1017102206, -1.9483132362365723, -0.25073447823524475, 6.43004846572876, 0.011758975, 0.011418886, 0.34715748
342, 1017118873, -1.9483978748321533, -0.2513752579689026, 6.429634094238281, 0.0016037509, 0.0041809636, 0.32619953
343, 1017135540, -1.948789358139038, -0.252004474401474, 6.429776668548584, -0.0011036337, 0.013722592, 0.3520012
344, 1017152207, -1.9490164518356323, -0.2525274157524109, 6.430832386016846, -0.0023842442, 0.007230728, 0.33819866
345, 1017168874, -1.9494000673294067, -0.25379514694213867, 6.431217193603516, -6.7525706E-4, 0.0062889, 0.36310005
346, 1017185541, -1.9494320154190063, -0.254544198513031, 6.43217658996582, -0.0022285464, -0.0038580012, 0.356225
347, 1017202208, -1.9492237567901611, -0.25584349036216736, 6.433008670806885, 0.010193385, -0.0032726487, 0.3529234
348, 1017218875, -1.9501206874847412, -0.2552758753299713, 6.433052062988281, -0.0075211166, 0.006549558, 0.34976578
349, 1017235542, -1.9506429433822632, -0.25590211153030396, 6.434586524963379, -0.012135283, 9.0236374E-4, 0.34509468
350, 1017252209, -1.9511044025421143, -0.2564103901386261, 6.434005260467529, -0.0057177357, 0.017947154, 0.3471918
351, 1017268876, -1.9498018026351929, -0.2565529942512512, 6.4333648681640625, -0.0022017038, 0.0073203845, 0.3574915
352, 1017285543, -1.951259970664978, -0.25688493251800537, 6.433812141418457, -0.009862093, 0.009933908, 0.37073612
353, 1017302210, -1.9528672695159912, -0.2562217116355896, 6.433849334716797, 0.003667219, 0.010027518, 0.34788704
354, 1017318877, -1.953654408454895, -0.2564809024333954, 6.433988094329834, 0.0039174175, 0.0062873773, 0.33790493
355, 1017335544, -1.9537891149520874, -0.2568560242652893, 6.434235572814941, 0.0017824215, 0.0023112916, 0.3259077
356, 1017352211, -1.9535773992538452, -0.25681158900260925, 6.434152603149414, 0.01146282, -5.3837284E-4, 0.34733105
357, 1017368878, -1.9539538621902466, -0.25803646445274353, 6.433711051940918, -0.0039564134, 0.009078775, 0.3363657
358, 1017385545, -1.9530366659164429, -0.2572397291660309, 6.433946132659912, 9.229618E-4, -0.0024821393, 0.3472967
359, 1017402212, -1.953796148300171, -0.25742048025131226, 6.43369722366333, -0.0022043267, 0.002082568, 0.35651875
360, 1017418879, -1.9386348724365234, -0.23616531491279602, 6.434267520904541, 0.012365872, 0.0034704437, 0.34000397
361, 1017435546, -1.9384580850601196, -0.23531068861484528, 6.435231685638428, 0.0055428767, -0.0026939318, 0.3554306
362, 1017452213, -1.9387223720550537, -0.23537777364253998, 6.435771942138672, 0.0074560954, -0.005191661, 0.3583088
363, 1017468880, -1.9387826919555664, -0.23501157760620117, 6.436094760894775, 0.004704162, 0.011745452, 0.3499117
364, 1017485547, -1.9386922121047974, -0.23513977229595184, 6.437126159667969, -0.010493207, 0.007941877, 0.35268784
365, 1017502214, -1.938827395439148, -0.23441855609416962, 6.437149524688721, 0.009568722, -0.007677279, 0.3438244
366, 1017518881, -1.9397871494293213, -0.23378854990005493, 6.438004493713379, 0.01370009, -0.0054169483, 0.34379292
367, 1017535548, -1.940502405166626, -0.2329905927181244, 6.436995983123779, 0.0066242814, 0.0042423876, 0.34329987
368, 1017552215, -1.940969467163086, -0.23195664584636688, 6.437696933746338, 0.021738328, 0.0058256974, 0.34269238
369, 1017568882, -1.941339135169983, -0.23225174844264984, 6.438214302062988, 0.0048847185, -0.0062047616, 0.34737873
370, 1017585549, -1.9414044618606567, -0.23062454164028168, 6.438451766967773, 0.0032010968, -0.0043392805, 0.3444643
371, 1017602216, -1.9405512809753418, -0.23013848066329956, 6.438575267791748, 0.01604067, 0.012614988, 0.35820103
372, 1017618883, -1.9395395517349243, -0.23125721514225006, 6.439086437225342, 0.008185282, 0.006507887, 0.3442936
373, 1017635550, -1.9396450519561768, -0.2322165071964264, 6.439192295074463, -0.005025902, -0.0028163053, 0.36703682
374, 1017652217, -1.9394668340682983, -0.23207758367061615, 6.439621925354004, -0.0031525106, -0.0017373243, 0.31777763
375, 1017668884, -1.9399631023406982, -0.23236672580242157, 6.439917087554932, -8.5153896E-4, 0.0048565036, 0.34555912
376, 1017685551, -1.9400192499160767, -0.23209638893604279, 6.440126895904541, 0.0036217829, -5.22252E-4, 0.34953594
377, 1017702218, -1.9400862455368042, -0.2331751435995102, 6.441567420959473, 0.02197166, 0.0076043857, 0.34599972
378, 1017718885, -1.9416234493255615, -0.231795072555542, 6.440032958984375, 0.009120352, 0.0039624935, 0.34986877
379, 1017735552, -1.9412789344787598, -0.23100566864013672, 6.440963268280029, -0.001070173, -0.0012760354, 0.35104752
380, 1017752219, -1.9406427145004272, -0.22959066927433014, 6.442646503448486, -0.0075280597, -0.007965359, 0.341712
381, 1017768886, -1.9405276775360107, -0.22982807457447052, 6.442084312438965, 0.017285403, 0.011574521, 0.33851147
382, 1017785553, -1.9410512447357178, -0.22862572968006134, 6.440706729888916, 0.012966689, 0.012788503, 0.33420753
383, 1017802220, -1.9418582916259766, -0.22857676446437836, 6.4418721199035645, 0.01096455, -0.0045204237, 0.34476662
384, 1017818887, -1.9418416023254395, -0.22913207113742828, 6.442417144775391, 0.014538414, -9.345636E-6, 0.33936024
385, 1017835554, -1.9422780275344849, -0.22848404943943024, 6.442455291748047, 0.0028029713, 7.0766994E-4, 0.3382492
386, 1017852221, -1.9419039487838745, -0.22758294641971588, 6.442018985748291, 0.022585945, 0.0069383034, 0.34869766
387, 1017868888, -1.9422403573989868, -0.22728218138217926, 6.441717147827148, 0.01855155, 0.0062440997, 0.36539078
388, 1017885555, -1.9428174495697021, -0.22822274267673492, 6.442489147186279, 0.0049527013, 0.01804775, 0.34926414
389, 1017902222, -1.9432172775268555, -0.22824187576770782, 6.442621231079102, 0.007064504, 0.003865028, 0.33994007
390, 1017918889, -1.943669319152832, -0.2286456823348999, 6.441405296325684, 0.0051009115, -6.345812E-4, 0.33426476
391, 1017935556, -1.9435555934906006, -0.2283644676208496, 6.440685272216797, -4.6393607E-4, 0.014742873, 0.33145618
392, 1017952223, -1.9443025588989258, -0.22818763554096222, 6.4418792724609375, 0.010790396, -0.0053416663, 0.35820293
393, 1017968890, -1.9445604085922241, -0.22830316424369812, 6.442408561706543, 0.017590659, 0.0061428486, 0.33861923
394, 1017985557, -1.9454506635665894, -0.2296857386827469, 6.4420928955078125, -6.7408365E-4, 0.0075290618, 0.3373747
395, 1018002224, -1.9462261199951172, -0.23042486608028412, 6.441532611846924, -0.010028092, 0.005897124, 0.35588646
396, 1018018891, -1.9466058015823364, -0.22923585772514343, 6.441740036010742, 0.009604338, 0.015124898, 0.35675812
397, 1018035558, -1.9457587003707886, -0.23278021812438965, 6.444115161895752, 0.01130437, -0.048903853, 0.18376732
398, 1018052225, -1.8094861507415771, -0.41079872846603394, 6.631132125854492, 2.3314106, 0.6717357, 0.46129894
399, 1018068892, -1.6806167364120483, -0.5362012386322021, 6.862520217895508, 0.23818624, -0.20110837, 0.58842754
400, 1018085559, -1.537676453590393, -0.706787109375, 7.0027971267700195, -1.0939236, -0.59102595, 0.035809517
401, 1018102226, -1.3747698068618774, -0.927634596824646, 6.950818061828613, -0.55837685, -0.5135422, 0.70181274
402, 1018118893, -1.2719990015029907, -1.0731947422027588, 6.787413120269775, -0.5129611, 0.05482672, 0.16340733
403, 1018135560, -1.2354565858840942, -1.1464757919311523, 6.6491217613220215, -0.06927887, 0.53274983, 0.24561119
404, 1018152227, -1.2458540201187134, -1.1345274448394775, 6.689036846160889, 0.6399745, 0.63781744, 0.19101906
405, 1018168894, -1.2905263900756836, -1.0761603116989136, 6.761645317077637, 0.5526484, -0.12728094, 0.44550323
406, 1018185561, -1.2499529123306274, -1.1250426769256592, 6.7943196296691895, 0.14138457, -0.3146252, 0.45444775
407, 1018202228, -1.1800771951675415, -1.1993552446365356, 6.807595252990723, 0.02975176, -0.078341044, 0.3227787
408, 1018218895, -1.1423463821411133, -1.2249027490615845, 6.7578253746032715, -0.011786676, -0.20341942, 0.37161636
409, 1018235562, -1.1009302139282227, -1.2573065757751465, 6.62391471862793, 0.17890055, -0.08466571, 0.34519768
410, 1018252229, -1.0737558603286743, -1.269834041595459, 6.503922939300537, 0.123723, 0.2644354, 0.27801514
411, 1018268896, -1.0470757484436035, -1.2849611043930054, 6.451821327209473, 0.19560887, 0.1358358, 0.32556438
412, 1018285563, -1.040853500366211, -1.276528000831604, 6.4125237464904785, 0.14777993, 0.09258564, 0.33922958
413, 1018302230, -1.0464993715286255, -1.2628898620605469, 6.388391017913818, 0.1946424, 3.5174654E-4, 0.40575218
414, 1018318897, -1.0558072328567505, -1.2601401805877686, 6.342145919799805, 0.45118773, 0.18091701, 0.3891058
415, 1018335564, -1.0486737489700317, -1.2692656517028809, 6.3963623046875, 0.5079461, 0.15236755, 0.31089687
416, 1018352231, -1.024741768836975, -1.2878150939941406, 6.452620029449463, 0.34566, -0.12094324, 0.35865784
417, 1018368898, -0.9973897933959961, -1.2961432933807373, 6.482166767120361, 0.23041038, -0.11924923, 0.40388393
418, 1018385565, -0.9906622767448425, -1.2941875457763672, 6.414364814758301, 0.21753724, -0.15835482, 0.2631731
419, 1018402232, -0.9917092323303223, -1.2944663763046265, 6.295575141906738, 0.12333803, 0.10500439, 0.3476162
420, 1018418899, -1.0064382553100586, -1.2878161668777466, 6.265871524810791, 0.14090782, 0.42229155, 0.3331194
421, 1018435566, -1.0195120573043823, -1.297899603843689, 6.286167144775391, 3.6881035E-4, -0.2369348, 0.4513092
422, 1018452233, -1.0113143920898438, -1.3329317569732666, 6.234847068786621, 0.07758361, -0.11025129, 0.27630234
423, 1018468900, -1.0001347064971924, -1.3426899909973145, 6.153097629547119, 0.099533744, -0.023366142, 0.3146658
424, 1018485567, -0.9827996492385864, -1.373444676399231, 6.077705383300781, 0.43178535, 0.21121718, 0.25105
425, 1018502234, -0.9943194389343262, -1.331363320350647, 6.049983501434326, 0.4535399, 0.17779984, 0.23297691
426, 1018518901, -0.9412432909011841, -1.3134442567825317, 6.160567760467529, 0.30599523, 0.22985122, 0.2706499
427, 1018535568, -0.9256834983825684, -1.2064666748046875, 6.28757905960083, 0.031412344, 0.02912502, 0.2194643
428, 1018552235, -0.919414758682251, -1.1020362377166748, 6.322169303894043, -0.20149696, -0.41157013, 0.51879215
429, 1018568902, -0.9311407208442688, -1.110604166984558, 6.225533485412598, 0.20959741, 0.17975233, 0.4102335
430, 1018585569, -1.0198262929916382, -0.9864559769630432, 6.245484352111816, 0.22028725, 0.42867994, 0.27715874
431, 1018602236, -1.048545479774475, -0.9210392832756042, 6.21789026260376, -0.16355966, -0.7080993, 0.67750645
432, 1018618903, -1.0399549007415771, -0.988889753818512, 6.095880031585693, 0.15074049, 0.12430264, 0.4451313
433, 1018635570, -1.0395586490631104, -1.0885649919509888, 5.9674482345581055, 0.07997011, -0.32753992, 0.5066452
434, 1018652237, -1.009474754333496, -1.2258332967758179, 5.753879070281982, 0.42526463, -0.18714368, 0.26383018
435, 1018668904, -1.0011578798294067, -1.325653076171875, 5.498847961425781, 0.22888212, 0.0087358225, 0.31137848
436, 1018685571, -0.9750686287879944, -1.404542326927185, 5.326582431793213, 0.20205244, 0.17524073, 0.23122787
437, 1018702238, -0.9260177612304688, -1.488468050956726, 5.194220066070557, 0.22273725, -0.05294312, 0.30601597
438, 1018718905, -0.8858838677406311, -1.6109848022460938, 5.0129780769348145, 0.18134086, -0.103596844, 0.25496483
439, 1018735572, -0.8979511260986328, -1.6259194612503052, 4.827955722808838, 0.020930592, 0.44206867, 0.18438244
440, 1018752239, -0.9260662794113159, -1.5188676118850708, 4.848504543304443, 0.22805205, 0.64064646, 0.19306374
441, 1018768906, -0.9475139379501343, -1.4042558670043945, 4.99237585067749, 0.08455723, -0.09921019, 0.34351254
442, 1018785573, -0.9593616724014282, -1.3764913082122803, 5.088982582092285, -0.13052928, -0.30860317, 0.62108517
443, 1018802240, -1.0165040493011475, -1.2426166534423828, 5.090629577636719, 0.031225696, 0.10716414, 0.0945673
444, 1018818907, -1.0618760585784912, -1.1709139347076416, 5.097970485687256, -0.0825301, 0.1472642, 0.4356575
445, 1018835574, -1.1171395778656006, -1.1357088088989258, 5.095620632171631, -0.2715929, -0.0842307, 0.74481964
446, 1018852241, -1.157462477684021, -1.2191047668457031, 4.87907075881958, 0.17634416, -0.3284718, 0.22414112
447, 1018868908, -1.1982121467590332, -1.249814510345459, 4.619387626647949, -0.20411164, 0.13297762, 0.3960867
448, 1018885575, -1.2666500806808472, -1.2481005191802979, 4.4473981857299805, 0.074904725, -0.32555547, 0.36479855
449, 1018902242, -1.2599998712539673, -1.3322030305862427, 4.4337615966796875, 0.38375765, 0.22647682, 0.13351822
450, 1018918909, -1.2728408575057983, -1.3434258699417114, 4.473998546600342, -0.26653937, -0.28427234, 0.29977417
451, 1018935576, -1.1745177507400513, -1.4507224559783936, 4.502413272857666, -0.21986176, -0.1955392, 0.5712261
452, 1018952243, -1.1026297807693481, -1.5295144319534302, 4.56147575378418, -0.032132026, 0.18604721, 0.1183548
453, 1018968910, -1.0722358226776123, -1.5122289657592773, 4.553110122680664, -0.36754286, 0.008097951, 0.38319874
454, 1018985577, -1.0526955127716064, -1.5402063131332397, 4.541401386260986, -0.23457411, 0.0858795, 0.45049763
455, 1019002244, -1.0345792770385742, -1.4955860376358032, 4.511281967163086, -0.041780382, 0.04281223, 0.28353882
456, 1019018911, -1.0265926122665405, -1.4686287641525269, 4.5471649169921875, 0.08668791, 0.13095403, 0.35783958
457, 1019035578, -1.0340096950531006, -1.4454731941223145, 4.514429569244385, 0.047714528, -0.2627169, 0.306715
458, 1019052245, -1.015231728553772, -1.4874026775360107, 4.4751458168029785, -0.31292418, -0.1794376, 0.6470213
459, 1019068912, -0.9705168604850769, -1.5944072008132935, 4.390666961669922, -0.17617394, -0.22876172, 0.33965397
460, 1019085579, -0.95418781042099, -1.6709880828857422, 4.272785663604736, 0.008818089, 0.38928792, 0.08639526
461, 1019102246, -1.0020729303359985, -1.6339819431304932, 4.143970966339111, -0.08473054, 0.03578994, 0.4174385
462, 1019118913, -0.9944606423377991, -1.629827857017517, 4.1300787925720215, 0.15260413, 0.24166638, 0.37286186
463, 1019135580, -1.0535297393798828, -1.521091103553772, 4.153350830078125, 0.23151065, 0.14505532, 0.011726379
464, 1019152247, -1.1633654832839966, -1.3471875190734863, 4.087050914764404, -0.2804022, -0.15721038, 0.47617817
465, 1019168914, -1.2089416980743408, -1.2802408933639526, 4.089425086975098, 0.03065198, -0.3539163, 0.18270683
466, 1019185581, -1.1464076042175293, -1.3037497997283936, 4.0480756759643555, -0.018139439, -0.4028602, 0.4631405
467, 1019202248, -1.0616209506988525, -1.3552905321121216, 3.964123249053955, 0.14052063, 0.25710782, 0.45490456
468, 1019218915, -1.0638941526412964, -1.2968767881393433, 3.8945960998535156, -0.002611679, 0.22667108, 0.44846153
469, 1019235582, -1.0768331289291382, -1.2251101732254028, 3.8537375926971436, -0.07467397, 0.04829229, 0.2880659
470, 1019252249, -1.10967218875885, -1.118241548538208, 3.829054117202759, 0.0041975803, -0.010698015, 0.32699203
471, 1019268916, -1.1026850938796997, -1.0873260498046875, 3.751096487045288, 0.07661684, -0.26811162, 0.5015917
472, 1019285583, -1.0808959007263184, -1.0840084552764893, 3.709990978240967, 0.1113918, 0.2788434, 0.32813072
473, 1019302250, -1.0745329856872559, -1.092339038848877, 3.722097158432007, 0.034443032, 0.02749097, 0.29100704
474, 1019318917, -1.0822545289993286, -1.0677449703216553, 3.670941114425659, -0.11570852, -0.16687249, 0.4530897
475, 1019335584, -1.0812819004058838, -1.1235164403915405, 3.623228073120117, 0.051291615, 0.013869943, 0.37056828
476, 1019352251, -1.0593544244766235, -1.1836607456207275, 3.5308425426483154, -0.21413971, -0.060913924, 0.3149166
477, 1019368918, -1.0545423030853271, -1.1683984994888306, 3.4450652599334717, -0.026033986, 0.22633688, 0.053588867
478, 1019385585, -1.1569757461547852, -0.9780937433242798, 3.438469886779785, 0.1473829, 0.37524807, 0.1773119
479, 1019402252, -1.3135931491851807, -0.7076036334037781, 3.5271215438842773, 0.08887687, 0.18437418, 0.20750237
480, 1019418919, -1.4297759532928467, -0.4486144483089447, 3.507434844970703, -0.18883303, -0.40227243, 0.39447784
481, 1019435586, -1.4527946710586548, -0.36502107977867126, 3.4223437309265137, -0.34243003, -0.38035813, 0.74579334
482, 1019452253, -1.45010244846344, -0.29097411036491394, 3.4104528427124023, 0.25564525, 0.1808538, 0.22793007
483, 1019468920, -1.4518169164657593, -0.2303660362958908, 3.3282735347747803, -0.33835623, -0.10347534, 0.46730232
484, 1019485587, -1.503651738166809, -0.1964629590511322, 3.340219259262085, 0.1300396, 0.23334365, 0.5015745
485, 1019502254, -1.584342360496521, -0.17759443819522858, 3.2777297496795654, -0.05532519, 0.029925507, 0.43828106
486, 1019518921, -1.6331504583358765, -0.22707246243953705, 3.2269320487976074, -0.2820759, -0.17402768, 0.47200584
487, 1019535588, -1.652969241142273, -0.2780609130859375, 3.174285650253296, 0.01217985, -0.08470327, 0.21465874
488, 1019552255, -1.6972987651824951, -0.27182260155677795, 3.103870391845703, -0.1912664, -0.060737647, 0.20650578
489, 1019568922, -1.758577585220337, -0.25783830881118774, 2.9891786575317383, -0.173554, -0.2152436, 0.33068848
490, 1019585589, -1.7690149545669556, -0.3190325200557709, 2.833264112472534, -0.07634362, -0.17825632, 0.41981888
491, 1019602256, -1.7561867237091064, -0.4236474931240082, 2.645465612411499, 0.1742792, 0.055086598, 0.26065445
492, 1019618923, -1.7847343683242798, -0.42466965317726135, 2.513054370880127, -0.06377985, 0.43999475, 0.1818924
493, 1019635590, -1.86887788772583, -0.32267534732818604, 2.5153472423553467, -0.17125064, 0.38827333, 0.11837292
494, 1019652257, -1.958266019821167, -0.16406336426734924, 2.6240177154541016, -0.17711037, 0.2080205, 0.31123066
495, 1019668924, -2.056257724761963, -0.008018558844923973, 2.7265512943267822, 0.13684583, -0.17228211, 0.29089546
496, 1019685591, -2.123382806777954, 0.10450274497270584, 2.729175090789795, -0.40570432, -0.5327064, 0.6051626
497, 1019702258, -2.118114709854126, 0.12306884676218033, 2.625244379043579, -0.098124914, -0.11979832, 0.41696262
498, 1019718925, -2.1176304817199707, 0.16020458936691284, 2.554056406021118, -0.27784723, 0.051951718, 0.28828812
499, 1019735592, -2.104484796524048, 0.20155642926692963, 2.454418897628784, -0.46609703, -0.030634323, 0.37602615
500, 1019752259, -2.1129651069641113, 0.21833783388137817, 2.376483917236328, -0.21201432, -0.025337443, 0.34446812
501, 1019768926, -2.1246275901794434, 0.20124109089374542, 2.3646016120910645, -0.01396511, -0.10243724, 0.38796425
502, 1019785593, -2.0918326377868652, 0.10893979668617249, 2.4055747985839844, 0.104429156, 0.13098088, 0.47877407
503, 1019802260, -2.083402395248413, 0.0361454002559185, 2.462383508682251, -0.20168456, -0.37016824, 0.38291836
504, 1019818927, -1.9942671060562134, -0.12842094898223877, 2.406597375869751, -0.27887654, -0.37801525, 0.41252613
505, 1019835594, -1.9127217531204224, -0.26484793424606323, 2.3042101860046387, -0.09254816, 0.14931352, 0.2794056
506, 1019852261, -1.8708182573318481, -0.3559137284755707, 2.148329257965088, -0.105601154, 0.04204093, 0.34170723
507, 1019868928, -1.8016120195388794, -0.4732257127761841, 2.0441157817840576, -0.2335765, 0.0025280293, 0.3424263
508, 1019885595, -1.7110565900802612, -0.625755786895752, 1.9721322059631348, -0.07554453, 0.092430755, 0.32994843
509, 1019902262, -1.6374975442886353, -0.7433426380157471, 1.9073171615600586, -0.15778264, 0.023351992, 0.24205685
510, 1019918929, -1.6113853454589844, -0.7802605628967285, 1.8338569402694702, -0.37099275, 0.057676926, 0.27658463
511, 1019935596, -1.5964621305465698, -0.790319561958313, 1.7970911264419556, -0.015813125, 0.24147172, 0.2980137
512, 1019952263, -1.5993709564208984, -0.7742433547973633, 1.8693655729293823, 0.10830604, 0.22344875, 0.31375027
513, 1019968930, -1.592127799987793, -0.783317506313324, 1.9504495859146118, -0.04883976, -0.0943061, 0.36628342
514, 1019985597, -1.5885258913040161, -0.7880495190620422, 1.9627865552902222, -0.1844463, -0.06292984, 0.33732414
515, 1020002264, -1.651280164718628, -0.7234360575675964, 1.8895370960235596, -0.2842609, 0.08761492, 0.25389004
516, 1020018931, -1.7320724725723267, -0.6491912603378296, 1.847951889038086, -0.08361214, 0.21185486, 0.300869
517, 1020035598, -1.8338021039962769, -0.5567298531532288, 1.835206151008606, -0.13510501, 0.18247679, 0.3800087
518, 1020052265, -1.943683385848999, -0.44744813442230225, 1.8715952634811401, -0.05438928, 0.033020813, 0.3073988
519, 1020068932, -2.0344595909118652, -0.34092986583709717, 1.9369827508926392, -0.06933577, -0.08266699, 0.37497234
520, 1020085599, -2.089611530303955, -0.2624388039112091, 1.9867340326309204, -0.116918266, -0.173202, 0.3853655
521, 1020102266, -2.1222190856933594, -0.21424074470996857, 2.0355377197265625, -0.10272249, -0.09480419, 0.43523502
522, 1020118933, -2.0901689529418945, -0.23288336396217346, 2.0516035556793213, -0.066251025, -0.15643351, 0.27823067
523, 1020135600, -2.042598009109497, -0.2652255594730377, 2.0974035263061523, -0.110742785, -0.0913176, 0.33437347
524, 1020152267, -1.9871009588241577, -0.3227614164352417, 2.155911445617676, -0.039285857, -0.08233833, 0.38811684
525, 1020168934, -1.9434782266616821, -0.3627409338951111, 2.1991679668426514, -0.039559297, -0.0509645, 0.30827808
526, 1020185601, -1.9093283414840698, -0.37799739837646484, 2.2177798748016357, -0.057883944, 0.0073199514, 0.36099243
527, 1020202268, -1.8968502283096313, -0.3710255026817322, 2.2049999237060547, -0.10894432, 0.05369506, 0.4296837
528, 1020218935, -1.8826144933700562, -0.3718845844268799, 2.2160844802856445, -0.10099387, 0.20614679, 0.31136417
529, 1020235602, -1.89866304397583, -0.3474145233631134, 2.212265968322754, -0.09348181, -0.12987193, 0.31328392
530, 1020252269, -1.918020486831665, -0.3196074664592743, 2.1689021587371826, -0.035118088, 0.041577585, 0.34745026
531, 1020268936, -1.94355046749115, -0.28739383816719055, 2.1443464756011963, -0.053259667, -0.0022498115, 0.35189152
532, 1020285603, -1.947870135307312, -0.2874615490436554, 2.1345462799072266, -0.092662685, -0.016089972, 0.32277203
533, 1020302270, -1.9459211826324463, -0.2878461182117462, 2.136594295501709, -0.100161046, -0.030458894, 0.33632755
534, 1020318937, -1.945864200592041, -0.2830030024051666, 2.130856513977051, -0.04460203, 0.019796487, 0.33824253
535, 1020335604, -1.9530014991760254, -0.26956236362457275, 2.125309467315674, -0.009913569, 0.030056946, 0.32657528
536, 1020352271, -1.9579614400863647, -0.26109346747398376, 2.1144328117370605, -0.09874051, -0.078180194, 0.32454205
537, 1020368938, -1.9505908489227295, -0.2737281918525696, 2.106950044631958, -0.04941682, 0.012581279, 0.3678007
538, 1020385605, -1.9314477443695068, -0.30201002955436707, 2.1338469982147217, 0.020348538, 0.035809975, 0.32303333
539, 1020402272, -1.9261112213134766, -0.31144246459007263, 2.1227831840515137, -0.046132974, -0.00634496, 0.31567574
540, 1020418939, -1.9376939535140991, -0.3008514940738678, 2.118713617324829, -0.08979034, 0.067990154, 0.3511076
541, 1020435606, -1.9505690336227417, -0.2863313853740692, 2.110886812210083, -4.8569715E-4, -0.0056415508, 0.33441067
542, 1020452273, -1.9647198915481567, -0.2728177011013031, 2.1076290607452393, 0.09602179, 0.023907505, 0.34955883
543, 1020468940, -1.9716527462005615, -0.2618156373500824, 2.1185665130615234, -0.041134246, -0.049201824, 0.350461
544, 1020485607, -1.9794281721115112, -0.2463388890028, 2.093975782394409, -0.14942327, -0.027021933, 0.33827782
545, 1020502274, -1.9890668392181396, -0.217884361743927, 2.045240879058838, -0.124365546, -0.022394573, 0.32748318
546, 1020518941, -1.9962962865829468, -0.1885705441236496, 1.998428225517273, -0.08823544, -0.01337827, 0.33665466
547, 1020535608, -2.000934362411499, -0.17990314960479736, 1.9861359596252441, 0.07283431, 0.022571862, 0.34261322
548, 1020552275, -1.9963610172271729, -0.19017837941646576, 2.009072780609131, 0.16594101, 0.03599922, 0.3669634
549, 1020568942, -1.9885306358337402, -0.21610452234745026, 2.053539514541626, 0.12692343, -0.0744847, 0.34480953
550, 1020585609, -1.9632182121276855, -0.23986519873142242, 2.0743398666381836, -0.030820068, -0.028906386, 0.33228302
551, 1020602276, -1.9426100254058838, -0.25057753920555115, 2.0931365489959717, -0.12891234, -0.011766169, 0.36379433
552, 1020618943, -1.914298176765442, -0.27885669469833374, 2.1213583946228027, -0.14111882, -0.054372545, 0.3774681
553, 1020635610, -1.8899376392364502, -0.29982587695121765, 2.134493350982666, -0.08699468, 0.090408765, 0.31423187
554, 1020652277, -1.911291480064392, -0.2699151933193207, 2.143491506576538, -0.08719581, 0.18247442, 0.2719803
555, 1020668944, -1.9524277448654175, -0.21964839100837708, 2.128065824508667, -0.044253044, -0.10877637, 0.3835373
556, 1020685611, -1.9809339046478271, -0.18322668969631195, 2.0811331272125244, 0.016404778, -0.06690078, 0.3458004
557, 1020702278, -1.9965571165084839, -0.1622755378484726, 2.056328296661377, -0.06899559, 0.009011358, 0.35327148
558, 1020718945, -1.9899790287017822, -0.17118029296398163, 2.073747158050537, 0.066827536, 0.055071358, 0.36183548
559, 1020735612, -1.9793399572372437, -0.190636545419693, 2.093895673751831, 0.20846528, -0.021305017, 0.3482046
560, 1020752279, -1.9590743780136108, -0.2283179610967636, 2.1226954460144043, 0.2379935, -0.050101407, 0.3405304
561, 1020768946, -1.9386663436889648, -0.2548363208770752, 2.1163790225982666, -0.0043112664, 2.1659803E-4, 0.36607742
562, 1020785613, -1.9242831468582153, -0.26818254590034485, 2.1342880725860596, -0.11982609, 0.031281434, 0.32783222
563, 1020802280, -1.8964630365371704, -0.2937876582145691, 2.148533344268799, -0.14280127, -0.10132525, 0.40451813
564, 1020818947, -1.8471391201019287, -0.3476172983646393, 2.153865337371826, 0.0026696143, -0.020512106, 0.3440895
565, 1020835614, -1.824739694595337, -0.3741322457790375, 2.152891159057617, 0.0083553335, 0.18375821, 0.28752232
566, 1020852281, -1.8514363765716553, -0.3447383940219879, 2.1450319290161133, 2.955819E-4, 0.12032112, 0.3036518
567, 1020868948, -1.885485291481018, -0.3059452474117279, 2.135193109512329, -0.08198402, -0.11754256, 0.38460922
568, 1020885615, -1.8894915580749512, -0.30431681871414185, 2.1281309127807617, -0.111840166, -0.015161526, 0.3391199
569, 1020902282, -1.8903650045394897, -0.30218032002449036, 2.1332361698150635, -0.16946481, -0.025062801, 0.35817528
570, 1020918949, -1.8850476741790771, -0.3074440062046051, 2.1340551376342773, -0.1160132, -0.021303551, 0.33078384
571, 1020935616, -1.8703354597091675, -0.32927557826042175, 2.1355984210968018, -0.076668486, -0.04224012, 0.3526125
572, 1020952283, -1.83637535572052, -0.37906599044799805, 2.1361513137817383, -0.12605721, -0.07515383, 0.38848686
573, 1020968950, -1.771705985069275, -0.4680883586406708, 2.13858699798584, -0.18617648, -0.13777323, 0.40289116
574, 1020985617, -1.6791104078292847, -0.5934935212135315, 2.144998788833618, -0.32755136, -0.035608616, 0.26851463
575, 1021002284, -1.625476598739624, -0.6634962558746338, 2.1532976627349854, -0.21266812, 0.23897119, 0.23933697
576, 1021018951, -1.6202853918075562, -0.6691096425056458, 2.1737003326416016, -0.22183302, 0.076728754, 0.31901455
577, 1021035618, -1.6055022478103638, -0.6848383545875549, 2.1842832565307617, -0.36645994, -0.22052708, 0.38074493
578, 1021052285, -1.5652798414230347, -0.7335782051086426, 2.20043683052063, -0.34242186, 0.017119138, 0.37413406
579, 1021068952, -1.531792402267456, -0.778955340385437, 2.2290501594543457, -0.065628275, 0.07989554, 0.2961464
580, 1021085619, -1.498769760131836, -0.8306937217712402, 2.257236957550049, -0.083908334, -0.15952425, 0.3704815
581, 1021102286, -1.4056247472763062, -0.9475889801979065, 2.2990612983703613, -0.36568105, -0.2303035, 0.37157917
582, 1021118953, -1.281736135482788, -1.0918110609054565, 2.3312366008758545, -0.30223557, -0.049661353, 0.39194775
583, 1021135620, -1.163316249847412, -1.224661946296692, 2.358863592147827, -0.3859177, 0.093766116, 0.26048565
584, 1021152287, -1.1219468116760254, -1.271538257598877, 2.3547680377960205, -0.22380489, 0.37199646, 0.15319538
585, 1021168954, -1.1792045831680298, -1.2047154903411865, 2.3974201679229736, -0.3406355, 0.30496475, 0.2178917
586, 1021185621, -1.2661521434783936, -1.1695280075073242, 2.391477108001709, -0.39984858, -0.20671238, 0.606534
587, 1021202288, -1.2917025089263916, -1.1989526748657227, 2.3416268825531006, 0.039209228, -0.22850582, 0.44927597
588, 1021218955, -1.342911720275879, -1.1765331029891968, 2.2646472454071045, -0.33776742, 0.22070661, 0.19567776
589, 1021235622, -1.5243810415267944, -0.9782237410545349, 2.1168031692504883, -0.2117911, 0.28933743, -0.02725029
590, 1021252289, -1.7988125085830688, -0.6049203872680664, 1.954608678817749, -0.50090986, 0.38883582, 0.39138794
591, 1021268956, -2.0847156047821045, -0.2637275755405426, 1.8378453254699707, -0.46502143, -0.20469908, 0.29798698
592, 1021285623, -2.308232545852661, -0.015047254972159863, 1.7348636388778687, -0.64763063, -0.21643062, 0.43180084
593, 1021302290, -2.3417887687683105, 0.06623606383800507, 1.7105484008789062, -1.094938, -0.23006994, 0.28717136
594, 1021318957, -2.3306920528411865, 0.14897175133228302, 1.7156023979187012, -0.6406185, 0.07371702, 0.47513866
595, 1021335624, -2.2789413928985596, 0.17193661630153656, 1.4834811687469482, -0.19961874, -0.850033, 0.41193867
596, 1021352291, -2.1876108646392822, 0.17873209714889526, 1.2305822372436523, 0.4807466, 0.27686036, 0.30635834
597, 1021368958, -2.149796962738037, 0.20192882418632507, 1.1016247272491455, 0.6493531, 0.49903476, 0.40857792
598, 1021385625, -2.20220685005188, 0.25537604093551636, 1.1702128648757935, 0.23395316, 0.037752163, 0.4225483
599, 1021402292, -2.224350929260254, 0.23311439156532288, 1.3035107851028442, -0.27910042, -0.10150793, 0.25489235
600, 1021418959, -2.233548402786255, 0.18027378618717194, 1.4561660289764404, -0.5202847, -0.07173478, 0.597332
601, 1021435626, -2.253854513168335, 0.10018240660429001, 1.6053276062011719, 0.19814985, 0.16166641, 0.2919693
602, 1021452293, -2.282554864883423, 0.11080525815486908, 1.5988750457763672, -0.23958638, -0.19904454, 0.19602871
603, 1021468960, -2.316603183746338, 0.1624290943145752, 1.545659065246582, -0.3038242, 0.03482297, 0.20546722
604, 1021485627, -2.3118739128112793, 0.2773517370223999, 1.416326880455017, -0.07175301, -0.22605355, 0.27805042
605, 1021502294, -2.2682418823242188, 0.34345898032188416, 1.264562964439392, -0.04364591, -0.030279774, 0.31006908
606, 1021518961, -2.2011990547180176, 0.37672287225723267, 1.179152011871338, -0.78980756, -0.47010726, 0.76451015
607, 1021535628, -1.9336591958999634, 0.19096766412258148, 0.9824660420417786, -0.43190306, -0.21541099, 0.015845299
608, 1021552295, -1.7072635889053345, 0.07026617228984833, 0.8106671571731567, 0.15699458, -0.43712777, -0.097681046
609, 1021568962, -1.4779549837112427, -0.12130355089902878, 0.7582985758781433, 0.7209586, 1.4699689, 0.8659792
610, 1021585629, -1.480851411819458, -0.21226835250854492, 0.9093621373176575, 0.5850839, 0.07949919, 0.44137
611, 1021602296, -1.4746414422988892, -0.3370783030986786, 1.0102618932724, -0.1689977, -0.08734427, 0.67581177
612, 1021618963, -1.4770221710205078, -0.5537012219429016, 1.1228814125061035, 0.15858191, -0.068339616, 0.45729923
613, 1021635630, -1.4829820394515991, -0.5943594574928284, 1.1013683080673218, -0.4245995, 0.09585508, -0.0015277863
614, 1021652297, -1.5584497451782227, -0.5804063677787781, 1.0867218971252441, -0.10552792, 0.4325083, 1.0871887E-4
615, 1021668964, -1.6884679794311523, -0.4299268126487732, 1.087167739868164, -0.108637065, -0.25478086, 0.33222675
616, 1021685631, -1.7626672983169556, -0.2278231978416443, 1.0428745746612549, -0.19283047, -0.060775142, 0.18591595
617, 1021702298, -1.7545009851455688, -0.23618511855602264, 1.0334525108337402, -0.3850997, -0.32940343, 0.7500763
618, 1021718965, -1.7033220529556274, -0.31065860390663147, 0.9981352686882019, 0.32810965, 0.07760818, 0.26460743
619, 1021735632, -1.7318669557571411, -0.27101635932922363, 0.9188225865364075, -0.078217246, 0.15103528, 0.29637146
620, 1021752299, -1.7556514739990234, -0.31513822078704834, 0.8353264331817627, -0.22719724, 0.15232728, 0.33275604
621, 1021768966, -1.7666149139404297, -0.32741668820381165, 0.7334116101264954, -0.038553566, -0.17809701, 0.27259827
622, 1021785633, -1.8723400831222534, -0.36776089668273926, 0.7120446562767029, -0.14243308, 0.5526432, 0.7429285
623, 1021802300, -1.8812655210494995, -0.48539236187934875, 0.8002052903175354, 0.4152218, -0.52458674, 0.2847643
624, 1021818967, -1.830604910850525, -0.5778153538703918, 0.8275169730186462, -0.09163085, -0.19032274, 0.29776
625, 1021835634, -1.7602206468582153, -0.6680676937103271, 0.8207291960716248, -0.24059188, -0.15493709, 0.28633785
626, 1021852301, -1.70762038230896, -0.7013823986053467, 0.7194963693618774, -0.53333753, 0.0771043, 0.10876846
627, 1021868968, -1.6991750001907349, -0.678848922252655, 0.6893061399459839, -0.094087206, 0.11708444, 0.13346481
628, 1021885635, -1.7511652708053589, -0.5476129055023193, 0.6806853413581848, 0.29551515, 0.30210677, 0.41284657
629, 1021902302, -1.8106746673583984, -0.5238199234008789, 0.7737760543823242, 0.4367114, 0.28030455, 0.5540743
630, 1021918969, -1.7933293581008911, -0.5593047738075256, 0.9514504075050354, 0.3468354, -0.06972108, 0.37963867
631, 1021935636, -1.742431879043579, -0.6053491234779358, 1.105546236038208, -0.1310144, -0.32981706, 0.26196575
632, 1021952303, -1.785521388053894, -0.7215134501457214, 1.2289994955062866, -0.1713536, -0.12159855, 0.8148165
633, 1021968970, -1.7128807306289673, -0.848455548286438, 1.217673659324646, 0.43876478, -0.11140541, 0.07892132
634, 1021985637, -1.7861881256103516, -0.7774627208709717, 1.1522361040115356, -0.13381144, 0.3166237, -0.005092621
635, 1022002304, -2.0289106369018555, -0.5111402273178101, 1.025355577468872, 0.006669438, 0.26326886, 0.09457302
636, 1022018971, -2.3829619884490967, 0.04273970425128937, 0.7793426513671875, 0.02322737, 0.12305235, -0.027005196
637, 1022035638, -2.498802900314331, 0.31690481305122375, 0.44429799914360046, -1.0309415, -1.3886905, 1.3386316
638, 1022052305, -2.3787503242492676, 0.2814371883869171, 0.07563374191522598, 0.8953007, 0.42933023, -0.08820534
639, 1022068972, -2.2794463634490967, 0.29662057757377625, -0.1644938588142395, 0.68854976, 0.61888754, 0.64734745
640, 1022085639, -2.2557213306427, 0.2804379463195801, -0.32463857531547546, -0.1040671, 0.34426773, 0.61612797
641, 1022102306, -2.250648021697998, 0.2786881923675537, -0.5634881854057312, 0.092603125, -0.10630807, -0.18244839
642, 1022118973, -2.2968335151672363, 0.26003992557525635, -0.7716286778450012, -0.4125728, -0.14408593, 0.8714676
643, 1022135640, -2.414715051651001, 0.2123432755470276, -0.8977020382881165, 0.6254335, -0.022621984, 0.2332859
644, 1022152307, -2.5201637744903564, 0.30054840445518494, -0.9289135336875916, 0.560852, -0.19437686, 0.19025517
645, 1022168974, -2.566282033920288, 0.3974570631980896, -1.0611543655395508, -0.1761538, -0.14444853, 0.2784624
646, 1022185641, -2.506713390350342, 0.38722896575927734, -1.1350021362304688, -0.06585635, -0.0022264684, 0.38733292
647, 1022202308, -2.4392201900482178, 0.3883173167705536, -1.1953974962234497, 0.27155957, 0.2528166, 0.2049303
648, 1022218975, -2.371861696243286, 0.44441792368888855, -1.2298611402511597, 0.009587366, 0.09570185, 0.41983795
649, 1022235642, -2.0612053871154785, 0.20383577048778534, -1.3558695316314697, -0.31317627, -0.753134, 0.4023409
650, 1022252309, -1.8323732614517212, 0.10959892719984055, -1.6378666162490845, 0.2882617, -0.16320448, 0.19156933
651, 1022268976, -1.6004183292388916, -0.03581776097416878, -1.7889598608016968, 0.48253056, 0.56496215, 0.38009167
652, 1022285643, -1.5355448722839355, -0.09124834090471268, -1.6920057535171509, 0.49240822, 0.4319266, 0.51053905
653, 1022302310, -1.5162725448608398, -0.1628180295228958, -1.6478970050811768, 0.124814525, -0.13975154, 0.419281
654, 1022318977, -1.5106924772262573, -0.19137771427631378, -1.657111644744873, 0.11153908, -0.068031296, 0.39492226
655, 1022335644, -1.5379856824874878, -0.2701627314090729, -1.5767276287078857, 0.4741697, 0.31440946, 0.52146435
656, 1022352311, -1.5812289714813232, -0.376735657453537, -1.3966456651687622, 0.0228785, 0.15744573, 0.23637676
657, 1022368978, -1.614917278289795, -0.45074570178985596, -1.2758010625839233, 0.06747589, -0.60842615, 0.29976368
658, 1022385645, -1.5444536209106445, -0.5487551093101501, -1.2877532243728638, 0.2409326, -0.15871003, 0.43158722
659, 1022402312, -1.4300096035003662, -0.6995615363121033, -1.2120667695999146, 0.13448572, 0.12306313, 0.3133459
660, 1022418979, -1.3741185665130615, -0.7633508443832397, -1.1405683755874634, 0.2671377, -0.0695075, 0.2043705
661, 1022435646, -1.2942899465560913, -0.8168097734451294, -1.0235912799835205, 0.1407139, 0.009639297, 0.38006687
662, 1022452313, -1.1300827264785767, -0.9485001564025879, -0.9168359637260437, 0.026579294, -0.432103, 0.32376194
663, 1022468980, -0.9105403423309326, -1.1454163789749146, -0.8554162979125977, -0.073490284, -0.029980903, 0.4567232
664, 1022485647, -0.7625052332878113, -1.2912769317626953, -0.7923721075057983, 0.43086287, 0.4384833, 0.21130085
665, 1022502314, -0.7624525427818298, -1.3201102018356323, -0.6593376994132996, 0.072583206, 0.5176001, 0.28640842
666, 1022518981, -0.8742924928665161, -1.263168215751648, -0.3787330687046051, 0.1541831, 0.23048829, 0.17808914
667, 1022535648, -0.9366168975830078, -1.2117940187454224, -0.2634713649749756, -0.28665042, -0.6396179, 0.50959396
668, 1022552315, -0.9248033761978149, -1.2210354804992676, -0.2904673218727112, 0.054209, 0.03042167, 0.19406414
669, 1022568982, -0.9630271196365356, -1.1446125507354736, -0.29170623421669006, 0.29367006, 0.12854621, 0.29909515
670, 1022585649, -1.0144649744033813, -1.0645904541015625, -0.2755716145038605, 0.3093355, 0.19312654, 0.35052967
671, 1022602316, -1.0722883939743042, -1.0072637796401978, -0.18994668126106262, 0.16191402, 0.033184666, 0.39433575
672, 1022618983, -1.1189810037612915, -0.9765518307685852, -0.13429397344589233, -0.035453144, -0.22035053, 0.3522339
673, 1022635650, -1.1429203748703003, -0.9772578477859497, -0.12866376340389252, -0.07894507, -0.07240136, 0.36357307
674, 1022652317, -1.1676855087280273, -0.9678878784179688, -0.11983129382133484, 0.06703018, 0.044935707, 0.31377888
675, 1022668984, -1.1644806861877441, -0.9807036519050598, -0.10010544955730438, -0.15487534, -0.22702432, 0.41738796
676, 1022685651, -1.1158109903335571, -1.059871792793274, -0.06755620241165161, 0.20737956, 0.083657615, 0.40084362
677, 1022702318, -1.097720980644226, -1.1298009157180786, 0.008104176260530949, 0.28444222, 0.1860184, 0.38184357
678, 1022718985, -1.0820777416229248, -1.2169702053070068, 0.1075415387749672, 0.0019708814, 0.07297538, 0.44159317
679, 1022735652, -1.1191011667251587, -1.2556440830230713, 0.17636822164058685, -0.11329581, -0.13895698, 0.29270172
680, 1022752319, -1.144290804862976, -1.3056814670562744, 0.20213478803634644, 0.09994011, 0.033461466, 0.26747513
681, 1022768986, -1.1424614191055298, -1.360718846321106, 0.22725269198417664, 0.07345844, -0.34398213, 0.46059513
682, 1022785653, -1.1194149255752563, -1.4042710065841675, 0.20175722241401672, 0.11694529, 0.027102768, 0.27999973
683, 1022802320, -1.1193488836288452, -1.4116064310073853, 0.16641142964363098, 0.28411174, 0.036215086, 0.25248337
684, 1022818987, -1.1166988611221313, -1.4230560064315796, 0.13133248686790466, 0.18217419, -0.04895364, 0.37424564
685, 1022835654, -1.1090000867843628, -1.435612440109253, 0.09076111763715744, 0.10331733, 0.031558912, 0.3741064
686, 1022852321, -1.0933605432510376, -1.4587457180023193, 0.056405697017908096, 0.12526686, -0.009146751, 0.43683815
687, 1022868988, -1.0758864879608154, -1.4797160625457764, 0.030163129791617393, 0.23172013, -0.0015294154, 0.29779243
688, 1022885655, -1.046543002128601, -1.516703486442566, 0.0013061943463981152, 0.20472392, -0.009839445, 0.34082127
689, 1022902322, -1.0145769119262695, -1.5513403415679932, 0.007193894125521183, 0.08725542, 0.092268236, 0.3282814
690, 1022918989, -0.9800060987472534, -1.5887502431869507, 0.03884917497634888, 0.14016527, 0.070949994, 0.36319733
691, 1022935656, -0.9789451956748962, -1.5840058326721191, 0.045199308544397354, 0.050549146, 0.061072994, 0.3368311
692, 1022952323, -0.9720309376716614, -1.5925434827804565, 0.07077512890100479, 0.17856748, 0.025552532, 0.3438549
693, 1022968990, -0.9638006687164307, -1.5992956161499023, 0.09594761580228806, 0.020177562, -0.04175315, 0.33405876
694, 1022985657, -0.9548248052597046, -1.6060081720352173, 0.11311367154121399, -0.16760364, -0.029156929, 0.35148907
695, 1023002324, -0.9485268592834473, -1.6118438243865967, 0.12151326984167099, 0.053356063, -0.009108509, 0.35223198
696, 1023018991, -0.9422106146812439, -1.618718147277832, 0.1292378306388855, 0.20987332, 0.014253261, 0.32530403
697, 1023035658, -0.9381582736968994, -1.6221626996994019, 0.14142122864723206, 0.17796712, -0.025457267, 0.37402916
698, 1023052325, -0.9366703629493713, -1.6151779890060425, 0.14249326288700104, 0.020862363, -0.03157539, 0.34437656
699, 1023068992, -0.9487115740776062, -1.5826506614685059, 0.14228256046772003, 0.2564253, 0.12957078, 0.306839
700, 1023085659, -1.0820496082305908, -1.3979886770248413, 0.129498690366745, 0.58700615, 0.38138342, 0.14957142
701, 1023102326, -1.478334903717041, -0.9189082384109497, 0.17105472087860107, 0.9594262, 0.75549453, -0.112508774
702, 1023118993, -2.092280626296997, -0.19815197587013245, 0.1749088615179062, 0.14100775, 0.8414173, 0.26303864
703, 1023135660, -2.518448829650879, 0.4712933599948883, 0.09364938735961914, -0.73350364, -2.0957263, 1.1967764
704, 1023152327, -2.427234172821045, 0.22959788143634796, 0.027475209906697273, -1.0737761, -0.776402, 0.3992834
705, 1023168994, -2.3543167114257812, 0.1403045356273651, -0.012854683212935925, 0.3366546, 0.93067557, 0.27756596
706, 1023185661, -2.4256043434143066, 0.22890016436576843, 0.0018342651892453432, 0.3119132, 0.11346565, 0.26242256
707, 1023202328, -2.433868169784546, 0.2568277418613434, -0.005942613817751408, -0.3824515, -0.27045414, 0.38291645
708, 1023218995, -2.421201229095459, 0.22440002858638763, 0.00375388259999454, 0.13646382, -0.007892117, 0.31787777
709, 1023235662, -2.4301459789276123, 0.24129825830459595, 0.002972405171021819, 0.056886096, 0.052891884, 0.3218298
710, 1023252329, -2.4273202419281006, 0.23477983474731445, 0.00267756637185812, -0.120095044, -0.03904235, 0.3665638
711, 1023268996, -2.427377939224243, 0.2355465143918991, 0.002123730955645442, 0.10211404, 0.06348378, 0.3334093
712, 1023285663, -2.428391456604004, 0.23805095255374908, 0.0026045653503388166, -0.06782381, -0.033255626, 0.35197926
713, 1023302330, -2.4264321327209473, 0.23583076894283295, 0.002049589529633522, 0.06350057, 0.034305453, 0.33465004
714, 1023318997, -2.428948163986206, 0.24007010459899902, 0.0013303805608302355, -0.0472541, -0.018765729, 0.3344717
715, 1023335664, -2.428192377090454, 0.23696359992027283, 6.885119364596903E-4, 0.027257582, 0.024953838, 0.33407974
716, 1023352331, -2.4289121627807617, 0.23906096816062927, 2.0300930191297084E-4, -0.0060736835, 0.0044685267, 0.34481812
717, 1023368998, -2.428260564804077, 0.23520813882350922, 9.526366193313152E-5, -7.8117254E-4, 0.0059638144, 0.34826183
718, 1023385665, -2.428957939147949, 0.23575985431671143, 4.170501488260925E-4, -0.004471073, -0.0058684163, 0.3188715
719, 1023402332, -2.429114818572998, 0.23441559076309204, 3.4752493957057595E-4, -0.0123855965, -0.0061759003, 0.33760834
720, 1023418999, -2.4294121265411377, 0.2353532761335373, -2.6807913673110306E-4, -0.0035554538, -0.00616337, 0.35838985
721, 1023435666, -2.430152416229248, 0.23466075956821442, -1.2147743109380826E-4, 0.0043489337, 0.002654775, 0.3433237
722, 1023452333, -2.4318106174468994, 0.23467183113098145, 6.539123132824898E-4, -0.010662848, 0.004237931, 0.34478664
723, 1023469000, -2.432725429534912, 0.2337903082370758, 0.0015661271754652262, -0.00293443, 0.011111681, 0.353961
724, 1023485667, -2.4326841831207275, 0.2335812896490097, 0.0018161337357014418, -0.0031877784, 0.008773903, 0.3477764
725, 1023502334, -2.4332029819488525, 0.2340698093175888, 0.002055698074400425, -0.003240201, 0.0106198825, 0.36502934
726, 1023519001, -2.4334962368011475, 0.23403264582157135, 0.002831417368724942, -0.008374234, 0.003955313, 0.35901928
727, 1023535668, -2.433800458908081, 0.23410390317440033, 0.0022384400945156813, -0.016400121, 9.3094545E-4, 0.34992504
728, 1023552335, -2.433593988418579, 0.23363535106182098, 0.0035253497771918774, 0.004341353, 0.0039546145, 0.3343773
729, 1023569002, -2.4332096576690674, 0.2337043732404709, 0.0030912025831639767, -0.007307564, 0.0050816927, 0.36502266
730, 1023585669, -2.432941436767578, 0.2336074411869049, 0.002506015822291374, -0.012360039, 0.010824034, 0.36313915
731, 1023602336, -2.4348840713500977, 0.23370642960071564, 0.002881778636947274, -0.012528607, 0.0041239955, 0.35129833
732, 1023619003, -2.436112642288208, 0.23407311737537384, 6.416878313757479E-4, 0.0032466147, 0.011664876, 0.32794094
733, 1023635670, -2.4371047019958496, 0.23491676151752472, 0.0018847460160031915, 0.006308948, -0.0042067235, 0.3366909
734, 1023652337, -2.43727445602417, 0.23616449534893036, 7.714582607150078E-4, 0.010789665, 0.01202638, 0.3273325
735, 1023669004, -2.4376449584960938, 0.23600496351718903, 9.155137231573462E-4, 0.0077177496, -0.002931135, 0.3413849
736, 1023685671, -2.438126802444458, 0.23618069291114807, 0.0012465405743569136, -0.0062200828, 0.015206536, 0.34185505
737, 1023702338, -2.437465190887451, 0.23634818196296692, 3.713011974468827E-4, -0.0041333693, 0.007065035, 0.34080696
738, 1023719005, -2.4371607303619385, 0.23628348112106323, -1.7188589845318347E-4, 0.0080977315, 0.015905602, 0.33197117
739, 1023735672, -2.4371328353881836, 0.2369827777147293, -6.597723695449531E-4, 4.1040994E-4, 0.005604308, 0.3333664
740, 1023752339, -2.4374401569366455, 0.23658399283885956, -0.0014196692500263453, 0.0016849472, 0.017551746, 0.37635517
741, 1023769006, -2.437655210494995, 0.23699310421943665, -0.002024248242378235, -0.0061220094, 0.011692591, 0.34668064
742, 1023785673, -2.4375879764556885, 0.23728421330451965, -0.0018380437977612019, 0.0062440247, 0.011724261, 0.3437128
743, 1023802340, -2.4373013973236084, 0.23750345408916473, -0.002918653190135956, -0.011897998, 0.0022090764, 0.35033894
744, 1023819007, -2.438220262527466, 0.23847068846225739, -0.002873827237635851, 0.0051712063, 0.009966093, 0.33828068
745, 1023835674, -2.43843150138855, 0.23750872910022736, -0.003862914862111211, -0.0041929563, 0.012673478, 0.34998512
746, 1023852341, -2.4390575885772705, 0.2385903298854828, -0.002240133471786976, 0.003368866, 0.008341531, 0.33460712
747, 1023869008, -2.438241481781006, 0.23827394843101501, -0.002950988942757249, -0.017656215, 0.0077532455, 0.3555727
748, 1023885675, -2.43808913230896, 0.2374161034822464, -0.0030600496102124453, 0.004236945, 0.005133925, 0.3233633
749, 1023902342, -2.4372215270996094, 0.23805323243141174, -0.0022925357334315777, -0.008010582, 0.0037393437, 0.3231449
750, 1023919009, -2.4368231296539307, 0.23756104707717896, -0.002012756420299411, -2.4075489E-4, 0.009828032, 0.36020088
751, 1023935676, -2.4371395111083984, 0.2382889986038208, -0.002489721169695258, 0.0077375593, 0.005375459, 0.32600784
752, 1023952343, -2.4369394779205322, 0.2397390604019165, -0.0020319875329732895, -0.002989444, -0.001146803, 0.34970093
753, 1023969010, -2.4366819858551025, 0.2406381070613861, -0.001822117599658668, -0.004923769, 0.0020809057, 0.34984398
754, 1023985677, -2.436972141265869, 0.2404959797859192, -4.4461945071816444E-4, 0.013321153, -0.0034427422, 0.3320799
755, 1024002344, -2.4362311363220215, 0.24001973867416382, 1.3119592040311545E-4, -0.0037512248, 0.007874641, 0.34841347
756, 1024019011, -2.4354214668273926, 0.2394195795059204, 0.0011350730201229453, -0.0017488841, 0.0015418762, 0.3566103
757, 1024035678, -2.4353482723236084, 0.24030809104442596, 3.7038043956272304E-4, -0.014626974, 0.0058630942, 0.34609604
758, 1024052345, -2.435584545135498, 0.2404680997133255, 7.484316593036056E-4, 0.0024759944, 0.01021566, 0.3480873
759, 1024069012, -2.435281991958618, 0.24074333906173706, -2.200691815232858E-4, -0.014773739, 0.0027179734, 0.34266758
760, 1024085679, -2.434880256652832, 0.23987501859664917, -7.167146541178226E-4, 0.0034172267, 0.0063511487, 0.33071804
761, 1024102346, -2.4359405040740967, 0.24017013609409332, -9.173844591714442E-4, -0.0075286916, 0.004688394, 0.33516884
762, 1024119013, -2.4364089965820312, 0.240431547164917, -6.705461419187486E-4, 0.0014775202, -0.002468477, 0.32134533
763, 1024135680, -2.435793161392212, 0.24072754383087158, -0.0013880397891625762, -7.4131216E-4, 0.017108897, 0.3286085
764, 1024152347, -2.4365427494049072, 0.24210572242736816, -0.001837936812080443, -0.0022936235, 0.0070822733, 0.35438728
765, 1024169014, -2.4354069232940674, 0.24312807619571686, -0.0033722955267876387, 0.007619657, -0.004543208, 0.32196045
766, 1024185681, -2.435187339782715, 0.24232055246829987, -0.003072065534070134, 0.0021241938, 0.0049857497, 0.3629961
767, 1024202348, -2.43533992767334, 0.2446383535861969, -0.0031577006448060274, 0.008826279, 0.008975862, 0.33516407
768, 1024219015, -2.435551643371582, 0.24328981339931488, -0.003135687904432416, -0.001062041, 0.0078658955, 0.34457207
769, 1024235682, -2.4357049465179443, 0.2431327998638153, -0.0016306432662531734, 0.0019765217, 0.005173822, 0.3542738
770, 1024252349, -2.435842752456665, 0.24263545870780945, -0.001501266029663384, 0.0015088469, -0.0016197006, 0.32578564
771, 1024269016, -2.4361841678619385, 0.24252228438854218, -0.0026023362297564745, -0.0020236496, -0.007141812, 0.3518381
772, 1024285683, -2.436495304107666, 0.2437029927968979, -0.0036144673358649015, 0.012030723, 0.013103796, 0.35971355
773, 1024302350, -2.436194658279419, 0.24366532266139984, -0.004143851809203625, -0.0026450262, 0.01971376, 0.33824444
774, 1024319017, -2.4359829425811768, 0.2450588196516037, -0.004646311514079571, -0.0012999059, 0.001972851, 0.32087326
775, 1024335684, -2.435734987258911, 0.2450961321592331, -0.005126541946083307, -0.011628691, -0.0135995755, 0.33368492
776, 1024352351, -2.435844898223877, 0.24634230136871338, -0.0051668263040483, -0.0070862756, 0.017558591, 0.33661652
777, 1024369018, -2.4350671768188477, 0.24665987491607666, -0.005738671403378248, -0.004285213, 0.003897577, 0.35731125
778, 1024385685, -2.4347689151763916, 0.24594655632972717, -0.005899644922465086, -0.007384264, -0.0065254746, 0.35232162
779, 1024402352, -2.434697389602661, 0.24613918364048004, -0.005627424456179142, -0.018247372, -0.0023256524, 0.34199524
780, 1024419019, -2.4339303970336914, 0.2453736960887909, -0.007051777094602585, -0.004403586, 0.0022189948, 0.33988762
781, 1024435686, -2.4342005252838135, 0.2463785856962204, -0.00720118498429656, 3.0651136E-4, 0.016748887, 0.36027145
782, 1024452353, -2.433391571044922, 0.2471356987953186, -0.00668974407017231, -0.006285944, 0.0067027765, 0.3319912
783, 1024469020, -2.432809352874756, 0.24608883261680603, -0.007080768700689077, 0.015954237, 0.0055604717, 0.34896183
784, 1024485687, -2.431159496307373, 0.24469876289367676, -0.005370426457375288, 0.0048232507, -5.307734E-4, 0.35109615
785, 1024502354, -2.431574583053589, 0.243545264005661, -0.005324126221239567, -0.0023611332, -0.0010723174, 0.33445168
786, 1024519021, -2.4320454597473145, 0.24432365596294403, -0.00463926000520587, -0.00934644, 0.0028114577, 0.35187244
787, 1024535688, -2.432483434677124, 0.24460428953170776, -0.004692955408245325, -0.0074644666, 0.0015037393, 0.34245682
788, 1024552355, -2.4333717823028564, 0.2458430528640747, -0.005596648436039686, -0.0043090573, 0.016196698, 0.34911823
789, 1024569022, -2.4350757598876953, 0.24541909992694855, -0.006435431074351072, -0.010295912, -0.0024094975, 0.3474369
790, 1024585689, -2.435664176940918, 0.24617323279380798, -0.005890158005058765, 0.001000086, -0.0047637317, 0.3614607
791, 1024602356, -2.4347972869873047, 0.2460663765668869, -0.007429696619510651, -0.0057419534, 0.0022103614, 0.33565235
792, 1024619023, -2.4360294342041016, 0.2463405877351761, -0.007318422663956881, -0.006957359, 0.013498311, 0.3290434
793, 1024635690, -2.435988664627075, 0.24675168097019196, -0.007593259681016207, 0.0012346908, -0.010662965, 0.34981918
794, 1024652357, -2.435680389404297, 0.24666547775268555, -0.00813213363289833, 0.010085018, 7.546496E-4, 0.3564415
795, 1024669024, -2.436314105987549, 0.24725186824798584, -0.008154435083270073, 0.004886227, 0.010502846, 0.3333578
796, 1024685691, -2.436008930206299, 0.24681320786476135, -0.007866080850362778, -0.0024653096, 0.006558988, 0.34109688
797, 1024702358, -2.4364914894104004, 0.24829496443271637, -0.00812601763755083, -0.010620772, 0.0051349727, 0.35307407
798, 1024719025, -2.436199426651001, 0.24774867296218872, -0.007967463694512844, 0.009542395, 0.0081624, 0.35674763
799, 1024735692, -2.4363651275634766, 0.24739082157611847, -0.00852193497121334, -0.010172344, -0.008703343, 0.36506653
800, 1024752359, -2.435957431793213, 0.24685174226760864, -0.008092815987765789, 0.021230504, 0.014853302, 0.3408785
801, 1024769026, -2.4364097118377686, 0.24702604115009308, -0.008130933158099651, 0.0029269843, -0.0038240133, 0.36447716
802, 1024785693, -2.436479330062866, 0.246309295296669, -0.008916049264371395, -3.4652714E-4, 0.0036414731, 0.33606052
803, 1024802360, -2.4363486766815186, 0.2459169328212738, -0.00983994547277689, -0.0046444926, -0.002081744, 0.35916996
804, 1024819027, -2.4370696544647217, 0.24478304386138916, -0.010020457208156586, 0.0014996235, 0.0042517055, 0.36276627
805, 1024835694, -2.437455177307129, 0.2462177574634552, -0.010346602648496628, -0.010658777, -0.006856274, 0.3242483
806, 1024852361, -2.4370651245117188, 0.245344877243042, -0.010029545053839684, 0.012536482, -0.0037976527, 0.33168602
807, 1024869028, -2.4367244243621826, 0.2439233511686325, -0.010698581114411354, -0.010630056, 0.0111153275, 0.3647051
808, 1024885695, -2.4350929260253906, 0.2436964511871338, -0.010163763538002968, 0.0044465596, 0.0011202889, 0.35364342
809, 1024902362, -2.4356839656829834, 0.2434505671262741, -0.009743933565914631, 0.0055722147, -0.008238659, 0.33472157
810, 1024919029, -2.4355831146240234, 0.24373212456703186, -0.010544619522988796, -0.004317982, -0.0010090353, 0.33081913
811, 1024935696, -2.435600519180298, 0.2440187782049179, -0.009678076952695847, -0.008073783, 0.0049244375, 0.3236313
812, 1024952363, -2.435366630554199, 0.24386240541934967, -0.009474196471273899, 0.0034471739, 0.006733677, 0.34143925
813, 1024969030, -2.435347557067871, 0.2442195862531662, -0.01059812679886818, -0.002920829, -0.01079868, 0.34813023
814, 1024985697, -2.4360225200653076, 0.2442988008260727, -0.010004119947552681, 0.014504428, -0.0012378288, 0.36277676
815, 1025002364, -2.43607759475708, 0.2438136637210846, -0.010359452106058598, 0.0073861517, 0.008059304, 0.34113503
816, 1025019031, -2.4363389015197754, 0.24431928992271423, -0.009629770182073116, 0.0012848416, 0.009736392, 0.36198902
817, 1025035698, -2.4368581771850586, 0.24157080054283142, -0.008959452621638775, -0.006996516, -0.0030087777, 0.35848904
818, 1025052365, -2.43609356880188, 0.24314579367637634, -0.009137519635260105, 0.002872428, 2.624042E-4, 0.31854248
819, 1025069032, -2.4364871978759766, 0.24410437047481537, -0.008998813107609749, -0.003337527, 0.001994043, 0.3266678
820, 1025085699, -2.437103748321533, 0.24460993707180023, -0.009561222977936268, 0.002903009, 0.02056329, 0.33392906
821, 1025102366, -2.437932252883911, 0.24467141926288605, -0.011089825071394444, -0.010268363, 0.014404264, 0.36596298
822, 1025119033, -2.437119722366333, 0.2449807971715927, -0.010006777942180634, 0.006030909, -0.0059776306, 0.32953167
823, 1025135700, -2.4367010593414307, 0.245914027094841, -0.010062693618237972, -0.0015213811, -0.0050070253, 0.32359028
824, 1025152367, -2.436831474304199, 0.24687430262565613, -0.0101853609085083, 0.002610937, -0.0017657384, 0.31872845
825, 1025169034, -2.4373910427093506, 0.24739927053451538, -0.010337145999073982, -0.0036996459, 0.008630576, 0.3231907
826, 1025185701, -2.437152862548828, 0.24569427967071533, -0.010634572245180607, 0.0031212885, -0.0060606794, 0.33235645
827, 1025202368, -2.4380080699920654, 0.24396374821662903, -0.011324860155582428, 0.006439436, -0.0036180043, 0.32000637
828, 1025219035, -2.437610626220703, 0.24296829104423523, -0.01266427431255579, -0.007439966, 0.0064470777, 0.33855438
829, 1025235702, -2.4381978511810303, 0.24100829660892487, -0.013984402641654015, 0.00219214, -0.0025252213, 0.34117222
830, 1025252369, -2.437730550765991, 0.24172386527061462, -0.015179390087723732, 0.0025098252, -0.0027159199, 0.3436594
831, 1025269036, -2.4364240169525146, 0.23998670279979706, -0.015931997448205948, 0.00804697, -0.011384437, 0.34589577
832, 1025285703, -2.4358410835266113, 0.23941171169281006, -0.017060520127415657, -0.00728211, -3.852665E-4, 0.34237194
833, 1025302370, -2.435452699661255, 0.23980417847633362, -0.01781894639134407, -0.010434193, 0.003616789, 0.35935593
834, 1025319037, -2.4341390132904053, 0.23943495750427246, -0.017552411183714867, 0.009538225, 0.007708054, 0.3421812
835, 1025335704, -2.432905912399292, 0.24069318175315857, -0.018716352060437202, -7.703252E-4, 0.014575881, 0.3321085
836, 1025352371, -2.4334235191345215, 0.2411898523569107, -0.01929738186299801, 0.0066180774, 0.00839924, 0.34245205
837, 1025369038, -2.434542179107666, 0.2426459938287735, -0.018560253083705902, -0.008178763, 0.001243668, 0.32750893
838, 1025385705, -2.4356441497802734, 0.24324333667755127, -0.019506841897964478, 0.0020294068, 0.0059055756, 0.3443117
839, 1025402372, -2.4362969398498535, 0.2422817498445511, -0.02019185572862625, -0.0023022306, 0.0050681704, 0.3370161
840, 1025419039, -2.4296681880950928, 0.23360967636108398, 0.004915918689221144, -0.004673586, 0.01591063, 0.3462
841, 1025435706, -2.429616928100586, 0.23367750644683838, 0.00481927115470171, -0.005830608, 0.006162937, 0.34484863
842, 1025452373, -2.4301092624664307, 0.23472481966018677, 0.00528928404673934, 0.0017749252, 0.0050831456, 0.34605885
843, 1025469040, -2.43115496635437, 0.23268230259418488, 0.005282214842736721, -0.0013985345, -8.9402386E-4, 0.33956432
844, 1025485707, -2.431455373764038, 0.2317986637353897, 0.003988578449934721, -5.243701E-4, 0.0036389586, 0.33320045
845, 1025502374, -2.4321367740631104, 0.23168519139289856, 0.003530891379341483, -0.0013504198, -6.922755E-4, 0.336421
846, 1025519041, -2.4320571422576904, 0.2302483767271042, 0.0023062697146087885, 7.959593E-4, -0.0029830877, 0.33516598
847, 1025535708, -2.432422161102295, 0.23027551174163818, 0.0015467267949134111, 0.0019684315, 0.0033132862, 0.37275028
848, 1025552375, -2.4329075813293457, 0.23008941113948822, 0.0017035595374181867, -3.7380796E-5, 0.0037385474, 0.33337593
849, 1025569042, -2.4316816329956055, 0.2296840250492096, 0.0017116155941039324, -0.011563492, 0.0022705004, 0.34074974
850, 1025585709, -2.432048797607422, 0.22963467240333557, 0.0017673576949164271, -0.00154657, 0.006412866, 0.35865498
851, 1025602376, -2.431485414505005, 0.2301463484764099, 0.0016730126226320863, -0.0032675061, -0.011056655, 0.34975243
852, 1025619043, -2.4310734272003174, 0.22937175631523132, 0.001088107586838305, -0.008381376, 0.0045767073, 0.3541069
853, 1025635710, -2.4320220947265625, 0.22775940597057343, 0.001146152033470571, -0.024043357, 0.0054263077, 0.34067345
854, 1025652377, -2.432461738586426, 0.22767744958400726, 0.0019484630320221186, -0.0043017706, 0.004175781, 0.34974098
855, 1025669044, -2.432830333709717, 0.22710809111595154, 0.0016776343109086156, 0.0151504, 8.4967056E-4, 0.34458828
856, 1025685711, -2.43188738822937, 0.22628094255924225, 0.0016025765798985958, 0.009783279, -0.005648396, 0.33420086
857, 1025702378, -2.4323480129241943, 0.22682754695415497, 0.0017928235465660691, -0.0031795695, 0.013588862, 0.35617542
858, 1025719045, -2.431981086730957, 0.22743700444698334, 6.959920865483582E-4, 0.0023895649, -0.0066686207, 0.3589077
859, 1025735712, -2.432548761367798, 0.2263755202293396, 4.0569232078269124E-4, 0.0050798943, 0.009759554, 0.35450268
860, 1025752379, -2.4328935146331787, 0.22556358575820923, -2.8513257348095067E-5, 0.010383614, 8.230865E-4, 0.353405
861, 1025769046, -2.4333126544952393, 0.22568711638450623, -2.678964228834957E-4, -0.0035154084, 0.0074392795, 0.33225727
862, 1025785713, -2.433701515197754, 0.22533506155014038, -5.622695898637176E-4, -0.0042171604, 0.012054641, 0.35093117
863, 1025802380, -2.4334850311279297, 0.22591440379619598, -0.0011869838926941156, -0.006580155, -0.005388087, 0.34527016
864, 1025819047, -2.4333393573760986, 0.22713236510753632, -0.0015630098059773445, -7.191355E-5, 5.56659E-4, 0.33004665
865, 1025835714, -2.4343626499176025, 0.22826074063777924, -0.0024994448758661747, 0.015323966, -0.0057824897, 0.3252983
866, 1025852381, -2.434690237045288, 0.22782166302204132, -0.0011418567737564445, -9.941717E-4, -0.004135772, 0.35872746
867, 1025869048, -2.4359207153320312, 0.22641292214393616, -7.496842881664634E-4, 0.0045307716, 0.009762292, 0.37188816
868, 1025885715, -2.4371392726898193, 0.2262483686208725, -2.9501268727472052E-5, -0.0027220228, 0.0014022226, 0.34476185
869, 1025902382, -2.4363410472869873, 0.22578418254852295, -3.2766314689069986E-5, 0.009873618, -0.008064291, 0.35757732
870, 1025919049, -2.436812162399292, 0.2237768918275833, -3.570550761651248E-4, 0.005748287, 0.01350429, 0.3617382
871, 1025935716, -2.437617063522339, 0.22391855716705322, -0.001204978208988905, -0.010672949, 0.006942941, 0.3203802
872, 1025952383, -2.436922550201416, 0.2243211567401886, -0.001818754244595766, -0.014240636, 0.0049853725, 0.33908463
873, 1025969050, -2.437476873397827, 0.22385811805725098, -0.0023770970292389393, -0.0023147508, 0.0043754196, 0.354434
874, 1025985717, -2.4379260540008545, 0.22336964309215546, -0.003363329917192459, -0.0029480574, 0.0033432648, 0.36790276
875, 1026002384, -2.4370157718658447, 0.2240745723247528, -0.002652163850143552, -0.005096883, 0.023947401, 0.35520363
876, 1026019051, -2.4370718002319336, 0.22342535853385925, -0.002293974393978715, 0.0033311201, 0.013933127, 0.32863998
877, 1026035718, -2.4364030361175537, 0.22256967425346375, -0.001491836505010724, 0.0058042323, 0.0038181741, 0.33481216
878, 1026052385, -2.4375345706939697, 0.22254760563373566, -4.938021302223206E-4, -0.0070105065, 2.781898E-4, 0.3450346
879, 1026069052, -2.4381844997406006, 0.221710667014122, -9.873061208054423E-4, 0.009297203, 0.003752992, 0.34789562
880, 1026085719, -2.4378716945648193, 0.22118635475635529, 3.369754704181105E-4, -0.0056332615, 0.0050598723, 0.31431484
881, 1026102386, -2.438143253326416, 0.22029997408390045, -2.878214218071662E-5, -0.015876774, 0.0059692487, 0.35467625
882, 1026119053, -2.4376142024993896, 0.2194504290819168, 4.840825858991593E-4, -5.1491096E-4, 0.014116058, 0.3543234
883, 1026135720, -2.436952829360962, 0.2186068296432495, -4.8703665379434824E-4, 4.047121E-4, 0.0013748561, 0.34134483
884, 1026152387, -2.4365408420562744, 0.21841059625148773, 7.154044578783214E-4, -0.0024715853, 0.005132989, 0.32677555
885, 1026169054, -2.436927318572998, 0.21770648658275604, 9.12924762815237E-4, 0.00566565, -0.0073153693, 0.35422134
886, 1026185721, -2.4358744621276855, 0.2184312492609024, 0.0014929380267858505, 0.002356338, 0.0121933445, 0.3586092
887, 1026202388, -2.4352474212646484, 0.21871896088123322, -5.520073464140296E-4, 0.0030663987, -0.009807944, 0.3402319
888, 1026219055, -2.4355533123016357, 0.2194717824459076, -8.290088153444231E-4, -0.008460945, 0.006400657, 0.33870506
889, 1026235722, -2.434403657913208, 0.2191258817911148, -0.0022554320748895407, -0.012484066, 0.010622048, 0.3505993
890, 1026252389, -2.4343819618225098, 0.21754072606563568, -0.003455270081758499, -0.0022796926, 5.0409156E-4, 0.33905125
891, 1026269056, -2.4337644577026367, 0.21756568551063538, -0.003500920021906495, -0.017643632, 0.008696401, 0.33461094
892, 1026285723, -2.433759927749634, 0.21737658977508545, -0.00295872800052166, -0.00594695, 0.0070716706, 0.3358984
893, 1026302390, -2.432532787322998, 0.21806420385837555, -0.003151319222524762, 0.0027386728, 0.017848963, 0.35289955
894, 1026319057, -2.4333624839782715, 0.21740961074829102, -0.0029954786878079176, -0.011316681, 0.01689737, 0.33186626
895, 1026335724, -2.434051752090454, 0.21792565286159515, -0.003986840136349201, -4.0565856E-4, 2.9034333E-4, 0.33625603
896, 1026352391, -2.4343411922454834, 0.21954049170017242, -0.0030177885200828314, -0.002043551, 0.018644096, 0.34295177
897, 1026369058, -2.4339261054992676, 0.22012674808502197, -0.0025232939515262842, -0.0065412167, 0.009589236, 0.3247757
898, 1026385725, -2.4333691596984863, 0.22000767290592194, -0.003926895558834076, -0.005441664, 0.005049591, 0.3596611
899, 1026402392, -2.4335947036743164, 0.2201453149318695, -0.004277063999325037, 0.0031799292, 0.0070965085, 0.35276794
900, 1026419059, -2.432762861251831, 0.21938300132751465, -0.003891478991135955, -0.0027290564, -0.0027050795, 0.34078026
901, 1026435726, -2.4328582286834717, 0.21859534084796906, -0.003975679632276297, -0.0133208465, 0.013205397, 0.33584404
902, 1026452393, -2.433681011199951, 0.21887853741645813, -0.003092109225690365, 0.0057119373, 0.0132825505, 0.33781433
903, 1026469060, -2.434098958969116, 0.21894843876361847, -0.0030057393014431, -0.014538009, 0.009305879, 0.34774303
904, 1026485727, -2.43397855758667, 0.220798522233963, -0.003361654933542013, -0.0053157215, 0.0113586495, 0.33683777
905, 1026502394, -2.434116840362549, 0.2211199849843979, -0.003553908783942461, -0.0023496067, 0.009146639, 0.32647228
906, 1026519061, -2.434300422668457, 0.2210809737443924, -0.0030988999642431736, 0.002721506, 0.011550046, 0.34588242
907, 1026535728, -2.435706853866577, 0.22139309346675873, -0.0033907436300069094, -0.0038306175, 0.013935083, 0.33547592
908, 1026552395, -2.437182903289795, 0.2204536646604538, -0.0028944318182766438, 0.009865612, 0.0022637811, 0.35545063
909, 1026569062, -2.4368414878845215, 0.22028736770153046, -0.003016167553141713, -0.010294473, 0.0066564535, 0.35103893
910, 1026585729, -2.4382448196411133, 0.21994665265083313, -0.003075147746130824, -4.901517E-4, 0.0060503283, 0.3454342
911, 1026602396, -2.438396453857422, 0.22167590260505676, -0.004783325362950563, 0.0022525303, 0.008118745, 0.3292284
912, 1026619063, -2.438565254211426, 0.21975472569465637, -0.0038535473868250847, 0.0056231758, 8.6540024E-4, 0.330163
913, 1026635730, -2.4383411407470703, 0.21864823997020721, -0.0041399020701646805, 0.0031747431, 0.009767614, 0.33417416
914, 1026652397, -2.437535047531128, 0.21734748780727386, -0.004178083501756191, -0.013913664, 0.002435034, 0.35165215
915, 1026669064, -2.4380595684051514, 0.2183196246623993, -0.004024407360702753, 3.2862343E-4, -0.0047630193, 0.3395977
916, 1026685731, -2.4381325244903564, 0.22056087851524353, -0.0027403582353144884, 0.007141344, 0.0052121826, 0.32603836
917, 1026702398, -2.4382877349853516, 0.21898849308490753, -0.0028902364429086447, -0.0013721635, -3.3397027E-4, 0.32849312
918, 1026719065, -2.439411163330078, 0.2197159379720688, -0.0037781093269586563, -5.15234E-4, 0.0020726495, 0.32240963
919, 1026735732, -2.438521146774292, 0.21779440343379974, -0.0036289540585130453, -0.010136271, -0.0030964226, 0.34926224
920, 1026752399, -2.439234733581543, 0.21756117045879364, -0.004694679286330938, 0.016372833, 0.009482523, 0.33846474
921, 1026769066, -2.4384984970092773, 0.21708910167217255, -0.004572228528559208, -0.009797556, -0.0023590117, 0.3327713
922, 1026785733, -2.438464879989624, 0.21705998480319977, -0.005129639990627766, -0.0074299793, 0.004207855, 0.33965683
923, 1026802400, -2.4384641647338867, 0.21746030449867249, -0.005431243684142828, -0.00249862, 0.0038020252, 0.3512745
924, 1026819067, -2.438164234161377, 0.21857133507728577, -0.004845963325351477, -0.020577038, 5.08925E-4, 0.34483242
925, 1026835734, -2.438732624053955, 0.21873296797275543, -0.005394412204623222, -0.006391325, 0.009505, 0.33111477
926, 1026852401, -2.438778877258301, 0.21904633939266205, -0.004456633236259222, -0.012372562, 0.0031267786, 0.3241501
927, 1026869068, -2.4393064975738525, 0.21832698583602905, -0.005364926066249609, 1.19582925E-4, 0.0054797833, 0.33220482
928, 1026885735, -2.438993453979492, 0.216962069272995, -0.005284970160573721, -0.010218993, 0.0049027987, 0.3610201
929, 1026902402, -2.4394969940185547, 0.2170354574918747, -0.006159722339361906, -0.010889434, 0.007881961, 0.33192348
930, 1026919069, -2.4398276805877686, 0.2173984795808792, -0.004949730355292559, -0.0064352104, 0.008660456, 0.33641815
931, 1026935736, -2.439267873764038, 0.21791686117649078, -0.0034820970613509417, -0.0058865994, 0.0016045297, 0.34653473
932, 1026952403, -2.4400103092193604, 0.21885618567466736, -0.0037133062724024057, -0.0060906773, 0.0032525745, 0.34949398
933, 1026969070, -2.439610719680786, 0.21921129524707794, -0.003069767728447914, -0.00765334, 0.009831231, 0.3255663
934, 1026985737, -2.439476251602173, 0.21940316259860992, -0.0024320860393345356, -0.002075213, 0.0055343485, 0.3342371
935, 1027002404, -2.4389235973358154, 0.219194695353508, -0.001100969617255032, 0.0023860391, 0.017500995, 0.34614468
936, 1027019071, -2.440023422241211, 0.21895666420459747, -0.002511067083105445, -0.0052427705, 0.015006003, 0.36602402
937, 1027035738, -2.440169334411621, 0.21852274239063263, -0.003728023497387767, -0.0089280065, 0.007625787, 0.3382702
938, 1027052405, -2.439645528793335, 0.2188875377178192, -0.002631762297824025, 8.7117666E-4, 0.010919949, 0.3293562
939, 1027069072, -2.439931631088257, 0.21830889582633972, -0.0023589173797518015, -0.0069917194, -0.009701496, 0.33465767
940, 1027085739, -2.440124750137329, 0.2169850468635559, -0.0034949863329529762, -0.011872762, 0.012295978, 0.34259224
941, 1027102406, -2.4404101371765137, 0.2169858068227768, -0.004373878240585327, -0.00864513, 0.010881072, 0.34553146
942, 1027119073, -2.440215587615967, 0.21690955758094788, -0.003751227166503668, 0.0067120916, 0.0076925196, 0.3448305
943, 1027135740, -2.4405739307403564, 0.21764591336250305, -0.003917566500604153, 5.4023607E-4, 1.7650539E-4, 0.3487816
944, 1027152407, -2.4410581588745117, 0.21743884682655334, -0.004479946568608284, -0.004552924, 0.01100466, 0.3497429
945, 1027169074, -2.4409759044647217, 0.21722514927387238, -0.004043924156576395, -0.013670997, 0.0036384696, 0.3316307
946, 1027185741, -2.4404237270355225, 0.2175649255514145, -0.0032563377171754837, 0.007968758, 0.0059165554, 0.33869076
947, 1027202408, -2.4405953884124756, 0.2169017791748047, -0.002849656157195568, 0.004556327, 0.006510583, 0.3312397
948, 1027219075, -2.4413070678710938, 0.2163757085800171, -0.003052339656278491, -0.0017419534, 0.007876163, 0.35359955
949, 1027235742, -2.4415712356567383, 0.21666237711906433, -0.0027263080701231956, 0.002723083, 0.011360758, 0.37114906
950, 1027252409, -2.4418911933898926, 0.21569450199604034, -0.0033497081603854895, -0.0060124374, 0.0029490578, 0.33254528
951, 1027269076, -2.4431087970733643, 0.2183605283498764, -0.0019206939032301307, -0.010226769, 0.004379289, 0.3435297
952, 1027285743, -2.441972494125366, 0.21734996140003204, -0.0018320342060178518, -0.0021814986, -0.002836603, 0.35901928
953, 1027302410, -2.441758632659912, 0.2190532237291336, -0.0017176908440887928, -0.009486777, 0.006827329, 0.37164497
954, 1027319077, -2.440319061279297, 0.21804587543010712, -0.002224381547421217, -0.007207914, 0.010758279, 0.35617828
955, 1027335744, -2.4402060508728027, 0.21817722916603088, -0.002866131952032447, -0.0032739898, -0.0141098425, 0.34430885
956, 1027352411, -2.439981698989868, 0.2190645933151245, -0.002331328811123967, -0.0046352954, 0.012021365, 0.32969475
957, 1027369078, -2.4405689239501953, 0.2182704359292984, -0.002342499326914549, -0.009342132, -6.417616E-5, 0.37093353
958, 1027385745, -2.4403812885284424, 0.21836194396018982, -0.0032124274875968695, 0.011897593, 0.008642464, 0.35451698
959, 1027402412, -2.4406626224517822, 0.2185722440481186, -0.003084801370278001, -0.008303081, 0.006373598, 0.3310051
960, 1027419079, -2.4285528659820557, 0.24183939397335052, 0.005780315957963467, 0.004740701, 0.0054737483, 0.33221912
961, 1027435746, -2.429093837738037, 0.24217404425144196, 0.004638003185391426, -0.0063410713, -0.004468331, 0.3435259
962, 1027452413, -2.4289417266845703, 0.24200741946697235, 0.005581964273005724, 0.015784735, 0.008623493, 0.35247803
963, 1027469080, -2.430464029312134, 0.24131891131401062, 0.005789021961390972, 0.001469437, 6.9917645E-4, 0.3451128
964, 1027485747, -2.430293321609497, 0.24107900261878967, 0.0063979122787714005, -0.002511046, 0.004471153, 0.36819267
965, 1027502414, -2.4310686588287354, 0.2400328367948532, 0.004716848023235798, 0.0030581532, 0.006251797, 0.34537697
966, 1027519081, -2.431124210357666, 0.2392696887254715, 0.004921093117445707, -0.011273555, 0.013491619, 0.32626438
967, 1027535748, -2.4318151473999023, 0.24096213281154633, 0.0053096855990588665, -0.00959192, 0.010841482, 0.34588432
968, 1027552415, -2.4321463108062744, 0.24107815325260162, 0.0056272223591804504, 0.0017089958, 0.0076967804, 0.3340397
969, 1027569082, -2.4321227073669434, 0.24151700735092163, 0.004668035544455051, -0.011742251, 0.0045415596, 0.33809757
970, 1027585749, -2.4323477745056152, 0.24068650603294373, 0.003352144965901971, 0.0040087225, 0.0058233924, 0.3454361
971, 1027602416, -2.4326717853546143, 0.24180470407009125, 0.0028883672785013914, -7.164114E-4, -0.0071383333, 0.35369968
972, 1027619083, -2.432936668395996, 0.24327687919139862, 0.003980848006904125, 0.017928902, -0.0052806893, 0.32072735
973, 1027635750, -2.4329476356506348, 0.24242745339870453, 0.0032908690627664328, -0.0073665506, 0.010292073, 0.33540535
974, 1027652417, -2.4337282180786133, 0.24311017990112305, 0.004541224800050259, 3.5568246E-5, -0.0051149963, 0.32316017
975, 1027669084, -2.4327077865600586, 0.24397361278533936, 0.004901800770312548, -0.009268515, 0.006889717, 0.34664345
976, 1027685751, -2.433090925216675, 0.24381721019744873, 0.005710771307349205, 0.008354807, 0.020147976, 0.35281754
977, 1027702418, -2.4337687492370605, 0.24403132498264313, 0.005711625330150127, -0.0055341492, 0.009780102, 0.33930302
978, 1027719085, -2.435136079788208, 0.2446499913930893, 0.0052071139216423035, -0.0026823755, 0.011768265, 0.34685326
979, 1027735752, -2.4365074634552, 0.24466200172901154, 0.004876446910202503, 5.626467E-4, 0.0010080015, 0.36973953
980, 1027752419, -2.4376399517059326, 0.245115727186203, 0.005688319448381662, 0.00818848, 0.009006846, 0.354599
981, 1027769086, -2.4376168251037598, 0.2449922114610672, 0.006149609107524157, -0.0027014334, 0.012782971, 0.3575983
982, 1027785753, -2.4390127658843994, 0.24382682144641876, 0.0064997305162250996, 9.2695537E-4, 0.0039569475, 0.3680334
983, 1027802420, -2.4390130043029785, 0.24353811144828796, 0.007354950066655874, -2.2180344E-4, 0.007329046, 0.3585205
984, 1027819087, -2.4382641315460205, 0.24330510199069977, 0.006684139370918274, 0.006772708, 0.00759694, 0.35703087
985, 1027835754, -2.4381768703460693, 0.2429862767457962, 0.005132303573191166, 0.002202062, 0.0030984064, 0.32876778
986, 1027852421, -2.437166213989258, 0.24131213128566742, 0.006083898711949587, -0.011120359, -0.001833868, 0.3391409
987, 1027869088, -2.4380645751953125, 0.24143600463867188, 0.006256725173443556, -5.9278606E-4, 0.01212196, 0.33326435
988, 1027885755, -2.4379806518554688, 0.24280527234077454, 0.006983036641031504, -0.007014116, -0.009084139, 0.35677147
989, 1027902422, -2.438642978668213, 0.24358884990215302, 0.006865203380584717, 0.0036353648, -0.0077972496, 0.34574413
990, 1027919089, -2.4386889934539795, 0.24478080868721008, 0.006510567851364613, -0.0023430218, 0.014456189, 0.3577366
991, 1027935756, -2.4385969638824463, 0.24593572318553925, 0.006841151509433985, 5.149913E-4, -0.0022525217, 0.33551025
992, 1027952423, -2.438844919204712, 0.2470552772283554, 0.005994595121592283, -0.0021067143, -0.0012947686, 0.3561325
993, 1027969090, -2.4403505325317383, 0.24539509415626526, 0.005413228180259466, -0.0061716554, 0.0114949085, 0.34706688
994, 1027985757, -2.4421298503875732, 0.24547582864761353, 0.0041663325391709805, 0.0024177239, 0.0018608711, 0.33355904
995, 1028002424, -2.4426326751708984, 0.2445637285709381, 0.003671711077913642, -0.0066027315, 0.0045044567, 0.3282957
996, 1028019091, -2.443237066268921, 0.24453745782375336, 0.0025704102590680122, 0.011989596, -0.0017395315, 0.34670544
997, 1028035758, -2.44417667388916, 0.24573937058448792, 8.823779644444585E-4, -4.122941E-5, 0.0029414026, 0.34692383
998, 1028052425, -2.4452521800994873, 0.24531123042106628, -1.404557697242126E-4, -0.009060597, 0.0097151445, 0.3455286
999, 1028069092, -2.445754051208496, 0.2452324479818344, -3.390291822142899E-4, 0.0025340747, 3.2075506E-4, 0.330822
1000, 1028085759, -2.4466445446014404, 0.24496965110301971, -0.0012048439821228385, 0.0037774458, -0.00515928, 0.3279047
1001, 1028102426, -2.446638345718384, 0.2455906867980957, -0.001799283199943602, 0.0074115056, 0.0018197168, 0.3447876
1002, 1028119093, -2.44793701171875, 0.2456989288330078, -0.0029270523227751255, 0.016920267, 0.015486025, 0.34226704
1003, 1028135760, -2.447557210922241, 0.24535682797431946, -0.0028932455461472273, 9.904278E-4, -6.576589E-4, 0.35091782
1004, 1028152427, -2.446197271347046, 0.24645574390888214, -0.002874019555747509, 0.0012731211, 0.009768103, 0.36594486
1005, 1028169094, -2.447347402572632, 0.2460048496723175, -0.0027276785112917423, -0.0063369763, 0.00761531, 0.34293175
1006, 1028185761, -2.4482970237731934, 0.24795489013195038, -0.0025036365259438753, 0.004960748, -9.6032344E-4, 0.35263348
1007, 1028202428, -2.448061466217041, 0.24758857488632202, -0.00172381941229105, 0.0020541924, 0.015757915, 0.38023376
1008, 1028219095, -2.448017120361328, 0.24633906781673431, -0.0026604507584124804, 3.4299286E-4, 0.013458498, 0.35522366
1009, 1028235762, -2.4477810859680176, 0.2466069757938385, -0.002182489028200507, -0.008603727, 0.005251423, 0.34381676
1010, 1028252429, -2.448272943496704, 0.24626687169075012, -0.001062612165696919, 0.009350676, 0.002695259, 0.34983635
1011, 1028269096, -2.449244737625122, 0.24543754756450653, -0.003539384575560689, 0.0072127255, 7.5279165E-4, 0.3565359
1012, 1028285763, -2.4508092403411865, 0.2447819709777832, -0.0036483323201537132, -0.01978736, 0.016068276, 0.34737206
1013, 1028302430, -2.4513158798217773, 0.2456880509853363, -0.003608573228120804, 3.70347E-4, 0.013888704, 0.35246468
1014, 1028319097, -2.450680732727051, 0.24616625905036926, -0.0038910426665097475, -0.0016104912, 0.008707212, 0.33519268
1015, 1028335764, -2.4500937461853027, 0.246700718998909, -0.004606197588145733, -0.004330553, 0.017472064, 0.329854
1016, 1028352431, -2.4509387016296387, 0.24671107530593872, -0.004253583028912544, 0.017514318, 0.003752517, 0.36060047
1017, 1028369098, -2.4514412879943848, 0.24657022953033447, -0.004610201343894005, 0.0025767116, 0.013227957, 0.32193947
1018, 1028385765, -2.4518556594848633, 0.24720978736877441, -0.004527658224105835, 0.0028025433, 0.012169442, 0.34530258
1019, 1028402432, -2.4526710510253906, 0.2467368245124817, -0.004472678992897272, -1.884127E-4, 0.008438382, 0.3577757
1020, 1028419099, -2.4534218311309814, 0.2472762167453766, -0.0045943730510771275, -0.0077708294, 0.0018473904, 0.36642075
1021, 1028435766, -2.4528331756591797, 0.24894332885742188, -0.003680163063108921, 0.0046114423, 0.0073080636, 0.31879425
1022, 1028452433, -2.4538328647613525, 0.24873465299606323, -0.0029402533546090126, -0.011922663, 0.012364793, 0.3493271
1023, 1028469100, -2.4546477794647217, 0.24893718957901, -0.004261679481714964, 0.007290607, 0.010593788, 0.33354092
1024, 1028485767, -2.4546334743499756, 0.24805226922035217, -0.0030009960755705833, 1.7552751E-5, 0.0113744205, 0.33287907
1025, 1028502434, -2.455146551132202, 0.24906498193740845, -0.0032549763564020395, -0.010544814, 0.01628581, 0.3455906
1026, 1028519101, -2.454927444458008, 0.24911260604858398, -0.0032496738713234663, 5.2132475E-4, 0.0074035595, 0.34573174
