PacketCounter,SampleTimeFine,Euler_X,Euler_Y,Euler_Z,FreeAcc_X,FreeAcc_Y,FreeAcc_Z
1,1199622521,-2.454996109008789,0.1084066778421402,2.5267109870910645,0.00373119,0.011323264,0.33679676
2,1199639188,-2.451718330383301,0.0852737426757812,2.5709407329559326,0.0043711415,-0.0035745031,0.33355618
3,1199655855,-2.4560227394104004,0.0621487572789192,2.609299421310425,0.009496561,0.010914389,0.32433033
4,1199672522,-2.455674409866333,0.035789169371128,2.6782431602478027,-0.021167064,-0.0052383193,0.32177448
5,1199689189,-2.458848476409912,0.0217080023139715,2.6552460193634038,-0.0058606486,-0.0006886015,0.33250713
6,1199705856,-2.463011741638184,0.0054452382028102,2.6469085216522217,-1.8901252e-05,-0.0015871376,0.33138943
7,1199722523,-2.468207597732544,-0.0127506703138351,2.6595847606658936,-0.02787274,0.011027627,0.31892872
8,1199739190,-2.47023606300354,-0.0257993154227733,2.677287578582764,-0.011461596,-0.0022887727,0.3277502
9,1199755857,-2.474457025527954,-0.0395307205617427,2.6825459003448486,-0.01385923,0.00968381,0.31933403
10,1199772524,-2.477235555648804,-0.0534959025681018,2.693295478820801,-0.017375631,0.009930653,0.35152817
11,1199789191,-2.479698419570923,-0.069584846496582,2.697012186050415,-0.0141574275,0.011896072,0.33198547
12,1199805858,-2.4830634593963623,-0.084373652935028,2.706073045730591,-0.026898844,0.0044177477,0.33990192
13,1199822525,-2.485130548477173,-0.0988546088337898,2.71286940574646,-0.03483398,0.006999364,0.33330536
14,1199839192,-2.4874727725982666,-0.1126227900385856,2.726820945739746,-0.02999525,0.0063292026,0.30884552
15,1199855859,-2.490138292312622,-0.1267803311347961,2.72990083694458,-0.032830723,0.004926044,0.3475237
16,1199872526,-2.4929349422454834,-0.1400309205055236,2.737713098526001,-0.039421644,-0.00034489445,0.349761
17,1199889193,-2.494548320770264,-0.1537213325500488,2.7472147941589355,-0.043221623,0.003934261,0.31794262
18,1199905860,-2.498135805130005,-0.1676009446382522,2.7574985027313232,-0.04124085,0.0081605,0.3288231
19,1199922527,-2.5019869804382324,-0.181494265794754,2.767406702041626,-0.038724944,0.020696908,0.34704494
20,1199939194,-2.5048928260803223,-0.1959167271852493,2.757169723510742,-0.045947593,0.016052686,0.35105324
21,1199955861,-2.50900673866272,-0.2107094973325729,2.770763874053955,-0.050746646,0.014090955,0.34692097
22,1199972528,-2.5124704837799072,-0.2253687381744384,2.780202388763428,-0.062024064,0.011202665,0.31366634
23,1199989195,-2.5153732299804688,-0.2383031994104385,2.7869818210601807,-0.05081239,0.01011702,0.33347988
24,1200005862,-2.5199849605560303,-0.2523018717765808,2.7884230613708496,-0.061021984,0.013361088,0.33933544
25,1200022529,-2.524003267288208,-0.2671056091785431,2.792498111724853,-0.0636839,0.00928565,0.33664036
26,1200039196,-2.527070999145508,-0.2808281481266022,2.79878830909729,-0.057140507,0.0022357302,0.34257698
27,1200055863,-2.5310046672821045,-0.294927030801773,2.8092215061187744,-0.057014912,0.024377761,0.3403902
28,1200072530,-2.5347084999084477,-0.3082318902015686,2.8113293647766118,-0.07595899,0.007859442,0.32866955
29,1200089197,-2.538411855697632,-0.320560485124588,2.810701608657837,-0.0771292,0.026769156,0.3498745
30,1200105864,-2.5409164428710938,-0.3336235880851745,2.807664155960083,-0.068527885,0.0049203583,0.35619354
31,1200122531,-2.5455238819122314,-0.348408579826355,2.80820894241333,-0.0726739,0.022129137,0.32057953
32,1200139198,-2.5494182109832764,-0.3612821698188782,2.8165974617004395,-0.073752195,0.023816256,0.33614922
33,1200155865,-2.5514450073242188,-0.3740965127944946,2.8247764110565186,-0.06211045,0.025022136,0.3329649
34,1200172532,-2.555206775665283,-0.3867107331752777,2.826478242874145,-0.0694449,0.011837972,0.3210268
35,1200189199,-2.559288501739502,-0.4014247953891754,2.824894666671753,-0.08378229,0.014122722,0.34666157
36,1200205866,-2.561961889266968,-0.4156170189380646,2.825486183166504,-0.07369569,0.027467353,0.336627
37,1200222533,-2.565471172332764,-0.4292395412921905,2.8297839164733887,-0.09102411,0.023375558,0.33752918
38,1200239200,-2.568101644515991,-0.4426122307777405,2.823706150054932,-0.09067031,0.01939929,0.34004974
39,1200255867,-2.5711679458618164,-0.4567742347717285,2.820079803466797,-0.088505134,0.038154222,0.34814453
40,1200272534,-2.574671983718872,-0.4709628820419311,2.8279237747192383,-0.100589395,0.021248706,0.34027958
41,1200289201,-2.57834792137146,-0.4858670532703399,2.820585012435913,-0.09040718,0.028950082,0.31802082
42,1200305868,-2.5812878608703613,-0.4988259971141815,2.82270884513855,-0.09321964,0.021520121,0.34449005
43,1200322535,-2.5851755142211914,-0.512210488319397,2.8301634788513184,-0.10562966,0.01600199,0.33847618
44,1200339202,-2.588761329650879,-0.5254132151603699,2.841374158859253,-0.112245426,0.026635816,0.34896374
45,1200355869,-2.591864585876465,-0.5399616360664368,2.83618712425232,-0.10536374,0.024899526,0.33364964
46,1200372536,-2.5960988998413086,-0.5537245869636536,2.84032940864563,-0.10195151,0.024656426,0.33179283
47,1200389203,-2.5991146564483643,-0.5681421756744385,2.8411707878112797,-0.11510458,0.030529955,0.34980392
48,1200405870,-2.6027989387512207,-0.5819366574287415,2.843639850616455,-0.104091056,0.026362263,0.35208607
49,1200422537,-2.607196092605591,-0.5981797575950623,2.8441319465637207,-0.12827006,0.030577648,0.3339939
50,1200439204,-2.6110219955444336,-0.6112808585166931,2.851870536804199,-0.10225138,0.038979556,0.35119057
51,1200455871,-2.6146581172943115,-0.6248072385787964,2.854093074798584,-0.12770301,0.029132692,0.3515005
52,1200472538,-2.617509365081787,-0.6366449594497681,2.851376533508301,-0.12275069,0.028465241,0.32883835
53,1200489205,-2.6200380325317383,-0.6496477127075195,2.8539416790008545,-0.121854946,0.025909496,0.32710934
54,1200505872,-2.624252796173096,-0.6639634966850281,2.8435492515563965,-0.12766856,0.028000837,0.33227158
55,1200522539,-2.628611326217652,-0.6766176223754883,2.840491771697998,-0.13431759,0.032220524,0.32738018
56,1200539206,-2.632021188735962,-0.6897025108337402,2.836825132369995,-0.14358684,0.029701449,0.33511925
57,1200555873,-2.6351284980773926,-0.7038759589195251,2.839303970336914,-0.1368768,0.034080263,0.3418026
58,1200572540,-2.637789011001587,-0.7174803614616394,2.8364593982696533,-0.15015899,0.019523898,0.34212875
59,1200589207,-2.64140248298645,-0.7312841415405273,2.8314359188079834,-0.15346035,0.02931818,0.32753944
60,1200605874,-2.6449224948883057,-0.7446999549865723,2.8343021869659424,-0.14024612,0.024942579,0.32515335
61,1200622541,-2.647808790206909,-0.759125828742981,2.822875499725342,-0.14303316,0.029485745,0.3322878
62,1200639208,-2.6511402130126958,-0.7740088105201721,2.8279268741607666,-0.15216488,0.031839363,0.35415363
63,1200655875,-2.654646158218384,-0.7866660952568054,2.817808151245117,-0.14913522,0.038793117,0.32584858
64,1200672542,-2.658569574356079,-0.7989416718482971,2.8163578510284424,-0.15068483,0.03135131,0.35076046
65,1200689209,-2.6635029315948486,-0.8122594356536865,2.813152551651001,-0.16769704,0.030193526,0.3392229
66,1200705876,-2.6667110919952397,-0.8268121480941772,2.805169105529785,-0.1599765,0.027451009,0.31141472
67,1200722543,-2.669419288635254,-0.8379513025283813,2.795243501663208,-0.16464761,0.04043405,0.3443737
68,1200739210,-2.6726698875427246,-0.8523253798484802,2.786008358001709,-0.15774024,0.03938569,0.31574726
69,1200755877,-2.6755590438842773,-0.8644263744354248,2.7877066135406494,-0.17746821,0.04329316,0.3342514
70,1200772544,-2.6785614490509038,-0.8780985474586487,2.7760820388793945,-0.16471943,0.03530302,0.33987427
71,1200789211,-2.6831250190734863,-0.8898519277572632,2.773500204086304,-0.1735309,0.037984196,0.3358488
72,1200805878,-2.686089038848877,-0.9032015800476074,2.7748191356658936,-0.1777126,0.033417296,0.33451843
73,1200822545,-2.689509868621826,-0.9161498546600342,2.775961637496948,-0.17064719,0.039637495,0.34643364
74,1200839212,-2.6930432319641118,-0.929462194442749,2.7608275413513184,-0.17318647,0.041670218,0.32972527
75,1200855879,-2.696519136428833,-0.9423734545707704,2.762143611907959,-0.19229269,0.044427183,0.33635998
76,1200872546,-2.699054002761841,-0.9561706781387328,2.7499895095825195,-0.1840765,0.032272253,0.32712173
77,1200889213,-2.7024617195129395,-0.9682428240776062,2.744515895843506,-0.18278165,0.04224526,0.33015156
78,1200905880,-2.705496311187744,-0.980768859386444,2.731692314147949,-0.18568826,0.040993366,0.35556602
79,1200922547,-2.709876298904419,-0.993791162967682,2.7324109077453613,-0.18524458,0.035640888,0.31268024
80,1200939214,-2.71302342414856,-1.005816102027893,2.723813056945801,-0.1975558,0.05201218,0.3333292
81,1200955881,-2.7157442569732666,-1.0189123153686523,2.722872495651245,-0.18754871,0.049324363,0.35748386
82,1200972548,-2.718193292617798,-1.033427596092224,2.716670513153076,-0.19403358,0.043112688,0.32995415
83,1200989215,-2.7208147048950195,-1.045728087425232,2.715663433074951,-0.20392157,0.03568509,0.3180132
84,1201005882,-2.72438383102417,-1.0582319498062134,2.7025532722473145,-0.21346548,0.03467995,0.3552637
85,1201022549,-2.729344367980957,-1.0707677602767944,2.6912682056427,-0.21511708,0.040873144,0.3254919
86,1201039216,-2.7324318885803223,-1.0830553770065308,2.683631420135498,-0.20812356,0.045100164,0.3324957
87,1201055883,-2.7347941398620605,-1.094510793685913,2.681997776031494,-0.20436893,0.04224304,0.34723473
88,1201072550,-2.738265991210937,-1.1078722476959229,2.6786768436431885,-0.21385421,0.039853826,0.34018135
89,1201089217,-2.74178147315979,-1.1218812465667725,2.6792895793914795,-0.20573042,0.04422591,0.34148026
90,1201105884,-2.7454259395599365,-1.132878065109253,2.6824653148651123,-0.20461977,0.05290933,0.33366585
91,1201122551,-2.748177528381348,-1.145298719406128,2.673281669616699,-0.20891912,0.03207482,0.3249874
92,1201139218,-2.7521183490753174,-1.1569163799285889,2.669247627258301,-0.2265394,0.05175885,0.32064247
93,1201155885,-2.756467819213867,-1.167468786239624,2.651993751525879,-0.23234929,0.045304287,0.33216667
94,1201172552,-2.758650779724121,-1.1799569129943848,2.6518797874450684,-0.22714716,0.04737318,0.32922554
95,1201189219,-2.76172947883606,-1.1925863027572632,2.6576356887817383,-0.23169024,0.051489983,0.3329506
96,1201205886,-2.764466524124145,-1.2055057287216189,2.654440402984619,-0.22530198,0.061386716,0.344532
97,1201222553,-2.767634630203247,-1.2171547412872314,2.654409885406494,-0.22364569,0.065070346,0.3249817
98,1201239220,-2.7701494693756104,-1.2274545431137085,2.646025896072388,-0.24226893,0.048658587,0.34001827
99,1201255887,-2.7725460529327397,-1.2380588054656982,2.644056797027588,-0.23577784,0.048291232,0.33401012
100,1201272554,-2.775036573410034,-1.249226450920105,2.6319739818573,-0.23753192,0.047352742,0.321846
101,1201289221,-2.7771849632263184,-1.259190320968628,2.6301515102386475,-0.23651259,0.05617903,0.31297684
102,1201305888,-2.780255079269409,-1.2709940671920776,2.620276927947998,-0.22964856,0.04819836,0.33485317
103,1201322555,-2.7828240394592285,-1.2813901901245115,2.618828058242798,-0.23894091,0.050506175,0.33036518
104,1201339222,-2.785521507263184,-1.292586326599121,2.6210639476776123,-0.2442701,0.042600118,0.33656502
105,1201355889,-2.7888286113739014,-1.3031229972839355,2.6104023456573486,-0.23288633,0.06397312,0.33755016
106,1201372556,-2.7908389568328857,-1.3131712675094604,2.606703996658325,-0.24843733,0.05162272,0.3462162
107,1201389223,-2.7929234504699707,-1.3247177600860596,2.608084917068481,-0.24917375,0.05450077,0.33709812
108,1201405890,-2.7947072982788086,-1.335299372673035,2.61140513420105,-0.2499775,0.048379503,0.33474064
109,1201422557,-2.798189640045166,-1.3461283445358276,2.6007745265960693,-0.25929648,0.050354913,0.33249378
110,1201439224,-2.799363136291504,-1.3562335968017578,2.59446382522583,-0.26062146,0.060615636,0.34152508
111,1201455891,-2.800966024398804,-1.3652151823043823,2.5876293182373047,-0.25983074,0.051870722,0.352314
112,1201472558,-2.8028032779693604,-1.3759318590164185,2.575594902038574,-0.26236862,0.057841912,0.33463097
113,1201489225,-2.8048274517059326,-1.3861889839172363,2.573615312576294,-0.25886834,0.062227137,0.31824207
114,1201505892,-2.8068861961364746,-1.396263837814331,2.573378086090088,-0.26692262,0.049381904,0.33437347
115,1201522559,-2.809298038482666,-1.4063596725463867,2.5715692043304443,-0.26638478,0.06443281,0.3478651
116,1201539226,-2.8113720417022705,-1.41698956489563,2.5697367191314697,-0.25583813,0.052830864,0.30678844
117,1201555893,-2.813601016998291,-1.4262131452560425,2.5656301975250244,-0.26689893,0.057328504,0.32211018
118,1201572560,-2.814985752105713,-1.4349676370620728,2.563086986541748,-0.2622948,0.03861139,0.3330431
119,1201589227,-2.816981077194214,-1.445079684257507,2.5551140308380127,-0.26414242,0.05369723,0.31954384
120,1201605894,-2.424779891967773,0.0980009660124778,2.5529611110687256,0.0011850595,-0.012270233,0.35146046
121,1201622561,-2.423652410507202,0.097700610756874,2.550140142440796,-0.0027438647,-0.00633567,0.34169483
122,1201639228,-2.4240918159484863,0.0989694744348526,2.5526068210601807,0.003054518,-0.005217379,0.32144833
123,1201655895,-2.4234604835510254,0.0998567193746566,2.5533463954925537,-0.002703421,-0.0016815718,0.34553528
124,1201672562,-2.4238054752349854,0.1002006232738494,2.553586483001709,-0.0026905953,-0.0030002145,0.3510952
125,1201689229,-2.423383474349976,0.1007873564958572,2.5548226833343506,0.003444199,-0.0064012157,0.3398466
126,1201705896,-2.4227027893066406,0.1003865897655487,2.554883480072021,0.005697491,0.0045855916,0.3425579
127,1201722563,-2.422206163406372,0.101649597287178,2.5549275875091557,-0.007120879,0.0072291773,0.3270254
128,1201739230,-2.4221932888031006,0.1008816733956337,2.5563344955444336,0.0027524682,0.0013251944,0.34655952
129,1201755897,-2.4222283363342285,0.1008971482515335,2.556065320968628,0.0097979475,0.0013668656,0.3491001
130,1201772564,-2.4213337898254395,0.102619282901287,2.5553791522979736,0.011976213,0.007890552,0.3257208
131,1201789231,-2.420959949493408,0.102994903922081,2.5545499324798584,0.0061172717,-0.0027165904,0.34538746
132,1201805898,-2.4206056594848637,0.1029454097151756,2.5549490451812744,-0.0014056336,0.0040193917,0.3300686
133,1201822565,-2.420799970626831,0.1032714322209358,2.557645082473755,0.002444198,-0.001087586,0.32433414
134,1201839232,-2.420571565628052,0.1042377427220344,2.5579330921173096,-0.0052565513,0.0042648367,0.34722805
135,1201855899,-2.421459674835205,0.1042763888835907,2.5589864253997803,-0.00019244771,0.0041881297,0.34929943
136,1201872566,-2.422337770462036,0.1046866998076438,2.558910369873047,-0.0014729887,0.0072626485,0.3294134
137,1201889233,-2.423133134841919,0.1052984669804573,2.55842399597168,-0.0030592545,-0.0073704375,0.31719398
138,1201905900,-2.422934055328369,0.1057443395256996,2.560181140899658,-0.009117088,0.006733076,0.33568382
139,1201922567,-2.422737598419189,0.1061972752213478,2.5609047412872314,0.009561764,-0.00031062713,0.3395214
140,1201939234,-2.421226501464844,0.10623300075531,2.561129331588745,-0.0012587713,-0.0009869355,0.35831738
141,1201955901,-2.4210281372070312,0.1056702211499214,2.5610923767089844,0.020072155,-0.001954048,0.32758236
142,1201972568,-2.42159104347229,0.1048034280538559,2.5636894702911377,-0.0020966446,-0.01927809,0.3342905
143,1201989235,-2.422577142715454,0.1053535193204879,2.565335273742676,0.00039740646,-0.0009060237,0.3237133
144,1202005902,-2.4223649501800537,0.1057444065809249,2.5671870708465576,-0.000116677256,0.007190873,0.34406376
145,1202022569,-2.422628879547119,0.1050091385841369,2.567676544189453,0.009996159,0.013014936,0.35557652
146,1202039236,-2.4224894046783447,0.106535293161869,2.5677664279937744,-0.007975882,0.006286637,0.3362503
147,1202055903,-2.422323942184448,0.1057714596390724,2.5674057006835938,0.00795937,0.00460934,0.33558273
148,1202072570,-2.42335844039917,0.1054532527923584,2.5669949054718018,0.015703343,0.0026808842,0.35097885
149,1202089237,-2.423490047454834,0.1057691723108291,2.5664188861846924,0.0032574337,-0.0070952373,0.35319138
150,1202105904,-2.423393487930298,0.1077261045575141,2.567564010620117,0.004913432,0.0020872897,0.32801914
151,1202122571,-2.4234166145324707,0.1081512793898582,2.568939685821533,0.016857138,-0.0024174883,0.32825756
152,1202139238,-2.4230899810791016,0.1075992211699485,2.5698163509368896,0.010903347,0.009996505,0.35786438
153,1202155905,-2.4229896068573,0.1075413599610328,2.5701608657836914,0.0065719597,0.0047895336,0.34560966
154,1202172572,-2.423762083053589,0.1069245263934135,2.567624568939209,0.0039206767,-0.0007605727,0.33380318
155,1202189239,-2.4239518642425537,0.1088507249951362,2.5675408840179443,0.0040728585,0.008530078,0.3326931
156,1202205906,-2.4238088130950928,0.1079235523939132,2.567425489425659,0.0071106073,0.005744828,0.3163948
157,1202222573,-2.423799514770508,0.1087550893425941,2.568016767501831,0.0072511854,0.0057192775,0.33131313
158,1202239240,-2.422949314117432,0.109546273946762,2.567923069000244,-0.003632474,-0.0016682588,0.34297752
159,1202255907,-2.422065019607544,0.1092235669493675,2.566936731338501,0.013455517,0.005418066,0.3243189
160,1202272574,-2.42134165763855,0.1087155863642692,2.5692875385284424,0.002114528,-0.00806383,0.3433895
161,1202289241,-2.420517683029175,0.1094988211989402,2.570265293121338,0.0036234197,0.014915885,0.35837936
162,1202305908,-2.4198367595672607,0.110131949186325,2.5684974193573,-0.0013095044,-0.0028850355,0.3489542
163,1202322575,-2.41994857788086,0.1099068373441696,2.5700876712799072,-0.0038385447,0.0107830055,0.347867
164,1202339242,-2.420222520828247,0.1110760197043418,2.569714307785034,0.020631278,-0.010235916,0.3462715
165,1202355909,-2.419622898101806,0.1117876097559928,2.56892991065979,-0.0037113947,0.005735594,0.32876873
166,1202372576,-2.4204068183898926,0.1120747327804565,2.5692343711853027,0.0018704751,-0.012004644,0.31695747
167,1202389243,-2.420944929122925,0.1115958541631698,2.568763971328736,0.010246716,0.014655144,0.34962082
168,1202405910,-2.421299457550049,0.1115741729736328,2.568687438964844,-0.0048069116,0.014137474,0.3445902
169,1202422577,-2.421660900115967,0.1111585050821304,2.57044005393982,-0.0076060793,0.010234938,0.3541212
170,1202439244,-2.4224209785461426,0.1112813204526901,2.573272943496704,-0.012356588,0.014848804,0.3388548
171,1202455911,-2.421499967575073,0.1116202026605606,2.576383113861084,0.0020706023,0.007937588,0.31714058
172,1202472578,-2.4216196537017822,0.111272431910038,2.5767180919647217,0.010604605,0.013215232,0.35508537
173,1202489245,-2.4217121601104736,0.1095942184329032,2.575944662094116,-0.014734561,0.0053480645,0.32775307
174,1202505912,-2.421934127807617,0.1096993908286094,2.577311515808105,0.0024743334,-0.0014825475,0.35616684
175,1202522579,-2.4208192825317383,0.1089617908000946,2.577601432800293,0.006481804,0.0006529512,0.3601694
176,1202539246,-2.421748399734497,0.108905591070652,2.577392101287842,-0.005169338,0.0127412025,0.3359213
177,1202555913,-2.4214794635772705,0.1082887202501297,2.5780558586120605,-0.004259227,-0.010767695,0.347744
178,1202572580,-2.4213438034057617,0.1093537211418151,2.578172445297241,0.003757909,0.0020489292,0.35013008
179,1202589247,-2.4214322566986084,0.1089776903390884,2.5791566371917725,0.012100593,-0.0042723245,0.3448305
180,1202605914,-2.4199378490448,0.1090204939246177,2.5804543495178223,0.005974247,-0.0028558949,0.33205128
181,1202622581,-2.419394016265869,0.1087175235152244,2.5782744884490967,0.0014745005,-0.0018298167,0.34136677
182,1202639248,-2.4189131259918213,0.1079746261239051,2.578643083572388,-2.8094095e-05,-0.0052997856,0.3424902
183,1202655915,-2.419508695602417,0.108786255121231,2.577378749847412,0.01710628,0.0023048096,0.33845234
184,1202672582,-2.420569658279419,0.1078759953379631,2.576585531234741,0.00748785,0.011741135,0.32670307
185,1202689249,-2.4205989837646484,0.1106549799442291,2.577003240585327,-0.0053345175,-0.0023458803,0.33834743
186,1202705916,-2.419837951660156,0.111171118915081,2.5773825645446777,0.010304698,0.007470837,0.32067776
187,1202722583,-2.4207324981689453,0.1098630055785179,2.5756635665893555,-0.0001982394,0.00048871106,0.34992504
188,1202739250,-2.420783758163452,0.1090509295463562,2.5763487815856934,0.0018752047,-0.00048507898,0.35700226
189,1202755917,-2.421342372894287,0.1090821549296379,2.578509330749512,-7.991374e-05,0.0055365837,0.3417225
190,1202772584,-2.420888662338257,0.1095259711146354,2.5771074295043945,0.0049228123,0.0012779214,0.34815025
191,1202789251,-2.420485734939575,0.1109071969985961,2.577073574066162,0.00026301757,0.015883194,0.35003757
192,1202805918,-2.41936469078064,0.1100708171725273,2.578578472137451,0.0078069163,-0.011423887,0.36197376
193,1202822585,-2.4180655479431152,0.1091488227248191,2.5802290439605717,-0.008530188,-0.0006976119,0.3336525
194,1202839252,-2.4181020259857178,0.108540341258049,2.5810718536376958,0.006243802,-0.004694778,0.3398161
195,1202855919,-2.4183716773986816,0.1084944456815719,2.581006526947021,0.0054687797,-0.0037249413,0.33188915
196,1202872586,-2.4183554649353027,0.1083639189600944,2.582078218460083,0.006421943,-0.014010477,0.35273933
197,1202889253,-2.4173130989074707,0.1093285903334617,2.581528902053833,0.008926062,0.0057597333,0.341609
198,1202905920,-2.4169669151306152,0.1086751446127891,2.580841541290283,0.008709473,-0.006393239,0.36531925
199,1202922587,-2.416279554367065,0.1088921725749969,2.581188917160034,-0.0029739847,0.0027648273,0.35999584
200,1202939254,-2.416806936264038,0.1087540537118911,2.5823349952697754,0.004740628,-0.0030713615,0.3556776
201,1202955921,-2.417605400085449,0.1100405231118202,2.584352970123291,0.003710336,-0.0013731519,0.35657978
202,1202972588,-2.4173848628997803,0.1094649955630302,2.585338592529297,-0.0010577118,-0.0053553004,0.32870197
203,1202989255,-2.416227340698242,0.1085339114069938,2.5857462882995605,-0.0013502208,-0.0032956426,0.32823563
204,1203005922,-2.4168248176574707,0.1082813888788223,2.586509704589844,0.0040922416,-0.009159352,0.36301327
205,1203022589,-2.4163618087768555,0.1085125803947448,2.58519983291626,0.003392048,0.006728187,0.32018566
206,1203039256,-2.415693759918213,0.1089661866426467,2.585862398147583,-0.006894839,0.0033966426,0.34497643
207,1203055923,-2.415562868118286,0.1085854843258857,2.585648775100708,0.008996853,0.003090765,0.35939026
208,1203072590,-2.415095329284668,0.1101434677839279,2.585251569747925,-0.0045053223,-0.003698399,0.3492174
209,1203089257,-2.415881395339966,0.1108938008546829,2.586386680603028,0.0044881264,-0.0069593694,0.3338995
210,1203105924,-2.416322946548462,0.1104086637496948,2.586699724197388,-0.003973174,0.003441904,0.35713673
211,1203122591,-2.416402816772461,0.1100078821182251,2.587402820587158,0.010862117,-0.008481227,0.34143543
212,1203139258,-2.417312860488892,0.1087978929281234,2.589468717575073,-0.0019776488,0.0068481015,0.34691238
213,1203155925,-2.417064905166626,0.1080818846821785,2.588770627975464,0.0045580342,-0.00304169,0.3576107
214,1203172592,-2.4168474674224854,0.1083535552024841,2.590270757675171,0.0066858837,-0.0066059255,0.33679867
215,1203189259,-2.415167570114136,0.1081029698252677,2.590524435043335,0.0075324825,-0.004930626,0.33328342
216,1203205926,-2.414219856262207,0.1071830987930297,2.590676784515381,0.0011814227,0.006583742,0.34821892
217,1203222593,-2.413733959197998,0.1069545522332191,2.590043544769287,-0.0019862836,-0.0007817645,0.3570776
218,1203239260,-2.414755582809448,0.1079948022961616,2.590214490890503,0.006229402,0.013499624,0.3451004
219,1203255927,-2.414562940597534,0.1080697476863861,2.5895237922668457,0.016249312,-0.0021842525,0.34947586
220,1203272594,-2.413921356201172,0.1074483916163444,2.5920281410217285,-0.0076255216,0.0013240628,0.33323193
221,1203289261,-2.413560390472412,0.1068247035145759,2.5917716026306152,-0.012752594,-0.0041661975,0.34693527
222,1203305928,-2.414016008377075,0.1072163507342338,2.590960502624512,0.014040766,-0.0001585545,0.3410139
223,1203322595,-2.4124443531036377,0.1069857701659202,2.5893514156341557,0.010936277,-0.014390952,0.3611002
224,1203339262,-2.4123849868774414,0.1071367859840393,2.590531587600708,0.005638533,-0.0050221127,0.34016514
225,1203355929,-2.412022113800049,0.1072866022586822,2.591394186019897,0.00434149,0.003420782,0.3479576
226,1203372596,-2.412659883499145,0.1075885817408561,2.5907468795776367,0.007827228,-0.012198891,0.34366798
227,1203389263,-2.4125735759735107,0.1061609759926796,2.5895464420318604,0.011764601,-0.00869559,0.35184956
228,1203405930,-2.412493228912353,0.1063207685947418,2.590843915939331,0.0020211264,-0.0071648336,0.35071754
229,1203422597,-2.413193941116333,0.1064067557454109,2.593446493148804,0.007643229,-0.0032045331,0.33262062
230,1203439264,-2.412936925888061,0.1067201718688011,2.5931568145751958,-0.0032346512,-0.008738826,0.3464241
231,1203455931,-2.414318323135376,0.1053982749581337,2.5928738117218018,0.005288305,0.0114874905,0.32932472
232,1203472598,-2.4145166873931885,0.1059662476181984,2.59336256980896,0.005121204,-0.011339064,0.3547268
233,1203489265,-2.4156200885772705,0.105616420507431,2.593491792678833,0.0074241934,-0.010213746,0.3397827
234,1203505932,-2.415198802947998,0.1058546230196952,2.5938198566436768,0.0024643638,0.013149379,0.32727242
235,1203522599,-2.413695335388184,0.1047183647751808,2.5931527614593506,0.0030090557,-0.0095599005,0.32549572
236,1203539266,-2.414712905883789,0.1051003709435463,2.593162775039673,0.002358916,0.0021171705,0.33598137
237,1203555933,-2.4137380123138428,0.1060067415237426,2.593834161758423,0.005977094,0.0068408935,0.31358242
238,1203572600,-2.414512634277344,0.1063034757971763,2.594223737716675,0.008044154,-0.0011079677,0.33325005
239,1203589267,-2.415510416030884,0.1060597226023674,2.5948965549468994,0.0005337371,0.007919637,0.35933018
240,1203605934,-2.4197216033935547,0.1038489416241645,2.605638265609741,0.0017160862,-0.009930122,0.34029198
241,1203622601,-2.419722080230713,0.1030640751123428,2.604959011077881,0.0002709239,0.0024232436,0.34308624
242,1203639268,-2.419710636138916,0.1026708558201789,2.6040613651275635,0.014466851,-0.01096243,0.3336563
243,1203655935,-2.419941663742065,0.1028865799307823,2.604453086853028,-0.00298899,0.0020823025,0.33417606
244,1203672602,-2.4197258949279785,0.1026985347270965,2.6049983501434326,0.0036316896,-0.0039264522,0.34284782
245,1203689269,-2.4207537174224854,0.1016461327672004,2.605071544647217,0.009072704,-0.0024320723,0.33907795
246,1203705936,-2.420871496200561,0.1011186242103576,2.6048178672790527,0.010446343,0.004872708,0.3265705
247,1203722603,-2.421036958694458,0.1016967147588729,2.6046295166015625,0.01341988,0.008401838,0.3359146
248,1203739270,-2.422288179397583,0.0997869223356247,2.604743242263794,0.005360135,-0.003730012,0.33163548
249,1203755937,-2.4219932556152344,0.0986839905381202,2.6045494079589844,0.003545696,0.01677888,0.365139
250,1203772604,-2.4223291873931885,0.0972385853528976,2.604878664016724,-0.0068624853,-0.0030372478,0.3183899
251,1203789271,-2.423041343688965,0.0962343513965606,2.6054582595825195,0.008411903,-0.0043783532,0.32726955
252,1203805938,-2.423764228820801,0.0955466330051422,2.605729818344116,-0.007314824,-0.0022796926,0.34507465
253,1203822605,-2.4233407974243164,0.0943877026438713,2.605656147003174,-0.005501829,-0.014821605,0.34269333
254,1203839272,-2.4231603145599365,0.0948714688420295,2.604917049407959,-0.006574939,-0.0031267647,0.33494186
255,1203855939,-2.422970533370972,0.0955867171287536,2.605372667312622,0.0026092806,-0.006492297,0.35590744
256,1203872606,-2.42304801940918,0.0957826226949691,2.6054630279541016,0.013080624,-0.00907302,0.33153534
257,1203889273,-2.422124147415161,0.0957318097352981,2.604966640472412,-0.002003541,0.004852634,0.3397789
258,1203905940,-2.421731472015381,0.0952244251966476,2.6040327548980717,0.0019003748,0.0022825422,0.33197498
259,1203922607,-2.4218101501464844,0.0953825786709785,2.6030118465423584,0.013180363,-3.683773e-05,0.320364
260,1203939274,-2.4213457107543945,0.0959387719631195,2.6030662059783936,-0.005214123,0.005087211,0.34194088
261,1203955941,-2.4220993518829346,0.0963369160890579,2.603097677230835,-0.0032052377,0.00027606645,0.3426838
262,1203972608,-2.423327207565308,0.0963931158185005,2.6044929027557373,0.0062716994,0.0026500255,0.3397789
263,1203989275,-2.424109935760498,0.0967458263039588,2.60510802268982,-0.0015787039,0.0025078852,0.3495407
264,1204005942,-2.423823595046997,0.0968149751424789,2.605874538421631,0.0078855315,0.0025353495,0.35270977
265,1204022609,-2.4239988327026367,0.0969290286302566,2.6056816577911377,-0.001005078,0.00544993,0.34701633
266,1204039276,-2.423527717590332,0.0975634232163429,2.6070876121521,-0.0043932097,0.0076415027,0.3315525
267,1204055943,-2.4244487285614014,0.0983012914657592,2.607073307037353,-0.008989528,-0.00641742,0.3523817
268,1204072610,-2.424886703491211,0.0977925807237625,2.6086959838867188,0.0012111119,0.0015204189,0.32868862
269,1204089277,-2.424623966217041,0.0973037183284759,2.6071040630340576,-0.0006049732,0.0033567874,0.34618568
270,1204105944,-2.4244070053100586,0.0986501276493072,2.607614755630493,0.0047977935,-0.0059711207,0.3497305
271,1204122611,-2.4247162342071533,0.0978287905454635,2.607657194137573,-0.0019330347,0.004998979,0.32191467
272,1204139278,-2.4257168769836426,0.0980110988020896,2.6082231998443604,0.012786666,0.010830949,0.35666084
273,1204155945,-2.4245426654815674,0.0986293479800224,2.6073076725006104,-0.00627524,0.011553971,0.32859325
274,1204172612,-2.423748731613159,0.0985030457377433,2.6083364486694336,0.002906318,0.006347335,0.3407774
275,1204189279,-2.4240834712982178,0.0982465296983718,2.6085779666900635,-0.0073535903,0.0045842645,0.35294914
276,1204205946,-2.424675941467285,0.0981390401721,2.609400510787964,0.00898644,0.0021425672,0.32579327
277,1204222613,-2.426142930984497,0.0988799929618835,2.608761072158813,-0.011914121,-8.605249e-06,0.33565617
278,1204239280,-2.42605972290039,0.1008295640349388,2.6088545322418213,0.0022056345,0.0053910906,0.3628111
279,1204255947,-2.425175905227661,0.1013213321566581,2.6087327003479004,-0.01203525,-0.010023774,0.36470795
280,1204272614,-2.4256179332733154,0.1025520116090774,2.6087071895599365,0.0023296599,-0.0013715035,0.35317707
281,1204289281,-2.425323486328125,0.1035228297114372,2.609808444976806,-0.0026388539,0.0008813675,0.34465504
282,1204305948,-2.4257845878601074,0.1033592894673347,2.6097571849823,0.0008051216,-0.013580019,0.34218502
283,1204322615,-2.425813674926758,0.1035434156656265,2.608027935028076,-0.004783234,0.0071378862,0.35395718
284,1204339282,-2.4270553588867188,0.1045946478843689,2.6072163581848145,0.0018079238,-0.0005249481,0.34669495
285,1204355949,-2.427659273147583,0.1039864867925643,2.608135461807251,0.0049006366,0.00050525105,0.33669662
286,1204372616,-2.428565502166748,0.1035782918334007,2.6084303855896,0.0027760644,0.012243509,0.33687878
287,1204389283,-2.4285037517547607,0.1032477095723152,2.60959792137146,0.007708624,-0.004723541,0.34895897
288,1204405950,-2.4281468391418457,0.1020485386252403,2.60868239402771,0.010030809,-0.014346933,0.36606216
289,1204422617,-2.4284777641296387,0.1027063950896263,2.6095199584960938,0.0038444046,-0.0032232525,0.33018208
290,1204439284,-2.4287989139556885,0.1024584248661995,2.6100361347198486,0.006877794,-0.0003527174,0.3228445
291,1204455951,-2.4294545650482178,0.1024091988801956,2.6110312938690186,0.0069496953,0.003216561,0.33241367
292,1204472618,-2.429710149765014,0.1029009148478508,2.610966444015503,0.0041347807,0.0033746127,0.3427477
293,1204489285,-2.4293031692504883,0.1018821820616722,2.6106157302856445,0.0038219383,0.0047446634,0.32829285
294,1204505952,-2.429255247116089,0.1027697920799255,2.610964775085449,-0.0053744223,-0.007854902,0.34247398
295,1204522619,-2.4297685623168945,0.1017352417111396,2.612539291381836,0.005124733,-0.006839776,0.3396721
296,1204539286,-2.430536985397339,0.1022055745124816,2.614748001098633,0.0048077,0.014762836,0.3177843
297,1204555953,-2.430211544036865,0.1030823588371276,2.614931344985962,0.00079143274,0.006490132,0.3329239
298,1204572620,-2.4296085834503174,0.1035821586847305,2.6152219772338867,-0.0063533913,0.0046492512,0.34326077
299,1204589287,-2.430497646331787,0.1026405915617942,2.6162705421447754,0.015265602,0.0038000974,0.3418932
300,1204605954,-2.4305903911590576,0.1023159846663475,2.6149656772613525,0.008515575,0.008130298,0.32879162
301,1204622621,-2.431265115737915,0.1023782342672348,2.614487409591675,-0.0056939684,0.010360748,0.33751297
302,1204639288,-2.4299733638763428,0.1025944948196411,2.6140832901000977,0.0073307813,-0.0078645265,0.3527689
303,1204655955,-2.4304404258728027,0.1024583131074905,2.613020658493042,0.020200033,-0.017309612,0.3381605
304,1204672622,-2.430551052093506,0.1031492054462432,2.612529993057251,0.0008275956,0.0045713987,0.33105183
305,1204689289,-2.4315502643585205,0.1027305647730827,2.611578702926636,0.008859027,-0.011506279,0.3217888
306,1204705956,-2.4311928749084477,0.1043512970209121,2.6120822429656982,0.006499453,-0.0043341396,0.34389877
307,1204722623,-2.4323387145996094,0.102947399020195,2.612546443939209,-0.0008027507,-0.006323,0.34277725
308,1204739290,-2.431412935256958,0.1037887930870056,2.6114654541015625,0.010611815,0.010039755,0.34414196
309,1204755957,-2.431295156478882,0.105523869395256,2.6121068000793457,-0.0025585135,0.013048518,0.32766628
310,1204772624,-2.4319944381713867,0.1062764823436737,2.612069845199585,-0.0018085315,-0.0014429019,0.34318256
311,1204789291,-2.432041883468628,0.105899766087532,2.612424612045288,0.0031555423,-0.013202505,0.32464886
312,1204805958,-2.4321277141571045,0.1041149124503135,2.613672971725464,0.014018916,0.01470306,0.33603096
313,1204822625,-2.432746171951294,0.1057491302490234,2.613610029220581,0.007915376,0.0022355765,0.337224
314,1204839292,-2.433115243911743,0.1051125675439834,2.612764596939087,-0.0056814505,0.0050153094,0.343853
315,1204855959,-2.4339911937713623,0.1041437089443206,2.611727237701416,0.0063485065,0.0048037963,0.35986996
316,1204872626,-2.434288263320923,0.1042205095291137,2.6121222972869877,-0.0030655684,-0.012923757,0.32746506
317,1204889293,-2.434720754623413,0.1043823212385177,2.6125235557556152,0.009252628,0.004264208,0.3532362
318,1204905960,-2.4343035221099854,0.1029959395527839,2.611113786697388,0.0029445095,-0.013292525,0.32008648
319,1204922627,-2.433870553970337,0.1032273322343826,2.6107988357543945,-0.0026415787,-0.00764832,0.33456993
320,1204939294,-2.4341835975646973,0.1026392877101898,2.611443042755127,-0.0029378613,-0.00022003453,0.34511566
321,1204955961,-2.4343926906585693,0.1042949259281158,2.6115832328796387,-0.00068936724,0.004601154,0.34834766
322,1204972628,-2.433289766311645,0.1034415662288665,2.6124017238616943,0.010593632,-0.008477455,0.34217834
323,1204989295,-2.4334282875061035,0.104159265756607,2.6134557723999023,0.006417214,-0.0019772653,0.3374529
324,1205005962,-2.4325196743011475,0.1048965901136398,2.615444660186768,-0.005952775,0.0020308387,0.33792496
325,1205022629,-2.432943820953369,0.1041429638862609,2.6154727935791016,0.0013384868,0.010684911,0.35276413
326,1205039296,-2.432524919509888,0.1049634367227554,2.616391658782959,-0.0011246029,0.0064763855,0.34609795
327,1205055963,-2.4327545166015625,0.1061032712459564,2.616243362426758,0.003677571,0.0062792753,0.34057713
328,1205072630,-2.4330151081085205,0.1059436798095703,2.616511583328247,0.0074528856,-0.013312167,0.32530975
329,1205089297,-2.433490037918091,0.1049551218748092,2.617884397506714,-0.00375385,-0.005688153,0.3579092
330,1205105964,-2.432381153106689,0.1054748743772506,2.618156671524048,-0.003979453,0.011779621,0.33645153
331,1205122631,-2.432706832885742,0.1058484092354774,2.6194727420806885,-0.009832381,0.012004308,0.34281445
332,1205139298,-2.4333090782165527,0.1048991829156875,2.6201324462890625,-0.0044276775,-0.00083047635,0.350976
333,1205155965,-2.434067726135254,0.1048280373215675,2.6202995777130127,-0.0033709002,0.0027069934,0.3439684
334,1205172632,-2.434808254241944,0.1039667651057243,2.6187915802001958,0.014545462,0.004306368,0.3550539
335,1205189299,-2.433471202850342,0.1044796705245971,2.618415117263794,-0.007792959,0.006927882,0.35948086
336,1205205966,-2.432853937149048,0.1052160933613777,2.6189749240875244,0.009859979,-0.008666603,0.33273983
337,1205222633,-2.4330620765686035,0.1051557511091232,2.618642807006836,0.0008682496,0.0046838676,0.34928322
338,1205239300,-2.433361768722534,0.1050895228981971,2.619875192642212,-0.0063177226,0.0040159132,0.3435688
339,1205255967,-2.4320859909057617,0.1044045090675354,2.618837833404541,0.0013427384,0.00041592968,0.33038807
340,1205272634,-2.4312222003936768,0.1043081581592559,2.618612766265869,-0.009686657,0.009402589,0.33587456
341,1205289301,-2.4314279556274414,0.1055933088064193,2.619072675704956,0.014952615,0.011623833,0.3255577
342,1205305968,-2.432699918746948,0.1060371696949005,2.6188676357269287,0.005737093,0.004765911,0.32697392
343,1205322635,-2.4327893257141118,0.107004277408123,2.617698907852173,0.0023684136,0.007776826,0.3373785
344,1205339302,-2.432734727859497,0.1052389070391655,2.618028402328491,0.0063752504,0.007733045,0.3252592
345,1205355969,-2.4326388835906982,0.1063876077532768,2.61757755279541,0.0074664764,0.0073071695,0.33856583
346,1205372636,-2.432910442352295,0.1070097610354423,2.6178324222564697,-0.0037593278,0.0018766567,0.34620476
347,1205389303,-2.432745695114136,0.1062909662723541,2.61801552772522,-0.002346422,0.004803112,0.3695612
348,1205405970,-2.4325966835021973,0.1060404404997825,2.617807388305664,0.012534071,-0.008921366,0.35226345
349,1205422637,-2.4327077865600586,0.1066038981080055,2.618173360824585,0.0075861644,0.0148603,0.3427105
350,1205439304,-2.433491945266724,0.1072882488369941,2.6177327632904053,0.007856595,0.002321643,0.33224487
351,1205455971,-2.4334070682525635,0.1080509796738624,2.618453025817871,0.0019189573,-0.013166059,0.33930492
352,1205472638,-2.4340686798095703,0.108156643807888,2.619726181030273,0.0034827094,0.0005166502,0.3426504
353,1205489305,-2.434310913085937,0.1085404828190803,2.618446111679077,-0.0046993815,0.00414122,0.3360319
354,1205505972,-2.434646844863892,0.1090017929673194,2.618479490280152,-0.0070185624,0.0029640612,0.3532219
355,1205522639,-2.434101104736328,0.1101839169859886,2.619333028793335,0.018267764,0.0066586747,0.35061932
356,1205539306,-2.433908462524414,0.1090764179825782,2.6201987266540527,0.013563322,-0.0011055788,0.3303547
357,1205555973,-2.4335813522338867,0.1103247925639152,2.62156081199646,-0.0034825483,0.0016111513,0.33235645
358,1205572640,-2.43385910987854,0.1089231669902801,2.6219146251678467,-0.010355124,-0.0014945893,0.31891823
359,1205589307,-2.4336750507354736,0.108743742108345,2.621511697769165,-0.0045519676,-9.171016e-05,0.3438053
360,1205605974,-2.4185478687286377,0.1059832870960235,2.62192964553833,-0.010366623,-0.010355732,0.34244347
361,1205622641,-2.418428659439087,0.1060723587870597,2.6219661235809326,0.013627632,-0.0035241009,0.3315792
362,1205639308,-2.418167352676392,0.1058906614780426,2.6222548484802246,0.0035613708,-0.010743081,0.3364992
363,1205655975,-2.4178788661956787,0.1049545928835868,2.6212596893310547,0.013479597,-0.014449148,0.3463869
364,1205672642,-2.417583703994751,0.1059185191988945,2.621356725692749,-0.008616061,-0.013741255,0.3549223
365,1205689309,-2.4176745414733887,0.106270395219326,2.6223905086517334,-0.021190718,-0.0053135734,0.3325901
366,1205705976,-2.417160749435425,0.1068291142582893,2.6219592094421387,0.0069980514,-0.0022393623,0.34790134
367,1205722643,-2.417685270309448,0.1080763787031173,2.623291015625,-0.0033509827,-0.00073232624,0.35116673
368,1205739310,-2.41584587097168,0.1081861555576324,2.6239497661590576,0.068061724,-0.022922749,0.2925415
369,1205755977,-2.412210702896118,0.1025464907288551,2.628023862838745,0.32627848,0.09307281,0.33568192
370,1205772644,-2.383136034011841,0.0528362393379211,2.7657411098480225,0.6312816,0.33358395,0.43500233
371,1205789311,-2.3366270065307617,-0.0172318201512098,2.9163267612457275,0.5190735,-0.23832297,0.28129864
372,1205805978,-2.343800544738769,-0.0146640706807374,2.885558605194092,-0.28489077,-0.06670964,0.4377966
373,1205822645,-2.3216235637664795,-0.0439536161720752,2.9145195484161377,-0.48263705,-0.1267129,0.2867098
374,1205839312,-2.296344518661499,-0.0649199113249778,2.9233083724975586,0.13159646,0.016829086,0.35480213
375,1205855979,-2.2743899822235107,-0.0917895510792732,2.936370611190796,1.0041066,0.13864993,0.41244888
376,1205872646,-2.180034637451172,-0.1948046386241912,3.0224950313568115,0.50548977,-0.1498295,0.3683691
377,1205889313,-2.0583620071411133,-0.3377505242824554,3.160227537155152,-0.4106735,-0.0808254,0.39855957
378,1205905980,-1.9395904541015625,-0.469432383775711,3.148765802383423,-0.7236472,-0.29275736,0.41571236
379,1205922647,-1.8435455560684204,-0.5830115079879761,3.1252620220184326,0.20838274,0.3938814,0.1479702
380,1205939314,-1.931063175201416,-0.4593622386455536,3.1082305908203125,0.6811173,0.70037293,0.085204124
381,1205955981,-2.0148568153381348,-0.3475032746791839,3.0786612033843994,0.10824706,-0.83878165,0.6474552
382,1205972648,-1.9314212799072263,-0.4216330349445343,3.086867570877075,0.4147027,0.0930989,0.3154869
383,1205989315,-1.8366801738739011,-0.5026881098747253,3.1194286346435547,0.124520004,-0.1258232,0.3537407
384,1206005982,-1.693581223487854,-0.6433047652244568,3.1157381534576416,0.15578485,-0.31204113,0.5039339
385,1206022649,-1.4490668773651123,-0.8995635509490967,3.080695390701294,0.3732368,-0.41404036,0.44222736
386,1206039316,-1.2281233072280884,-1.1041269302368164,3.0222368240356445,0.85028774,0.92145085,0.059480667
387,1206055983,-1.2009458541870115,-1.1216697692871094,3.059566736221313,-0.0036457407,0.12947857,0.35454655
388,1206072650,-1.2102731466293335,-1.1229097843170166,3.0417933464050293,0.043222893,0.31797242,0.24160576
389,1206089317,-1.252368450164795,-1.0971615314483645,3.057800054550171,0.16476302,-0.1762795,0.39745808
390,1206105984,-1.2323193550109863,-1.1384788751602173,3.06326961517334,0.32869688,-0.13539828,0.35554504
391,1206122651,-1.2232942581176758,-1.142863392829895,3.0132265090942383,0.18002993,0.07160379,0.2658167
392,1206139318,-1.250860571861267,-1.0766634941101074,3.0017025470733643,-0.33627996,-0.056792688,0.41199684
393,1206155985,-1.2347354888916016,-1.0565004348754885,2.962712526321411,-0.07718776,-0.112640485,0.42840958
394,1206172652,-1.2223800420761108,-1.0491578578948977,2.934004068374634,-0.31879568,0.10421822,0.27787113
395,1206189319,-1.2311989068984983,-1.0438400506973269,2.8944437503814697,-0.096618384,-0.062362287,0.34303093
396,1206205986,-1.2258206605911257,-1.0358517169952393,2.8874452114105225,0.093395084,-0.021330966,0.37249947
397,1206222653,-1.1960690021514893,-1.0504956245422363,2.836965560913086,0.25087965,-0.009871854,0.37005043
398,1206239320,-1.1989144086837769,-1.0428149700164795,2.804128408432007,0.30059695,-0.1504705,0.3620634
399,1206255987,-1.17277193069458,-1.0891802310943604,2.709449529647827,0.48321667,0.25783038,0.40775776
400,1206272654,-1.1632448434829712,-1.125637173652649,2.674914121627808,0.14992872,-0.037921857,0.3195467
401,1206289321,-1.134951114654541,-1.1688183546066284,2.651414155960083,0.010419937,-0.004725888,0.32506084
402,1206305988,-1.1076397895812988,-1.1880090236663818,2.6480865478515625,-0.17761466,-0.19665343,0.24656677
403,1206322655,-1.0676168203353882,-1.1956660747528076,2.6277565956115723,0.0761371,0.21757719,0.29566193
404,1206339322,-1.0585025548934937,-1.145498752593994,2.6405718326568604,0.34353942,-0.076345235,0.2063427
405,1206355989,-1.0376399755477903,-1.0333796739578247,2.6385035514831543,0.07783618,-0.1631677,0.39025307
406,1206372656,-1.0026252269744873,-1.0050007104873655,2.574910879135132,-0.20676525,0.33073318,0.48983002
407,1206389323,-1.010814547538757,-0.9742009043693542,2.582205057144165,-0.016785907,-0.2967241,0.30357838
408,1206405990,-1.0008312463760376,-0.9943086504936218,2.5459227561950684,-0.20865948,0.2593242,0.4146471
409,1206422657,-1.0993938446044922,-0.9254491329193116,2.5558369159698486,0.039329275,0.34727353,0.26538754
410,1206439324,-1.1475703716278076,-0.8912467956542969,2.566439151763916,-0.17541118,-0.3697774,0.5269165
411,1206455991,-1.1386042833328247,-0.9302710294723512,2.5421502590179443,-0.2671934,-0.40716484,0.5652666
412,1206472658,-1.0904682874679563,-1.0558801889419556,2.526036500930786,0.10479042,0.250942,0.21631145
413,1206489325,-1.0539517402648926,-1.154099941253662,2.484389305114746,-0.06086408,-0.10816019,0.29279423
414,1206505992,-1.0735551118850708,-1.19007670879364,2.463679313659668,0.069926515,0.15434156,0.3179865
415,1206522659,-1.0788410902023315,-1.220476746559143,2.4270410537719727,-0.026639713,-0.01106563,0.3710642
416,1206539326,-1.0751413106918335,-1.2607115507125854,2.4463460445404053,0.027812423,0.017527306,0.34511852
417,1206555993,-1.0309408903121948,-1.325176477432251,2.4221725463867188,-0.06603422,-0.38429332,0.3692093
418,1206572660,-0.9606493711471558,-1.3772739171981812,2.410817623138428,0.34434384,0.07202625,0.18593597
419,1206589327,-0.8972923159599304,-1.4259021282196045,2.414872646331787,0.22512005,0.007756556,0.35013294
420,1206605994,-0.8273503184318542,-1.4652550220489502,2.4152612686157227,0.1971571,-0.045388196,0.2413845
421,1206622661,-0.7781522274017334,-1.438748121261597,2.3953680992126465,0.00117484,0.21445526,0.12935448
422,1206639328,-0.7791144847869873,-1.3900039196014404,2.372246742248535,-0.3899321,-0.01585015,0.56911564
423,1206655995,-0.8023648262023926,-1.370331645011902,2.3517580032348637,-0.19859391,0.17171991,0.34636307
424,1206672662,-0.8216350078582764,-1.3418655395507812,2.332363605499268,0.13939781,-0.13034382,0.36268806
425,1206689329,-0.8154782652854919,-1.3477911949157717,2.3068718910217285,-0.002121557,0.04118984,0.38261127
426,1206705996,-0.8501775860786438,-1.3119276762008667,2.270204782485962,-0.08597077,0.06030909,0.3714609
427,1206722663,-0.8876909017562866,-1.2683686017990112,2.296180486679077,0.037191104,-0.24827956,0.30097294
428,1206739330,-0.8846508264541626,-1.2988988161087036,2.271376848220825,-0.20075637,0.13366473,0.46376896
429,1206755997,-0.9150384068489076,-1.310865879058838,2.2713897228240967,0.23399761,0.15645295,0.32360172
430,1206772664,-0.9981481432914734,-1.2448502779006958,2.293846607208252,0.12917072,0.17299663,0.29134178
431,1206789331,-1.1155445575714111,-1.1283119916915894,2.238104343414306,-0.23383297,-0.25421876,0.36180687
432,1206805998,-1.130014419555664,-1.1460092067718506,2.248169183731079,-0.2002177,-0.28119153,0.43118858
433,1206822665,-0.9645798206329346,-1.391982913017273,2.245386838912964,-0.5277465,-1.1059405,0.6217556
434,1206839332,-0.7098326086997986,-1.664791464805603,2.1434686183929443,0.9733449,0.8701135,-0.12635231
435,1206855999,-0.7338882684707642,-1.6443908214569092,2.177942037582397,-0.7294976,0.21459901,0.39874744
436,1206872666,-0.6986377835273743,-1.648175597190857,2.0886900424957275,-0.03596652,-0.16281223,0.42064857
437,1206889333,-0.6854711174964905,-1.6262911558151243,2.061314821243286,-0.12762606,0.08422634,0.19659519
438,1206906000,-0.6840227246284485,-1.5629383325576782,1.9710005521774288,-0.12656826,-0.071021765,0.2923994
439,1206922667,-0.6996987462043762,-1.472487449645996,1.925902724266052,0.04634259,0.07141208,0.36026955
440,1206939334,-0.7169714570045471,-1.4324443340301514,1.781470537185669,-0.31633094,-0.3038401,0.46876812
441,1206956001,-0.7210448384284973,-1.4409574270248413,1.585167407989502,0.018321246,-0.11584733,0.36605453
442,1206972668,-0.7101377844810486,-1.4493290185928345,1.39098858833313,-0.13112597,0.021146275,0.33164978
443,1206989335,-0.698908805847168,-1.4303869009017944,1.2200435400009155,-0.03626676,0.13571708,0.26297092
444,1207006002,-0.6993642449378967,-1.3879250288009644,1.0641685724258425,-0.016378121,-0.04692085,0.32105923
445,1207022669,-0.7019422650337219,-1.353907823562622,0.9213654398918152,0.01849057,0.010554076,0.40967274
446,1207039336,-0.689254105091095,-1.335060954093933,0.8042793869972229,0.10560258,-0.0006155547,0.35419178
447,1207056003,-0.7008920907974243,-1.2962018251419067,0.7279170751571655,0.121097185,0.12957846,0.26970768
448,1207072670,-0.6844489574432373,-1.2881578207015991,0.7103268504142761,0.071430095,-0.11148939,0.45728683
449,1207089337,-0.6570762395858765,-1.326831340789795,0.6568027138710022,-0.07647234,-0.07446237,0.30390644
450,1207106004,-0.6651560068130493,-1.319534182548523,0.6965614557266235,0.18616167,0.5342444,0.3153305
451,1207122671,-0.6818383932113647,-1.2985857725143433,0.7835876941680908,-0.07115387,-0.21122421,0.34556198
452,1207139338,-0.6842754483222961,-1.275528073310852,0.8352077007293701,-0.08279585,-0.13274203,0.37228394
453,1207156005,-0.6601331233978271,-1.279388666152954,0.872000515460968,-0.042137697,-0.026356012,0.29151154
454,1207172672,-0.6610342264175415,-1.2775490283966064,0.8823570609092712,0.059834864,-0.08353793,0.26708508
455,1207189339,-0.6881579756736755,-1.2489972114562988,0.939784824848175,0.18018521,0.11878146,0.29170513
456,1207206006,-0.7003421783447266,-1.2113178968429563,1.0650542974472046,0.13043724,0.06437105,0.32500935
457,1207222673,-0.6610335111618042,-1.1966845989227295,1.1715774536132812,-0.028632492,-0.31059107,0.42745495
458,1207239340,-0.5988625288009644,-1.1838573217391968,1.231013298034668,0.05963612,-0.06887915,0.2904377
459,1207256007,-0.556932270526886,-1.1982700824737549,1.298656344413757,-0.27883735,0.112589955,0.43048
460,1207272674,-0.5756415128707886,-1.230554699897766,1.3157364130020142,0.07902093,0.36758748,0.3583727
461,1207289341,-0.6397260427474976,-1.2374416589736938,1.3842965364456177,0.0787128,-0.06202096,0.30649567
462,1207306008,-0.6426703333854675,-1.265473246574402,1.4973139762878418,0.09831997,0.027614681,0.34443855
463,1207322675,-0.6874294281005859,-1.1792179346084597,1.641677975654602,0.08919299,0.1380097,0.31708145
464,1207339342,-0.6960099935531616,-1.1372220516204834,1.7234891653060913,-0.22656903,-0.31709525,0.44143677
465,1207356009,-0.6792742013931274,-1.127319097518921,1.783783793449402,-0.009658023,-0.012568707,0.29968262
466,1207372676,-0.6810173392295837,-1.1087884902954102,1.8636590242385864,-0.12640712,0.19860555,0.33227444
467,1207389343,-0.6789076328277588,-1.1111565828323364,1.9624581336975095,0.08703598,-0.04949954,0.40725708
468,1207406010,-0.668595552444458,-1.121038556098938,2.134350299835205,0.22980744,0.33773375,0.25164223
469,1207422677,-0.6835875511169434,-1.1202248334884644,2.31576943397522,-0.12349129,-0.31054473,0.530159
470,1207439344,-0.6696965098381042,-1.174519419670105,2.3813884258270264,0.04819985,-0.2871239,0.32696533
471,1207456011,-0.6598700881004333,-1.2171801328659058,2.451455354690552,-0.019548967,0.055335857,0.27862644
472,1207472678,-0.651682436466217,-1.2524831295013428,2.5279295444488525,-0.01976731,-0.0910481,0.34809017
473,1207489345,-0.6209792494773865,-1.2848387956619265,2.566002368927002,0.013711088,-0.029969888,0.27487564
474,1207506012,-0.6045815944671631,-1.288502216339111,2.5833797454833984,0.04675953,-0.07471271,0.36470127
475,1207522679,-0.5904726386070251,-1.2798610925674438,2.6318583488464355,0.3083968,0.3096808,0.23588276
476,1207539346,-0.5976725220680237,-1.2217499017715454,2.7022383213043213,-0.069119714,-0.1436836,0.22423077
477,1207556013,-0.6039866209030151,-1.145807862281799,2.701878070831299,-0.35053298,-0.120170176,0.47770214
478,1207572680,-0.5941520929336548,-1.148276448249817,2.636019706726074,-0.36278298,0.031230595,0.5007515
479,1207589347,-0.6295793056488037,-1.1161617040634155,2.643982172012329,0.07167303,0.03580128,0.2073307
480,1207606014,-0.6369093060493469,-1.1090877056121826,2.591763019561768,-0.05479259,-0.05452893,0.43905354
481,1207622681,-0.6908034086227417,-1.0723557472229004,2.555711507797241,-0.011584789,0.15372755,0.33133984
482,1207639348,-0.7464199066162109,-1.0562026500701904,2.503173589706421,0.047600638,-0.09263273,0.40717602
483,1207656015,-0.7747236490249634,-1.077465534210205,2.493183851242065,-0.09413286,-0.09809035,0.46238136
484,1207672682,-0.7645090818405151,-1.1429344415664673,2.442599058151245,-0.011094897,-0.12904572,0.4478941
485,1207689349,-0.7450206875801086,-1.2304188013076782,2.466879844665528,0.07279983,-0.03587153,0.27488136
486,1207706016,-0.7003073692321777,-1.3180774450302124,2.4478652477264404,0.160088,-0.06367536,0.32431602
487,1207722683,-0.6647858619689941,-1.3722751140594482,2.458951473236084,0.08382961,-0.15134817,0.29483986
488,1207739350,-0.6329997181892395,-1.425518035888672,2.450218439102173,0.03470008,0.23482704,0.3238516
489,1207756017,-0.6343585252761841,-1.4637993574142456,2.467186450958252,0.08441438,-0.07234049,0.34999752
490,1207772684,-0.6441864967346191,-1.5116772651672363,2.457119941711426,0.04254456,-0.0040032496,0.3046093
491,1207789351,-0.6453098058700562,-1.53608238697052,2.465024471282959,0.17821793,0.13584313,0.26522636
492,1207806018,-0.6294443011283875,-1.5272687673568726,2.5299386978149414,0.09072131,-0.110808015,0.345397
493,1207822685,-0.5900185108184814,-1.5311944484710691,2.5093698501586914,0.020408927,-0.28757125,0.3176651
494,1207839352,-0.5691595077514648,-1.5162009000778198,2.453280210494995,0.27968633,-0.10255017,0.34403706
495,1207856019,-0.5832175016403198,-1.4684232473373413,2.4085872173309326,0.03313609,0.1229124,0.31606293
496,1207872686,-0.5824988484382629,-1.4614622592926023,2.320574760437012,-0.148111,0.129448,0.55200386
497,1207889353,-0.5784994959831238,-1.479127287864685,2.322113037109375,0.17851518,0.26194993,0.26134014
498,1207906020,-0.5695902109146118,-1.5052006244659424,2.3302547931671143,0.026887184,0.039894283,0.2427206
499,1207922687,-0.6153098940849304,-1.458703637123108,2.306424379348755,0.14835809,0.13131008,0.35181236
500,1207939354,-0.6355187296867371,-1.430056929588318,2.340519666671753,-0.013163083,-0.20244312,0.5051079
501,1207956021,-0.6149594783782959,-1.4806320667266846,2.279264450073242,-0.047106165,-0.45566288,0.50451565
502,1207972688,-0.6072900295257568,-1.5580133199691772,2.130432605743408,0.055906333,-0.12444682,0.35473537
503,1207989355,-0.6120204925537109,-1.6429474353790283,1.9509449005126955,-0.021052923,-0.06048888,0.3590803
504,1208006022,-0.6229003667831421,-1.7417912483215332,1.8102765083312988,0.041970495,0.21558271,0.38671303
505,1208022689,-0.6335817575454712,-1.8059457540512085,1.759677171707153,0.16000704,0.06540801,0.17432785
506,1208039356,-0.6392504572868347,-1.8009740114212036,1.70745587348938,-0.072356254,0.00609509,0.19440365
507,1208056023,-0.6415418982505798,-1.7895941734313965,1.6603524684906006,-0.1637956,-0.067036204,0.38938522
508,1208072690,-0.6310068368911743,-1.8058809041976929,1.603385090827942,-0.08415037,-0.017055407,0.37286186
509,1208089357,-0.6436424255371094,-1.7992901802062988,1.5658751726150513,-0.073977746,0.22498503,0.20044422
510,1208106024,-0.6605514287948608,-1.7091864347457886,1.5974764823913574,-0.044807173,0.018717114,0.1972599
511,1208122691,-0.6589410901069641,-1.6400805711746216,1.605980634689331,-0.56131405,-0.17506716,0.4899397
512,1208139358,-0.657249927520752,-1.6231625080108645,1.592215895652771,-0.26775572,0.13246052,0.36854076
513,1208156025,-0.6371746063232422,-1.6288107633590698,1.5602418184280396,-0.30723494,-0.43116733,0.39747143
514,1208172692,-0.6413534283638,-1.6429990530014038,1.4013659954071045,-0.20015123,0.044331614,0.16034794
515,1208189359,-0.6798062920570374,-1.5839885473251345,1.3150920867919922,-0.10259676,0.26133385,0.3471117
516,1208206026,-0.7066340446472168,-1.5307092666625977,1.2804254293441772,-0.33316177,-0.21474181,0.43680763
517,1208222693,-0.6950696110725403,-1.5355782508850098,1.1334803104400637,-0.47044843,-0.32208094,0.3720827
518,1208239360,-0.6846401691436768,-1.521466851234436,0.9967818260192872,-0.22721863,0.16056198,0.32347584
519,1208256027,-0.6813116669654846,-1.495097517967224,0.9147749543190002,-0.13909999,0.065291084,0.3279848
520,1208272694,-0.6667611002922058,-1.483725905418396,0.8195461630821228,-0.08591499,-0.07770956,0.33149338
521,1208289361,-0.6578297019004822,-1.4797849655151367,0.7426904439926147,-0.13531491,0.06790199,0.3422327
522,1208306028,-0.6446781158447266,-1.4928358793258667,0.6786176562309265,-0.32583505,-0.14369519,0.37359428
523,1208322695,-0.6350688338279724,-1.5093116760253906,0.6041201949119568,-0.36511633,0.08881993,0.2668543
524,1208339362,-0.6302074790000916,-1.514446496963501,0.5365054607391357,-0.3846891,-0.14855139,0.39740562
525,1208356029,-0.6260868906974792,-1.5321816205978394,0.4123101532459259,-0.272719,-0.044724487,0.2966652
526,1208372696,-0.6295521259307861,-1.5419785976409912,0.3066476881504059,-0.043370266,0.11458323,0.30558205
527,1208389363,-0.6400938630104065,-1.5371288061141968,0.2332707345485687,-0.15037006,0.09175433,0.3327465
528,1208406030,-0.6536113619804382,-1.5222375392913818,0.1986318826675415,-0.25626147,0.047583506,0.3137827
529,1208422697,-0.6601271033287048,-1.5098559856414795,0.1600978970527649,-0.36486924,-0.13985738,0.37394905
530,1208439364,-0.6499595046043396,-1.5252803564071655,0.0686126723885536,-0.1879811,-0.17129907,0.40346527
531,1208456031,-0.6496713161468506,-1.5256128311157229,-0.0137764401733875,-0.015376825,0.079170525,0.28957367
532,1208472698,-0.6523289084434509,-1.5153894424438477,-0.0886857658624649,-0.018710151,-0.004358206,0.31659126
533,1208489365,-0.6574620008468628,-1.5000593662261963,-0.1644214987754821,-0.055725567,-0.119659126,0.34762383
534,1208506032,-0.6505776047706604,-1.5020896196365356,-0.2734975218772888,-0.09852507,-0.1287993,0.33122444
535,1208522699,-0.640410304069519,-1.5035046339035034,-0.3841274976730346,-0.18959382,-0.09545703,0.33811665
536,1208539366,-0.6246344447135925,-1.5077844858169556,-0.5463475584983826,-0.16880226,-0.13013165,0.3701849
537,1208556033,-0.6151601672172546,-1.503509283065796,-0.7059947848320007,-0.035807375,0.050029367,0.31202984
538,1208572700,-0.6045994162559509,-1.5037389993667605,-0.8794397711753845,-0.094543785,-0.14497642,0.39734936
539,1208589367,-0.5859397649765015,-1.516779899597168,-1.073088765144348,-0.062173028,-0.04672725,0.32406902
540,1208606034,-0.5660584568977356,-1.5309597253799438,-1.2541855573654177,-0.07611636,0.09270867,0.35490322
541,1208622701,-0.5567063093185425,-1.5366398096084597,-1.3975077867507937,0.01855458,0.047982868,0.3083849
542,1208639368,-0.5519536137580872,-1.5337488651275637,-1.5410466194152832,-0.0074940124,-0.0019720688,0.35308933
543,1208656035,-0.5519116520881653,-1.5285518169403076,-1.690082550048828,-0.06400946,-0.06615014,0.3936987
544,1208672702,-0.5354264974594116,-1.540511965751648,-1.8925602436065676,-0.09981115,-0.2532231,0.3407545
545,1208689369,-0.5103603601455688,-1.547966480255127,-2.228399515151977,-0.16979943,-0.53095514,0.42783833
546,1208706036,-0.4707750678062439,-1.5711013078689575,-2.683176040649414,0.054964364,-0.2260984,0.29765797
547,1208722703,-0.4398422837257385,-1.5820294618606567,-3.156350612640381,0.008803309,0.07677395,0.31775188
548,1208739370,-0.4120315015316009,-1.5969949960708618,-3.5997419357299805,-0.034341417,0.17748623,0.28862572
549,1208756037,-0.4004864692687988,-1.5813382863998413,-4.061361312866211,-0.2636537,-0.3324088,0.39120293
550,1208772704,-0.3699794709682464,-1.589537262916565,-4.670732021331787,-0.013027648,-0.40572917,0.29300404
551,1208789371,-0.3244197368621826,-1.6027421951293943,-5.447144508361816,0.061488904,-0.48106453,0.407053
552,1208806038,-0.2687462270259857,-1.6212213039398191,-6.281002998352051,0.17463592,0.06757048,0.42458153
553,1208822705,-0.1972156912088394,-1.664775848388672,-7.026062965393066,0.16442929,0.22541419,0.22472477
554,1208839372,-0.2101816982030868,-1.6169244050979614,-7.95465087890625,-0.81393147,-0.9240851,0.5499811
555,1208856039,-0.150566279888153,-1.6363142728805542,-9.161222457885742,-0.27348068,-0.49486077,0.09370804
556,1208872706,-0.098317876458168,-1.6464438438415527,-10.58108615875244,-0.50027543,-0.43728584,0.29230785
557,1208889373,-0.0408673509955406,-1.6605144739151,-12.157011032104492,-0.18830284,-0.3141392,0.28469658
558,1208906040,0.006606810260564,-1.6583021879196167,-13.886927604675291,-0.4628583,-0.26985404,0.5331478
559,1208922707,0.042584590613842,-1.6439146995544434,-15.74350929260254,-0.26559803,-0.36243775,0.21284866
560,1208939374,0.0925519838929176,-1.658644676208496,-17.610097885131836,0.07252198,0.18700896,0.39213943
561,1208956041,0.1214450970292091,-1.6859692335128784,-19.39361572265625,0.32935438,0.11378824,0.14145851
562,1208972708,0.1199384033679962,-1.695325493812561,-21.244264602661133,-0.44012618,-0.11634324,0.43368435
563,1208989375,0.0972655490040779,-1.7002118825912476,-23.191570281982425,-0.5828558,-0.029780734,0.29193115
564,1209006042,0.0605191923677921,-1.7178139686584473,-25.33333396911621,-0.571872,-0.47179893,0.28826046
565,1209022709,0.0143292266875505,-1.7550666332244873,-27.631881713867188,0.011611638,-0.3531189,0.46408463
566,1209039376,-0.0080049941316246,-1.76011860370636,-29.9509334564209,0.022052962,0.16549605,0.3286562
567,1209056043,-0.0017712583066895,-1.7220319509506226,-32.075477600097656,0.1446669,1.0576233,0.495862
568,1209072710,0.0479094386100769,-1.699182629585266,-34.00465774536133,0.13583815,0.42646846,0.19610405
569,1209089377,0.1342026740312576,-1.6975750923156738,-36.00542449951172,-0.7255257,-0.029172739,0.37930584
570,1209106044,0.2064936459064483,-1.703081130981445,-38.109954833984375,-0.3832437,-0.20658109,0.3855629
571,1209122711,0.2558407187461853,-1.704628825187683,-40.12545776367188,1.0952905,0.33245307,0.4009714
572,1209139378,0.3112286031246185,-1.7040482759475708,-41.70241928100586,0.936818,0.7036591,0.34449577
573,1209156045,0.3419434130191803,-1.6978907585144043,-42.99264144897461,0.31681678,0.8309,0.20890522
574,1209172712,0.3764849603176117,-1.6910496950149536,-44.1715087890625,-0.35281372,0.21942958,0.35210514
575,1209189379,0.4661263823509216,-1.716516137123108,-45.7762565612793,-1.9347266,-1.9951075,0.24764061
576,1209206046,0.5485970973968506,-1.7231172323226929,-48.16686248779297,-1.8585179,-1.8068839,0.32218838
577,1209222713,0.6262975931167603,-1.712073802947998,-50.99908447265625,-0.33547607,-0.7304229,-0.042258263
578,1209239380,0.6796937584877014,-1.7086374759674072,-53.44499969482422,1.5857781,1.0951064,-0.18528748
579,1209256047,0.6827239990234375,-1.6369107961654663,-55.05595779418945,1.4178476,2.4347444,1.4505224
580,1209272714,0.7127183675765991,-1.6260313987731934,-56.27470779418945,-0.69010615,0.35742915,0.3412285
581,1209289381,0.7600247263908386,-1.6241604089736938,-57.91810607910156,-1.3892993,-0.32479095,0.41437626
582,1209306048,0.8163201212882996,-1.6498063802719116,-59.81954956054688,-0.47927648,-0.47849336,0.2529087
583,1209322715,0.8425596356391907,-1.6368032693862915,-61.73108673095703,-0.30779046,-0.5551993,0.23235416
584,1209339382,0.8611845970153809,-1.617830753326416,-63.55307388305664,0.3093654,0.53053844,0.35639668
585,1209356049,0.8732813000679016,-1.6023874282836914,-65.0566635131836,0.5581541,1.1582127,0.39866257
586,1209372716,0.8855116963386536,-1.5868172645568848,-66.2850341796875,0.6840043,0.8256652,0.38151455
587,1209389383,0.9224126935005188,-1.5764583349227903,-67.51410675048828,0.059108377,0.15726295,0.306015
588,1209406050,0.980198085308075,-1.6121430397033691,-68.66673278808594,-0.030478967,-0.18435048,0.23666859
589,1209422717,1.0191243886947632,-1.6311100721359253,-69.7730712890625,-0.30203936,0.372444,0.4777279
590,1209439384,1.0302696228027344,-1.5979291200637815,-70.9896011352539,-0.53060704,1.0130606,0.23617268
591,1209456051,1.064371109008789,-1.5938866138458252,-72.41609954833984,-0.104274385,1.2265117,0.26860428
592,1209472718,1.0847175121307373,-1.522586464881897,-73.96827697753906,-1.2193738,0.6789418,0.6746626
593,1209489385,1.1527992486953735,-1.461022138595581,-75.78450775146484,0.2455558,-0.003462801,-0.05940342
594,1209506052,1.241726279258728,-1.3318740129470823,-77.45677185058594,1.6221074,0.22522585,0.26270485
595,1209522719,1.294355034828186,-1.18199622631073,-78.72489929199219,0.04200356,0.10388436,0.39324474
596,1209539386,1.3441323041915894,-1.063981294631958,-80.01311492919922,-0.56884617,-0.68120325,0.2757635
597,1209556053,1.39419686794281,-1.005169153213501,-81.13668823242188,-0.18181147,-0.9658233,0.5366497
598,1209572720,1.4316188097000122,-1.009723663330078,-81.91229248046875,0.33246624,-1.2288916,0.3633337
599,1209589387,1.4521254301071167,-1.0185095071792605,-82.3683090209961,0.2930992,-0.5636175,0.47858238
600,1209606054,1.474572777748108,-1.0337278842926023,-82.66856384277344,-0.17900664,0.05571049,0.2735262
601,1209622721,1.4780769348144531,-1.0385427474975586,-82.92169952392578,-0.06835784,0.26866713,0.33709335
602,1209639388,1.4749507904052734,-1.023650884628296,-83.0917739868164,-0.20710333,0.13070625,0.35439682
603,1209656055,1.487238883972168,-1.023485779762268,-83.27127075195312,-0.24676155,-0.15826705,0.34827995
604,1209672722,1.4931762218475342,-1.023115873336792,-83.39889526367188,0.07444066,-0.51838475,0.3831873
605,1209689389,1.4836243391036987,-1.0151396989822388,-83.38446807861328,0.18496172,-0.57080555,0.28224373
606,1209706056,1.464227557182312,-1.0031282901763916,-83.34273529052734,-0.2051498,-0.33670664,0.33965206
607,1209722723,1.4481602907180786,-0.972100794315338,-83.33033752441406,-0.11719907,-0.20267871,0.3010168
608,1209739390,1.4287620782852173,-0.9267016053199768,-83.226806640625,0.18540695,-0.44420236,0.2680874
609,1209756057,1.420440912246704,-0.8952938318252563,-83.10328674316406,-0.53272146,-0.26057544,0.48850346
610,1209772724,1.4226452112197876,-0.9010907411575316,-83.11367797851562,-0.17600684,0.0024493283,0.3388281
611,1209789391,1.3845332860946655,-0.8794806599617004,-83.06847381591797,0.07885918,0.20549834,0.28447533
612,1209806058,1.361487865447998,-0.8699523210525513,-83.02574920654297,-0.2969869,0.12882937,0.34817314
613,1209822725,1.3530926704406738,-0.8806988596916199,-83.04373931884766,-0.4417623,-0.026430069,0.3946314
614,1209839392,1.371124267578125,-0.921621322631836,-83.13733673095703,-0.62585783,-0.13346858,0.4072647
615,1209856059,1.4149800539016724,-0.9871852993965148,-83.3495101928711,-0.21862777,-0.16156031,0.38939953
616,1209872726,1.4384386539459229,-1.021055817604065,-83.51322174072266,0.023978142,-0.101709455,0.24458122
617,1209889393,1.4446316957473757,-1.022952914237976,-83.65470123291016,-0.13411365,0.14033587,0.27501106
618,1209906060,1.4439858198165894,-1.0063321590423584,-83.79747009277344,-0.15890823,0.012281993,0.31786823
619,1209922727,1.460166096687317,-1.0206297636032104,-83.87189483642578,0.036768775,0.048184663,0.36983204
620,1209939394,1.479625225067139,-1.0427371263504028,-83.96260070800781,-0.56608665,0.13943638,0.28821373
621,1209956061,1.5014450550079346,-1.0374445915222168,-84.20027160644531,-0.39871082,-0.14630738,0.37411404
622,1209972728,1.5204159021377563,-1.0263224840164185,-84.42742919921875,0.08579451,-0.079344094,0.31342793
623,1209989395,1.5261350870132446,-1.0182363986968994,-84.55406188964844,0.09363663,-0.22429815,0.37369442
624,1210006062,1.5295844078063965,-1.0212095975875854,-84.65876770019531,-0.027471272,-0.61897355,0.32438755
625,1210022729,1.5263744592666626,-1.027384638786316,-84.71098327636719,0.1894275,-0.9508579,0.39317036
626,1210039396,1.5317587852478027,-1.048514723777771,-84.74346923828125,-0.43375832,-0.7112045,0.45117664
627,1210056063,1.5778872966766355,-1.1120716333389282,-84.88074493408203,-0.513784,-0.63422114,0.46569252
628,1210072730,1.633256912231445,-1.1846235990524292,-85.02217864990234,-0.08219695,-0.20105179,0.25353336
629,1210089397,1.651901125907898,-1.2240391969680786,-85.11320495605469,0.12541188,0.18625696,0.3164358
630,1210106064,1.638577938079834,-1.251356840133667,-85.18048858642578,-0.025631886,-0.11461911,0.368968
631,1210122731,1.6271604299545288,-1.2701895236968994,-85.21878814697266,-0.2299321,-0.87110937,0.37142658
632,1210139398,1.639124870300293,-1.302052617073059,-85.31890106201172,-0.35307044,-1.1273241,0.36149597
633,1210156065,1.6378566026687622,-1.2976267337799072,-85.39676666259766,0.11431243,-1.1706417,0.12075806
634,1210172732,1.6285966634750366,-1.2669509649276731,-85.40669250488281,-0.010392835,-0.71305275,0.3699293
635,1210189399,1.6160045862197876,-1.235135197639465,-85.39154815673828,-0.04600349,-0.573136,0.22712326
636,1210206066,1.59767484664917,-1.1299675703048706,-85.36840057373047,-0.06273667,-0.38310778,0.14974117
637,1210222733,1.5761115550994873,-0.9930225610733032,-85.3470458984375,0.006019539,0.17727055,0.6795473
638,1210239400,1.5422207117080688,-0.977491855621338,-85.38038635253906,-0.5194731,-0.25241637,0.23722935
639,1210256067,1.4749643802642822,-0.886888861656189,-85.55390930175781,-0.31355324,-0.51874185,0.4570074
640,1210272734,1.4635932445526123,-0.8690176010131836,-85.7586898803711,-0.8111687,-0.6077587,0.4123993
641,1210289401,1.43322491645813,-0.9087501764297484,-86.17633819580078,-0.48834798,-0.034978002,0.45627117
642,1210306068,1.3972172737121582,-0.9509775042533876,-86.57463836669922,0.4249938,-0.019449582,0.40264893
643,1210322735,1.3741346597671509,-0.9968270659446716,-86.85078430175781,0.017827546,-0.13735874,0.2628994
644,1210339402,1.327397704124451,-0.9931158423423768,-87.11170196533203,-0.1501737,-0.23819575,0.1927414
645,1210356069,1.349480152130127,-0.9849051833152772,-87.33118438720703,-0.26707312,-0.22062537,0.1153059
646,1210372736,1.389341115951538,-0.947171151638031,-87.60725402832031,-0.9778083,-0.14244205,0.39900875
647,1210389403,1.4978638887405396,-0.8156156539916992,-88.0001449584961,-0.38421655,0.4852359,1.0152264
648,1210406070,1.5202630758285522,-0.7654403448104858,-88.57805633544922,-0.3542058,0.026396457,-0.21476555
649,1210422737,1.4733078479766846,-0.6784847974777222,-89.05979919433594,1.0160595,-0.24899971,0.31044865
650,1210439404,1.4760900735855105,-0.6657976508140564,-89.16715240478516,-0.10857616,-0.18605581,0.6145172
651,1210456071,1.5490058660507202,-0.6975347995758057,-89.29230499267578,-0.6397478,-0.17720859,0.28467083
652,1210472738,1.6012252569198608,-0.7199904918670654,-89.43816375732422,0.13378678,0.14765894,0.41589165
653,1210489405,1.6705254316329956,-0.7884712815284729,-89.54969787597656,-0.26988417,0.07536469,0.3652792
654,1210506072,1.7390143871307373,-0.8163345456123352,-89.63401794433594,-0.2066391,-0.34581926,-0.037218094
655,1210522739,1.758244872093201,-0.7274447083473206,-89.64947509765625,0.13008536,-0.06598308,0.26210785
656,1210539406,1.7194842100143433,-0.5643760561943054,-89.57139587402344,-0.04992171,0.1600781,0.17127609
657,1210556073,1.730157494544983,-0.5427165627479553,-89.53424835205078,-0.31507456,0.790502,0.6605587
658,1210572740,1.76143479347229,-0.4495986998081207,-89.5133056640625,-0.21936466,0.4840345,0.4532671
659,1210589407,1.8655415773391724,-0.4645635485649109,-89.50697326660156,-0.75943726,0.4769239,0.6962862
660,1210606074,1.9842287302017207,-0.6016280055046082,-89.59262084960938,0.18380466,0.04770111,0.38510036
661,1210622741,1.882442593574524,-0.7309557199478149,-89.51789093017578,0.8382715,-0.4715693,-0.034819603
662,1210639408,1.5679150819778442,-0.8141424059867859,-89.3726577758789,0.4360895,-0.28206277,0.15807247
663,1210656075,1.3848843574523926,-0.8819978833198547,-89.18883514404297,-1.322289,0.31788266,0.57119083
664,1210672742,1.3942375183105469,-0.9533736109733582,-89.21971893310547,-0.35262462,-0.031382896,0.18201637
665,1210689409,1.3985775709152222,-0.9369811415672302,-89.1703872680664,-0.06676098,-0.034972437,0.20857906
666,1210706076,1.3926396369934082,-0.8370574116706848,-89.16129302978516,-0.18457685,0.082886696,0.1767044
667,1210722743,1.357000470161438,-0.803230881690979,-89.09478759765625,0.061030883,0.13738257,0.71713924
668,1210739410,1.275715708732605,-0.7585954070091248,-89.03949737548828,-0.037979733,0.2667498,0.20276928
669,1210756077,1.2203037738800049,-0.6995464563369751,-88.97712707519531,-0.42570165,0.25815073,0.32926178
670,1210772744,1.2380541563034058,-0.6863508820533752,-88.91026306152344,-0.20217395,0.08337412,0.4833088
671,1210789411,1.3160885572433472,-0.7655629515647888,-88.89822387695312,-0.5495236,0.13742681,0.56363964
672,1210806078,1.3821923732757568,-0.8323149085044861,-88.95369720458984,-0.1383588,0.075115144,0.3260517
673,1210822745,1.3908344507217407,-0.8866228461265564,-89.05376434326172,-0.30226332,0.12737975,0.3435259
674,1210839412,1.3881993293762207,-0.9568307399749756,-89.06706237792969,0.7909642,-0.2660766,0.14580059
675,1210856079,1.3767907619476318,-0.995274782180786,-89.05320739746094,-0.67058325,0.48469874,0.3093586
676,1210872746,1.3761316537857056,-1.003216028213501,-89.12390899658203,-0.06974964,0.39208353,0.32956028
677,1210889413,1.333934307098389,-0.965307354927063,-89.17814636230469,-0.40445468,0.3414227,0.2802086
678,1210906080,1.3010985851287842,-0.9252691864967346,-89.2380142211914,-0.00479026,0.27509746,0.17238808
679,1210922747,1.2732501029968262,-0.8656368851661682,-89.2635498046875,-0.11449077,0.5064241,0.31050396
680,1210939414,1.2517188787460327,-0.83160400390625,-89.2573471069336,-0.58045936,0.80987006,0.6303234
681,1210956081,1.245706558227539,-0.8231366276741028,-89.3003158569336,0.17665501,0.28001153,0.14068127
682,1210972748,1.207115888595581,-0.7603142261505127,-89.28816223144531,-0.25371674,0.40420333,0.37943077
683,1210989415,1.187416672706604,-0.7209710478782654,-89.25624084472656,-0.24487227,0.67652327,0.38757896
684,1211006082,1.1699168682098389,-0.6879593729972839,-89.23099517822266,-0.309347,0.81149614,0.41545773
685,1211022749,1.1653156280517578,-0.673129677772522,-89.20288848876953,-0.009428649,0.96340847,0.24611282
686,1211039416,1.1559743881225586,-0.650881290435791,-89.18988037109375,-0.38386032,0.9479122,0.36696625
687,1211056083,1.1592761278152466,-0.649323046207428,-89.19120788574219,-0.18675949,0.124657564,0.38112926
688,1211072750,1.163588285446167,-0.6460806727409363,-89.18869018554688,-0.15899089,-0.04992586,0.3370552
689,1211089417,1.1691514253616333,-0.6449217796325684,-89.18428802490234,-0.18423137,0.027886393,0.34963417
690,1211106084,1.1842119693756104,-0.6591036319732666,-89.17851257324219,-0.20745592,0.079693556,0.4102373
691,1211122751,1.2019102573394775,-0.6769773364067078,-89.17317199707031,-0.14885853,-0.08373976,0.26935387
692,1211139418,1.2090080976486206,-0.6832622289657593,-89.16681671142578,-0.14208914,0.04420619,0.32597446
693,1211156085,1.207181692123413,-0.6858410239219666,-89.14701843261719,-0.11827185,-0.121665046,0.3228264
694,1211172752,1.2076233625411987,-0.6918990015983582,-89.14153289794922,-0.17549628,-0.03828643,0.3058529
695,1211189419,1.2008013725280762,-0.6858904957771301,-89.14198303222656,-0.1693644,-0.055092677,0.3335476
696,1211206086,1.1961205005645752,-0.6775146722793579,-89.14552307128906,-0.18162146,-0.0801732,0.31446743
697,1211222753,1.187397837638855,-0.6583221554756165,-89.131103515625,-0.060361307,-0.17155825,0.372653
698,1211239420,1.179124355316162,-0.6490015983581543,-89.07450866699219,-0.4006296,-0.36992684,0.3944559
699,1211256087,1.1975563764572144,-0.6493655443191528,-89.04882049560547,-0.0028803765,-0.4424244,0.3065853
700,1211272754,1.1999218463897705,-0.6420095562934875,-88.9754867553711,-0.256349,-0.20098257,0.37189388
701,1211289421,1.2106844186782837,-0.6344189047813416,-88.9074935913086,-0.118004926,-0.23969007,0.33342838
702,1211306088,1.2145792245864868,-0.6217678785324097,-88.826904296875,-0.20882696,-0.11754988,0.33755016
703,1211322755,1.2281808853149414,-0.6139742136001587,-88.81446838378906,-0.34032366,0.16874152,0.375062
704,1211339422,1.2553935050964355,-0.6215895414352417,-88.86320495605469,-0.0030785417,-0.07068375,0.38370323
705,1211356089,1.2475736141204834,-0.6183476448059082,-88.83695220947266,-0.016497176,-0.25806075,0.28576756
706,1211372756,1.251996994018555,-0.6275509595870972,-88.79983520507812,-0.39469242,0.067086354,0.41156483
707,1211389423,1.261844038963318,-0.6264315247535706,-88.78388977050781,0.002455108,0.10399296,0.29691124
708,1211406090,1.2736914157867432,-0.6264998316764832,-88.78411102294922,-0.4491899,0.2827331,0.39153767
709,1211422757,1.2936183214187622,-0.6317173838615417,-88.80044555664062,0.120238125,0.04506082,0.2780304
710,1211439424,1.2977310419082642,-0.6326242089271545,-88.80529022216797,-0.43296772,0.6350423,0.36617756
711,1211456091,1.299805760383606,-0.6333242654800415,-88.83711242675781,-0.011744125,0.465153,0.3801918
712,1211472758,1.3040099143981934,-0.639302134513855,-88.85356903076172,-0.23706754,-0.085121945,0.306612
713,1211489425,1.3268376588821411,-0.6519637107849121,-88.8958740234375,-0.2884417,-0.004043238,0.3762188
714,1211506092,1.3390703201293943,-0.689035177230835,-89.05709075927734,-0.61747164,0.74239516,0.41530704
715,1211522759,1.3200631141662598,-0.7423004508018494,-89.61575317382812,-1.0924244,1.9194812,0.48800373
716,1211539426,1.136463642120361,-0.4301344156265259,-90.31957244873048,-0.0059656515,-0.55562174,-0.92273235
717,1211556093,0.7429628968238831,0.2203645408153534,-90.85969543457033,2.191109,-1.9957942,0.81390953
718,1211572760,0.3315290808677673,0.7266483306884766,-90.81282806396484,0.85568845,-0.46783844,0.21708488
719,1211589427,0.0943825915455818,1.063124656677246,-90.5401382446289,-1.4986213,0.4580336,0.97873116
720,1211606094,0.1874856203794479,0.9276320934295654,-90.4433135986328,-1.207444,0.14609917,0.40142632
721,1211622761,0.2086956799030304,0.8985466361045837,-90.50458526611328,0.3577476,-0.4776092,0.21286201
722,1211639428,0.176081120967865,0.949232280254364,-90.50440979003906,-0.095747486,-0.23555586,0.33679008
723,1211656095,0.1626205295324325,0.97381991147995,-90.505859375,-0.3327616,0.25636426,0.39185143
724,1211672762,0.1780956834554672,0.9476941227912904,-90.50843811035156,-0.14468911,-0.056813363,0.3308668
725,1211689429,0.1732085645198822,0.956986665725708,-90.507568359375,-0.078418866,-0.12226297,0.3235216
726,1211706096,0.1673192381858825,0.9641134142875672,-90.508056640625,-0.21932814,0.06959432,0.38088226
727,1211722763,0.1713868230581283,0.957310438156128,-90.50959777832033,-0.1593891,-0.053882208,0.3394308
728,1211739430,0.1695488095283508,0.961048424243927,-90.51023864746094,-0.15284139,-0.03347987,0.3363409
729,1211756097,0.1688226610422134,0.9613659977912904,-90.5109634399414,-0.17041315,-0.032076538,0.33038616
730,1211772764,0.1680288314819336,0.9614009261131288,-90.51099395751952,-0.16090491,-0.036964033,0.3458624
731,1211789431,0.1678593456745147,0.961438775062561,-90.51266479492188,-0.18025367,-0.016553456,0.33592796
732,1211806098,0.16849385201931,0.9577918648719788,-90.5134506225586,-0.16621381,-0.040658366,0.33858013
733,1211822765,0.1668680757284164,0.9601708054542542,-90.51447296142578,-0.14542091,-0.06506841,0.324255
734,1211839432,0.1654700487852096,0.9622697234153748,-90.51395416259766,-0.19333024,0.013086624,0.35501194
735,1211856099,0.1670914739370346,0.9579676389694214,-90.51393127441406,-0.15098614,-0.044281457,0.3450861
736,1211872766,0.1667075753211975,0.9601469039916992,-90.51456451416016,-0.12852998,-0.043944515,0.34428787
737,1211889433,0.1653498709201812,0.9616905450820924,-90.5136260986328,-0.17944275,-0.021237189,0.34202862
738,1211906100,0.1662079244852066,0.9606643319129944,-90.51360321044922,-0.16361918,-0.024906036,0.3456192
739,1211922767,0.1649651974439621,0.9621211886405944,-90.51406860351562,-0.1647366,-0.020809514,0.34572124
740,1211939434,0.1641328036785125,0.9613369703292848,-90.51448822021484,-0.16146582,-0.025118686,0.33735657
741,1211956101,0.1628173142671585,0.9616527557373048,-90.5133819580078,-0.16140021,-0.032080512,0.316967
742,1211972768,0.1622875779867172,0.962920069694519,-90.51374816894533,-0.16112043,-0.028513938,0.34149933
743,1211989435,0.1619444787502288,0.9629084467887878,-90.514404296875,-0.16212124,-0.024724452,0.31606293
744,1212006102,0.160082921385765,0.9634726643562316,-90.51396942138672,-0.16624954,-0.02770746,0.34582138
745,1212022769,0.159495398402214,0.9645167589187622,-90.5134048461914,-0.1765083,-0.022765951,0.32342148
746,1212039436,0.1597234904766082,0.9637351036071776,-90.51321411132812,-0.16499244,-0.024621338,0.3276558
747,1212056103,0.1589521169662475,0.9639132618904114,-90.5131607055664,-0.1459045,-0.01931791,0.3343916
748,1212072770,0.1597384363412857,0.9635440707206726,-90.51273345947266,-0.16555683,-0.013170403,0.34717846
749,1212089437,0.1583619862794876,0.9632725715637208,-90.51290130615234,-0.17063223,-0.023108972,0.33302784
750,1212106104,0.1578877568244934,0.9643667936325072,-90.51265716552734,-0.16508798,-0.025721123,0.32876778
751,1212122771,0.1566932052373886,0.9633773565292358,-90.51245880126952,-0.16950944,-0.01600278,0.34148026
752,1212139438,0.1550741791725158,0.9631179571151732,-90.51185607910156,-0.17704716,-0.026290331,0.33064175
753,1212156105,0.1543741375207901,0.9617992639541626,-90.51378631591795,-0.16340752,-0.030678777,0.34435844
754,1212172772,0.1537643522024154,0.96205073595047,-90.51585388183594,-0.13813785,-0.030288523,0.3340311
755,1212189439,0.1535753309726715,0.9611498713493348,-90.51705932617188,-0.17339423,-0.0250341,0.34607887
756,1212206106,0.1524136364459991,0.961601734161377,-90.51763153076172,-0.16350845,-0.033327,0.35035133
757,1212222773,0.1517748236656189,0.9629316329956056,-90.51741790771484,-0.16731764,-0.025863219,0.33171654
758,1212239440,0.1500309705734253,0.9639233946800232,-90.5181655883789,-0.14362064,-0.028768873,0.3557577
759,1212256107,0.149703562259674,0.9637998938560486,-90.5182876586914,-0.16427368,-0.028842898,0.32277584
760,1212272774,0.1491688191890716,0.9635799527168274,-90.51870727539062,-0.1557046,-0.039599746,0.34127712
761,1212289441,0.1495298892259597,0.9631924629211426,-90.51863098144533,-0.18086088,-0.03654213,0.339283
762,1212306108,0.1490518152713775,0.9625093340873718,-90.52021026611328,-0.16714114,-0.030797997,0.35129642
763,1212322775,0.148759126663208,0.961955428123474,-90.52074432373048,-0.16013181,-0.024469433,0.32469654
764,1212339442,0.148651123046875,0.9606707096099854,-90.52051544189452,-0.16151147,-0.03486224,0.35216522
765,1212356109,0.1489128470420837,0.9606707096099854,-90.5210189819336,-0.16194542,-0.033285845,0.31385517
766,1212372776,0.1474350243806839,0.9605057239532472,-90.52107238769533,-0.16886711,-0.032246087,0.3323984
767,1212389443,0.1463067829608917,0.9615964889526368,-90.52076721191406,-0.16413681,-0.0330018,0.35286236
768,1212406110,0.1458493769168853,0.9600073099136353,-90.52052307128906,-0.15138184,-0.026994476,0.31089592
769,1212422777,0.1438774764537811,0.9603395462036132,-90.5209732055664,-0.14393757,-0.019953515,0.34213352
770,1212439444,0.1437792927026748,0.9590429663658142,-90.5210418701172,-0.16214065,-0.025510704,0.34882355
771,1212456111,0.1428557634353637,0.9587388038635254,-90.52122497558594,-0.16395707,-0.022430817,0.34033775
772,1212472778,0.1427004784345626,0.959054946899414,-90.52059173583984,-0.16276689,-0.0359226,0.3399601
773,1212489445,0.1423158943653106,0.95817631483078,-90.521240234375,-0.17264779,-0.009777316,0.34021187
774,1212506112,0.1415704190731048,0.9583348035812378,-90.52152252197266,-0.14137742,-0.031786177,0.36031532
775,1212522779,0.1404918432235717,0.9577672481536864,-90.5213623046875,-0.15628658,-0.028637677,0.33860874
776,1212539446,0.139553964138031,0.9574323296546936,-90.5210418701172,-0.16178581,-0.032473363,0.35304165
777,1212556113,0.1386213600635528,0.9572004079818726,-90.52140045166016,-0.1479372,-0.03196797,0.33355808
778,1212572780,0.1372685432434082,0.9572890996932985,-90.52075958251952,-0.14869164,-0.027125487,0.35703087
779,1212589447,0.1363090723752975,0.9572290182113647,-90.52174377441406,-0.15438548,-0.02817552,0.34655762
780,1212606114,0.1350319683551788,0.9567136764526368,-90.52172088623048,-0.15766054,-0.020863516,0.32761478
781,1212622781,0.1350099891424179,0.9565526247024536,-90.5229034423828,-0.14618032,-0.015943909,0.335927
782,1212639448,0.1345504373311996,0.9549727439880372,-90.52233123779295,-0.16639006,-0.033162467,0.34456062
783,1212656115,0.1331293880939483,0.9529156684875488,-90.52252960205078,-0.15358575,-0.0160907,0.35197258
784,1212672782,0.1320579349994659,0.952712059020996,-90.5223617553711,-0.16313195,-0.03125016,0.33541584
785,1212689449,0.131492480635643,0.954056441783905,-90.52245330810548,-0.15494259,-0.031524237,0.34956074
786,1212706116,0.1318325400352478,0.9539331793785096,-90.52152252197266,-0.16301608,-0.015770135,0.33537292
787,1212722783,0.1318591833114624,0.954314351081848,-90.52220916748048,-0.15463768,-0.02946623,0.35017204
788,1212739450,0.1305989623069763,0.9539205431938172,-90.52134704589844,-0.16681463,-0.014623869,0.32807636
789,1212756117,0.1292742043733596,0.9549066424369812,-90.52099609375,-0.15451145,-0.01437855,0.340271
790,1212772784,0.1276415288448333,0.9555557370185852,-90.52159881591795,-0.14553744,-0.028285805,0.34868908
791,1212789451,0.1265090405941009,0.9538022875785828,-90.52181243896484,-0.1523019,-0.021433858,0.33984184
792,1212806118,0.1267282962799072,0.953243851661682,-90.52173614501952,-0.14508499,-0.035607968,0.35024548
793,1212822785,0.1244896873831749,0.9535847902297974,-90.52210998535156,-0.16008365,-0.034543213,0.358778
794,1212839452,0.1227302700281143,0.9534531235694884,-90.52186584472656,-0.159598,-0.028048392,0.3323431
795,1212856119,0.1230296120047569,0.9534416198730468,-90.5222625732422,-0.1540537,-0.030884422,0.34524345
796,1212872786,0.1225811019539833,0.9545490145683287,-90.52223205566406,-0.1513498,-0.031000677,0.34218597
797,1212889453,0.1222105622291565,0.9547616243362428,-90.52285766601562,-0.15719812,-0.039944958,0.3551092
798,1212906120,0.1219019368290901,0.953098475933075,-90.52295684814452,-0.16225137,-0.026522554,0.37566662
799,1212922787,0.1211011782288551,0.9526774883270264,-90.52345275878906,-0.15501277,-0.02516767,0.36437607
800,1212939454,0.1202930659055709,0.9526660442352296,-90.52296447753906,-0.1525059,-0.016839001,0.3430481
801,1212956121,0.1205884963274002,0.9531403183937072,-90.5232391357422,-0.13797534,-0.011125919,0.3404255
802,1212972788,0.1201290786266326,0.9536653757095336,-90.5232925415039,-0.15152432,-0.023250792,0.33237362
803,1212989455,0.1200407072901725,0.9547736644744872,-90.5230941772461,-0.15271953,-0.026874209,0.32537556
804,1213006122,0.1204597651958465,0.9547166228294371,-90.52242279052734,-0.14768484,-0.011894867,0.34199333
805,1213022789,0.1198121681809425,0.9553788900375366,-90.52149200439452,-0.1679102,-0.019802546,0.34861374
806,1213039456,0.1193405762314796,0.953607738018036,-90.5227279663086,-0.15321831,-0.020858582,0.3355465
807,1213056123,0.1189377307891845,0.9547241926193236,-90.5229949951172,-0.14792864,-0.024087964,0.36480808
808,1213072790,0.1184719502925872,0.9544921517372132,-90.52325439453124,-0.14896803,-0.03823528,0.35660648
809,1213089457,0.1169028803706169,0.9536279439926147,-90.5226821899414,-0.1458012,-0.0190229,0.33738995
810,1213106124,0.1160122454166412,0.9536487460136414,-90.52278900146484,-0.14747982,-0.023336062,0.3416767
811,1213122791,0.1147546619176864,0.9535847306251526,-90.52217864990234,-0.15221363,-0.02363346,0.33589935
812,1213139458,0.1137276366353035,0.9527105689048768,-90.52339935302734,-0.14637062,-0.013305112,0.31373024
813,1213156125,0.1131204888224601,0.9519208073616028,-90.52287292480467,-0.15766607,-0.026493529,0.31974506
814,1213172792,0.1127708777785301,0.9506893754005432,-90.52266693115234,-0.15843607,-0.020201191,0.36046696
815,1213189459,0.1129773706197738,0.950845181941986,-90.5218276977539,-0.15681401,-0.02822165,0.35401058
816,1213206126,0.1124743521213531,0.9506697058677672,-90.52214813232422,-0.14819667,-0.02081975,0.32575035
817,1213222793,0.1131641492247581,0.9519993662834167,-90.52101135253906,-0.1441999,-0.014759695,0.31574345
818,1213239460,0.2236714512109756,0.8085330128669739,-90.51168060302734,-0.34723964,-0.10647284,0.6505728
819,1213256127,0.8026906847953796,-0.0072128931060433,-90.48632049560548,-1.4018059,-0.97095126,0.88032246
820,1213272794,1.4725394248962402,-0.8364797830581665,-91.1037826538086,-0.6856518,0.007896241,-0.017252922
821,1213289461,1.396903395652771,-0.7453737854957581,-91.58573150634766,2.7483447,-0.7271578,0.0993309
822,1213306128,1.4395853281021118,-0.8179749846458435,-91.65597534179688,0.072965644,-0.21475391,-0.30372906
823,1213322795,1.4377987384796145,-0.8437969088554382,-91.6539077758789,-1.9478143,0.6489881,0.85524654
824,1213339462,1.472835898399353,-0.8829491138458252,-91.91535949707033,0.08280183,-0.19840722,0.54774475
825,1213356129,1.451449990272522,-0.9104024171829224,-92.14221954345705,-0.24946924,-0.17449942,0.1532669
826,1213372796,1.4478048086166382,-0.9856560826301576,-92.43578338623048,-0.6663402,0.39949554,0.44527435
827,1213389463,1.431038498878479,-1.0071215629577637,-92.91634368896484,-0.56959593,0.15691178,-0.020913124
828,1213406130,1.4148648977279663,-1.0227714776992798,-93.63793182373048,-0.7802743,0.042752184,0.37376785
829,1213422797,1.3682523965835571,-0.982745885848999,-94.63089752197266,-1.0349121,-0.12651785,0.16430187
830,1213439464,1.3731006383895874,-1.0013140439987185,-95.91870880126952,-1.1879131,0.517344,0.48552132
831,1213456131,1.3705754280090332,-0.9686872959136964,-97.48461151123048,-0.42027643,0.4170807,0.47138214
832,1213472798,1.3689628839492798,-0.9386090636253356,-99.02490234375,0.32488826,-0.2900345,0.30871105
833,1213489465,1.3585124015808103,-0.9228971004486084,-100.2582015991211,0.9316279,-0.23913634,0.24042892
834,1213506132,1.3438054323196411,-0.9038705229759216,-101.03846740722656,1.0067838,0.42034733,0.43613815
835,1213522799,1.3242518901824951,-0.8900358080863953,-101.5445556640625,0.114786915,0.8619616,0.35503197
836,1213539466,1.3115507364273071,-0.8529694676399231,-102.21934509277344,-0.98833954,1.0502917,0.24080467
837,1213556133,1.313237547874451,-0.8116406202316284,-103.44165802001952,-1.6749362,0.702239,0.39575768
838,1213572800,1.3341712951660156,-0.7692471146583557,-105.2395248413086,-1.1874857,-0.089515515,0.328269
839,1213589467,1.3548552989959717,-0.7612571120262146,-107.15266418457033,0.19398291,-0.89653444,0.38057327
840,1213606134,1.3487128019332886,-0.742478609085083,-108.57440948486328,1.3318307,-1.0008471,0.35636806
841,1213622801,1.3302855491638184,-0.7206899523735046,-109.18812561035156,1.9414594,-0.5782424,0.26840973
842,1213639468,1.3001052141189575,-0.673464298248291,-109.27074432373048,0.25217736,0.12026351,0.47950172
843,1213656135,1.288602352142334,-0.6416144371032715,-109.4681167602539,-0.47552326,-0.42425522,0.2728176
844,1213672802,1.2547036409378052,-0.5805124640464783,-110.00035858154295,-1.0299643,-0.7080616,0.33264923
845,1213689469,1.224382758140564,-0.5319043397903442,-110.85122680664062,-0.93655145,-0.48071736,0.28363895
846,1213706136,1.2142302989959717,-0.4932669401168823,-111.8150863647461,0.07484547,0.15518829,0.5059681
847,1213722803,1.2193372249603271,-0.4655564725399017,-112.63815307617188,0.32930297,0.25408474,0.38540077
848,1213739470,1.2413111925125122,-0.4649032950401306,-113.28425598144533,-0.041455563,0.19428618,0.3338833
849,1213756137,1.2605468034744265,-0.4691881537437439,-113.86139678955078,-0.2012395,0.39151588,0.36053467
850,1213772804,1.2917300462722778,-0.4785533249378204,-114.5652084350586,-0.7760429,0.6402739,0.32210732
851,1213789471,1.3159180879592896,-0.4783625602722168,-115.46686553955078,0.2553635,-0.5366889,0.100969315
852,1213806138,1.306773066520691,-0.4482993185520172,-116.32208251953124,-0.29718494,0.6398645,0.63285446
853,1213822805,1.3273640871047974,-0.4427458643913269,-117.35879516601562,-0.5629217,-0.006087063,0.13092232
854,1213839472,1.3446110486984253,-0.4179898798465729,-118.71932983398438,-0.3744707,0.0085937055,0.22203064
855,1213856139,1.3550364971160889,-0.3967584371566772,-120.10215759277344,-0.14982632,0.1375855,0.49626446
856,1213872806,1.3566161394119265,-0.3744395673274994,-121.37812042236328,0.07236532,0.17118694,0.4311304
857,1213889473,1.3681843280792236,-0.3536167740821838,-122.51869201660156,0.27835622,0.15554,0.28840256
858,1213906140,1.3735020160675049,-0.3340233266353607,-123.68704986572266,-0.38935542,-0.17664438,0.38008213
859,1213922807,1.3679107427597046,-0.2931065559387207,-125.23672485351562,-0.8293762,0.07437398,0.36539173
860,1213939474,1.344593167304993,-0.2544126808643341,-126.95887756347656,-0.27002975,-0.17656365,0.24771881
861,1213956141,1.3265483379364014,-0.2234604954719543,-128.44808959960938,0.1465596,0.5522254,0.39315796
862,1213972808,1.3030922412872314,-0.1898547559976577,-129.6918182373047,0.36990717,0.881812,0.2776022
863,1213989475,1.2774958610534668,-0.1486726105213165,-130.70504760742188,0.47674787,0.9142561,0.3681183
864,1214006142,1.2510114908218384,-0.0802036523818969,-131.85223388671875,-0.80569166,0.8503708,0.4605856
865,1214022809,1.2287722826004028,-0.0381248407065868,-133.60720825195312,-1.6008624,1.1959838,0.2853508
866,1214039476,1.191962957382202,0.0177977941930294,-135.95448303222656,-1.0956473,1.0671608,0.22977448
867,1214056143,1.1583175659179688,0.0597205683588981,-138.666015625,-0.15406325,0.5070515,0.3493986
868,1214072810,1.0888662338256836,0.0887799263000488,-141.23219299316406,0.58557856,-0.38370436,0.36830616
869,1214089477,1.0085585117340088,0.1142614111304283,-143.21873474121094,0.87116534,-0.9589522,0.35323143
870,1214106144,0.9624491333961488,0.1309202760457992,-144.7454071044922,0.60651535,-0.5910291,0.38740063
871,1214122811,0.9374200105667114,0.1483414620161056,-146.04452514648438,0.13441625,-0.2635959,0.31490517
872,1214139478,0.927686870098114,0.1591365337371826,-147.1875762939453,0.17728376,-0.33121723,0.42109203
873,1214156145,0.9269748330116272,0.1911783516407013,-148.3332977294922,0.021965418,-0.036757525,0.44629288
874,1214172812,0.9238621592521667,0.2250809669494629,-149.51023864746094,-0.22004054,-0.2200541,0.21359825
875,1214189479,0.9136852025985718,0.2506091594696045,-150.52613830566406,-0.0044698454,-0.009783707,0.35785103
876,1214206146,0.911568820476532,0.2778871655464172,-151.49395751953125,-0.14489572,0.17039673,0.339921
877,1214222813,0.9202038645744324,0.2844652533531189,-152.44033813476562,-0.23563783,-0.28685403,0.34859753
878,1214239480,0.9031806588172911,0.3153752386569977,-153.45953369140625,-0.44646046,0.6272302,0.37310123
879,1214256147,0.8985345363616943,0.3238891959190368,-154.69175720214844,-0.37316698,0.36936393,0.27710152
880,1214272814,0.8772462606430054,0.3325730860233307,-155.96009826660156,-0.08629417,0.25461596,0.36890888
881,1214289481,0.8503165245056152,0.3422084152698517,-157.2429656982422,-0.11431778,0.60498816,0.42760754
882,1214306148,0.8424798846244812,0.3428465723991394,-158.7587890625,-0.4273435,0.62048596,0.3668871
883,1214322815,0.852383017539978,0.3303622305393219,-160.23489379882812,-0.047873676,-1.0623816,0.2815113
884,1214339482,0.8478350639343262,0.3570999503135681,-161.2638702392578,0.07084638,-1.1858591,0.28786469
885,1214356149,0.8387243151664734,0.3939031064510345,-162.1650848388672,-0.11861246,-0.13860053,0.32708168
886,1214372816,0.8217005729675293,0.4231587648391723,-163.18350219726562,-0.25008944,0.24080831,0.36569023
887,1214389483,0.791384220123291,0.4411749243736267,-164.15292358398438,-0.16755952,0.28588688,0.38833332
888,1214406150,0.7750212550163269,0.4366481602191925,-165.06301879882812,-0.2591483,0.6504639,0.35050392
889,1214422817,0.8094585537910461,0.406482070684433,-166.2764129638672,-0.47943696,0.4923579,0.34685326
890,1214439484,0.8213546276092529,0.3996153771877289,-167.8540802001953,-0.28456524,0.042740956,0.3207922
891,1214456151,0.7992885112762451,0.402428388595581,-169.32077026367188,0.042614765,-0.5443822,0.33501434
892,1214472818,0.7741621732711792,0.4165709316730499,-170.4488983154297,0.014633349,0.0024139907,0.29851246
893,1214489485,0.7610766887664795,0.417680948972702,-171.40679931640625,-0.056287955,0.26060915,0.38870144
894,1214506152,0.7646289467811584,0.4004381597042084,-172.26876831054688,-0.09978831,0.36539903,0.38399506
895,1214522819,0.7560575008392334,0.4105028212070465,-173.09683227539062,-0.14355113,0.19766265,0.2553978
896,1214539486,0.676250159740448,0.4704139232635498,-174.20443725585938,-0.39807382,1.2220261,0.17912483
897,1214556153,0.6487700343132019,0.4988593161106109,-175.84002685546875,-0.33018282,1.5407207,0.5388794
898,1214572820,0.6394564509391785,0.4896063804626465,-177.6611328125,-0.44852656,-0.09756495,0.2703724
899,1214589487,0.5849084854125977,0.4871615469455719,-178.84536743164062,-0.15889877,-1.6380467,0.24787521
900,1214606154,0.5642817616462708,0.4825838804244995,-179.27667236328125,0.26477548,-0.78040785,0.44501972
901,1214622821,0.5655722618103027,0.4824303686618805,-179.45999145507812,0.02632817,-0.10397439,0.33458614
902,1214639488,0.5586556196212769,0.4823465347290039,-179.61805725097656,-0.051261216,0.040631853,0.34911156
903,1214656155,0.5501273274421692,0.4730091094970703,-179.767578125,-0.13878712,-0.019077059,0.34068298
904,1214672822,0.5589150786399841,0.4409103393554687,-179.78939819335938,-0.14635545,0.16749187,0.36530018
905,1214689489,0.5722727179527283,0.4171035289764404,-179.76722717285156,-0.18623553,0.09840007,0.32478523
906,1214706156,0.5768943428993225,0.4070623517036438,-179.7781982421875,-0.21558963,0.1260125,0.3212614
907,1214722823,0.5721616744995117,0.403326153755188,-179.796630859375,-0.16636288,0.14193314,0.3215456
908,1214739490,0.5724518895149231,0.3934708833694458,-179.79429626464844,-0.17420895,0.1722703,0.32964706
909,1214756157,0.5749058127403259,0.389381855726242,-179.79518127441406,-0.16466308,0.18041843,0.33176136
910,1214772824,0.576082706451416,0.3850465416908264,-179.80300903320312,-0.14400823,0.13475914,0.3379631
911,1214789491,0.5726261734962463,0.3827064037322998,-179.81808471679688,-0.13804404,0.12778425,0.34951878
912,1214806158,0.5656328201293945,0.3816938102245331,-179.8187713623047,-0.20704387,0.10703667,0.31377697
913,1214822825,0.5569462180137634,0.3844920694828033,-179.80426025390625,-0.17429703,0.13378441,0.32024193
914,1214839492,0.5494320392608643,0.3871101140975952,-179.78236389160156,-0.14748749,0.15304191,0.32739162
915,1214856159,0.5388579368591309,0.399181604385376,-179.7638397216797,-0.24046613,0.1451372,0.3163452
916,1214872826,0.522047758102417,0.4220088720321655,-179.74563598632812,-0.20943438,0.12592708,0.3250637
917,1214889493,0.5069394111633301,0.4473073482513428,-179.712646484375,-0.14054014,0.14676797,0.371253
918,1214906160,0.502393901348114,0.4583101272583008,-179.6818084716797,-0.014535864,0.19448434,0.3595276
919,1214922827,0.505121111869812,0.4507954120635986,-179.67233276367188,-0.04424628,0.20955539,0.35576725
920,1214939494,0.5065081119537354,0.4380786120891571,-179.67666625976562,-0.12024282,0.14888225,0.32398987
921,1214956161,0.5044671297073364,0.4234444797039032,-179.67868041992188,-0.13336264,0.12293873,0.32832813
922,1214972828,0.5012645125389099,0.410375028848648,-179.68673706054688,-0.17309482,0.16276348,0.317132
923,1214989495,0.496156632900238,0.4044079184532165,-179.6913604736328,-0.22130026,0.14649133,0.35555553
924,1215006162,0.4926670491695404,0.4103207588195801,-179.6884765625,-0.21987396,0.1312789,0.32405376
925,1215022829,0.495177686214447,0.4158143401145935,-179.6708526611328,-0.110594854,0.15737866,0.35747242
926,1215039496,0.5008705258369446,0.4076870679855346,-179.6482696533203,-0.10941813,0.13435876,0.32606125
927,1215056163,0.5073747634887695,0.3947581350803375,-179.634033203125,-0.14023706,0.16661498,0.32747078
928,1215072830,0.5042290091514587,0.3941850066184997,-179.63339233398438,-0.22024667,0.1415626,0.31559086
929,1215089497,0.5004798173904419,0.4066835343837738,-179.6056671142578,-0.27717635,0.06733787,0.29349136
930,1215106164,0.4856540858745575,0.4293136596679687,-179.5773162841797,-0.12326896,0.16400585,0.3673582
931,1215122831,0.4781191051006317,0.4368440508842468,-179.55271911621094,-0.04113611,0.24000715,0.3949194
932,1215139498,0.4841030538082123,0.4307379722595215,-179.52915954589844,-0.108924545,0.18083146,0.3582983
933,1215156165,0.4933447241783142,0.4230786263942718,-179.4833526611328,-0.26969442,0.040145364,0.32186985
934,1215172832,0.4981493353843689,0.4257674813270569,-179.4104766845703,-0.19123444,0.15470544,0.30963707
935,1215189499,0.4865160286426544,0.4420292377471924,-179.36915588378906,-0.15005116,0.18818298,0.31344128
936,1215206166,0.4753060340881347,0.4558185040950775,-179.361572265625,-0.09886843,0.23554528,0.3818426
937,1215222833,0.4736779034137726,0.4577170610427856,-179.36578369140625,-0.14672875,0.17860916,0.35712433
938,1215239500,0.4750910997390747,0.4564923346042633,-179.3598175048828,-0.16403413,0.119479984,0.33865356
939,1215256167,0.472785472869873,0.4561777114868164,-179.3367156982422,-0.17792194,0.11511565,0.3156109
940,1215272834,0.4622141718864441,0.4593850672245025,-179.3149871826172,-0.19042075,0.10599369,0.33768654
941,1215289501,0.4465912580490112,0.4673545658588409,-179.291015625,-0.14130726,0.120887525,0.33301544
942,1215306168,0.4314930438995361,0.476895660161972,-179.25997924804688,-0.15657851,0.12560734,0.34922218
943,1215322835,0.4228851497173309,0.4883646667003631,-179.20773315429688,-0.17384696,0.15059507,0.3515749
944,1215339502,0.4196542203426361,0.501349687576294,-179.16152954101562,-0.12099603,0.2625241,0.3504963
945,1215356169,0.4177617132663727,0.5032031536102295,-179.1461639404297,-0.09444078,0.19166712,0.36845303
946,1215372836,0.4201321303844452,0.4993190169334411,-179.15383911132812,-0.14916474,0.2252656,0.35200214
947,1215389503,0.4276829361915588,0.4877686202526092,-179.18089294433594,-0.1640008,0.15220678,0.3600483
948,1215406170,0.4223780632019043,0.48316091299057,-179.2066192626953,-0.18572095,0.06998236,0.29945278
949,1215422837,0.4063257873058319,0.4887781739234924,-179.20968627929688,-0.2007355,0.09102988,0.31641197
950,1215439504,0.3902139365673065,0.4978861212730407,-179.19248962402344,-0.19160911,0.12523697,0.33148766
951,1215456171,0.3794180452823639,0.5059808492660522,-179.17626953125,-0.29154,0.15444022,0.34014988
952,1215472838,0.3829796910285949,0.4984101057052612,-179.20529174804688,-0.39731014,0.41925246,0.41143894
953,1215489505,0.3981481790542602,0.4638694226741791,-179.3360137939453,-0.37966114,0.4146213,0.39134693
954,1215506172,0.4236454367637634,0.4062475860118866,-179.51611328125,-0.59391063,0.072374746,0.3546896
955,1215522839,0.4238301813602447,0.3721095621585846,-179.6364288330078,-0.44483992,-0.08125098,0.2719946
956,1215539506,0.4337232112884521,0.3371464610099792,-179.73843383789062,-0.26478824,0.2817132,0.37931442
957,1215556173,0.4531025290489197,0.3052835464477539,-179.82669067382812,-0.21617335,0.16904037,0.30958462
958,1215572840,0.4778048694133758,0.2859741151332855,-179.95005798339844,-0.36040524,0.3385165,0.28835583
959,1215589507,0.4944170713424682,0.2917557656764984,179.84335327148438,-0.65650445,0.35359323,0.27401733
960,1215606174,0.5104133486747742,0.2960787117481231,179.57183837890625,-0.5493671,0.36510766,0.2973919
961,1215622841,0.5529874563217163,0.2709349393844604,179.32766723632812,-0.21712668,-0.14345361,0.4583311
962,1215639508,0.5810995101928711,0.3063608407974243,179.32830810546875,-0.2587225,-0.68673,0.22074127
963,1215656175,0.5936294794082642,0.3493675291538238,179.53123474121094,-0.21556841,-0.04039207,0.42604637
964,1215672842,0.6454886198043823,0.351160854101181,179.8306121826172,-0.5893736,-0.26665068,0.3235674
965,1215689509,0.6391793489456177,0.4090915024280548,-179.81581115722656,-0.42053282,0.35073927,0.39111137
966,1215706176,0.6566605567932129,0.4045076668262481,-179.7814178466797,-0.6267501,0.92221636,0.46203423
967,1215722843,0.6400531530380249,0.4010147750377655,-179.69403076171875,-0.59125954,-0.47470614,0.14337254
968,1215739510,0.6510635018348694,0.3906498849391937,-179.49925231933594,-0.22451814,-0.2165149,0.4737501
969,1215756177,0.6672816276550293,0.381287008523941,-179.17665100097656,-0.3169645,0.1167741,0.3449726
970,1215772844,0.670551598072052,0.3951850235462188,-178.91543579101562,-0.1441589,0.43144935,0.33314037
971,1215789511,0.6966106295585632,0.3415297269821167,-178.778564453125,0.0406417,0.34220198,0.46418095
972,1215806178,0.7058569192886353,0.3096514642238617,-178.5198974609375,0.2160467,-0.6452634,-0.004196167
973,1215822845,0.7215251326560974,0.2739673256874084,-178.33641052246094,-0.17098558,1.3502544,0.5772476
974,1215839512,0.72163987159729,0.2933232188224792,-178.35989379882812,-0.16190921,0.0632982,0.25569725
975,1215856179,0.7513297200202942,0.2896689176559448,-178.43585205078125,-0.19970569,0.13033426,0.3517971
976,1215872846,0.756859540939331,0.3000399172306061,-178.44300842285156,-0.060695976,0.2449643,0.2961464
977,1215889513,0.7586570382118225,0.351520299911499,-178.41868591308594,-0.03963304,-0.0060239863,0.2787876
978,1215906180,0.7694920301437378,0.3960073888301849,-178.34654235839844,-0.076943025,0.126542,0.32785797
979,1215922847,0.7735391855239868,0.4323430061340332,-178.38018798828125,-0.28390595,0.5676991,0.34937096
980,1215939514,0.7839611172676086,0.4636552929878235,-178.53721618652344,-0.69067436,0.038188476,0.2730112
981,1215956181,0.7722988128662109,0.5312809348106384,-178.66551208496094,-0.48889905,0.2319134,0.47753906
982,1215972848,0.767484188079834,0.5252900719642639,-178.88063049316406,-0.6509621,0.2656415,0.42325783
983,1215989515,0.750232458114624,0.5257460474967957,-179.08453369140625,-0.35878882,0.11035104,0.2617693
984,1216006182,0.7770392298698425,0.5025562047958374,-179.1787109375,-0.26469415,-0.12802629,0.37820435
985,1216022849,0.8105456233024597,0.4773883819580078,-179.18310546875,0.16810383,0.15313256,0.37418842
986,1216039516,0.8602359890937805,0.4534630477428436,-179.21548461914062,-0.010354846,0.34117734,0.2630272
987,1216056183,0.8931412100791931,0.4426197111606598,-179.26011657714844,-0.34589863,0.071469456,0.42546654
988,1216072850,0.9241714477539062,0.4006015658378601,-179.3456268310547,-0.38025478,0.26149464,0.3548298
989,1216089517,0.8981136679649353,0.4005347490310669,-179.48648071289062,-0.23763387,0.043954086,0.3297472
990,1216106184,0.8272674083709717,0.4387946724891662,-179.51315307617188,-0.80607414,-0.47466534,0.23548698
991,1216122851,0.8013406991958618,0.4192706048488617,-179.4759063720703,-0.5199959,0.6278754,0.40111923
992,1216139518,0.7764664888381958,0.3986602127552032,-179.70101928710938,-0.08299535,0.9422473,0.22813797
993,1216156185,0.7414329051971436,0.3774565756320953,179.94451904296875,-0.1221055,-0.22117835,0.2860756
994,1216172852,0.707926332950592,0.4681994915008545,179.87100219726562,0.020691136,-0.48020557,-0.0057554245
995,1216189519,0.6812729835510254,0.5690996646881104,-179.98654174804688,-0.09101312,-0.19990878,0.7252321
996,1216206186,0.6748692393302917,0.5847458839416504,-179.94876098632812,-0.81076837,1.0807649,0.4123068
997,1216222853,0.6533352136611938,0.5763421058654785,179.82672119140625,0.08589111,0.18862574,0.3691435
998,1216239520,0.6374282836914062,0.5306846499443054,179.69686889648438,0.36915827,0.21730721,0.62816334
999,1216256187,0.6556797027587891,0.3717099130153656,179.44631958007812,-0.106959365,0.69604915,0.323164
1000,1216272854,0.6890206336975098,0.2367554306983947,179.2006378173828,0.02690202,-0.20495208,0.2210617
1001,1216289521,0.6616588830947876,0.2179412245750427,179.0302734375,0.12984702,-0.032850444,0.24397945
1002,1216306188,0.6294657588005066,0.198210135102272,178.87930297851562,-0.7196122,-0.02286584,0.3124075
1003,1216322855,0.6129114031791687,0.1472745984792709,178.7174530029297,-0.3130888,0.5462344,0.37971783
1004,1216339522,0.5934608578681946,0.1253229975700378,178.50363159179688,-0.033060286,-0.20784512,0.106884
1005,1216356189,0.5800377130508423,0.2023708224296569,178.5416259765625,-0.14956248,-0.25682735,0.19267082
1006,1216372856,0.5701805353164673,0.3308866322040558,178.6591796875,-0.0027860398,0.03400069,0.35627747
1007,1216389523,0.5668410062789917,0.4028743207454681,178.80368041992188,-0.09419577,0.29283047,0.53258896
1008,1216406190,0.5918745994567871,0.4403917491436004,178.80874633789062,-0.49025074,0.62285274,0.30596447
1009,1216422857,0.6212419271469116,0.4497826397418976,178.6708984375,-0.33291373,0.38130015,0.34200954
1010,1216439524,0.6285815238952637,0.4095425605773926,178.53509521484375,0.067426614,0.18183334,0.6247978
1011,1216456191,0.6340680122375488,0.3285011947154999,178.36825561523438,-0.37330592,0.13842404,0.4057474
1012,1216472858,0.643275260925293,0.2477833181619644,178.35853576660156,0.008188159,-0.23325127,0.24094963
1013,1216489525,0.6449554562568665,0.198135107755661,178.38046264648438,-0.26310956,-0.22672522,0.18181324
1014,1216506192,0.6939110159873962,0.1538233458995819,178.49700927734375,-0.15680976,0.39803073,0.30192375
1015,1216522859,0.7325969934463501,0.1315726041793823,178.41014099121094,0.3560619,1.0755799,0.42951107
1016,1216539526,0.7718773484230042,0.0872277095913887,178.08099365234375,-0.54398066,0.044562057,0.39362717
1017,1216556193,0.7635484337806702,0.1243548914790153,177.9237060546875,-0.6044496,-0.3455166,0.064582825
1018,1216572860,0.7514477372169495,0.1185993552207946,177.87977600097656,-0.05981354,-0.022635039,0.5886984
1019,1216589527,0.7463016510009766,0.1618187874555587,177.94155883789062,0.053623483,0.030128492,0.1950159
1020,1216606194,0.7551179528236389,0.2096846103668213,177.95562744140625,0.12134112,0.4689388,0.33848286
1021,1216622861,0.7638840675354004,0.2020447552204132,177.8323211669922,0.117358245,0.40721583,0.54822063
1022,1216639528,0.765355110168457,0.1593995243310928,177.6452178955078,-0.2810421,0.16494487,0.36390877
1023,1216656195,0.7563194036483765,0.129371240735054,177.51560974121094,-0.12751447,-0.18549576,0.17096901
1024,1216672862,0.7255576848983765,0.1425371915102005,177.5098876953125,-0.036518093,-0.13065638,0.38115025
1025,1216689529,0.7329997420310974,0.1618339270353317,177.6311798095703,-0.10985265,0.33993876,0.13707924
1026,1216706196,0.7637152671813965,0.2237348705530166,177.59823608398438,-0.028719036,0.5871396,0.41493797
1027,1216722863,0.7768800258636475,0.3019861280918121,177.49205017089844,-0.10486313,0.115744755,0.1558342
1028,1216739530,0.778994619846344,0.404056191444397,177.40167236328125,-0.22820288,-0.06038056,0.36690998
1029,1216756197,0.7577494382858276,0.4214574992656708,177.32240295410156,0.14245524,0.18958913,0.58211136
1030,1216772864,0.7400928139686584,0.4243727028369903,177.22674560546875,0.03764818,0.19365461,0.32107258
1031,1216789531,0.7439754009246826,0.4196726679801941,177.1861114501953,0.2675151,0.07879104,0.42462826
1032,1216806198,0.7766834497451782,0.3828064501285553,177.1614227294922,-0.11337713,0.32620168,0.3670187
1033,1216822865,0.7968456745147705,0.3543106615543365,177.0885772705078,-0.39687377,0.05134983,0.33875275
1034,1216839532,0.7937840223312378,0.335249662399292,177.03602600097656,-0.075848855,-0.003642761,0.13711166
1035,1216856199,0.711374044418335,0.3828439712524414,177.0112762451172,0.20495178,0.02060174,0.3844452
1036,1216872866,0.6515388488769531,0.4079923331737518,176.98550415039062,-0.15797892,-0.0064893947,0.3493185
1037,1216889533,0.6179802417755127,0.4257698655128479,176.9904327392578,-0.13812327,0.601171,0.3172865
1038,1216906200,0.6033098697662354,0.4489139318466186,176.9012908935547,-0.07017956,0.0051023234,0.120223045
1039,1216922867,0.5617127418518066,0.53699791431427,176.96104431152344,0.13503683,-0.17014103,0.34126282
1040,1216939534,0.5588080286979675,0.6391662359237671,176.9990692138672,0.071091026,0.48955864,0.35149097
1041,1216956201,0.5578879714012146,0.6555538177490234,177.00485229492188,0.2776166,0.22841808,0.7969389
1042,1216972868,0.540549099445343,0.6691515445709229,177.0137481689453,0.06925172,0.095964044,0.1819315
1043,1216989535,0.5382275581359863,0.6740909814834595,177.0243377685547,-0.07011287,0.22630346,0.33695126
1044,1217006202,0.5475649833679199,0.6511663198471069,176.9738311767578,-0.0018945294,0.28194886,0.4619112
1045,1217022869,0.5866231918334961,0.55094313621521,176.90516662597656,-0.30388808,0.16016673,0.47900867
1046,1217039536,0.5907092094421387,0.4500155448913574,176.91143798828125,0.09439692,0.05508935,0.3229313
1047,1217056203,0.5998817086219788,0.3588730990886688,176.87429809570312,0.024983667,0.15213206,0.19334888
1048,1217072870,0.5833425521850586,0.3179716467857361,176.84349060058594,0.42001274,-0.023622949,0.3256693
1049,1217089537,0.5531823635101318,0.3005328774452209,176.77281188964844,0.27883056,0.43564126,0.36410236
1050,1217106204,0.5255525708198547,0.2825664579868316,176.63558959960938,-0.13488361,0.23241495,0.393754
1051,1217122871,0.5118722319602966,0.2589394450187683,176.53622436523438,-0.16948107,0.123643704,0.3832693
1052,1217139538,0.5337610840797424,0.2119838893413543,176.4405975341797,-0.018025564,0.27852854,0.32222748
1053,1217156205,0.5366089344024658,0.2077763378620147,176.41525268554688,-0.025064332,-0.29655686,0.18943977
1054,1217172872,0.538864016532898,0.2322173863649368,176.41348266601562,0.11849714,0.21131094,0.30243492
1055,1217189539,0.5290219187736511,0.2931377291679382,176.452880859375,-0.058890976,-0.19219217,0.23845577
1056,1217206206,0.5185672640800476,0.3622589409351349,176.5565185546875,0.15517467,0.27923548,0.46267796
1057,1217222873,0.5284754633903503,0.3890197277069092,176.59080505371094,0.33049044,0.28296202,0.42578793
1058,1217239540,0.5346025228500366,0.4009447693824768,176.63072204589844,0.4137377,0.20863521,0.3161831
1059,1217256207,0.5456383228302002,0.4241094589233398,176.59884643554688,0.38116574,0.21079084,0.33456707
1060,1217272874,0.5423663854598999,0.4607696831226349,176.5886993408203,0.5310982,-0.009136524,0.34253597
1061,1217289541,0.5332624316215515,0.4989013969898224,176.60169982910156,0.26586372,0.1826982,0.36204147
1062,1217306208,0.5297055840492249,0.532314121723175,176.59815979003906,0.3148098,0.14151052,0.34168053
1063,1217322875,0.5256192684173584,0.5590314865112305,176.59609985351562,0.43612358,0.16213503,0.36667252
1064,1217339542,0.5228854417800903,0.578411340713501,176.5888671875,0.33402133,0.12200892,0.3546791
1065,1217356209,0.5158857703208923,0.5982226133346558,176.58843994140625,0.030645436,0.10633762,0.32171822
1066,1217372876,0.5104989409446716,0.6268540620803833,176.58766174316406,-0.39674532,0.33772656,0.3770094
1067,1217389543,0.5294429659843445,0.6358243823051453,176.52520751953125,-0.36953998,0.18032259,0.33778954
1068,1217406210,0.5364112854003906,0.6460932493209839,176.50076293945312,-0.17414078,0.16742653,0.36824608
1069,1217422877,0.5420656204223633,0.6452652215957642,176.47479248046875,0.032241225,0.11062674,0.33075428
1070,1217439544,0.5362837314605713,0.6492847204208374,176.4451141357422,0.20173265,0.038360614,0.34296703
1071,1217456211,0.5249112844467163,0.6671208739280701,176.4430694580078,-0.12918615,-0.026321765,0.2879181
1072,1217472878,0.513537585735321,0.6960775256156921,176.4922637939453,-0.19344613,0.103646375,0.34145737
1073,1217489545,0.5029674768447876,0.7172606587409973,176.519775390625,-0.32411137,0.48790762,0.43763924
1074,1217506212,0.5181928277015686,0.7075725793838501,176.47911071777344,-0.3437116,0.08162178,0.31856537
1075,1217522879,0.5216773152351379,0.7003332376480103,176.46157836914062,-0.12032541,0.21129538,0.32539082
1076,1217539546,0.533362090587616,0.6808966398239136,176.4128875732422,0.045889836,0.15959713,0.32802582
1077,1217556213,0.5228680372238159,0.6827695965766907,176.41419982910156,0.13440998,-0.021123793,0.32675076
1078,1217572880,0.5172479152679443,0.6838265657424927,176.40968322753906,0.06647745,0.23273413,0.3359337
1079,1217589547,0.5109542608261108,0.6842635869979858,176.38595581054688,-0.0390758,0.16444561,0.36079502
1080,1217606214,0.5136471390724182,0.6786381006240845,176.3528289794922,-0.10196785,0.21264169,0.35736656
1081,1217622881,0.5181405544281006,0.6590694189071655,176.30096435546875,-0.2294403,0.25818303,0.40370274
1082,1217639548,0.5238696336746216,0.6299019455909729,176.2220916748047,-0.3122614,0.22800668,0.36826897
1083,1217656215,0.5292229056358337,0.585969865322113,176.0928497314453,-0.19103888,0.18351263,0.3384924
1084,1217672882,0.5170724987983704,0.570214569568634,176.02088928222656,0.0161078,-0.17943604,0.2481165
1085,1217689549,0.5057106018066406,0.5639208555221558,176.00830078125,0.1229155,0.12700544,0.37411022
1086,1217706216,0.4965561032295227,0.5608547329902649,176.0149688720703,0.0139982775,0.099692,0.30206108
1087,1217722883,0.4972669184207916,0.5563668608665466,176.02870178222656,-0.30646095,0.22572093,0.31881523
1088,1217739550,0.5040431618690491,0.5463247299194336,176.00051879882812,-0.28561127,0.25004184,0.35747528
1089,1217756217,0.5038242340087891,0.5401315093040466,175.95901489257812,-0.08891718,0.20642573,0.3174858
1090,1217772884,0.5010305643081665,0.5232657194137573,175.88954162597656,-0.078416646,0.22310475,0.36894608
1091,1217789551,0.5032313466072083,0.5032117962837219,175.80560302734375,0.17009068,0.13696241,0.35004902
1092,1217806218,0.5064170956611633,0.501570999622345,175.7771453857422,0.22054766,-0.025990354,0.31433487
1093,1217822885,0.5102973580360413,0.4998236894607544,175.76194763183594,0.08193128,0.15575626,0.36358547
1094,1217839552,0.512395977973938,0.492711067199707,175.72898864746094,-0.03129048,0.15603188,0.33301926
1095,1217856219,0.5209842920303345,0.4732230901718139,175.6895294189453,-0.004157877,0.27247137,0.3994999
1096,1217872886,0.5462194681167603,0.4284917414188385,175.62063598632812,-0.2471219,0.33409244,0.3850317
1097,1217889553,0.5785767436027527,0.3727790117263794,175.50148010253906,-0.38812736,0.37089926,0.38134098
1098,1217906220,0.6084530353546143,0.314115434885025,175.30935668945312,-0.21611205,0.20246363,0.2992487
1099,1217922887,0.6056897044181824,0.3186014890670776,175.1480255126953,-0.1556648,-0.41193515,0.2001276
1100,1217939554,0.5934992432594299,0.3435050547122955,175.18019104003906,0.42113608,-0.06679604,0.33817673
1101,1217956221,0.6194543242454529,0.3464448451995849,175.20401000976562,0.04802214,0.3907055,0.37588882
1102,1217972888,0.6279388666152954,0.4227164089679718,175.33297729492188,-0.21437615,-0.689504,0.080516815
1103,1217989555,0.3107257187366485,0.9262540340423584,175.41854858398438,-0.73987085,-0.7205975,-0.5270195
1104,1218006222,-0.514741837978363,2.0552823543548584,175.1158447265625,-0.52421385,-0.14431341,0.111190796
1105,1218022889,-0.8849586844444275,2.8940269947052,174.89077758789062,1.9601822,2.4265974,1.6463289
1106,1218039556,-0.7953231930732727,2.5032246112823486,174.76724243164062,0.54448473,0.5123568,0.68993664
1107,1218056223,-0.5732502937316895,2.208030462265014,174.90438842773438,-0.7587337,-0.47460657,0.18550014
1108,1218072890,-0.5220048427581787,2.1460793018341064,175.00131225585938,-0.8372197,-0.19290264,-0.013462067
1109,1218089557,-0.6441859602928162,2.3104336261749268,174.97134399414062,-0.60808146,0.14058317,0.21836376
1110,1218106224,-0.7682324051856995,2.4789695739746094,174.8805389404297,-0.059372213,0.3822655,0.4900484
1111,1218122891,-0.7759336829185486,2.486966133117676,174.87521362304688,0.34717298,0.23914006,0.4507923
1112,1218139558,-0.7457993626594543,2.443027973175049,174.87860107421875,-0.14566576,0.11873906,0.3167572
1113,1218156225,-0.7467539310455322,2.4445064067840576,174.87950134277344,-0.3053979,0.06289333,0.30926418
1114,1218172892,-0.761811375617981,2.46502423286438,174.87852478027344,-0.038890604,0.18401425,0.33580303
1115,1218189559,-0.7557979822158813,2.4535369873046875,174.87828063964844,-0.013116515,0.18016331,0.36156368
1116,1218206226,-0.7525559067726135,2.445976495742798,174.87901306152344,-0.18982604,0.09255013,0.319808
1117,1218222893,-0.7597108483314514,2.45456600189209,174.8785400390625,-0.09552799,0.16505642,0.33866405
1118,1218239560,-0.758269190788269,2.4488344192504883,174.87875366210938,-0.053444605,0.172489,0.35673618
1119,1218256227,-0.7562673091888428,2.444330930709839,174.8788604736328,-0.1376533,0.13188297,0.3347168
1120,1218272894,-0.7604982256889343,2.447624683380127,174.87832641601562,-0.08993649,0.15464252,0.3367195
1121,1218289561,-0.7592494487762451,2.4448354244232178,174.8779754638672,-0.09010846,0.1513737,0.35931587
1122,1218306228,-0.7579129934310913,2.442136526107788,174.87850952148438,-0.11849039,0.13183777,0.3396721
1123,1218322895,-0.761061429977417,2.443777322769165,174.88014221191406,-0.09207388,0.15285732,0.34544754
1124,1218339562,-0.7585813999176025,2.44087290763855,174.88040161132812,-0.08722806,0.14976181,0.3627844
