PacketCounter,SampleTimeFine,Euler_X,Euler_Y,Euler_Z,FreeAcc_X,FreeAcc_Y,FreeAcc_Z
1,264404829,0.0140224136412143,-0.1710293292999267,-79.81806945800781,0.007775207,-0.027853662,0.33592033
2,264421496,0.0121922558173537,-0.2150094956159591,-79.74810791015625,0.012777314,-0.0007470842,0.32256603
3,264438163,0.0196082722395658,-0.2463884055614471,-79.77987670898438,0.0014670325,0.01320986,0.3301096
4,264454830,0.0231095720082521,-0.265385627746582,-79.78262329101562,-0.006287429,0.0074870363,0.3348875
5,264471497,0.0211912784725427,-0.2820027768611908,-79.77594757080078,-0.0021948884,0.01098973,0.33622265
6,264488164,0.0179583318531513,-0.2986259460449219,-79.77993774414062,0.016225412,6.0728296e-05,0.33931446
7,264504831,0.0166727509349584,-0.3172400295734405,-79.7994384765625,0.004097988,0.019994855,0.32237816
8,264521498,0.0154574420303106,-0.3334785103797912,-79.78755950927734,0.0015177438,0.016161308,0.327528
9,264538165,0.0143289035186171,-0.3490508794784546,-79.77825927734375,0.0013978954,0.020396477,0.3321905
10,264554832,0.0129092279821634,-0.3655288517475128,-79.78707122802734,0.012750602,0.022751374,0.32923603
11,264571499,0.0119792409241199,-0.3806621432304382,-79.7680892944336,0.00703928,0.035408027,0.30990505
12,264588166,0.0108025437220931,-0.3940770924091339,-79.74942779541016,-0.0027671165,0.019370226,0.33240604
13,264604833,0.0092492550611495,-0.4093818068504333,-79.73636627197266,-0.0049676155,0.023732554,0.3273859
14,264621500,0.0069618695415556,-0.4244627654552459,-79.732421875,0.013048446,0.031956162,0.32517242
15,264638167,0.0065286508761346,-0.4402662217617035,-79.71878051757812,0.005130085,0.035296287,0.33786774
16,264654834,0.0045943530276417,-0.4570904076099396,-79.70912170410156,0.009547094,0.037694376,0.3413782
17,264671501,0.003098954912275,-0.4733090102672577,-79.71564483642578,-0.00084019394,0.040896863,0.34369278
18,264688168,0.0016641982365399,-0.4893085658550262,-79.70807647705078,0.001387069,0.032226566,0.36293316
19,264704835,-0.0010160302044823,-0.5045867562294006,-79.71331787109375,-0.00015555455,0.039963037,0.30013752
20,264721502,-0.0028502526693046,-0.518663763999939,-79.70132446289062,-0.004775269,0.07058063,0.34234524
21,264738169,-0.0037889450322836,-0.533968448638916,-79.69789123535156,-0.027201852,0.07344588,0.35925388
22,264754836,-0.0070614567957818,-0.5478351712226868,-79.68687438964844,-0.06191218,0.13333137,0.32356262
23,264771503,-0.0106128565967082,-0.5603111982345581,-79.67850494384766,-0.08276667,0.17718792,0.3219614
24,264788170,-0.0130351288244128,-0.5712579488754272,-79.68034362792969,0.034281064,0.27284262,0.33511734
25,264804837,-0.0167913902550935,-0.5822718143463135,-79.66815948486328,0.15670066,0.093097545,0.3419819
26,264821504,-0.0234264452010393,-0.5925396680831909,-79.662109375,-0.04288589,-0.1962636,0.3525486
27,264838171,-0.0234750360250473,-0.6060110330581665,-79.66047668457031,-0.013517333,-0.25091738,0.31989574
28,264854838,-0.0268903281539678,-0.6225227117538452,-79.65125274658203,0.18930204,0.043270934,0.33980274
29,264871505,-0.0306643117219209,-0.6402008533477783,-79.64166259765625,-0.111424625,0.20653524,0.3368988
30,264888172,-0.0319269374012947,-0.6559063792228699,-79.637939453125,-0.15214851,0.19132757,0.33935165
31,264904839,-0.0335298292338848,-0.6703290343284607,-79.6412582397461,0.07974208,-0.009337767,0.35253048
32,264921506,-0.0371693931519985,-0.6851787567138672,-79.63443756103516,0.16637489,-0.03942958,0.35690594
33,264938173,-0.0405041016638278,-0.7002755999565125,-79.63575744628906,-0.040937815,0.092886925,0.33302784
34,264954840,-0.0431392937898635,-0.7157362103462219,-79.62913513183594,-0.1146874,0.16625758,0.36082458
35,264971507,-0.0449176020920276,-0.7330947518348694,-79.62199401855469,0.002699628,0.051435158,0.33803463
36,264988174,-0.0483977347612381,-0.7483236789703369,-79.6116943359375,0.111352615,-0.017726805,0.34459972
37,265004841,-0.0523727126419544,-0.7637448906898499,-79.6018295288086,0.004358241,0.10618985,0.32992268
38,265021508,-0.0543672256171703,-0.7791272401809692,-79.59391784667969,-0.07476041,0.21038957,0.3193779
39,265038175,-0.0568413957953453,-0.795112669467926,-79.58943176269531,-0.04460392,0.15228581,0.32782555
40,265054842,-0.0582946725189685,-0.8105597496032715,-79.58081817626953,0.09282943,0.05883816,0.34282112
41,265071509,-0.0625379607081413,-0.8257982730865479,-79.57415771484375,0.041151974,0.052596882,0.3310156
42,265088176,-0.0649202167987823,-0.8411061763763428,-79.56962585449219,-0.06962106,0.18729863,0.33682156
43,265104843,-0.0672317370772361,-0.8571653366088867,-79.56837463378906,-0.044049602,0.16291974,0.3264618
44,265121510,-0.070228561758995,-0.8717381358146667,-79.56352996826172,0.05121167,0.07121771,0.33913898
45,265138177,-0.0736118778586387,-0.8871606588363647,-79.55746459960938,0.051337108,0.063792504,0.33159447
46,265154844,-0.0767880529165268,-0.9007340669631958,-79.5531997680664,-0.03382872,0.15635207,0.34441948
47,265171511,-0.0793202593922615,-0.9146758913993835,-79.54961395263672,-0.037808523,0.17741017,0.33417702
48,265188178,-0.0836667194962501,-0.9295444488525392,-79.53977966308594,0.015754744,0.10328405,0.33996677
49,265204845,-0.086903877556324,-0.9447270035743712,-79.53010559082031,0.039638493,0.074476786,0.3567896
50,265221512,-0.0898400694131851,-0.9578037261962892,-79.52753448486328,-0.028707879,0.14588937,0.34331036
51,265238179,-0.0930685028433799,-0.9736302495002748,-79.51925659179688,-0.032804314,0.16045593,0.3304577
52,265254846,-0.0963233560323715,-0.9889925122261048,-79.51475524902344,0.01190709,0.12891018,0.33120632
53,265271513,-0.0991419181227684,-1.0025261640548706,-79.5096664428711,0.046024162,0.09555083,0.33233738
54,265288180,-0.1031915917992591,-1.0186781883239746,-79.50555419921875,0.0038742584,0.14415945,0.3708706
55,265304847,-0.1060612276196479,-1.0337891578674316,-79.49662780761719,-0.027205827,0.16429974,0.34042168
56,265321514,-0.1073320284485817,-1.048720359802246,-79.49162292480469,0.01622103,0.14653532,0.32369423
57,265338181,-0.1104819029569625,-1.063405156135559,-79.48365020751953,0.03597454,0.12760636,0.33357525
58,265354848,-0.1149491742253303,-1.07650887966156,-79.47627258300781,-0.001157818,0.15615083,0.35497856
59,265371515,-0.1172817945480346,-1.090646266937256,-79.47112274169922,-0.014010589,0.17088088,0.3518486
60,265388182,-0.1202276572585105,-1.1063625812530518,-79.46804809570312,0.013176774,0.16690725,0.3379736
61,265404849,-0.1230910122394561,-1.120725154876709,-79.46773529052734,0.018637232,0.14792238,0.37131214
62,265421516,-0.1263420581817627,-1.1357430219650269,-79.46347045898438,0.011412397,0.17164467,0.34693718
63,265438183,-0.1290505230426788,-1.1493263244628906,-79.45809936523438,-0.0019014352,0.18000515,0.34884644
64,265454850,-0.1313551962375641,-1.1644986867904663,-79.45492553710938,0.0028506983,0.16406141,0.33493233
65,265471517,-0.1331221163272857,-1.178808093070984,-79.4463882446289,0.016085722,0.15273285,0.3433895
66,265488184,-0.13570636510849,-1.1944698095321655,-79.44302368164062,0.013217271,0.1756619,0.32668304
67,265504851,-0.138952225446701,-1.2084537744522097,-79.43782043457031,0.014679825,0.19170867,0.33536148
68,265521518,-0.141815036535263,-1.222951889038086,-79.43295288085938,-0.009364673,0.17951894,0.34475136
69,265538185,-0.1444830596446991,-1.2380356788635254,-79.42804718017578,0.012389208,0.1667301,0.33686447
70,265554852,-0.1480151563882827,-1.251668095588684,-79.42445373535156,0.006793505,0.17392413,0.3434553
71,265571519,-0.1505869925022125,-1.2650213241577148,-79.4187240600586,0.0027524503,0.18879995,0.3303299
72,265588186,-0.153502270579338,-1.2788163423538208,-79.41099548339844,0.004632669,0.19805516,0.3232479
73,265604853,-0.1556929647922516,-1.292461395263672,-79.4083023071289,0.009895135,0.18472195,0.33921146
74,265621520,-0.1587601155042648,-1.3047925233840942,-79.40386962890625,0.00054103404,0.19309217,0.3342638
75,265638187,-0.1604084819555282,-1.3197695016860962,-79.3971939086914,-0.007134279,0.20272672,0.32963467
76,265654854,-0.1633509993553161,-1.3336477279663086,-79.39210510253906,0.000249657,0.19057447,0.34099865
77,265671521,-0.1654621660709381,-1.3483091592788696,-79.39324188232422,-0.0019768113,0.20054047,0.33316708
78,265688188,-0.1672499477863311,-1.361700415611267,-79.38719177246094,-0.0046388297,0.20853099,0.36014557
79,265704855,-0.1704103946685791,-1.375960350036621,-79.38362884521484,0.010285668,0.21242374,0.32957077
80,265721522,-0.1722796410322189,-1.3911125659942627,-79.37867736816406,0.001443272,0.20254487,0.34401703
81,265738189,-0.1740716993808746,-1.4059866666793823,-79.3743667602539,0.005125564,0.21034032,0.33229256
82,265754856,-0.1752649247646331,-1.4203921556472778,-79.3697738647461,0.023326986,0.19316784,0.3226776
83,265771523,-0.1779407113790512,-1.432137370109558,-79.3666763305664,0.016838998,0.2044941,0.30938816
84,265788190,-0.179122045636177,-1.4444938898086548,-79.36116027832031,-0.005388981,0.22836934,0.36256504
85,265804857,-0.1817732900381088,-1.4588398933410645,-79.35444641113281,-0.02325529,0.23699802,0.3532648
86,265821524,-0.183905228972435,-1.4733169078826904,-79.35289001464844,-0.038827408,0.260112,0.37494946
87,265838191,-0.1869641244411468,-1.487148404121399,-79.3466796875,-0.027289608,0.23166524,0.35119438
88,265854858,-0.1885062158107757,-1.5014681816101074,-79.34751892089844,0.027813785,0.20847236,0.3483734
89,265871525,-0.1902638375759124,-1.5148580074310305,-79.34505462646484,0.025936311,0.21489751,0.32548904
90,265888192,-0.1922301352024078,-1.5272789001464844,-79.34329986572266,-0.024384342,0.25133997,0.34479713
91,265904859,-0.1929137259721756,-1.54039204120636,-79.3430404663086,-0.02055369,0.25337905,0.33714676
92,265921526,-0.1955461800098419,-1.5534946918487549,-79.34117889404297,0.022901446,0.23121272,0.3433218
93,265938193,-0.1976155936717987,-1.5683233737945557,-79.33989715576172,0.01729375,0.24069083,0.3456974
94,265954860,-0.1993834227323532,-1.5815390348434448,-79.33607482910156,-0.009941409,0.25114712,0.314394
95,265971527,-0.2016237378120422,-1.5936927795410156,-79.33386993408203,-0.017852657,0.2488732,0.35730648
96,265988194,-0.2037581801414489,-1.6073358058929443,-79.33191680908203,0.026495932,0.21706547,0.33569527
97,266004861,-0.2046282887458801,-1.620219111442566,-79.32884979248047,0.013939357,0.2257991,0.3289194
98,266021528,-0.207801416516304,-1.6337321996688845,-79.32965087890625,-0.0063962843,0.23559947,0.33897305
99,266038195,-0.2104487717151641,-1.6458008289337158,-79.32647705078125,-0.004111102,0.27054068,0.34610176
100,266054862,-0.2127593606710434,-1.6584374904632568,-79.32473754882812,0.0084357355,0.25936797,0.35291672
101,266071529,-0.2148982137441635,-1.6719839572906494,-79.32247161865234,0.006266856,0.25446928,0.34628868
102,266088196,-0.2169915437698364,-1.6858919858932495,-79.32048034667969,-0.0025746527,0.27603692,0.3287239
103,266104863,-0.2174981981515884,-1.6982065439224243,-79.31694793701172,-0.0037027437,0.26086527,0.34493828
104,266121530,-0.221414253115654,-1.709648609161377,-79.31492614746094,0.01098495,0.27563876,0.32262516
105,266138197,-0.2223404198884964,-1.7215780019760132,-79.31199645996094,0.0005824608,0.2659741,0.34426403
106,266154864,-0.2239908277988433,-1.7323285341262815,-79.31327056884766,-0.0038748556,0.28303778,0.3422823
107,266171531,-0.2266281843185424,-1.7438123226165771,-79.3111572265625,0.009870988,0.28248212,0.34657955
108,266188198,-0.2292452901601791,-1.754752278327942,-79.31121826171875,0.015237975,0.26240516,0.33668613
109,266204865,-0.2321997880935669,-1.7653858661651611,-79.31002807617188,0.022074865,0.25993708,0.31194592
110,266221532,-0.2346023321151733,-1.7756106853485107,-79.31077575683594,-0.0033116308,0.27063024,0.32605076
111,266238199,-0.2353941947221756,-1.786512851715088,-79.31170654296875,-0.006508746,0.2839881,0.36062908
112,266254866,-0.2372071295976638,-1.7964577674865725,-79.30948638916016,0.010151686,0.2795192,0.32361126
113,266271533,-0.2406062185764312,-1.8075460195541384,-79.3086166381836,0.0025747714,0.28953847,0.3357134
114,266288200,-0.2417480647563934,-1.8196945190429688,-79.31017303466797,-0.0055077504,0.28470743,0.32737637
115,266304867,-0.2428231835365295,-1.8311554193496704,-79.31026458740234,0.0060097673,0.28492945,0.32557583
116,266321534,-0.2438009679317474,-1.8403358459472656,-79.30751037597656,-0.009827844,0.28166977,0.35546684
117,266338201,-0.2468724101781845,-1.8515808582305908,-79.30963134765625,0.009236066,0.28497833,0.33385563
118,266354868,-0.2481878995895385,-1.8627777099609373,-79.31061553955078,0.004333134,0.29066896,0.33949184
119,266371535,-0.2499577105045318,-1.8742001056671145,-79.30882263183594,0.0005414601,0.30169538,0.35008812
120,266388202,0.0680050179362297,-0.1994421333074569,-79.79656219482422,-0.010237789,-0.004576882,0.33592987
121,266404869,0.0677724182605743,-0.1991436928510666,-79.79763793945312,-0.037091415,0.021842731,0.33042622
122,266421536,0.0679245144128799,-0.200317308306694,-79.7990951538086,0.04366039,-0.043318618,0.32946205
123,266438203,0.0675348713994026,-0.2001907676458358,-79.79813385009766,0.0200698,-0.039286256,0.31999874
124,266454870,0.0674209743738174,-0.1991297453641891,-79.79772186279297,-0.04043593,0.011011419,0.33718014
125,266471537,0.0691403299570083,-0.199941486120224,-79.79795837402344,-0.041018024,0.0306775,0.33075714
126,266488204,0.0691540092229843,-0.1995056569576263,-79.79735565185547,0.021541283,-0.038128953,0.3486929
127,266504871,0.06926079839468,-0.1988026350736618,-79.79518127441406,0.02177212,-0.031708065,0.34150887
128,266521538,0.0680220052599906,-0.1991486102342605,-79.79529571533203,-0.024529956,0.022384917,0.33960915
129,266538205,0.0675698742270469,-0.1988766938447952,-79.79658508300781,-0.041751053,0.040440142,0.3304224
130,266554872,0.0677645578980445,-0.1994944661855697,-79.8004379272461,0.011582355,-0.012561969,0.33915424
131,266571539,0.0665133595466613,-0.1989474892616272,-79.79939270019531,0.04577796,-0.037161462,0.3470173
132,266588206,0.0656552165746688,-0.1982868015766143,-79.79985809326172,-0.0038851835,-0.017190851,0.34327602
133,266604873,0.0649420917034149,-0.199001595377922,-79.79886627197266,-0.048829127,0.03318387,0.3304329
134,266621540,0.0650555491447448,-0.1976978331804275,-79.7999496459961,0.019407121,-0.012674561,0.3312359
135,266638207,0.0654368922114372,-0.1970138549804687,-79.80056762695312,0.03612846,-0.03658167,0.34274387
136,266654874,0.0650563612580299,-0.196589320898056,-79.79945373535156,-0.029430768,0.035118956,0.34212208
137,266671541,0.0645504146814346,-0.1975951194763183,-79.79914855957031,-0.031797547,0.029924832,0.33136654
138,266688208,0.0642485246062278,-0.1976979970932006,-79.80088806152344,0.031190911,-0.02991175,0.35350227
139,266704875,0.0634157955646514,-0.1968403160572052,-79.80144500732422,0.026271822,-0.023855386,0.33534718
140,266721542,0.0627507269382476,-0.1976279616355896,-79.80086517333984,-0.020775547,0.022120703,0.32636547
141,266738209,0.0644657090306282,-0.1971916854381561,-79.80059814453125,-0.023714622,0.030548016,0.3349657
142,266754876,0.0652798637747764,-0.1970824152231216,-79.80232238769531,0.02458025,-0.023261221,0.3310175
143,266771543,0.0658530592918396,-0.1968715488910675,-79.80216217041016,0.042654637,-0.038088053,0.3215027
144,266788210,0.065040647983551,-0.1963270753622055,-79.80094909667969,-0.013213386,0.005717281,0.3453989
145,266804877,0.0654483512043953,-0.1970888376235962,-79.80216217041016,-0.012507025,0.007995774,0.35286427
146,266821544,0.0653520748019218,-0.1967246383428573,-79.8033218383789,0.01309075,-0.0029144962,0.3449812
147,266838211,0.0649001449346542,-0.1982299387454986,-79.8033676147461,0.008402676,-0.015163288,0.35138798
148,266854878,0.0647542029619216,-0.20009446144104,-79.80432891845703,-0.0015844598,-0.0038039093,0.32506847
149,266871545,0.0649308860301971,-0.200571522116661,-79.80427551269531,-0.014067527,0.0049352855,0.3094349
150,266888212,0.0651258006691932,-0.1992842555046081,-79.80415344238281,-0.012206081,-0.014545906,0.33610153
151,266904879,0.0644756183028221,-0.2000680565834045,-79.80420684814453,-0.0014620725,-0.010869646,0.33240223
152,266921546,0.0646442770957946,-0.199543222784996,-79.8038101196289,-0.0020578855,-0.001722365,0.34976292
153,266938213,0.064364768564701,-0.199736475944519,-79.80325317382812,-0.010142309,-0.005022578,0.34346485
154,266954880,0.0637419894337654,-0.2005128711462021,-79.80191802978516,0.012247536,-0.008269399,0.33367252
155,266971547,0.0630231276154518,-0.2005070447921753,-79.80215454101562,0.0030516617,0.0018088502,0.32882214
156,266988214,0.0629517808556556,-0.2007989883422851,-79.80270385742188,-0.027520308,-0.0020995745,0.3310442
157,267004881,0.0626943707466125,-0.2013527303934097,-79.80313110351562,-0.014721297,-0.0031588946,0.33755875
158,267021548,0.0633504986763,-0.2018091976642608,-79.8034896850586,-0.006849642,-0.01190938,0.3270197
159,267038215,0.0629287734627723,-0.2010648101568222,-79.8053207397461,-0.003418801,-0.022617653,0.32841587
160,267054882,0.0630169659852981,-0.2011843770742416,-79.80442810058594,-0.0010520249,-0.0067395214,0.33069897
161,267071549,0.0633120611310005,-0.2006215751171112,-79.80504608154297,8.139014e-06,0.0013737599,0.33818913
162,267088216,0.062781699001789,-0.2009143084287643,-79.80782318115234,0.004008545,0.0030568072,0.37098885
163,267104883,0.0621886141598224,-0.2012097090482711,-79.80845642089844,0.009626859,0.006739332,0.34444046
164,267121550,0.0628924593329429,-0.2011238932609558,-79.80770111083984,-0.01071131,0.0031385564,0.33709335
165,267138217,0.0634092167019844,-0.2008256167173385,-79.80795288085938,0.002150289,-0.025392635,0.35120487
166,267154884,0.0644134283065795,-0.2016703784465789,-79.80899047851562,0.0041117137,-0.008524007,0.3571825
167,267171551,0.0654389113187789,-0.2044656723737716,-79.80989074707031,0.010097897,-0.016635764,0.3250866
168,267188218,0.0658764541149139,-0.2046901285648346,-79.80996704101562,0.00081620296,0.0011979592,0.36384678
169,267204885,0.066697672009468,-0.203068196773529,-79.80889129638672,0.0037742467,0.005966265,0.33668613
170,267221552,0.0665025413036346,-0.2018971592187881,-79.808349609375,-0.016775643,0.004337053,0.34739017
171,267238219,0.0666275024414062,-0.2020953446626663,-79.80973052978516,-0.000276606,-0.008454061,0.33788395
172,267254886,0.0670862421393394,-0.2025895714759826,-79.80854797363281,0.0051856306,-0.0029471912,0.35049725
173,267271553,0.0682272240519523,-0.2029098570346832,-79.80891418457031,0.0076998277,0.0008707039,0.31493855
174,267288220,0.0682149231433868,-0.2029170989990234,-79.80829620361328,-0.0055294093,-0.0042775846,0.37226963
175,267304887,0.0686487331986427,-0.2031325250864029,-79.80766296386719,-0.0022176413,0.0046124477,0.33136272
176,267321554,0.0687450319528579,-0.2025309354066848,-79.80872344970703,0.008586157,-0.00024098057,0.33241367
177,267338221,0.0692812651395797,-0.203259065747261,-79.80855560302734,-0.003180854,-0.0069641573,0.33308697
178,267354888,0.0683523565530777,-0.2042273879051208,-79.80854797363281,-0.0049268785,-0.004359533,0.34831905
179,267371555,0.0669019892811775,-0.2048423290252685,-79.8082504272461,0.0061405567,-0.008456587,0.32714176
180,267388222,0.0674361437559127,-0.2041248679161071,-79.8071517944336,-0.0076500284,-0.005194652,0.34762383
181,267404889,0.067820519208908,-0.2051481455564499,-79.80795288085938,0.009234174,-0.0035368218,0.34401512
182,267421556,0.0675269588828086,-0.2055400758981704,-79.80812072753906,0.005903548,-0.0043029385,0.3422022
183,267438223,0.0673663467168808,-0.2053221464157104,-79.807861328125,6.6407796e-05,-7.0264265e-05,0.31650162
184,267454890,0.0670425742864608,-0.2045667171478271,-79.80889129638672,0.0038673303,0.0044129896,0.3349228
185,267471557,0.0672309398651123,-0.2044332474470138,-79.80865478515625,0.00061029865,0.016655663,0.3340006
186,267488224,0.0665982812643051,-0.2036429792642593,-79.80901336669922,9.450233e-05,0.0019569865,0.30594444
187,267504891,0.067418172955513,-0.2034941464662552,-79.80767822265625,0.0034075563,-0.012880401,0.3599367
188,267521558,0.0679194629192352,-0.2058237940073013,-79.8082275390625,0.0060906056,-0.0039222906,0.3498516
189,267538225,0.0665360987186431,-0.204865425825119,-79.80992889404297,-0.00088554085,-0.00979936,0.33701134
190,267554892,0.066994123160839,-0.2035449743270874,-79.80952453613281,-0.004902148,0.0012555744,0.34949684
191,267571559,0.0667581111192703,-0.2035206258296966,-79.80928039550781,-0.0072577563,0.0008557032,0.33849144
192,267588226,0.0662613436579704,-0.2040903121232986,-79.81013488769531,0.0003043836,0.0140122175,0.3405094
193,267604893,0.0653939470648765,-0.2053914964199066,-79.80982208251953,0.0027835877,-0.010405281,0.35979652
194,267621560,0.0643723756074905,-0.2057795077562332,-79.81027221679688,0.0027936194,-0.0023821325,0.35170078
195,267638227,0.0644838064908981,-0.2062215805053711,-79.80997467041016,-0.0029696333,0.008308371,0.35464954
196,267654894,0.0634655281901359,-0.2059491127729416,-79.81015014648438,0.011216588,-0.0006858185,0.34881115
197,267671561,0.06348617374897,-0.205501452088356,-79.81011962890625,0.0021026528,-0.007893,0.32373142
198,267688228,0.0637432113289833,-0.2049667686223983,-79.81063842773438,0.008164977,-0.0062133186,0.34114838
199,267704895,0.0638102144002914,-0.2048006653785705,-79.80904388427734,0.0058466187,0.0023282615,0.36605167
200,267721562,0.0644212737679481,-0.2061757892370224,-79.80825805664062,0.015592729,-0.000594331,0.31778908
201,267738229,0.0643646717071533,-0.2056147158145904,-79.80961608886719,0.0043684943,-0.00057996594,0.3527069
202,267754896,0.0639606118202209,-0.2066923379898071,-79.81053161621094,0.000262557,-0.0015276067,0.3549528
203,267771563,0.0630823671817779,-0.2057685703039169,-79.8096694946289,0.0018602163,0.0019007511,0.33814812
204,267788230,0.0630307719111442,-0.2055074870586395,-79.80960083007812,-0.0012458228,-0.007623966,0.33329964
205,267804897,0.0625330433249473,-0.206709399819374,-79.80931854248047,0.0035958004,0.0019358566,0.3435545
206,267821564,0.0623183660209178,-0.2066978216171264,-79.80850982666016,-0.0023402942,0.011916151,0.34236717
207,267838231,0.0630258619785308,-0.2078754007816314,-79.80858612060547,0.0039281696,-0.0062351115,0.3504095
208,267854898,0.0626750439405441,-0.2071497142314911,-79.81025695800781,-0.007722185,0.0063435487,0.32750416
209,267871565,0.0630962774157524,-0.2078638821840286,-79.80935668945312,-0.007707786,-0.0031835004,0.34950542
210,267888232,0.0618511997163295,-0.208069235086441,-79.81043243408203,0.007062592,0.004512981,0.34759903
211,267904899,0.0623333603143692,-0.2081676870584488,-79.80950164794922,0.012391467,-0.0035405522,0.32281017
212,267921566,0.0645525455474853,-0.2080497741699218,-79.8100814819336,0.0046170303,-0.0024765092,0.34596634
213,267938233,0.0650768429040908,-0.2077115923166275,-79.8096923828125,0.009148481,-0.01068313,0.32340908
214,267954900,0.0648714900016784,-0.2083564102649688,-79.810546875,-0.005095607,-0.012892398,0.33739948
215,267971567,0.0644124075770378,-0.207617849111557,-79.81105041503906,0.0075712875,0.006226209,0.32576847
216,267988234,0.0636058822274208,-0.2063158601522445,-79.81156158447266,-0.0024672756,0.0047951657,0.34872723
217,268004901,0.0640743747353553,-0.2064535468816757,-79.81145477294922,0.004820731,-0.003497879,0.3534975
218,268021568,0.0639964565634727,-0.2046144902706146,-79.81044006347656,-0.0031222194,-0.0003605334,0.3490219
219,268038235,0.0642822235822677,-0.2051416188478469,-79.81005859375,0.0039812964,4.6940775e-05,0.34492874
220,268054902,0.0637217760086059,-0.2064273357391357,-79.81002044677734,0.007607551,0.0048378897,0.35701466
221,268071569,0.0647875815629959,-0.2066627591848373,-79.81049346923828,-0.0066608214,-0.0018970239,0.35652637
222,268088236,0.065073624253273,-0.2063178420066833,-79.80946350097656,0.0016433388,-0.00097371585,0.33136654
223,268104903,0.0650622770190239,-0.2064720839262008,-79.8104019165039,0.001024153,0.007139488,0.34971905
224,268121570,0.0645754262804985,-0.2046214938163757,-79.81221771240234,-0.001799969,0.0069706626,0.35042667
225,268138237,0.064991109073162,-0.2050453573465347,-79.81346893310547,0.011376601,-0.005969603,0.34024048
226,268154904,0.064846359193325,-0.2056250274181366,-79.81473541259766,0.013413636,-0.00587093,0.3206396
227,268171571,0.0641077384352684,-0.2057914286851883,-79.81507873535156,2.500202e-05,-0.0019263189,0.35146713
228,268188238,0.0646321401000022,-0.2051131576299667,-79.81533813476562,0.0088145295,0.016018556,0.33354092
229,268204905,0.0649072378873825,-0.2038094848394394,-79.8161849975586,-0.014237806,-0.008946887,0.3360157
230,268221572,0.0651684626936912,-0.2028645277023315,-79.8161392211914,0.0019702537,-0.018958043,0.3380108
231,268238239,0.0664615035057067,-0.2025221288204193,-79.81703186035156,0.0077550947,9.16019e-05,0.33849335
232,268254906,0.0673462897539138,-0.201449915766716,-79.81722259521484,-0.00824331,-0.0010997697,0.35052013
233,268271573,0.0682369992136955,-0.2019378244876861,-79.8166275024414,0.009030808,-0.007180426,0.3523159
234,268288240,0.0691239163279533,-0.2025163471698761,-79.81521606445312,-0.001499923,0.00034648043,0.34317493
235,268304907,0.0694740861654281,-0.2010927051305771,-79.81636810302734,0.008543336,-0.0057796086,0.33378792
236,268321574,0.0695788785815239,-0.2008463889360427,-79.8169937133789,-0.0014232213,-0.002709991,0.3450451
237,268338241,0.0704182833433151,-0.2008326947689056,-79.81732177734375,-0.0056767846,-0.004034702,0.34798145
238,268354908,0.069333866238594,-0.2005243301391601,-79.81720733642578,0.0039333925,-0.010114473,0.34222507
239,268371575,0.0697685927152633,-0.2019523680210113,-79.81600952148438,-0.012070308,-0.01011764,0.3407011
240,268388242,0.0700919404625892,-0.2016434669494629,-79.81825256347656,-0.00048770264,-0.009268695,0.3281126
241,268404909,0.0700559765100479,-0.2014020234346389,-79.81974029541016,0.009816518,-0.012783199,0.3506813
242,268421576,0.0701652988791465,-0.2012229859828949,-79.8199691772461,-0.013430203,0.004485618,0.35737038
243,268438243,0.069952480494976,-0.2001936733722686,-79.8192138671875,-0.0022789887,-0.00746099,0.33994198
244,268454910,0.070207878947258,-0.1999718993902206,-79.81999206542969,-0.00088693347,-0.013295867,0.36271763
245,268471577,0.0700805261731147,-0.1991059631109237,-79.82111358642578,-0.0014553854,-0.0031271314,0.34298897
246,268488244,0.0708413422107696,-0.2019626647233963,-79.82051849365234,-0.0004489991,-0.0045353975,0.34562302
247,268504911,0.0711626634001731,-0.2006703615188598,-79.82018280029297,-0.020102413,0.0012335632,0.33488464
248,268521578,0.0716128870844841,-0.2006704956293106,-79.81996154785156,0.016538445,0.0016963913,0.3518114
249,268538245,0.0707996413111686,-0.1994880437850952,-79.82034301757812,-0.0001163481,-0.007464376,0.32925797
250,268554912,0.0705501139163971,-0.1991378962993621,-79.8196792602539,0.0005191289,-0.0074664415,0.3276844
251,268571579,0.0706273317337036,-0.1985093057155609,-79.81991577148438,-0.011066607,-0.015826982,0.3429327
252,268588246,0.0700832158327102,-0.1977474242448806,-79.81937408447266,0.0011147133,0.0019601018,0.3156128
253,268604913,0.0699431225657463,-0.1983388662338256,-79.81824493408203,-0.011265517,-0.00071652577,0.35791588
254,268621580,0.0694201439619064,-0.1986797451972961,-79.81830596923828,-0.014254294,-0.0096252225,0.32557487
255,268638247,0.0689575895667076,-0.1984468698501587,-79.81788635253906,-0.0057114526,-0.0051492094,0.3478527
256,268654914,0.0696418657898902,-0.1977252960205078,-79.81770324707031,-0.0031336718,-0.006896987,0.31194592
257,268671581,0.0696860700845718,-0.1974349915981292,-79.8179702758789,-0.0024099245,-0.00449527,0.34801102
258,268688248,0.0695632025599479,-0.1977244019508361,-79.8169937133789,-0.011491018,0.0017032638,0.36491966
259,268704915,0.0691396072506904,-0.1977191865444183,-79.81767272949219,-0.0054375776,-0.0054274215,0.34317875
260,268721582,0.0685014724731445,-0.1962359696626663,-79.8174057006836,-0.011814308,-0.008662842,0.3400612
261,268738249,0.0679202303290367,-0.1955814361572265,-79.81756591796875,-0.0059687616,-0.01608144,0.3419075
262,268754916,0.0684482008218765,-0.1946859061717987,-79.81719207763672,-0.007923371,0.0013739944,0.35973644
263,268771583,0.0691080018877983,-0.1942449510097503,-79.81689453125,-0.0009989004,-0.014999395,0.34919262
264,268788250,0.067630186676979,-0.1941450536251068,-79.81751251220703,-0.0012061152,-0.0042670346,0.37216187
265,268804917,0.0677053034305572,-0.1951028406620025,-79.81895446777344,0.017545443,-0.00040574238,0.3561983
266,268821584,0.0664770454168319,-0.1949599385261535,-79.81840515136719,0.012150261,0.004959037,0.331666
267,268838251,0.0668180882930755,-0.1938242614269256,-79.81954956054688,0.0022520397,-0.0072296564,0.31448174
268,268854918,0.0664572492241859,-0.193747416138649,-79.81928253173828,0.005147836,-0.0066223647,0.35158443
269,268871585,0.0653713569045066,-0.1942377984523773,-79.81868743896484,-0.012761913,-0.0031922194,0.33477306
270,268888252,0.065017469227314,-0.1950413882732391,-79.8182373046875,-3.9904047e-05,-0.00566101,0.34261036
271,268904919,0.0649897828698158,-0.1946853846311569,-79.81849670410156,-0.010855004,-0.0051710503,0.33904648
272,268921586,0.0644497722387313,-0.1943578720092773,-79.81880950927734,-0.00025273729,-0.0060404553,0.3403511
273,268938253,0.0643239915370941,-0.1935672909021377,-79.81680297851562,-0.00012958774,-0.022013208,0.34474468
274,268954920,0.0654066205024719,-0.1924708485603332,-79.8166732788086,-0.001883287,-0.005241399,0.33183956
275,268971587,0.0656089186668396,-0.1919217407703399,-79.8163070678711,0.0012747616,-0.019243604,0.33328533
276,268988254,0.0656451433897018,-0.1919137090444564,-79.81727600097656,-0.0028445795,0.00331732,0.343894
277,269004921,0.0655133053660392,-0.1920222491025924,-79.81669616699219,0.0056572054,-0.008011913,0.34198666
278,269021588,0.0654548183083534,-0.1919134110212326,-79.81581115722656,-0.003105832,-0.008690671,0.32597923
279,269038255,0.0649252012372016,-0.1918070763349533,-79.81666564941406,0.001590375,-0.007695352,0.35485268
280,269054922,0.0648421570658683,-0.1922410130500793,-79.81582641601562,0.005970588,-0.0069434545,0.340765
281,269071589,0.0658000111579895,-0.1924337297677993,-79.81611633300781,0.009004717,-0.014180164,0.34043217
282,269088256,0.0651877224445343,-0.1915738880634308,-79.81586456298828,0.011404537,-0.009331931,0.3383627
283,269104923,0.0654564872384071,-0.1905763149261474,-79.81702423095703,-0.01660162,0.0025392403,0.35477734
284,269121590,0.0653256252408027,-0.1909992694854736,-79.81644439697266,-0.004420413,-0.016375938,0.3683052
285,269138257,0.0648130699992179,-0.1920775026082992,-79.81755828857422,-0.0050798007,-0.0040319706,0.33604813
286,269154924,0.0636206418275833,-0.1905528157949447,-79.81765747070312,-0.011188225,-0.006374125,0.36883926
287,269171591,0.0644143894314765,-0.1902244985103607,-79.81895446777344,-0.005729397,-0.0025991593,0.3536768
288,269188258,0.0635422393679618,-0.1897975206375122,-79.81834411621094,0.002310153,-0.005161286,0.35561085
289,269204925,0.0636789575219154,-0.1891888678073883,-79.81857299804688,0.010223342,0.0032450834,0.3261423
290,269221592,0.0633653029799461,-0.1890368908643722,-79.81867980957031,0.0057807714,-0.010364825,0.3248949
291,269238259,0.0635408163070678,-0.1891221553087234,-79.81906127929688,-0.0026638152,-0.0058426466,0.33190536
292,269254926,0.0630004778504371,-0.1898427307605743,-79.8193359375,-0.0066301087,0.0049503073,0.33006763
293,269271593,0.0627763196825981,-0.1892546862363815,-79.81980895996094,0.0073540197,-0.00729753,0.3573742
294,269288260,0.0626010224223136,-0.1890351474285125,-79.82044982910156,0.0038626033,-0.004516166,0.3361416
295,269304927,0.0617973916232585,-0.1888907700777053,-79.8213882446289,-0.002028532,-0.00090011157,0.33731556
296,269321594,0.061559047549963,-0.1888385862112045,-79.82097625732422,0.0028579345,-0.0012162034,0.34572697
297,269338261,0.0612903907895088,-0.1894929856061935,-79.82152557373047,-0.008005812,0.0052644485,0.31429863
298,269354928,0.060840155929327,-0.1911556869745254,-79.82102966308594,-0.011927352,0.0014817385,0.33943558
299,269371595,0.0593848451972007,-0.1925771981477737,-79.82235717773438,6.914495e-05,-9.6512194e-05,0.31113625
300,269388262,0.0598825849592685,-0.1906662583351135,-79.82305908203125,0.0097656725,0.005133294,0.34834385
301,269404929,0.0596300214529037,-0.1901745796203613,-79.82305908203125,0.0010725453,-0.008397174,0.3392334
302,269421596,0.0599258467555046,-0.190613105893135,-79.8222427368164,0.0059763025,0.00044433807,0.34284592
303,269438263,0.0604507438838481,-0.1900099217891693,-79.82276153564453,0.0032726636,-0.005194106,0.34294224
304,269454930,0.0603363364934921,-0.1898170709609985,-79.82252502441406,0.0046142344,-0.018932007,0.3650341
305,269471597,0.0604680441319942,-0.1904197782278061,-79.8230972290039,0.0017589396,8.589969e-06,0.33670425
306,269488264,0.0598771460354328,-0.1900605857372284,-79.82279968261719,0.0007479276,0.014216371,0.35962963
307,269504931,0.0606512129306793,-0.188313215970993,-79.82461547851562,-0.008874374,-0.010103106,0.3295498
308,269521598,0.0601189397275447,-0.1886188089847564,-79.82661437988281,-0.0013165803,-0.011935649,0.34321976
309,269538265,0.0606743842363357,-0.1876826882362365,-79.82772827148438,0.00069357554,0.0034612892,0.35209084
310,269554932,0.0607664473354816,-0.1882366687059402,-79.82772827148438,-0.0053041107,-0.0050572767,0.33811378
311,269571599,0.0610980689525604,-0.187740758061409,-79.82810974121094,0.0023466302,-0.017191943,0.33469296
312,269588266,0.0619021169841289,-0.1871180981397628,-79.82784271240234,0.005237853,-0.009683692,0.33819008
313,269604933,0.0623913370072841,-0.1877915561199188,-79.82752990722656,-0.011366023,-0.00057258696,0.33531952
314,269621600,0.0623096562922,-0.1882076859474182,-79.827880859375,-0.005732421,-0.010721155,0.34006023
315,269638267,0.0641153901815414,-0.188302531838417,-79.827392578125,0.00060861616,-0.0010652584,0.33004665
316,269654934,0.0645808205008506,-0.187692105770111,-79.82783508300781,0.008249383,-0.0035403746,0.33291626
317,269671601,0.0645563974976539,-0.1880093067884445,-79.82788848876953,-0.0049127545,-0.0018291204,0.32987022
318,269688268,0.0639471709728241,-0.1882645040750503,-79.82841491699219,-0.0068411953,-0.0007347626,0.32966805
319,269704935,0.0646394938230514,-0.1883393228054046,-79.82902526855469,0.0030127582,0.001659076,0.3259611
320,269721602,0.0641860663890838,-0.187866985797882,-79.8287353515625,0.0054975813,-0.016118763,0.34726238
321,269738269,0.0641204938292503,-0.1878397315740585,-79.82743835449219,-0.005098284,-0.01586837,0.36765575
322,269754936,0.063278816640377,-0.1891261637210846,-79.82710266113281,-0.015048294,-0.008627588,0.3366928
323,269771603,0.0636777505278587,-0.1889450252056121,-79.82699584960938,0.00057842536,-0.014964184,0.32309055
324,269788270,0.0643329322338104,-0.1878541857004165,-79.82762908935547,0.010516608,0.002925857,0.36310387
325,269804937,0.0644539296627044,-0.1874987334012985,-79.82705688476562,0.0030509196,-0.004814267,0.34220028
326,269821604,0.0652646049857139,-0.1887426823377609,-79.82697296142578,0.0031497567,-0.007734045,0.34544468
327,269838271,0.0650235339999198,-0.1897359192371368,-79.82719421386719,-0.004892897,-0.0195708,0.31703472
328,269854938,0.0653947591781616,-0.1903570741415023,-79.82669067382812,-0.005860418,-0.012382818,0.35569
329,269871605,0.065732218325138,-0.1908847689628601,-79.8274917602539,-0.011277664,-0.007885331,0.34452343
330,269888272,0.0652104169130325,-0.1898910701274871,-79.82823181152344,-0.0017005913,-0.00092206034,0.3523836
331,269904939,0.0654777213931083,-0.1904850900173187,-79.8284683227539,-0.0019078254,-0.009755576,0.3527851
332,269921606,0.0651899725198745,-0.1883774101734161,-79.8290786743164,0.0034072262,-0.014039011,0.3571539
333,269938273,0.064189612865448,-0.1872840672731399,-79.82960510253906,-0.0095588565,-0.0039535183,0.35682774
334,269954940,0.0643703043460846,-0.186908558011055,-79.83016204833984,0.0046950276,-0.004546488,0.32431984
335,269971607,0.0659690648317337,-0.1866389214992523,-79.83082580566406,-0.0011317683,-0.013243346,0.35659122
336,269988274,0.0657414197921752,-0.1856690198183059,-79.83059692382812,-0.007014379,0.00014807428,0.3397522
337,270004941,0.066425047814846,-0.1851715445518493,-79.8301010131836,-0.007778415,-0.016720152,0.30667782
338,270021608,0.065221831202507,-0.1852614283561706,-79.83018493652344,0.0013153275,0.0096967975,0.33794117
339,270038275,0.0650552064180374,-0.1852561086416244,-79.83063507080078,0.008631535,-0.0021348686,0.3414135
340,270054942,0.0651333630084991,-0.1862870007753372,-79.83116149902344,0.0034859788,0.0029607108,0.3378229
341,270071609,0.0639252662658691,-0.1867566704750061,-79.83018493652344,0.0056561325,-0.0031644558,0.33225727
342,270088276,0.0631707087159156,-0.1867006123065948,-79.83078002929688,0.0015569084,0.0012567015,0.34433556
343,270104943,0.0643803477287292,-0.1868838667869568,-79.83137512207031,-0.0028008898,-0.010928521,0.34877682
344,270121610,0.0649651512503624,-0.1871033161878585,-79.83067321777344,-0.005030453,-0.0044953115,0.32986832
345,270138277,0.0656187385320663,-0.1869071125984192,-79.83045959472656,-0.010975315,-0.013863297,0.33877087
346,270154944,0.0666177570819854,-0.1869527846574783,-79.83094787597656,-0.003146583,-0.009186768,0.3513193
347,270171611,0.0656678974628448,-0.1853155940771103,-79.83148956298828,-0.009367126,-0.005325823,0.37263393
348,270188278,0.0659223422408104,-0.1842985451221466,-79.83160400390625,-0.0049175913,-0.0033339227,0.36389732
349,270204945,0.066693291068077,-0.1830457150936126,-79.83015441894531,0.0035074665,0.0009899648,0.33001137
350,270221612,0.067425936460495,-0.1835919320583343,-79.83026123046875,0.00850214,-0.0012305541,0.32924557
351,270238279,0.0676747411489486,-0.1832324415445327,-79.83038330078125,0.0056884177,0.0010044668,0.33478642
352,270254946,0.0679577887058258,-0.1835833489894867,-79.83067321777344,0.009737921,0.0005105359,0.33927155
353,270271613,0.0679138377308845,-0.1834775954484939,-79.83086395263672,0.0014600338,-0.015120532,0.35726357
354,270288280,0.0671066418290138,-0.1825499385595321,-79.82917022705078,-0.0029401758,-0.0102840215,0.3345747
355,270304947,0.0671192184090614,-0.1823380887508392,-79.82809448242188,-0.0014710121,0.0023541362,0.32749653
356,270321614,0.0666882619261741,-0.1822917014360427,-79.82840728759766,-0.0038643295,-0.009018814,0.34499836
357,270338281,0.0661750510334968,-0.1816139817237854,-79.82876586914062,0.00049563474,-0.011761063,0.34428215
358,270354948,0.0663507431745529,-0.1822001188993454,-79.82793426513672,-0.0024204042,-0.0009812184,0.3402071
359,270371615,0.0658131688833236,-0.1814649552106857,-79.82714080810547,0.009042267,-0.015098311,0.3328476
360,270388282,0.0690218731760978,-0.1974117308855056,-79.83267974853516,0.0033714885,-0.0031824457,0.33850002
361,270404949,0.0700826272368431,-0.1975091397762298,-79.83407592773438,0.0072941254,-0.0027889404,0.33280277
362,270421616,0.070041537284851,-0.195978507399559,-79.8336181640625,-0.0061181462,-0.00038753392,0.33999538
363,270438283,0.069017082452774,-0.1952629536390304,-79.8330307006836,-0.0020233223,0.0017390413,0.34012032
364,270454950,0.0682148709893226,-0.1942396908998489,-79.83453369140625,0.014437253,-0.008404147,0.3248129
365,270471617,0.0673660039901733,-0.1942518651485443,-79.8338623046875,-0.0042914967,-0.008529208,0.33273506
366,270488284,0.0667743533849716,-0.1943190395832061,-79.83450317382812,0.0012148077,-0.023133634,0.33059502
367,270504951,0.0662967637181282,-0.1953672021627426,-79.83515167236328,0.0053415485,-0.025725415,0.33759403
368,270521618,0.0678602010011673,-0.1962739527225494,-79.83423614501953,-0.0039812354,0.00028238373,0.3379736
369,270538285,0.0664030164480209,-0.1955329030752182,-79.83367919921875,-0.010230784,0.013531239,0.34018517
370,270554952,0.0667416378855705,-0.1945354044437408,-79.83248901367188,0.011972466,0.0046251193,0.35760784
371,270571619,0.0679560303688049,-0.1947192698717117,-79.83265686035156,0.0062188925,-0.01753299,0.34682465
372,270588286,0.068503089249134,-0.1951299607753753,-79.83374786376953,0.0075533707,0.007882569,0.33762455
373,270604953,0.0691410899162292,-0.1944869607686996,-79.83442687988281,-0.017295374,0.010618886,0.3378563
374,270621620,0.0700840428471565,-0.1956983804702758,-79.83438110351562,-0.009511426,0.0010770884,0.3437147
375,270638287,0.0693466141819953,-0.1962252855300903,-79.83483123779297,-0.0087515,0.011639836,0.32857418
376,270654954,0.0689641237258911,-0.195362851023674,-79.83499145507812,-0.005663867,0.018488673,0.33966637
377,270671621,0.0689083486795425,-0.1965251266956329,-79.83639526367188,0.017615933,-0.012988203,0.34225368
378,270688288,0.0678728744387626,-0.1971881240606308,-79.83512878417969,0.00022413635,0.0055606025,0.336977
379,270704955,0.0674155578017234,-0.1987578719854354,-79.83512878417969,-0.003510284,-0.0013889824,0.32515144
380,270721622,0.066503956913948,-0.1974900364875793,-79.83567810058594,0.015175681,-0.0004459079,0.35268402
381,270738289,0.0647658705711364,-0.1969143897294998,-79.83476257324219,0.017990198,-0.01104306,0.3293581
382,270754956,0.0645042285323143,-0.1960566490888595,-79.83441925048828,0.008044543,0.0056772158,0.34297848
383,270771623,0.0648180395364761,-0.1955185681581497,-79.83489227294922,-0.007175726,0.014698072,0.33310032
384,270788290,0.0635606199502945,-0.1969885677099228,-79.834228515625,0.014568122,-0.02431367,0.34278488
385,270804957,0.0632830411195755,-0.1973590701818466,-79.83306884765625,0.010213903,-0.0054887477,0.34514904
386,270821624,0.0624995939433574,-0.1984982341527938,-79.83336639404297,-0.009282933,0.010008058,0.33898735
387,270838291,0.0625416412949562,-0.1979860216379165,-79.83425903320312,-0.008005278,-0.0047246143,0.34990883
388,270854958,0.0621340051293373,-0.1981571167707443,-79.83484649658203,-0.0007603378,-0.023779612,0.3181324
389,270871625,0.0637557208538055,-0.1973332613706588,-79.8352279663086,0.0009829383,-0.0080489,0.33773327
390,270888292,0.0640039145946502,-0.1965287923812866,-79.83606719970703,-0.008702133,0.01750819,0.3543129
391,270904959,0.0647902712225914,-0.1983451098203659,-79.83563232421875,0.003968394,-0.0040409495,0.34364128
392,270921626,0.0642240419983863,-0.1969681531190872,-79.83592224121094,-0.011656705,0.005023712,0.3383274
393,270938293,0.0647192820906639,-0.1959537118673324,-79.83633422851562,-0.015604197,-0.0015041837,0.34380913
394,270954960,0.0638890713453292,-0.196519136428833,-79.83576202392578,0.0016866575,-0.01428822,0.33489895
395,270971627,0.0632806718349456,-0.1967804282903671,-79.83560180664062,-0.0017287942,-0.0067119007,0.32951927
396,270988294,0.062960647046566,-0.1968615651130676,-79.8352279663086,0.007382042,0.0009318111,0.33704853
397,271004961,0.0625595673918724,-0.1973042041063308,-79.8353042602539,0.0021916633,-0.0070980513,0.3392582
398,271021628,0.0619930103421211,-0.196024551987648,-79.8359375,0.011202628,-0.0011027317,0.3354845
399,271038295,0.0610299557447433,-0.1946857124567031,-79.83502197265625,0.010800742,-0.018185942,0.3474579
400,271054962,0.0611840933561325,-0.1948181241750717,-79.83450317382812,0.013572225,0.00053717324,0.34082222
401,271071629,0.0621864981949329,-0.1944986134767532,-79.83446502685547,-0.00070815015,-0.0050383103,0.35411453
402,271088296,0.0621326304972171,-0.193446010351181,-79.83585357666016,0.0017224031,-0.009354293,0.3582611
403,271104963,0.0623038001358509,-0.1946251392364502,-79.83617401123047,-0.0051303757,-0.0072347797,0.33904648
404,271121630,0.0621846430003643,-0.1938462406396865,-79.83649444580078,0.0057680425,-0.002743883,0.33349037
405,271138297,0.063107393682003,-0.1948802024126052,-79.83623504638672,0.0065010376,-0.0074350964,0.34540653
406,271154964,0.0632490813732147,-0.1945652663707733,-79.83583068847656,0.0036247324,-0.010343157,0.34670544
407,271171631,0.0635925829410553,-0.1939256936311721,-79.83515167236328,-0.009513868,-0.017586706,0.3585434
408,271188298,0.0635449960827827,-0.1949501633644104,-79.83605194091797,-0.016958546,-0.00023880394,0.3616333
409,271204965,0.0629131123423576,-0.1950624883174896,-79.83622741699219,0.000828924,-0.0047532935,0.34033108
410,271221632,0.0627250298857688,-0.1945867985486984,-79.83502197265625,0.025979893,-0.008080323,0.33057976
411,271238299,0.0619167611002922,-0.1947104036808014,-79.83444213867188,0.0043008495,-3.2367032e-05,0.31101894
412,271254966,0.061283104121685,-0.1936014890670776,-79.83416748046875,-0.011263423,0.0015135097,0.32924747
413,271271633,0.0615560263395309,-0.1949106752872467,-79.83407592773438,-0.0053540966,-0.0020324374,0.345603
414,271288300,0.0604481622576713,-0.195083886384964,-79.83465576171875,0.011745977,-5.164721e-05,0.33954048
415,271304967,0.0605028569698333,-0.195271834731102,-79.83375549316406,-6.3299565e-05,-0.0078368755,0.3579445
416,271321634,0.0597022511065006,-0.1940636783838272,-79.83367919921875,-0.006418804,-0.018060068,0.34489822
417,271338301,0.0584839358925819,-0.1932336241006851,-79.83368682861328,0.008153305,-0.0073860222,0.33493137
418,271354968,0.058194525539875,-0.1941326409578323,-79.83377075195312,0.0057979347,-0.0034875046,0.35324955
419,271371635,0.0582343935966491,-0.1930323988199234,-79.83319854736328,0.018269727,0.010029356,0.35150146
420,271388302,0.0586844719946384,-0.1933483481407165,-79.8331527709961,1.8774215e-05,0.010051858,0.35192013
421,271404969,0.058803766965866,-0.1929156631231308,-79.833740234375,-0.008223152,-0.00044856343,0.31171894
422,271421636,0.0375853665173053,-0.1409115046262741,-79.82444763183594,0.014357334,-0.0063449456,0.3542328
423,271438303,0.0256327688694,-0.1148310229182243,-79.80956268310547,0.01132931,-0.024703274,0.33477592
424,271454970,0.0155771123245358,-0.0618595108389854,-79.4738540649414,-0.3001834,0.99540055,0.29247093
425,271471637,0.0248123928904533,-0.0380162708461284,-79.3630142211914,-0.37310845,0.71770525,0.3960638
426,271488304,0.0365312956273555,-0.0740951895713806,-79.76634216308594,0.12634009,0.0147651,0.34122086
427,271504971,0.0351461581885814,-0.0935716480016708,-80.0665283203125,0.28686494,-0.73089373,0.32815647
428,271521638,0.03958261013031,-0.1056415289640426,-80.05387878417969,0.19488034,-0.849793,0.3394394
429,271538305,0.1502398699522018,-0.2633786201477051,-80.02139282226562,0.020704297,-0.10796728,0.34851837
430,271554972,0.1573498547077179,-0.3112636506557464,-80.18083190917969,0.16192421,-0.2830949,0.3354845
431,271571639,0.1581065952777862,-0.3131560087203979,-80.42129516601562,0.5168723,-0.49189892,0.3559723
432,271588306,0.158582255244255,-0.316690981388092,-80.64572143554688,-0.07177149,0.18095788,0.33306313
433,271604973,0.1499166339635849,-0.321946918964386,-80.7280044555664,0.22825564,0.12153457,0.3319044
434,271621640,0.1435821503400802,-0.3316106498241424,-80.73391723632812,0.16924882,0.011580255,0.31176662
435,271638307,0.1433601677417755,-0.3395360708236694,-80.74092102050781,0.18665554,-0.03303904,0.3521185
436,271654974,0.1463502943515777,-0.3361380398273468,-80.76886749267578,0.35130376,-0.22443457,0.33102798
437,271671641,0.1374914348125457,-0.3187177181243896,-80.8807144165039,-0.122826934,0.08071176,0.3598318
438,271688308,0.1225186437368393,-0.2997620403766632,-81.06230163574219,-0.090596125,0.16742839,0.3546543
439,271704975,0.1202823370695114,-0.3012872636318207,-81.16561889648438,0.18283018,0.09059863,0.3123312
440,271721642,0.1287057846784591,-0.3174116313457489,-81.16766357421875,0.1721052,0.0856287,0.35922718
441,271738309,0.132813885807991,-0.3210512399673462,-81.20792388916016,0.058795825,0.0035248962,0.31202698
442,271754976,0.1349892020225525,-0.303080141544342,-81.36581420898438,0.04965044,-0.10036977,0.37303066
443,271771643,0.1400049030780792,-0.2945708930492401,-81.47932434082031,0.20057231,-0.07195537,0.30632114
444,271788310,0.1504037529230117,-0.2888687551021576,-81.58536529541016,0.049048044,0.032334283,0.35378933
445,271804977,0.1590629369020462,-0.2839624285697937,-81.67298126220703,0.07340342,0.096953005,0.3178873
446,271821644,0.1703901290893554,-0.2644072473049164,-81.78656768798828,0.06524085,0.03418759,0.34284782
447,271838311,0.1839872300624847,-0.2513872683048248,-81.8801040649414,-0.00031055728,-0.21183845,0.3366003
448,271854978,0.2006645202636718,-0.2518226504325866,-81.87654876708984,0.038690813,-0.14277577,0.35280037
449,271871645,0.2092674821615219,-0.2500423789024353,-81.87289428710938,0.0021935562,0.07098674,0.34897327
450,271888312,0.2213899940252304,-0.2456832081079483,-81.8711166381836,0.017412163,0.014284493,0.34041405
451,271904979,0.232417419552803,-0.2349289804697036,-81.91299438476562,-0.1397008,0.12160091,0.3347454
452,271921646,0.2399455159902572,-0.223541259765625,-82.02312469482422,0.008814371,-0.09397607,0.3491459
453,271938313,0.2556480467319488,-0.2272108942270279,-82.1368637084961,-0.08535432,-0.059278645,0.31271458
454,271954980,0.2700033485889435,-0.2389861941337585,-82.22052764892578,0.16793212,-0.07769122,0.332695
455,271971647,0.2769275307655334,-0.2468947172164917,-82.26289367675781,-0.094212815,0.14130501,0.35480022
456,271988314,0.2793543338775635,-0.2443702220916748,-82.39811706542969,-0.075381756,0.04387996,0.33703613
457,272004981,0.2807046771049499,-0.243317574262619,-82.61886596679688,-0.09649027,0.10847632,0.36041737
458,272021648,0.2804107964038849,-0.2473483383655548,-82.79417419433594,-0.14219874,0.09817007,0.34328556
459,272038315,0.2845378518104553,-0.2544883489608764,-82.8901138305664,0.2548887,-0.05549952,0.34926128
460,272054982,0.2830560803413391,-0.261410504579544,-82.92359161376953,-0.2295375,0.19530188,0.38322544
461,272071649,0.281588464975357,-0.2672700583934784,-82.97277069091797,0.027030395,0.087255366,0.32803822
462,272088316,0.2842858731746673,-0.2759186625480652,-83.04353332519531,0.02662292,-0.0053742365,0.34203243
463,272104983,0.2827822864055633,-0.2806583046913147,-83.05811309814453,0.19142358,0.04345205,0.34619427
464,272121650,0.2758240401744842,-0.2797769010066986,-83.04067993164062,-0.055745006,0.0444101,0.3130474
465,272138317,0.269978404045105,-0.2760337293148041,-83.09928894042969,-0.07339112,0.026191108,0.3677864
466,272154984,0.2651353478431701,-0.2748295962810516,-83.19795227050781,-0.013023108,-0.037940513,0.32265854
467,272171651,0.2629431188106537,-0.279933214187622,-83.25813293457031,0.064888395,-0.040490847,0.3218422
468,272188318,0.2619561553001404,-0.282583087682724,-83.268798828125,0.09902714,0.064372025,0.3177309
469,272204985,0.2549538016319275,-0.2855430543422699,-83.24462890625,0.024910217,0.071280666,0.3697176
470,272221652,0.2435474693775177,-0.2825470566749573,-83.31202697753906,-0.17266816,0.09699899,0.337286
471,272238319,0.2367375344038009,-0.2711327970027923,-83.56336212158203,-0.02512399,0.11025774,0.34982872
472,272254986,0.2252288460731506,-0.2633684575557709,-83.82029724121094,0.16713206,-0.09239957,0.3634596
473,272271653,0.2160975635051727,-0.2542910873889923,-83.98808288574219,0.17717601,-0.10536174,0.31120586
474,272288320,0.2073476761579513,-0.2557462453842163,-84.06399536132812,0.17588818,0.06544708,0.3431635
475,272304987,0.2017580419778823,-0.25174281001091,-84.12805938720703,0.11626618,0.08787263,0.32452488
476,272321654,0.1923473179340362,-0.249051958322525,-84.14735412597656,0.29676294,-0.015580713,0.32993412
477,272338321,0.187686949968338,-0.2482190579175949,-84.16758728027344,0.037970148,-0.052487623,0.36407757
478,272354988,0.18266361951828,-0.2484388202428817,-84.16268157958984,0.089612365,0.055928204,0.32097435
479,272371655,0.1760382503271103,-0.2407550513744354,-84.13741302490234,-0.04442656,0.2027541,0.3677683
480,272388322,0.158731460571289,-0.2171229571104049,-84.19896697998047,-0.058927927,0.110737346,0.320796
481,272404989,0.1358735263347625,-0.1959481537342071,-84.32186889648438,0.06409083,-0.0496495,0.3439579
482,272421656,0.1249995306134224,-0.1898675709962844,-84.35234832763672,0.18223715,-0.22785975,0.3197155
483,272438323,0.1376240104436874,-0.2002416402101516,-84.185791015625,0.18567817,-0.17485866,0.33225346
484,272454990,0.1440124660730362,-0.2100908160209655,-83.87432861328125,0.18355873,0.03110855,0.34898663
485,272471657,0.1397033333778381,-0.209111601114273,-83.56208801269531,0.0030346545,0.16014268,0.32820797
486,272488324,0.1243541315197944,-0.1899292469024658,-83.46542358398438,-0.20499524,0.16273378,0.31820202
487,272504991,0.1059509664773941,-0.1640719026327133,-83.50347900390625,-0.03163883,0.0091294125,0.31070995
488,272521658,0.1002415418624877,-0.1520344167947769,-83.53783416748047,0.07094429,-0.060355272,0.3151245
489,272538325,0.104723259806633,-0.1442375034093856,-83.54182434082031,-0.06032542,0.039748527,0.3506899
490,272554992,0.1065463572740554,-0.1317788660526275,-83.65303039550781,-0.08148303,0.11577292,0.34601402
491,272571659,0.112766146659851,-0.1198312044143676,-83.8882827758789,-0.0053270245,-0.07504682,0.34863186
492,272588326,0.128253772854805,-0.1210449039936065,-84.0611572265625,0.06329666,-0.17791545,0.33479023
493,272604993,0.1445532739162445,-0.1322373747825622,-83.97339630126953,0.042210564,0.027489876,0.3675022
494,272621660,0.1515589952468872,-0.1398105025291443,-83.81796264648438,0.021695387,0.073496684,0.33750153
495,272638327,0.1568801254034042,-0.1456651389598846,-83.69556427001953,-0.10160879,0.14370964,0.35899258
496,272654994,0.1539237052202224,-0.1440904885530471,-83.66775512695312,0.0019387453,-0.013521163,0.3200388
497,272671661,0.1546829938888549,-0.1440312564373016,-83.63430786132812,-0.07067444,-0.032422733,0.36412907
498,272688328,0.1488832384347915,-0.1446777880191803,-83.61443328857422,-0.0075807176,0.052928597,0.35859394
499,272704995,0.1400982737541198,-0.1393456310033798,-83.68474578857422,-0.051929984,0.053049587,0.3614998
500,272721662,0.1340328156948089,-0.1244267746806144,-83.87393188476562,-0.21163945,-0.07369058,0.31129265
501,272738329,0.1458014547824859,-0.1206434071063995,-84.0732192993164,0.44833016,-0.3445181,0.37685394
502,272754996,0.1506055444478988,-0.1281736344099044,-84.010986328125,0.11759242,-0.1559326,0.3261652
503,272771663,0.1561075001955032,-0.1321191191673278,-83.92899322509766,0.024358762,0.12580577,0.36724758
504,272788330,0.1508068740367889,-0.1366802603006363,-83.91034698486328,0.024527159,0.08828672,0.34997654
505,272804997,0.1392139196395874,-0.1356029212474823,-83.9007339477539,0.06602369,0.1499958,0.35721874
506,272821664,0.1230595037341117,-0.1282710134983062,-83.92420959472656,0.16165194,0.012996274,0.33901024
507,272838331,0.11093021184206,-0.119422860443592,-83.97923278808594,0.041836973,0.0822434,0.3588848
508,272854998,0.100821629166603,-0.1140439733862876,-84.13265991210938,0.09797524,0.022532111,0.31711292
509,272871665,0.0968375355005264,-0.1076490953564643,-84.19363403320312,0.47589254,-0.19789629,0.37547684
510,272888332,0.1026785746216774,-0.0970370098948478,-84.26100158691406,0.119856365,-0.22111848,0.33623505
511,272904999,0.1183782368898391,-0.0846559554338455,-84.40692901611328,0.067422345,-0.28327763,0.37642765
512,272921666,0.1423732936382293,-0.07806296646595,-84.56118774414062,0.10050851,0.015352405,0.31742764
513,272938333,0.1688103526830673,-0.0676864832639694,-84.68561553955078,0.09196895,0.19371945,0.38579464
514,272955000,0.1938292682170868,-0.0569510906934738,-84.87971496582031,-0.10164605,0.22342859,0.32437134
515,272971667,0.2112311869859695,-0.0431284345686435,-85.10670471191406,0.1789518,-0.108708546,0.34456062
516,272988334,0.2302023470401764,-0.0402489528059959,-85.21681213378906,0.28199342,-0.114339665,0.38014603
517,273005001,0.2376845031976699,-0.0431800112128257,-85.27546691894531,0.15765078,0.041553322,0.3647728
518,273021668,0.2261835634708404,-0.0547049678862094,-85.24629211425781,0.07025781,0.09169342,0.35557365
519,273038335,0.1864675730466842,-0.0752030313014984,-85.2198486328125,-0.042999983,0.15055366,0.33643627
520,273055002,0.1303373873233795,-0.0885974094271659,-85.21158599853516,0.012072308,0.22499281,0.3424759
521,273071669,0.0892433896660804,-0.1006384640932083,-85.32270812988281,0.07408318,-0.009003872,0.3250656
522,273088336,0.0623875893652439,-0.1110026761889457,-85.52035522460938,-0.09041928,0.02075288,0.32483387
523,273105003,0.0503394529223442,-0.114651545882225,-85.73824310302734,0.12770174,-0.089930356,0.34862328
524,273121670,0.0404798984527587,-0.1242193207144737,-85.89469146728516,0.23275991,-0.18528348,0.34796524
525,273138337,0.0325529053807258,-0.1455112248659134,-85.96652221679688,0.09331668,-0.10316286,0.35592556
526,273155004,0.0307679045945405,-0.1583761572837829,-85.95960998535156,0.21794021,0.13917845,0.34181118
527,273171671,0.0341885350644588,-0.1612279564142227,-85.97897338867188,-0.13599163,0.0953078,0.32009602
528,273188338,0.0264913886785507,-0.1642567664384842,-86.09129333496094,-0.0466515,0.16941758,0.35569954
529,273205005,0.0166708193719387,-0.1670175939798355,-86.24440002441406,0.1887277,-0.1069932,0.35549164
530,273221672,0.0201732292771339,-0.1743494123220443,-86.27217864990234,-0.03727887,-0.0019639852,0.31671238
531,273238339,0.0414406508207321,-0.1754875630140304,-86.3046875,0.010037825,-0.042056657,0.34853935
532,273255006,0.0773014426231384,-0.1820691227912902,-86.27589416503906,-0.06299555,0.0507752,0.30275154
533,273271673,0.1129689589142799,-0.177079826593399,-86.17127990722656,0.20094872,0.07551784,0.32398415
534,273288340,0.1284898221492767,-0.1682684570550918,-86.0655288696289,-0.0826381,0.16266884,0.37058258
535,273305007,0.1420609503984451,-0.1486905217170715,-85.9747314453125,0.042704288,-0.028004687,0.33608913
536,273321674,0.1727118790149688,-0.1236561760306358,-85.952880859375,-0.07262011,-0.020847522,0.3755684
537,273338341,0.1907996982336044,-0.1122459545731544,-85.97364807128906,-0.0230226,-0.06973653,0.34619713
538,273355008,0.1998924762010574,-0.1021448969841003,-85.97435760498047,0.06339461,-0.05759411,0.36633778
539,273371675,0.19041308760643,-0.0805094167590141,-85.88471984863281,0.055129673,0.10164131,0.33729362
540,273388342,0.1855931580066681,-0.0512554906308651,-85.8064956665039,0.022615135,0.00934569,0.33085728
541,273405009,0.1658274233341217,-0.0288140065968036,-85.8497314453125,-0.01907318,-0.26607278,0.36643124
542,273421676,0.1404621005058288,-0.0089401369914412,-85.97097778320312,0.19152385,-0.24859102,0.31752682
543,273438343,0.1199202314019203,0.0111550334841012,-86.10891723632812,0.009417539,0.14551727,0.31995296
544,273455010,0.108675830066204,0.0213777124881744,-86.18009948730469,0.15213445,0.14914541,0.35591888
545,273471677,0.1127452105283737,0.0252828635275363,-86.18331909179688,0.13846515,0.025299909,0.33809662
546,273488344,0.117950402200222,0.0229987166821956,-86.20569610595703,0.07698649,-0.050444704,0.33058643
547,273505011,0.1230579614639282,0.0214928686618804,-86.24629974365234,0.055272777,-0.15538806,0.36584854
548,273521678,0.1200328767299652,0.0159053448587656,-86.34400177001953,0.092982285,-0.26869744,0.36061954
549,273538345,0.1274533122777938,0.0066520040854811,-86.39623260498047,0.049065378,-0.09914418,0.34441185
550,273555012,0.1441225558519363,-0.0106587838381528,-86.41011810302734,0.14265724,-0.08799152,0.32812786
551,273571679,0.1753692328929901,-0.0299697201699018,-86.3379898071289,0.055634733,0.039617788,0.3420086
552,273588346,0.2127690315246582,-0.0398447774350643,-86.32218933105469,-0.19291219,0.1122817,0.34800243
553,273605013,0.2407245486974716,-0.0446453876793384,-86.3636703491211,-0.028302828,0.18112448,0.31074905
554,273621680,0.26409712433815,-0.0523599125444889,-86.41605377197266,0.068012185,0.13907124,0.36109352
555,273638347,0.2616509795188904,-0.0483576506376266,-86.50456237792969,-0.29014537,0.20711067,0.32046413
556,273655014,0.2532991170883178,-0.0401595123112201,-86.67447662353516,-0.083598584,-0.09409736,0.3176098
557,273671681,0.2577391266822815,-0.0351064652204513,-86.83113861083984,-0.12196193,-0.0872991,0.3556385
558,273688348,0.271314263343811,-0.0275895241647958,-86.92272186279297,0.028711237,-0.097576655,0.36974335
559,273705015,0.2924994826316833,-0.030352097004652,-86.9502182006836,-0.098063104,0.13939956,0.32584286
560,273721682,0.3127477169036865,-0.0334874764084816,-86.90990447998047,-0.15162411,0.21729614,0.34700108
561,273738349,0.3217032253742218,-0.0216582100838422,-86.90525817871094,-0.053766746,0.02953146,0.33282757
562,273755016,0.3271982967853546,-0.0147859342396259,-86.87129974365234,-0.15158181,-0.013103277,0.35229778
563,273771683,0.3265694081783294,-0.0117881335318088,-86.80522155761719,0.030004581,-0.22345662,0.31742573
564,273788350,0.3217167258262634,-0.0185597464442253,-86.71385192871094,-0.21854062,-0.072456665,0.35720444
565,273805017,0.298664391040802,-0.0284756068140268,-86.56368255615234,-0.20610337,0.08661888,0.3366127
566,273821684,0.2583048045635223,-0.0356149189174175,-86.48971557617188,-0.3353969,0.09930093,0.36362743
567,273838351,0.222950592637062,-0.033696986734867,-86.51649475097656,-0.44412744,0.17791423,0.32862854
568,273855018,0.1947966814041137,-0.033501997590065,-86.59593200683594,-0.35272512,-0.11605881,0.33483696
569,273871685,0.1778472065925598,-0.0380687564611434,-86.7105484008789,-0.2265778,-0.20816657,0.34522915
570,273888352,0.1751889437437057,-0.0462639182806015,-86.76054382324219,-0.3245479,-0.15997215,0.32933426
571,273905019,0.1769731193780899,-0.0621597431600093,-86.77698516845703,-0.47602308,0.03691901,0.30901337
572,273921686,0.1869580447673797,-0.0775563567876815,-86.81449127197266,-0.58433765,0.08995156,0.34370804
573,273938353,0.1987376362085342,-0.0879694297909736,-86.95854949951172,-0.67237604,-0.080660164,0.32627392
574,273955020,0.2100791782140731,-0.0923267677426338,-87.18080139160156,-0.85096294,0.054358542,0.33975697
575,273971687,0.2218812257051468,-0.0959514155983924,-87.46531677246094,-0.7149328,0.08115509,0.32507896
576,273988354,0.2323805689811706,-0.1041573211550712,-87.84561157226562,-0.75445396,-0.05930715,0.36288834
577,274005021,0.2430179268121719,-0.115916758775711,-88.2310562133789,-0.5382654,-0.037309013,0.3341093
578,274021688,0.2540959119796753,-0.1342971473932266,-88.51029205322266,-0.32060853,-0.12134354,0.3618822
579,274038355,0.2629339396953583,-0.1500453650951385,-88.58076477050781,-0.19334655,-0.046059247,0.34606838
580,274055022,0.2768243849277496,-0.1672729104757309,-88.58139038085938,-0.016955758,-0.004982478,0.32470322
581,274071689,0.2933357357978821,-0.1874351948499679,-88.57879638671875,-0.020959627,0.012060141,0.34479523
582,274088356,0.3136925101280212,-0.2071779817342758,-88.57478332519531,-0.014713477,-0.012657657,0.3229332
583,274105023,0.3406244218349457,-0.2258730828762054,-88.54493713378906,0.07167742,-0.21477064,0.36211586
584,274121690,0.37321537733078,-0.2558726370334625,-88.31774139404297,-0.08556105,0.18811132,0.3253231
585,274138357,0.3823845684528351,-0.2877537608146667,-88.23442077636719,0.015608657,0.070897005,0.37950897
586,274155024,0.3654932677745819,-0.3195539712905884,-88.15428161621094,0.059410386,0.007890061,0.34377003
587,274171691,0.3165072500705719,-0.2211843878030777,-88.11820983886719,-0.08526614,-0.05137614,0.2898426
588,274188358,0.2891785800457001,-0.1547545343637466,-88.03727722167969,0.005547127,0.04289901,0.33397198
589,274205025,0.2775600552558899,-0.1127456128597259,-87.87449645996094,-0.01565208,0.0010006584,0.34728432
590,274221692,0.2689091563224792,-0.1048102080821991,-87.83891296386719,-0.005522834,-0.00809458,0.35591316
591,274238359,0.2658734619617462,-0.1001663208007812,-87.73875427246094,0.025558446,0.0061087897,0.31853867
592,274255026,0.2573125660419464,-0.1074536740779876,-87.6455078125,-0.008034812,-0.0011913786,0.3389635
593,274271693,0.2557515501976013,-0.112511895596981,-87.52653503417969,-0.008466098,-0.0028569316,0.3318081
594,274288360,0.2522855401039123,-0.0735749155282974,-87.44170379638672,-0.08156858,-0.07441786,0.34671688
595,274305027,0.2723824381828308,-0.1155244335532188,-87.45267486572266,0.016284043,0.112282224,0.3612852
596,274321694,0.2707745432853699,-0.1138992458581924,-87.45183563232422,-0.027210096,-0.009222547,0.3268013
597,274338361,0.2705928683280945,-0.113939456641674,-87.45125579833984,-0.027467066,-0.0071115824,0.32936192
598,274355028,0.271240621805191,-0.1147156730294227,-87.45088195800781,-0.035888087,-0.008426025,0.35035992
599,274371695,0.2722581923007965,-0.1150526851415634,-87.45008087158203,-0.039902594,0.0013720605,0.34606743
600,274388362,0.2733350396156311,-0.1169014796614646,-87.4497299194336,-0.010244502,-0.0075266417,0.3667364
601,274405029,0.2721699178218841,-0.1192220374941825,-87.4504165649414,0.009453571,0.019909497,0.33251286
602,274421696,0.272865891456604,-0.1202423721551895,-87.44889068603516,-0.00962637,-0.0032834555,0.33660698
603,274438363,0.2720183432102203,-0.1203603446483612,-87.44857788085938,-0.018005997,0.0015310786,0.34968376
604,274455030,0.2704069912433624,-0.1210360750555992,-87.44863891601562,-0.01141128,-0.008369782,0.34364223
605,274471697,0.2683139145374298,-0.121384747326374,-87.44859313964844,-0.015090191,-0.0025472557,0.33463287
606,274488364,0.2677269577980041,-0.1214303597807884,-87.44715118408203,-0.020859875,-0.0020679939,0.3472252
607,274505031,0.2673479616641998,-0.1219807863235473,-87.44850158691406,-0.012044875,0.00055540004,0.3372059
608,274521698,0.266034334897995,-0.1221308708190918,-87.44861602783203,-0.00434988,0.0032841105,0.34588718
609,274538365,0.2654570937156677,-0.1221352964639663,-87.44874572753906,-0.009065542,-0.0071897088,0.33955383
610,274555032,0.2657465040683746,-0.1227812394499778,-87.4490737915039,-0.01472346,-0.007182208,0.35193348
611,274571699,0.2658019065856933,-0.1229492202401161,-87.44908905029297,-0.010905801,0.0059478446,0.3508997
612,274588366,0.2653955817222595,-0.1224168688058853,-87.44865417480469,-0.004467804,0.005588766,0.3279953
613,274605033,0.2661324143409729,-0.1225736811757087,-87.44841003417969,-0.004760199,-0.00017924167,0.34557438
614,274621700,0.2666762769222259,-0.1224903836846351,-87.44834899902344,-0.020379316,0.005491435,0.36547852
615,274638367,0.2655252814292907,-0.1228046789765358,-87.44778442382812,-0.025800584,-0.004803635,0.36968708
616,274655034,0.2656157314777374,-0.1234494522213935,-87.44670104980469,-0.015525164,-0.011677711,0.3337145
617,274671701,0.2669261693954468,-0.1233951598405838,-87.44701385498047,-0.021234693,-0.0009606194,0.33542347
618,274688368,0.2661827504634857,-0.1240857988595962,-87.44815063476562,-0.017941171,-0.005205675,0.33846474
619,274705035,0.264905035495758,-0.1243750378489494,-87.44789123535156,-0.016596125,0.0010467928,0.35093307
620,274721702,0.2641007006168365,-0.1238154843449592,-87.44775390625,-0.0315203,-0.004953452,0.32850075
621,274738369,0.2643094062805176,-0.1247829422354698,-87.44731903076172,-0.02392105,-0.010531365,0.3546238
622,274755036,0.2636453211307525,-0.1250134259462356,-87.44686126708984,-0.014691309,0.00317415,0.34103775
623,274771703,0.2642861604690552,-0.125891700387001,-87.44641876220703,-0.007820238,-0.0038893945,0.33917046
624,274788370,0.2646880745887756,-0.1242334619164466,-87.44588470458984,-0.021705413,0.0067145964,0.3452711
625,274805037,0.2647614479064941,-0.1248520165681839,-87.44595336914062,-0.005662796,0.009250682,0.33829117
626,274821704,0.2645866870880127,-0.1238421201705932,-87.44770812988281,-0.009133043,7.800078e-05,0.3322096
627,274838371,0.2650509774684906,-0.1250590234994888,-87.44770812988281,-0.0009550045,-0.014521751,0.35315418
628,274855038,0.2636818587779999,-0.1254087090492248,-87.44762420654297,-0.0090212,0.00033150509,0.35011292
629,274871705,0.2623132169246673,-0.1241841539740562,-87.44810485839844,-0.022000197,0.011093186,0.35438347
630,274888372,0.2615401148796081,-0.1253352612257003,-87.4482650756836,-0.012440754,0.01610423,0.34042835
631,274905039,0.2629326581954956,-0.1254850178956985,-87.44842529296875,0.0021411092,-0.0008826509,0.34713745
632,274921706,0.2625831067562103,-0.1271383464336395,-87.44869232177734,-0.0026274628,-0.0018159855,0.33278942
633,274938373,0.262090265750885,-0.128074049949646,-87.4488525390625,-0.00703355,0.009575336,0.3284216
634,274955040,0.2610435485839844,-0.129143550992012,-87.44892883300781,-0.015014403,0.00641533,0.3574915
635,274971707,0.2609072923660278,-0.1294101625680923,-87.44944763183594,-0.012778354,0.01690533,0.39009094
636,274988374,0.2614671289920807,-0.1278941035270691,-87.45025634765625,-0.014072287,-0.0083666835,0.3316717
637,275005041,0.2604782283306122,-0.1269163489341735,-87.45105743408203,-0.004665744,-0.013046129,0.3231964
638,275021708,0.2594568431377411,-0.1286731958389282,-87.45146179199219,-0.030236589,0.01611156,0.33529282
639,275038375,0.2593110203742981,-0.1281948387622833,-87.45147705078125,-0.020439746,0.003395842,0.34000778
640,275055042,0.2587169706821441,-0.1272102296352386,-87.45105743408203,-0.007698006,0.010766179,0.32592678
641,275071709,0.2582408785820007,-0.126452088356018,-87.4518814086914,-0.024731515,-0.0022737484,0.32427788
642,275088376,0.2576791942119598,-0.1272725313901901,-87.4527587890625,-0.021962896,0.0018565209,0.33997726
643,275105043,0.2564049661159515,-0.1257353723049163,-87.4526138305664,-0.014802579,0.0011881931,0.32792187
644,275121710,0.2558434009552002,-0.125251829624176,-87.4529800415039,-0.008683166,-0.0062126913,0.34527206
645,275138377,0.2557836472988128,-0.126075193285942,-87.45264434814453,-0.007701687,-4.7582067e-05,0.37481403
646,275155044,0.2561506628990173,-0.1262110620737075,-87.45320129394531,-0.013703066,-0.008196178,0.36402416
647,275171711,0.2551454603672027,-0.1269046664237976,-87.4532470703125,-0.01351421,-0.0020837658,0.3369131
648,275188378,0.2550240755081177,-0.127141922712326,-87.45247650146484,-0.010772831,-0.00827165,0.36590576
649,275205045,0.2561348378658294,-0.1258570849895477,-87.45204162597656,-0.014101487,0.010780763,0.3320303
650,275221712,0.2568136751651764,-0.1254835873842239,-87.45233917236328,-0.031273108,-0.0029603401,0.32154465
651,275238379,0.2565414905548095,-0.1251648068428039,-87.45384979248047,-0.022236206,0.0006140634,0.33564186
652,275255046,0.2563167512416839,-0.126119777560234,-87.45401763916016,-0.0054627107,0.002566374,0.34323597
653,275271713,0.2569022178649902,-0.1265108734369278,-87.45381927490234,-0.016321111,0.00095272704,0.32516003
654,275288380,0.2569122016429901,-0.1272367537021637,-87.45408630371094,-0.015442957,0.0071462546,0.34262562
655,275305047,0.2564858198165893,-0.1277881562709808,-87.4537124633789,-0.016384687,0.016242204,0.34856796
656,275321714,0.2583274841308594,-0.1289472877979278,-87.45364379882812,-0.032981835,0.0024461132,0.3500433
657,275338381,0.2589071691036224,-0.12858347594738,-87.45417022705078,-0.007553669,0.0023922198,0.3635931
658,275355048,0.2575744390487671,-0.1280989050865173,-87.45428466796875,-0.0022103265,-0.0036220644,0.33603
659,275371715,0.2574351727962494,-0.1283481866121292,-87.45402526855469,-0.022983128,0.01491752,0.33261395
660,275388382,0.2575022578239441,-0.1280703246593475,-87.45364379882812,-0.004814622,-0.00025580186,0.34463024
661,275405049,0.2566152513027191,-0.1292341202497482,-87.45326232910156,-0.008798069,-0.014653712,0.32732677
662,275421716,0.2565906643867492,-0.1276360899209976,-87.45270538330078,-0.019953296,0.01162708,0.3453846
663,275438383,0.2566656172275543,-0.1268011480569839,-87.45299530029297,-0.0012433048,0.0028315273,0.3548193
664,275455050,0.2561371922492981,-0.1258219629526138,-87.45299530029297,-0.0037823876,0.004633981,0.344512
665,275471717,0.2559997737407684,-0.1265882849693298,-87.4525146484375,-0.010554303,0.0039470405,0.35852242
666,275488384,0.256553053855896,-0.1271215230226516,-87.45256042480469,-0.012674889,0.003337269,0.32143116
667,275505051,0.2558412253856659,-0.1267659813165664,-87.45247650146484,-0.011203952,0.00315724,0.33441067
668,275521718,0.256098210811615,-0.1266124546527862,-87.4524917602539,-0.018663019,0.012875404,0.33281422
669,275538385,0.2553044855594635,-0.125796303153038,-87.45269012451172,-0.011459387,0.00012496776,0.32839584
670,275555052,0.2553445100784302,-0.1270216405391693,-87.45242309570312,-0.004547268,-0.0010986531,0.33613205
671,275571719,0.2546478509902954,-0.1281062662601471,-87.4524154663086,-0.0032574795,-0.0005394018,0.31262016
672,275588386,0.2535528242588043,-0.1281181275844574,-87.45169067382812,-0.003195253,0.0023236447,0.33888245
673,275605053,0.2538626194000244,-0.1280234903097152,-87.4508056640625,-0.013696056,0.01587996,0.31934643
674,275621720,0.2535693943500519,-0.1284781992435455,-87.44941711425781,-0.020094896,0.0038758446,0.32786846
675,275638387,0.2545110881328583,-0.1284941583871841,-87.44953918457031,0.0005832623,0.010325504,0.3689289
676,275655054,0.2542214691638946,-0.1286161243915558,-87.45016479492188,-0.011442903,0.0060552275,0.34035492
677,275671721,0.2555536925792694,-0.1291307359933853,-87.45069122314453,-0.009955276,0.009566069,0.35027695
678,275688388,0.255742996931076,-0.1279835850000381,-87.44976806640625,-0.01499772,-0.005260219,0.33977795
679,275705055,0.2556483745574951,-0.1273515522480011,-87.4496078491211,-0.013094949,0.006639556,0.32623196
680,275721722,0.2555388808250427,-0.127527043223381,-87.44908142089844,-0.013610182,0.014374113,0.33299828
681,275738389,0.2567791044712066,-0.1272361725568771,-87.4495620727539,-0.014034995,-0.006880207,0.33187103
682,275755056,0.2558112740516662,-0.1271670013666153,-87.45011138916016,-0.008985639,0.0005866307,0.34554386
683,275771723,0.2558961510658264,-0.1286479383707046,-87.4505844116211,-0.020811718,-0.0022342494,0.34600353
684,275788390,0.2552391290664673,-0.1290595382452011,-87.45091247558594,-0.018148145,0.013125218,0.32248116
685,275805057,0.256118893623352,-0.1270378082990646,-87.45135498046875,-0.0066605518,0.010891027,0.35979939
686,275821724,0.2555385529994964,-0.1292437016963958,-87.4522476196289,-0.016916974,-0.0035073427,0.32239056
687,275838391,0.2555021047592163,-0.1287672668695449,-87.45184326171875,-0.01357832,0.007256048,0.35084724
688,275855058,0.2549453377723694,-0.1295385807752609,-87.45255279541016,0.0005972493,-0.00076205435,0.34876442
689,275871725,0.2551868259906769,-0.129397377371788,-87.45301818847656,-0.0075487336,0.016113076,0.33139515
690,275888392,0.254796415567398,-0.129557117819786,-87.45484924316406,-0.01896239,-0.0078712655,0.3279171
691,275905059,0.2559389770030975,-0.1290327757596969,-87.4544448852539,-0.011959061,0.007484466,0.32246304
692,275921726,0.2552773952484131,-0.1283750385046005,-87.45530700683594,-0.0009670148,0.011559493,0.33630466
693,275938393,0.2546336948871612,-0.1277858316898346,-87.45601654052734,-0.0133057535,0.0036389676,0.32573605
694,275955060,0.2546156942844391,-0.1283576786518097,-87.4553451538086,-0.014270375,-0.004237775,0.35568142
695,275971727,0.2550326883792877,-0.126704066991806,-87.4549331665039,-0.01630045,0.000633833,0.35994053
696,275988394,0.2549627721309662,-0.1259152889251709,-87.45560455322266,-0.011844781,0.0049152463,0.34019947
697,276005061,0.2534459233283996,-0.1252899318933487,-87.45612335205078,-0.013566026,0.017120423,0.33688736
698,276021728,0.2543299794197082,-0.1251733005046844,-87.45621490478516,-0.006983162,0.010966807,0.34067726
699,276038395,0.2552319765090942,-0.124397873878479,-87.45671081542969,-0.019245364,-0.0073140687,0.3507614
700,276055062,0.2538958787918091,-0.1247679069638252,-87.4582290649414,0.0010238796,0.011244246,0.35773754
701,276071729,0.2548449635505676,-0.125350147485733,-87.45968627929688,-0.010544792,0.01713826,0.35686684
702,276088396,0.2547865211963653,-0.1250016093254089,-87.4585952758789,-0.016020656,0.0034558568,0.3450613
703,276105063,0.255829393863678,-0.1252655535936355,-87.4591064453125,-0.0045509273,0.00091333856,0.33656025
704,276121730,0.2574289441108703,-0.1255379468202591,-87.45967864990234,-0.016917769,-0.0038625111,0.3335657
705,276138397,0.2573685348033905,-0.1242832690477371,-87.4587173461914,-0.0240393,-0.0015837757,0.34386635
706,276155064,0.2568469941616058,-0.1234791725873947,-87.45840454101562,-0.014843276,0.0010434485,0.339468
707,276171731,0.2573353052139282,-0.1214099377393722,-87.45706176757812,-0.015728766,0.0039695227,0.336236
708,276188398,0.256261259317398,-0.1220433562994003,-87.45719146728516,-0.005436848,0.008075272,0.34804153
709,276205065,0.2561523616313934,-0.1215378120541572,-87.45736694335938,-0.018429168,-0.0036272306,0.32866955
710,276221732,0.2561076283454895,-0.1215545460581779,-87.45832061767578,-0.00552623,-0.0051567545,0.35354996
711,276238399,0.256389707326889,-0.1231044232845306,-87.45838165283203,-0.011057132,-0.0043203477,0.3508873
712,276255066,0.2572638988494873,-0.1223248317837715,-87.45779418945312,0.0011934369,0.0016123565,0.33513165
713,276271733,0.2565273940563202,-0.123208463191986,-87.4570083618164,-0.009053225,0.004988559,0.34651375
714,276288400,0.2560897767543793,-0.1227547898888588,-87.45685577392578,-0.014245801,-0.0039222166,0.3621111
715,276305067,0.2557459771633148,-0.1218966394662857,-87.45637512207031,-0.008977782,-0.010823473,0.3394413
716,276321734,0.2562812268733978,-0.1228209063410759,-87.45671081542969,-0.014993944,-0.014537763,0.3369627
717,276338401,0.2556125819683075,-0.1226014569401741,-87.45606231689453,-0.010095562,0.014790433,0.35067368
718,276355068,0.2564373314380646,-0.1221087723970413,-87.45503234863281,-0.026341273,0.0036508297,0.36709976
719,276371735,0.2558823823928833,-0.1216790080070495,-87.45516967773438,-0.017221775,-0.0027677037,0.35760593
720,276388402,0.2713427245616913,-0.1156591176986694,-87.45088195800781,-0.019419923,-0.006921111,0.35718155
721,276405069,0.2727478146553039,-0.1155780628323555,-87.45076751708984,-0.009971406,0.0002603533,0.36108112
722,276421736,0.2725748419761657,-0.1142695322632789,-87.45075988769531,-0.0139241675,-0.0075609745,0.34206104
723,276438403,0.2719956636428833,-0.1142333149909973,-87.45079040527344,-0.019292792,-0.0059428415,0.33100128
724,276455070,0.2717012166976928,-0.1141848191618919,-87.45143127441406,-0.014788335,-0.00030980902,0.33506203
725,276471737,0.2719334959983825,-0.1144192218780517,-87.45191955566406,-0.013456599,0.001154991,0.34737206
726,276488404,0.2713482081890106,-0.1143879815936088,-87.45077514648438,-0.01240807,0.0010661525,0.3357582
727,276505071,0.2714884281158447,-0.1142425835132598,-87.45072174072266,-0.030742258,-0.0052048834,0.31057644
728,276521738,0.2714155912399292,-0.1135117039084434,-87.45124053955078,-0.016035885,0.0040155603,0.35167408
729,276538405,0.2715944349765777,-0.1131230741739273,-87.45204162597656,-0.011016064,0.0006526692,0.32889175
730,276555072,0.2709752321243286,-0.1125376895070076,-87.45188903808594,0.00045286518,-0.0071611344,0.33770752
731,276571739,0.2711061835289001,-0.1133086904883384,-87.44994354248047,-0.013042902,-0.0047967248,0.32196236
732,276588406,0.2721351683139801,-0.1130754500627517,-87.45056915283203,-0.017255617,-0.0013026112,0.3408699
733,276605073,0.2713145911693573,-0.1132525280117988,-87.45018768310547,-0.020268532,0.00438018,0.3580475
734,276621740,0.2712106108665466,-0.1125770583748817,-87.4508056640625,-0.013162948,0.0016305663,0.3504038
735,276638407,0.2719796001911163,-0.1125534996390342,-87.4505615234375,0.0009577321,0.0014340793,0.35730267
736,276655074,0.2735589146614074,-0.1148136034607887,-87.45169067382812,-0.01877225,-0.0007334429,0.34690475
737,276671741,0.2733433246612549,-0.115761823952198,-87.45181274414062,-0.009699901,0.0014519087,0.32614708
738,276688408,0.2740786671638489,-0.1149020344018936,-87.45160675048828,-0.014113642,0.0048528803,0.36177444
739,276705075,0.2743960916996002,-0.1149826049804687,-87.45216369628906,-0.013741889,0.007178858,0.34711933
740,276721742,0.274810642004013,-0.1147535443305969,-87.45111083984375,-0.03056991,-0.0012114716,0.33335114
741,276738409,0.2750119864940643,-0.1145519167184829,-87.45038604736328,-0.020965103,0.008035468,0.32106018
742,276755076,0.2758972644805908,-0.1141271665692329,-87.45051574707031,-0.0053934627,-0.0068560834,0.346776
743,276771743,0.2754464149475097,-0.1141100376844406,-87.45161437988281,-0.015311879,0.003591923,0.33828068
744,276788410,0.2760884165763855,-0.11317890137434,-87.45084381103516,-0.012322404,-0.0034099922,0.35197258
745,276805077,0.2761247158050537,-0.1132028624415397,-87.45142364501953,-0.012225476,0.003562911,0.32987976
746,276821744,0.2762190103530884,-0.1137774288654327,-87.4520034790039,-0.01765602,0.009853167,0.3307457
747,276838411,0.2767713665962219,-0.1139627620577812,-87.45182037353516,-0.008451111,0.0068728924,0.34636497
748,276855078,0.2774988114833832,-0.1132087856531143,-87.45201873779297,-0.000656028,0.010288427,0.3408003
749,276871745,0.2776180207729339,-0.1134598851203918,-87.45195770263672,-0.006209362,0.006456536,0.3717699
750,276888412,0.2788347899913788,-0.1143422499299049,-87.4529800415039,-0.010567271,-0.00061667006,0.32242584
751,276905079,0.2790127694606781,-0.114513874053955,-87.4539566040039,-0.003603317,0.0013444121,0.31468105
752,276921746,0.2790830135345459,-0.1138960570096969,-87.45244598388672,-0.017961377,-0.0030294165,0.34514427
753,276938413,0.278845876455307,-0.114382803440094,-87.45291137695312,-0.017473856,-0.002937527,0.3495245
754,276955080,0.2798132300376892,-0.1138859242200851,-87.45537567138672,-0.023588581,0.0009950858,0.32671738
755,276971747,0.2794691324234009,-0.1139140725135803,-87.455078125,-0.023011576,-0.0021989122,0.35150146
756,276988414,0.2803290486335754,-0.1147209927439689,-87.45597839355469,-0.026246684,-0.004062415,0.34836197
757,277005081,0.2817525267601013,-0.113614834845066,-87.45516967773438,-0.021511722,-0.006729828,0.3233614
758,277021748,0.2820959389209747,-0.1128180101513862,-87.45503997802734,-0.025015328,0.0016758181,0.34237957
759,277038415,0.2819531559944153,-0.112648107111454,-87.45462036132812,-0.014129573,0.008976596,0.34911346
760,277055082,0.2811217904090881,-0.1134011000394821,-87.45475769042969,-0.010634503,0.0010762393,0.3416977
761,277071749,0.2817400097846985,-0.1135817244648933,-87.45405578613281,-0.0126776965,0.005214949,0.33339787
762,277088416,0.2816027104854584,-0.1125600934028625,-87.45509338378906,-0.016288372,0.0021905876,0.3374796
763,277105083,0.2822313010692596,-0.1118695586919784,-87.45613861083984,-0.021876168,0.007259706,0.35333252
764,277121750,0.2809485495090484,-0.1119755133986473,-87.45542907714844,-0.014501027,0.0054751593,0.34292316
765,277138417,0.2799699604511261,-0.1129707172513008,-87.4541015625,0.001619367,0.0059437533,0.34923172
766,277155084,0.2799670994281769,-0.1136892214417457,-87.45386505126953,-0.012251591,0.013979721,0.35975742
767,277171751,0.2797611653804779,-0.1148793175816536,-87.45419311523438,-0.0069434266,0.0076591657,0.3464098
768,277188418,0.2788791954517364,-0.1146537959575653,-87.4533462524414,-0.022716455,0.0025863925,0.3321104
769,277205085,0.2786067426204681,-0.1147349998354911,-87.45342254638672,-0.012186986,0.004309613,0.35121346
770,277221752,0.2796202898025512,-0.1146244257688522,-87.4537353515625,-0.017827732,0.011882017,0.3467846
771,277238419,0.2789038419723511,-0.1147538870573043,-87.45463562011719,-0.01862977,-0.00511427,0.32626534
772,277255086,0.2777166068553924,-0.1143438518047332,-87.45521545410156,-0.022927219,0.0012332388,0.35142803
773,277271753,0.2774073481559753,-0.11483134329319,-87.45645141601562,-0.001989061,-0.00254119,0.33339405
774,277288420,0.2776426672935486,-0.1145793050527572,-87.45631408691406,-0.017832184,-0.006183283,0.33515835
775,277305087,0.2773904800415039,-0.1154349893331527,-87.45697021484375,-0.024478447,0.0030547855,0.34568024
776,277321754,0.2777523398399353,-0.1164396107196807,-87.45642852783203,-0.0070501976,-0.0065071,0.3579359
777,277338421,0.2775002121925354,-0.1166848987340927,-87.45638275146484,-0.02810695,0.004695806,0.34911156
778,277355088,0.2782755196094513,-0.1162441670894622,-87.45584106445312,-0.0073211147,0.000939363,0.32012653
779,277371755,0.2777933478355407,-0.1168113499879837,-87.4559326171875,-0.01691823,-0.0025835666,0.34629536
780,277388422,0.2779355347156524,-0.1176557317376136,-87.45619201660156,-0.01235654,0.01214705,0.3429985
781,277405089,0.2783961892127991,-0.1182309240102768,-87.45629119873047,-0.025690917,0.006688449,0.3464384
782,277421756,0.2789966464042663,-0.1183552294969558,-87.4556655883789,-0.014718327,-0.0025546923,0.343297
783,277438423,0.2787861824035644,-0.1190624460577964,-87.45557403564453,-0.020457532,0.00037744964,0.33674812
784,277455090,0.2788482308387756,-0.1199440062046051,-87.4561767578125,-0.014234184,-0.0030089854,0.3191414
785,277471757,0.2789101600646972,-0.1206338927149772,-87.45578002929688,-0.015905749,-0.0031463015,0.33216763
786,277488424,0.2796501219272613,-0.121661476790905,-87.45475769042969,-0.02481917,0.0039405525,0.32759285
787,277505091,0.2803783416748047,-0.1206082925200462,-87.45377349853516,-0.018723585,-0.0013287386,0.34376717
788,277521758,0.2796767055988312,-0.1206087470054626,-87.45381164550781,-0.011683024,-0.002346443,0.33109093
789,277538425,0.2804017066955566,-0.1211465969681739,-87.4540786743164,-0.020382533,-0.0017287313,0.33720684
790,277555092,0.2804754972457886,-0.1215206459164619,-87.4547119140625,-0.02307082,-0.00078592304,0.34398842
791,277571759,0.280595600605011,-0.1230328008532524,-87.4546890258789,-0.017230684,-0.009400722,0.3278227
792,277588426,0.2802567183971405,-0.1225208789110183,-87.45536041259766,-0.01479936,0.014086941,0.33314037
793,277605093,0.2795412838459015,-0.1228790506720542,-87.45584869384766,-0.012787274,-0.009752829,0.35270023
794,277621760,0.2798236906528473,-0.1216410845518112,-87.4564208984375,-0.0012164675,0.0053900317,0.35565758
795,277638427,0.280103862285614,-0.1210803538560867,-87.45686340332031,-0.013809293,0.010231294,0.3370962
796,277655094,0.2794939875602722,-0.1212609484791755,-87.45716094970703,-0.01596205,0.0061049,0.34211063
797,277671761,0.2791828513145447,-0.1211076751351356,-87.4569091796875,-0.009702079,0.0125772795,0.34739304
798,277688428,0.2796038091182709,-0.12040326744318,-87.45660400390625,-0.02941217,0.027439006,0.34215546
799,277705095,0.2795005440711975,-0.1204217225313186,-87.45703125,-0.024306446,0.0027494922,0.3467741
800,277721762,0.2795638740062713,-0.121030606329441,-87.45757293701172,-0.02358408,0.0032751048,0.3312235
801,277738429,0.2800248861312866,-0.1214280501008033,-87.45866394042969,-0.015926858,-0.0011075189,0.32048035
802,277755096,0.2808216214179992,-0.1197988763451576,-87.45934295654297,-0.018137492,0.0058633927,0.34564114
803,277771763,0.2811766266822815,-0.1197721436619758,-87.45930480957031,-0.011367507,0.0057821386,0.33845806
804,277788430,0.281451940536499,-0.1208520755171775,-87.4586410522461,-0.018082315,-0.0045018746,0.34554005
805,277805097,0.281633049249649,-0.1213484779000282,-87.45887756347656,-0.018391788,0.00319919,0.32608223
806,277821764,0.2811554968357086,-0.1224347725510597,-87.4595947265625,-0.031172521,0.0074178344,0.3553009
807,277838431,0.2814360857009887,-0.1222178190946579,-87.46025848388672,-0.02049698,0.010423156,0.33055115
808,277855098,0.2810451686382293,-0.1224249005317688,-87.46212005615234,-0.0188859,-0.010157194,0.35338974
809,277871765,0.2806092798709869,-0.1227937564253807,-87.4600601196289,-0.023947548,-0.014103019,0.33294392
810,277888432,0.2812935411930084,-0.1231085956096649,-87.45988464355469,-0.0094290115,0.0021730086,0.34129047
811,277905099,0.2817137539386749,-0.1249467208981514,-87.45968627929688,-0.020794503,-0.00025769297,0.36976337
812,277921766,0.2827121615409851,-0.124674342572689,-87.4603271484375,-0.02233421,0.006347815,0.33712006
813,277938433,0.2834724485874176,-0.1255611330270767,-87.4616470336914,-0.022974426,0.0006648611,0.32196236
814,277955100,0.2844269573688507,-0.1242758408188819,-87.46146392822266,-0.015684083,-0.00076647656,0.35430622
815,277971767,0.2851957380771637,-0.1253177672624588,-87.46155548095703,-0.02126112,0.0023395773,0.32895565
816,277988434,0.2863758504390716,-0.1259766966104507,-87.46186065673828,-0.022871343,0.00352119,0.35434914
817,278005101,0.2865636050701141,-0.1263932734727859,-87.46207427978516,-0.019151943,-0.0011819898,0.3418131
818,278021768,0.2858781218528747,-0.1272703111171722,-87.46240997314453,-0.016685082,0.015068116,0.33569622
819,278038435,0.2853707373142242,-0.128980740904808,-87.4629898071289,-0.021216668,-0.002766406,0.36562824
820,278055102,0.2849392890930176,-0.1294459402561187,-87.46366119384766,-0.020326262,-0.0009485894,0.33526993
821,278071769,0.2852610349655151,-0.1298997551202774,-87.46304321289062,-0.021105763,-0.0029004551,0.35148144
822,278088436,0.2852517068386078,-0.1313910484313964,-87.46375274658203,-0.006700385,0.0019861388,0.3315649
823,278105103,0.2860001027584076,-0.1334003657102584,-87.46443939208984,-0.023777101,-0.009959398,0.35084724
824,278121770,0.2857223451137543,-0.1335451155900955,-87.4649429321289,-0.009536975,-0.0027655896,0.3348875
825,278138437,0.2860452234745025,-0.1348650157451629,-87.46564483642578,-0.033790927,-0.0062420354,0.33719158
826,278155104,0.2857701480388641,-0.1349985301494598,-87.46540069580078,-0.014231574,0.0057734894,0.33467388
827,278171771,0.2853043377399444,-0.1337590515613556,-87.46598815917969,-0.025656117,0.022337018,0.34342575
828,278188438,0.2865673005580902,-0.1344278156757354,-87.46688079833984,-0.010999592,-0.008041542,0.34302616
829,278205105,0.286640465259552,-0.1339319199323654,-87.46698760986328,-0.02359761,-0.011083,0.35818768
830,278221772,0.2870875895023346,-0.1346756964921951,-87.46675109863281,-0.017520828,-0.005063262,0.33410358
831,278238439,0.2869470715522766,-0.1363799422979354,-87.46733093261719,-0.014434362,-0.0023857846,0.35534
832,278255106,0.2865103781223297,-0.1362687945365905,-87.46759796142578,-0.007614105,-0.0048143705,0.3607502
833,278271773,0.2851714789867401,-0.1365894824266433,-87.46639251708984,-0.015228446,-0.00054011296,0.32275772
834,278288440,0.2848913371562958,-0.1371641606092453,-87.46662139892578,-0.014905561,0.008737921,0.3167324
835,278305107,0.2845117449760437,-0.1385852992534637,-87.46589660644531,-0.0142884,0.005289881,0.34776497
836,278321774,0.2845982313156128,-0.1391058564186096,-87.46560668945312,-0.019984478,0.0028211456,0.36308002
837,278338441,0.2853868007659912,-0.1399333626031875,-87.46534729003906,-0.030281218,0.012088048,0.33669758
838,278355108,0.2862847149372101,-0.1390731185674667,-87.4651107788086,-0.015787277,-0.0007139292,0.32422447
839,278371775,0.2872208654880523,-0.1382959634065628,-87.46446990966797,-0.019285364,0.0038405224,0.34964657
840,278388442,0.2586424350738525,-0.1187456920742988,-87.44808959960938,-0.010167059,0.006336378,0.34425354
841,278405109,0.2580199837684631,-0.1180607005953788,-87.44896697998047,-0.014495247,0.0006345943,0.33108902
842,278421776,0.258433073759079,-0.1170686706900596,-87.44844055175781,-0.022688974,0.009018068,0.33221912
843,278438443,0.2576404511928558,-0.1171622648835182,-87.44905853271484,-0.006800834,-0.0065210466,0.34386253
844,278455110,0.2576595544815063,-0.1177528649568557,-87.44959259033203,-0.008223492,-0.022325184,0.32983208
845,278471777,0.257900595664978,-0.1195007637143135,-87.44927978515625,-0.0005150716,0.003797461,0.3351574
846,278488444,0.25785693526268,-0.1206011995673179,-87.4479751586914,-0.01040062,-0.016554477,0.3548298
847,278505111,0.2589311301708221,-0.1209910809993743,-87.44644165039062,-0.027896876,-0.0027468686,0.33871746
848,278521778,0.257892906665802,-0.1205110549926757,-87.4465560913086,-0.00049856136,-0.0060447874,0.34062386
849,278538445,0.2574678957462311,-0.1225246042013168,-87.44573974609375,0.0024186145,-0.009071565,0.35749626
850,278555112,0.2586842477321625,-0.1218608617782592,-87.445556640625,-0.0030349977,0.006889839,0.35553455
851,278571779,0.2573423981666565,-0.1216276735067367,-87.44564056396484,-0.0038431305,-0.009457671,0.3596077
852,278588446,0.258476197719574,-0.1202567517757415,-87.44412994384766,-0.01403848,-0.0011521333,0.34375572
853,278605113,0.2584392726421356,-0.1202176958322525,-87.44373321533203,-0.011820958,0.008309453,0.33618355
854,278621780,0.2576429843902588,-0.1203855946660041,-87.4443359375,-0.0017604876,-0.004146941,0.34797573
855,278638447,0.2572848498821258,-0.1204241588711738,-87.44367218017578,-0.017741097,-0.002988262,0.33848667
856,278655114,0.2566521465778351,-0.1208342239260673,-87.44367218017578,-0.020830315,0.00511558,0.33742428
857,278671781,0.2555907666683197,-0.1208612769842147,-87.44322204589844,-0.00080748944,0.0058192853,0.3368702
858,278688448,0.2559596300125122,-0.1212123259902,-87.44171905517578,-0.011251066,-0.0024873521,0.35333157
859,278705115,0.2558568120002746,-0.1199528872966766,-87.44119262695312,-0.01274414,-2.6192052e-05,0.33252525
860,278721782,0.2554706335067749,-0.1207847297191619,-87.44091033935547,-0.013604293,0.0016180788,0.34688663
861,278738449,0.2559795081615448,-0.1215564385056495,-87.44046783447266,-0.017257812,0.0012822616,0.3395338
862,278755116,0.256977766752243,-0.1211929321289062,-87.44014739990234,-0.0153286895,0.011636784,0.36004066
863,278771783,0.2574679255485534,-0.1220754757523536,-87.43961334228516,-0.0043563214,-0.008653908,0.33910084
864,278788450,0.2576259076595306,-0.1221849247813224,-87.43892669677734,-0.01792707,0.006483513,0.3650627
865,278805117,0.2575260102748871,-0.1220486685633659,-87.43844604492188,0.0004721327,-0.0019910014,0.33577442
866,278821784,0.2576394975185394,-0.121715024113655,-87.43628692626953,-0.0038591067,0.0038600888,0.33329678
867,278838451,0.2574018836021423,-0.1216847971081733,-87.43505096435547,-0.005035653,0.0028346847,0.3259964
868,278855118,0.2565634250640869,-0.120988517999649,-87.43421936035156,0.0056598876,-0.005028452,0.34309864
869,278871785,0.2557945847511291,-0.1204015910625457,-87.43309020996094,-0.01192711,0.004490931,0.34795856
870,278888452,0.2559889554977417,-0.1210363283753395,-87.43206787109375,-0.015072392,0.007488098,0.35287
871,278905119,0.2548956573009491,-0.1216885596513748,-87.43138122558594,-0.022014953,0.015175197,0.3459444
872,278921786,0.2543739378452301,-0.1221703514456749,-87.43128204345703,-0.022163313,0.0070041064,0.34272957
873,278938453,0.255901038646698,-0.1219935938715934,-87.43160247802734,-0.0020307216,-0.003245294,0.3439312
874,278955120,0.2553195059299469,-0.1217526346445083,-87.43148040771484,0.002258251,-0.0047890195,0.34517574
875,278971787,0.2554722130298614,-0.1219468265771865,-87.43164825439453,-0.032213338,0.0019542673,0.34971428
876,278988454,0.2554344236850738,-0.1212282180786132,-87.43180084228516,-0.018018274,-0.0021977422,0.36590195
877,279005121,0.2546383738517761,-0.1218218952417373,-87.4338150024414,-0.0006356586,0.0039353906,0.31874752
878,279021788,0.2548558712005615,-0.1210217922925949,-87.43343353271484,0.0021377618,0.00699457,0.3482256
879,279038455,0.2549219131469726,-0.1225320845842361,-87.43311309814453,-0.016596774,0.0110089565,0.3659773
880,279055122,0.2552886307239532,-0.122061513364315,-87.43245697021484,-0.0033503387,0.008543905,0.34523964
881,279071789,0.2538847327232361,-0.1221821457147598,-87.43241882324219,-0.0067440406,0.0061804573,0.3528757
882,279088456,0.2538842260837555,-0.1222172826528549,-87.43302917480469,-0.0033923783,-0.0057616085,0.34316254
883,279105123,0.2540666162967682,-0.1225029230117797,-87.43309020996094,-0.009992117,-0.0063136555,0.3290863
884,279121790,0.2535713016986847,-0.1210983470082283,-87.43140411376953,-0.004305386,0.0052601607,0.33517456
885,279138457,0.2533693313598633,-0.1221374869346618,-87.43096923828125,0.013624475,-0.0052479696,0.3412819
886,279155124,0.2527989745140075,-0.1214905083179473,-87.4305648803711,-0.008990549,0.009435484,0.3374262
887,279171791,0.2527164816856384,-0.122138500213623,-87.42971801757812,-0.000833169,-0.0061456338,0.33978844
888,279188458,0.2524069249629974,-0.1229658424854278,-87.42924499511719,-0.022172457,0.0014794144,0.35879326
889,279205125,0.2526514232158661,-0.1223123893141746,-87.428955078125,-0.01564203,0.010050407,0.31941986
890,279221792,0.2521502375602722,-0.1226321533322334,-87.4281005859375,-0.011435391,0.006327435,0.33219147
891,279238459,0.2511666417121887,-0.1213086172938346,-87.42840576171875,-0.017739482,0.0018955121,0.33245468
892,279255126,0.2505773305892944,-0.1197505891323089,-87.42854309082031,-0.0050050383,-0.012277615,0.3522749
893,279271793,0.2498600929975509,-0.1199757009744644,-87.42760467529297,-0.0074940054,-0.0007419962,0.33644104
894,279288460,0.2502299547195434,-0.1187027692794799,-87.4273681640625,-0.0030766558,-0.005357271,0.33365536
895,279305127,0.250868558883667,-0.1187677085399627,-87.42727661132812,-0.022246506,0.007271477,0.33779716
896,279321794,0.2515592575073242,-0.1167453825473785,-87.42698669433594,-0.004411682,-0.012000397,0.32989788
897,279338461,0.2519029974937439,-0.1143267527222633,-87.42701721191406,-0.015198757,0.00086729665,0.34582043
898,279355128,0.2519617974758148,-0.1141689196228981,-87.42575073242188,-0.023039903,0.001546694,0.32281208
899,279371795,0.2517125308513641,-0.1141009256243705,-87.42511749267578,-0.0055568554,0.0028605529,0.34640217
900,279388462,0.2525443434715271,-0.1151900365948677,-87.42569732666016,-0.010588803,0.004315692,0.34520435
901,279405129,0.2525387406349182,-0.1156223341822624,-87.42691040039062,-0.0034703792,0.008585089,0.34007835
902,279421796,0.2525163888931274,-0.1160435527563095,-87.42619323730469,-0.016483856,0.0022603385,0.33841896
903,279438463,0.2523120045661926,-0.1169001832604408,-87.42561340332031,-0.022969583,0.0035840748,0.34266758
904,279455130,0.2524444162845611,-0.1188485249876976,-87.42534637451172,-0.012878794,0.00916098,0.34448338
905,279471797,0.2518673539161682,-0.1182837784290313,-87.42449188232422,-0.0016544429,0.00017475395,0.35496902
906,279488464,0.2512125074863434,-0.1183947026729583,-87.42388916015625,-0.01911634,0.011757597,0.33935165
907,279505131,0.2521976232528686,-0.1166082844138145,-87.42208862304688,-0.028233903,-0.0011969241,0.34854794
908,279521798,0.2526217401027679,-0.1158453300595283,-87.42315673828125,-0.009594021,0.010966176,0.3365326
909,279538465,0.2522684931755066,-0.1169727966189384,-87.42433166503906,-0.035197645,0.0098618185,0.3285122
910,279555132,0.2538230717182159,-0.1144321337342262,-87.42842864990234,-0.042322267,0.029753717,0.3421793
911,279571799,0.2546314895153045,-0.113516516983509,-87.43219757080078,-0.03616164,0.01895108,0.3245573
912,279588466,0.254956305027008,-0.1146326959133148,-87.43433380126953,0.009958982,-0.007666924,0.33950138
913,279605133,0.2549251019954681,-0.1152459681034088,-87.43572998046875,0.052767456,-0.040474024,0.35818386
914,279621800,0.2550879120826721,-0.1165757626295089,-87.4353256225586,0.057723317,-0.047121637,0.34762573
915,279638467,0.2538506984710693,-0.116143099963665,-87.4331283569336,0.0044295606,-0.010730703,0.3394804
916,279655134,0.2532723546028137,-0.1166399270296096,-87.43135833740234,-0.04825329,0.024601348,0.34793854
917,279671801,0.2522575259208679,-0.1182610467076301,-87.43122863769531,-0.039772697,0.0092747575,0.357275
918,279688468,0.2518313527107239,-0.1181040555238723,-87.43153381347656,0.00038731127,-0.00023342349,0.3403101
919,279705135,0.2490508109331131,-0.118901640176773,-87.4328384399414,-0.048118096,-0.0017597389,0.32154083
920,279721802,0.248556450009346,-0.1185695528984069,-87.43376159667969,0.004122681,0.011169811,0.35249996
921,279738469,0.2479288727045059,-0.1177165210247039,-87.43441009521484,0.02141014,-0.022626193,0.34382057
922,279755136,0.2455233782529831,-0.1151526123285293,-87.43284606933594,0.026548285,-0.018219046,0.34263706
923,279771803,0.2435327172279358,-0.1140385866165161,-87.4322738647461,-0.018635778,0.0011243509,0.33753204
924,279788470,0.2417569756507873,-0.1138359755277633,-87.43174743652344,-0.004933982,0.01006317,0.34774494
925,279805137,0.2412635535001754,-0.1126222312450409,-87.43206787109375,-0.023735886,0.019848531,0.36425495
926,279821804,0.2398126721382141,-0.1146066933870315,-87.43250274658203,-0.018917825,-0.00018483735,0.3401661
927,279838471,0.2387786358594894,-0.1160154193639755,-87.43196868896484,-0.02510783,0.013831334,0.3585739
928,279855138,0.2388685047626495,-0.1168989539146423,-87.43208312988281,-0.010473426,0.0010070442,0.32070923
929,279871805,0.2383250445127487,-0.1165506020188331,-87.43268585205078,-0.021592228,0.0065323315,0.33658028
930,279888472,0.2384616434574127,-0.1178242564201355,-87.43301391601562,-0.011877234,0.008495957,0.3292427
931,279905139,0.2381175011396408,-0.1162879467010498,-87.43287658691406,-0.0247348,0.0003104285,0.34425545
932,279921806,0.251177579164505,-0.1779156625270843,-86.21463775634766,1.7447648,-4.5422583,0.4339552
933,279938473,0.2737916707992553,-0.1420836299657821,-85.34129333496094,-2.2143645,2.6318326,0.2788782
934,279955140,0.2516345381736755,-0.1720795333385467,-85.2255630493164,0.6747026,0.0025434762,0.3445692
935,279971807,0.1957015991210937,-0.1646522283554077,-84.7171401977539,0.50728434,-0.48217583,0.372777
936,279988474,0.217531606554985,-0.2091944068670272,-83.84315490722656,0.2943219,-1.1815451,0.32811356
937,280005141,0.2290601283311844,-0.238572210073471,-83.23678588867188,-0.58906436,0.062328912,0.3319254
938,280021808,0.2210489064455032,-0.2294641882181167,-83.07288360595703,-0.15077028,0.29606885,0.38262272
939,280038475,0.2167399078607559,-0.2328798174858093,-83.11920928955078,0.1376838,-0.1309086,0.3323536
940,280055142,0.2122686803340912,-0.2415328621864318,-83.24498748779297,0.004392082,0.35822478,0.30342388
941,280071809,0.2113386392593383,-0.2182704806327819,-83.39144134521484,-0.022444371,0.5053178,0.36069202
942,280088476,0.2069955766201019,-0.1847971081733703,-83.55917358398438,-0.17764132,0.41174394,0.3350458
943,280105143,0.2026991695165634,-0.1628111451864242,-83.70130920410156,-0.1468615,0.22717127,0.3475647
944,280121810,0.2028635740280151,-0.155345618724823,-83.79063415527344,-0.05021715,-0.26038218,0.34317684
945,280138477,0.1943516135215759,-0.1508414149284362,-83.8761215209961,0.1138699,-0.50552464,0.3329401
946,280155144,0.1880249977111816,-0.136500209569931,-83.97111511230469,0.13213898,-0.57951856,0.34514046
947,280171811,0.1879452168941497,-0.1226653829216957,-84.03109741210938,0.07649692,-0.59524673,0.35219097
948,280188478,0.1818633526563644,-0.1055854111909866,-84.06663513183594,-0.04706907,-0.38244823,0.37261868
949,280205145,0.1785489171743393,-0.0918828770518302,-84.10749816894531,0.02304961,-0.232002,0.31662655
950,280221812,0.1698558330535888,-0.0789923220872879,-84.12432861328125,0.066100575,0.25004962,0.33983517
951,280238479,0.1592902839183807,-0.0650795698165893,-83.9864730834961,0.043742422,0.09567022,0.3528633
952,280255146,0.1504785865545272,-0.0536622181534767,-83.82244873046875,-0.100076616,-0.0062887366,0.3349104
953,280271813,0.1482859253883361,-0.0513058453798294,-83.703125,-0.106327325,0.019356407,0.32277584
954,280288480,0.146527349948883,-0.0511536076664924,-83.6624755859375,-0.099148855,0.15804918,0.3488121
955,280305147,0.1441064476966858,-0.0619898922741413,-83.66879272460938,-0.068836,0.18569092,0.36712265
956,280321814,0.1396583169698715,-0.0700229108333587,-83.72288513183594,-0.0847643,0.2152986,0.34420013
957,280338481,0.1368276327848434,-0.0733440294861793,-83.78863525390625,0.012579293,0.35304216,0.3628149
958,280355148,0.1330724507570266,-0.0767997205257415,-83.80148315429688,0.06550558,0.18235064,0.33477306
959,280371815,0.1296672821044922,-0.0812849029898643,-83.78515625,-0.0062549356,-0.127595,0.34693146
960,280388482,0.1276186406612396,-0.087576575577259,-83.79389190673828,0.06396671,-0.47982398,0.34735966
961,280405149,0.122916005551815,-0.0961968824267387,-83.8157958984375,0.06522274,-0.42761993,0.34830093
962,280421816,0.1175826266407966,-0.1042548269033432,-83.8584976196289,0.031597525,-0.19137888,0.33716202
963,280438483,0.1065884977579116,-0.1036719232797622,-83.90605926513672,0.08187735,-0.19243698,0.35243034
964,280455150,0.1022345423698425,-0.109406441450119,-83.93338775634766,0.089142874,-0.17851391,0.33589172
965,280471817,0.0932344794273376,-0.1180263087153434,-83.95707702636719,0.053177744,-0.1675781,0.35580635
966,280488484,0.0863451436161995,-0.1283002197742462,-83.99343872070312,0.09703077,0.020708298,0.33746243
967,280505151,0.0816386863589286,-0.1265082508325576,-84.0481185913086,-0.027322738,-0.0050140284,0.30724144
968,280521818,0.0874634385108947,-0.1347994655370712,-84.00023651123047,0.056716528,-0.11281708,0.3476696
969,280538485,0.0938910990953445,-0.1400179415941238,-83.8387680053711,-0.032758296,0.053113177,0.36168766
970,280555152,0.0955315008759498,-0.1316359490156173,-83.72101593017578,-0.008762803,-0.117469095,0.33768654
971,280571819,0.0906152874231338,-0.1105170473456382,-83.6606216430664,0.0028598045,-0.10636077,0.32743454
972,280588486,0.0875512808561325,-0.0863546729087829,-83.64855194091797,0.020713497,-0.15376116,0.33484936
973,280605153,0.0894020944833755,-0.069506861269474,-83.63655853271484,-0.055408996,-0.111404136,0.36678123
974,280621820,0.0920633226633071,-0.0561159625649452,-83.62879943847656,-0.13892634,-0.0058409204,0.33706188
975,280638487,0.0945746600627899,-0.0424164049327373,-83.6582260131836,-0.1006598,0.21794052,0.34994793
976,280655154,0.0901858210563659,-0.0311185531318187,-83.70738983154297,-0.04991614,0.09575314,0.31056595
977,280671821,0.0857466161251068,-0.0265833232551813,-83.7593994140625,-0.052163042,-0.20009534,0.3495493
978,280688488,0.0853520482778549,-0.0390408188104629,-83.81184387207031,0.029044263,-0.2971626,0.32892513
979,280705155,0.0844520628452301,-0.0491483360528945,-83.86769104003906,-0.0293721,-0.031343512,0.34898758
980,280721822,0.0782603323459625,-0.0612775310873985,-83.9404525756836,0.015822617,-0.13426447,0.34181976
981,280738489,0.0761979967355728,-0.0780116319656372,-83.99691772460938,0.075306796,-0.20568419,0.34632587
982,280755156,0.0764187648892402,-0.0963572338223457,-84.06258392333984,-0.04589764,-0.3501499,0.35550976
983,280771823,0.0759655907750129,-0.1218454837799072,-84.14459228515625,0.010873746,-0.13497993,0.34603786
984,280788490,0.0755375102162361,-0.144121840596199,-84.24772644042969,-0.03740883,0.07712774,0.34882355
985,280805157,0.0742006748914718,-0.1661192774772644,-84.36153411865234,-0.034102302,-0.115011066,0.332366
986,280821824,0.0733913108706474,-0.1792767941951751,-84.47262573242188,-0.01955766,-0.07715229,0.32989025
987,280838491,0.0842916965484619,-0.1868707835674286,-84.50701141357422,-0.0093317265,-0.2139386,0.356843
988,280855158,0.0943683460354805,-0.1873224973678589,-84.54712677001953,-0.071095,-0.14325067,0.33596897
989,280871825,0.1029649525880813,-0.1787961721420288,-84.61183166503906,-0.03375635,-0.16944882,0.33833408
990,280888492,0.1152025461196899,-0.1536909192800521,-84.71683502197266,-0.07652112,-7.5102755e-05,0.36132526
991,280905159,0.1264022588729858,-0.1128175556659698,-84.87057495117188,-0.017735297,-0.10444122,0.3292532
992,280921826,0.1321462392807006,-0.0774584859609603,-85.00959014892578,0.052905746,-0.11727415,0.35673046
993,280938493,0.1355208754539489,-0.058041900396347,-85.09608459472656,0.02694538,-0.08122549,0.33346176
994,280955160,0.1402850598096847,-0.055326797068119,-85.16284942626953,-0.037918277,-0.19567905,0.3408203
995,280971827,0.1450842320919037,-0.063180111348629,-85.24240112304688,-0.14560194,-0.202225,0.35620594
996,280988494,0.1467603147029876,-0.0781018137931823,-85.36187744140625,-0.15199657,0.073522404,0.36598396
997,281005161,0.1419583708047866,-0.0917492136359214,-85.50112915039062,-0.061251175,0.2910285,0.2932043
998,281021828,0.1310792714357376,-0.1046586260199546,-85.61068725585938,0.01645507,0.4088846,0.3493538
999,281038495,0.1159379929304122,-0.119340531527996,-85.68849182128906,0.012749833,0.28312033,0.3572359
1000,281055162,0.1031290665268898,-0.131351888179779,-85.72216033935547,0.00783038,0.1422941,0.36004257
1001,281071829,0.0869795456528663,-0.131818950176239,-85.72900390625,0.083893046,0.24951634,0.3456316
1002,281088496,0.0715626329183578,-0.1277358084917068,-85.68274688720703,0.09120956,0.11621102,0.3686533
1003,281105163,0.0651061609387397,-0.1252585649490356,-85.6076431274414,0.08127067,-0.116389744,0.3484316
1004,281121830,0.0618103370070457,-0.1239949986338615,-85.52212524414062,-0.0010748275,-0.032242607,0.34906673
1005,281138497,0.0576880313456058,-0.1232470795512199,-85.4178466796875,0.08231992,0.013676693,0.33320045
1006,281155164,0.0513275153934955,-0.1158715710043907,-85.2529525756836,0.15714625,0.16315436,0.32530594
1007,281171831,0.0409987568855285,-0.1008078977465629,-85.13739776611328,0.02600108,0.1663554,0.3483448
1008,281188498,0.0364207029342651,-0.0956992506980896,-85.10548400878906,-0.018628065,-0.0011826328,0.3511219
1009,281205165,0.0371842086315155,-0.1043424159288406,-85.12091827392578,0.07523872,-0.043894432,0.3579092
1010,281221832,0.0357822552323341,-0.116902582347393,-85.12232971191406,0.0922841,-0.055911474,0.33596516
1011,281238499,0.0336462408304214,-0.1310437321662902,-85.14567565917969,0.03625479,-0.10509705,0.35317612
1012,281255166,0.0356556735932827,-0.143786996603012,-85.19059753417969,0.0027531148,-0.06287956,0.32209873
1013,281271833,0.0457733720541,-0.1495395302772522,-85.19196319580078,-0.048113924,0.0017118006,0.34100723
1014,281288500,0.0559136718511581,-0.1560120731592178,-85.10850524902344,-0.09465794,0.00028198562,0.3152237
1015,281305167,0.0714058876037597,-0.1632585674524307,-85.02574157714844,-0.16781099,0.018499395,0.3598671
1016,281321834,0.0836319550871849,-0.1668656915426254,-85.00320434570312,-0.13634239,0.09561447,0.3177986
1017,281338501,0.0962011441588401,-0.1626621782779693,-85.01520538330078,-0.014743088,0.03924357,0.36431217
1018,281355168,0.1013701111078262,-0.1582323610782623,-84.98816680908203,0.028877035,-0.32519466,0.34930325
1019,281371835,0.1085823103785514,-0.1475274115800857,-84.94308471679688,-0.022464331,-0.30382472,0.34350395
1020,281388502,0.1233201101422309,-0.1324809938669204,-84.95661163330078,-0.16699813,0.038786728,0.3259859
1021,281405169,0.1318520009517669,-0.1172280088067054,-85.03224182128906,-0.16252367,0.58989125,0.33467293
1022,281421836,0.1342308074235916,-0.1050786152482032,-85.11381530761719,-0.048999082,1.2883589,0.34850216
1023,281438503,0.1417551934719085,-0.1068863570690155,-85.21106719970703,0.049768496,2.1543174,0.29954052
1024,281455170,0.165408656001091,-0.1169580295681953,-85.33491516113281,0.19213235,2.240701,0.33364677
1025,281471837,0.1881728768348693,-0.1504340171813964,-85.34111785888672,0.029290942,0.19429906,0.3641119
1026,281488504,0.2102598845958709,-0.1737691760063171,-85.33604431152344,0.03901079,-0.06962287,0.31242847
1027,281505171,0.2413972467184066,-0.1306807100772857,-85.31002807617188,0.006904977,-0.04192813,0.35304928
1028,281521838,0.216089129447937,-0.0589022971689701,-85.26106262207031,-0.16369213,0.1651347,0.3495531
1029,281538505,0.3023447692394256,-0.1167488396167755,-85.26496124267578,0.09117375,-0.10771792,0.30179977
1030,281555172,0.3130074441432953,-0.1210687831044197,-85.26697540283203,0.00048534092,-0.0012056411,0.3497181
1031,281571839,0.3187626004219055,-0.1220646202564239,-85.2687759399414,-0.012993683,0.012625348,0.34119415
1032,281588506,0.3248604834079742,-0.1242879554629325,-85.27091217041016,0.0009864622,0.0020035421,0.35669613
1033,281605173,0.3256877660751343,-0.1233636066317558,-85.27117919921875,0.03322455,-0.019623984,0.3208933
1034,281621840,0.3248132467269897,-0.1243533715605735,-85.26893615722656,-0.003975674,-0.00028255704,0.34974003
1035,281638507,0.3251928091049194,-0.1242577657103538,-85.26986694335938,-0.034450892,0.019152332,0.34243393
1036,281655174,0.3260786533355713,-0.1235164105892181,-85.26982116699219,-0.0013905161,-0.0025165167,0.34882164
1037,281671841,0.3261705636978149,-0.1228318661451339,-85.27008056640625,0.02421193,-0.015934467,0.35252094
1038,281688508,0.3260176181793213,-0.1220351383090019,-85.27015686035156,-0.016175209,-0.003966104,0.33808422
1039,281705175,0.3267578184604645,-0.1230095848441124,-85.26803588867188,-0.01914992,0.0069983862,0.34609604
1040,281721842,0.3276611864566803,-0.1223360300064086,-85.26824951171875,0.0071334317,-0.001207114,0.34746265
1041,281738509,0.3280501365661621,-0.1220077648758888,-85.26849365234375,0.010786963,-0.012328146,0.3509674
1042,281755176,0.3285033404827118,-0.1222623214125633,-85.26958465576172,-0.0046610185,0.009426968,0.33953667
1043,281771843,0.3294304609298706,-0.1219647005200386,-85.2691421508789,-0.016548384,-0.011876294,0.36610603
1044,281788510,0.3303354382514953,-0.1216057166457176,-85.2691650390625,0.0007620884,-0.007827977,0.35716152
1045,281805177,0.3313448429107666,-0.1200537160038948,-85.2676773071289,-1.4353723e-06,-0.011769939,0.34338093
1046,281821844,0.3314253687858581,-0.1195179969072341,-85.26847839355469,-0.00034176005,-0.00216947,0.35910225
1047,281838511,0.331464022397995,-0.1193956062197685,-85.26943969726562,-0.023291543,0.014221001,0.34439278
1048,281855178,0.3311161696910858,-0.1196311488747596,-85.26988983154297,-0.0059936834,-0.0016502511,0.35671043
1049,281871845,0.3311511278152466,-0.1186933740973472,-85.27023315429688,-0.021078164,0.0033755188,0.3529358
1050,281888512,0.3314312100410461,-0.1192439123988151,-85.27006530761719,-0.025058491,-0.00018377567,0.32913685
1051,281905179,0.3303479552268982,-0.119625799357891,-85.26971435546875,-0.0018565615,-0.0041025216,0.3254013
1052,281921846,0.3312091529369354,-0.1198246777057647,-85.26982116699219,-0.007874637,-0.0031986292,0.33893108
1053,281938513,0.3325851857662201,-0.119853600859642,-85.27151489257812,-0.011718693,-0.0063108294,0.3397045
1054,281955180,0.3323328197002411,-0.1200040131807327,-85.27233123779297,-0.014377525,-0.0124741895,0.34017658
1055,281971847,0.3331679999828338,-0.1183720231056213,-85.27275085449219,0.013848936,-0.009549497,0.35019112
1056,281988514,0.3339397311210632,-0.1177726164460182,-85.27238464355469,-0.011862704,-0.00086197857,0.35101223
1057,282005181,0.3317221999168396,-0.1165276318788528,-85.27267456054688,-0.025272518,0.006629086,0.36020088
1058,282021848,0.3319469392299652,-0.1177991926670074,-85.27229309082031,-0.023288691,0.0034306734,0.35088825
1059,282038515,0.3322456777095794,-0.117840975522995,-85.27281188964844,0.011056865,0.0033098662,0.35559273
1060,282055182,0.3326504826545715,-0.1196667179465293,-85.2732925415039,-0.009432939,-0.00088518986,0.3473997
1061,282071849,0.3323927223682403,-0.1179638355970382,-85.27214050292969,-0.02268645,0.0024251225,0.34618282
1062,282088516,0.3333834111690521,-0.1175609603524208,-85.2735824584961,-0.009623192,-0.004953215,0.33603573
1063,282105183,0.3337710797786712,-0.1178135722875595,-85.27388000488281,-0.0097586755,0.0022183547,0.33385754
1064,282121850,0.3348241746425628,-0.1181133314967155,-85.27536010742188,-0.011287203,-0.0065846266,0.35020733
1065,282138517,0.3351901471614837,-0.1162414327263832,-85.27511596679688,-0.013414802,0.000920415,0.3493719
1066,282155184,0.3355765640735626,-0.1166680380702018,-85.2766342163086,0.0048911395,0.0073382184,0.34368706
1067,282171851,0.3360781669616699,-0.1170262247323989,-85.27708435058594,0.004434752,0.0024797462,0.3302269
1068,282188518,0.3361482322216034,-0.1165027916431427,-85.27766418457031,0.0019750933,0.007935051,0.35343647
1069,282205185,0.3363975584506988,-0.1160951927304267,-85.27644348144531,-0.017331285,-0.0031010038,0.34469128
1070,282221852,0.3364675045013428,-0.1155476719141006,-85.27526092529297,-0.0072037764,0.0022888277,0.35343075
1071,282238519,0.3373305797576904,-0.1160497292876243,-85.27444458007812,0.003505626,0.002604964,0.33868122
1072,282255186,0.3382542133331299,-0.1158946007490158,-85.27484130859375,-0.016335197,-0.0032017655,0.32658577
1073,282271853,0.338018536567688,-0.1159643903374672,-85.27476501464844,-0.0011892042,0.0075406637,0.37152004
1074,282288520,0.3381314873695373,-0.1161242648959159,-85.27579498291016,-0.008657742,-0.0006263741,0.3441925
1075,282305187,0.3382894098758697,-0.1160919666290283,-85.27649688720703,-0.005836171,-0.006363907,0.32319355
1076,282321854,0.3381659090518951,-0.1163765415549278,-85.2767333984375,0.010924407,-0.00025592494,0.3582697
1077,282338521,0.3383807241916656,-0.1176892444491386,-85.2761459350586,-0.009630042,0.007214464,0.34911728
1078,282355188,0.3370963037014007,-0.1175780892372131,-85.27577209472656,0.00748906,0.005081108,0.33573437
1079,282371855,0.3365061283111572,-0.1158735901117324,-85.27545166015625,-0.01602032,0.012461814,0.32662487
1080,282388522,0.3370091021060943,-0.1143392324447631,-85.27440643310547,-0.0056805746,-0.004668639,0.37317085
1081,282405189,0.3369331955909729,-0.11434967815876,-85.27440643310547,-0.007772397,0.009129607,0.35301495
1082,282421856,0.3368074893951416,-0.1154387071728706,-85.27442932128906,0.00198959,-0.0034908026,0.33977604
1083,282438523,0.3367695212364197,-0.1167294681072235,-85.2745361328125,0.011195638,-0.0049250093,0.34213448
1084,282455190,0.3369088768959045,-0.1169249266386032,-85.27464294433594,-0.0062592165,-0.0026899278,0.3509636
1085,282471857,0.3373861312866211,-0.1174840331077575,-85.27396392822266,-0.006017922,-0.0040159198,0.34388733
1086,282488524,0.3368626534938812,-0.1192223280668258,-85.27410888671875,0.00232849,-0.0005251917,0.340271
1087,282505191,0.3374765813350677,-0.1202416494488716,-85.2735366821289,-0.01858386,-0.015300529,0.33542347
1088,282521858,0.3374099731445312,-0.1205204799771308,-85.27229309082031,-0.0014839969,-0.0088341925,0.33812523
1089,282538525,0.3379793465137481,-0.1205987185239791,-85.27196502685547,-0.0017204927,-0.0007340785,0.3414898
1090,282555192,0.3375703692436218,-0.1199527606368064,-85.27128601074219,-0.0035944707,0.0013114841,0.34380245
1091,282571859,0.3363510966300964,-0.1203348338603973,-85.27178192138672,0.0028952751,1.51307795e-05,0.3423853
1092,282588526,0.3362350463867187,-0.1194468662142753,-85.27127075195312,-0.02425676,-0.0019234696,0.35856342
1093,282605193,0.3357262313365936,-0.1201590076088905,-85.27175903320312,-0.007434452,-0.007664717,0.34041595
1094,282621860,0.3358497321605682,-0.1208631992340087,-85.27086639404297,-0.021565545,-0.010934622,0.35293198
1095,282638527,0.3350192010402679,-0.120745338499546,-85.27056121826172,-0.013612001,-0.01163697,0.34967613
1096,282655194,0.3349887132644653,-0.1206794902682304,-85.27074432373047,-0.014927337,-0.00239612,0.33480453
1097,282671861,0.3347299993038177,-0.1215739697217941,-85.2698745727539,-0.011703729,0.002098145,0.3437643
1098,282688528,0.3335138857364654,-0.1202771365642547,-85.27120971679688,-0.013160018,0.00071431947,0.34347153
1099,282705195,0.3320089876651764,-0.1202387437224388,-85.26997375488281,-0.010684757,-0.011940891,0.3405695
1100,282721862,0.3319168984889984,-0.1207638829946518,-85.26937103271484,0.0035334309,-0.011083026,0.34778404
1101,282738529,0.3309395611286163,-0.1202736422419548,-85.27115631103516,-0.006771745,-0.008692661,0.33184338
1102,282755196,0.3292278945446014,-0.1199677810072898,-85.271240234375,0.0012910388,-0.012406667,0.32575893
1103,282771863,0.3284706771373749,-0.1198338791728019,-85.2704849243164,0.0003852473,0.009489186,0.34400082
1104,282788530,0.3276137113571167,-0.1196986362338066,-85.26976013183594,-0.008441793,-0.003080005,0.3452673
1105,282805197,0.3267661035060882,-0.1203014031052589,-85.27027130126953,-0.010659289,0.006448894,0.33568478
1106,282821864,0.3262394964694977,-0.1205889657139778,-85.26868438720703,-0.015404965,-0.0154766515,0.35332775
1107,282838531,0.3264159858226776,-0.119849294424057,-85.269775390625,-0.005620304,-0.011816213,0.3313656
1108,282855198,0.325713574886322,-0.1195574328303337,-85.26973724365234,0.005555446,-0.0064529693,0.35603714
1109,282871865,0.3246833682060241,-0.1192283332347869,-85.2691650390625,-0.0030352362,0.0011157304,0.3353691
1110,282888532,0.32514089345932,-0.1184069067239761,-85.26958465576172,-0.010525238,0.0004954287,0.3199892
1111,282905199,0.3253943920135498,-0.118565484881401,-85.26983642578125,-0.0036429765,0.004907894,0.33626175
1112,282921866,0.3262974321842193,-0.1187795922160148,-85.27000427246094,0.0059132115,-0.0029751775,0.34705067
1113,282938533,0.3259370028972626,-0.1193648129701614,-85.26994323730469,-0.015446645,-0.0027929568,0.32903004
1114,282955200,0.3262560367584228,-0.1190699413418769,-85.26969146728516,0.0035261945,0.0047985176,0.3294859
1115,282971867,0.3251010775566101,-0.1189393177628517,-85.27001953125,-0.006289762,0.009370679,0.3484125
1116,282988534,0.3251292407512665,-0.119723342359066,-85.26917266845703,0.0011825756,0.0040128846,0.35561848
