sep=,
DeviceTag:,Movella DOT,,,,,,,,,,,,,,,,,
FirmwareVersion:,3.0.0,,,,,,,,,,,,,,,,,
AppVersion:,2023.6.1,,,,,,,,,,,,,,,,,
SyncStatus:,Un-synced,,,,,,,,,,,,,,,,,
OutputRate:,60Hz,,,,,,,,,,,,,,,,,
FilterProfile:,Dynamic,,,,,,,,,,,,,,,,,
Measurement Mode:,Sensor fusion Mode - Complete (Euler),,,,,,,,,,,,,,,,,
StartTime:,2024-11-03 20:00:50.848 +0700,,,,,,,,,,,,,,,,,
 2024,,,,,,,,,,,,,,,,,,,

PacketCounter,SampleTimeFine,Euler_X,Euler_Y,Euler_Z,FreeAcc_X,FreeAcc_Y,FreeAcc_Z
1, 463822482, -0.01796030066907406, -0.9258915781974792, -93.13955688476562, -0.33358264, 0.22766656, 0.34825993
2, 463839149, -0.2790104150772095, -0.758804202079773, -94.17345428466797, -0.8035502, 0.34739313, 0.36598969
3, 463855816, -0.8353359699249268, -0.5844365358352661, -95.30824279785156, 0.42411476, -0.18863292, 0.30652332
4, 463872483, -0.8924024105072021, -0.6658297777175903, -95.4474105834961, 1.2796352, -0.2845245, 0.3767767
5, 463889150, -0.779633104801178, -0.5862778425216675, -95.46473693847656, -0.10091317, 0.24023367, 0.33060646
6, 463905817, -0.547265350818634, -0.5602359771728516, -95.4564208984375, 0.07508615, 0.016907452, 0.3220644
7, 463922484, -0.39764729142189026, -0.5470241904258728, -95.46847534179688, 0.03267941, 0.060769618, 0.35473347
8, 463939151, -0.3126136064529419, -0.5385754704475403, -95.49678039550781, 0.029031647, 0.07111701, 0.33617783
9, 463955818, -0.2505180835723877, -0.5277515649795532, -95.49993133544922, -6.317471E-4, 0.06896463, 0.33771992
10, 463972485, -0.21524719893932343, -0.5212892293930054, -95.50250244140625, -0.014434705, 0.08392037, 0.3733387
11, 463989152, -0.19496455788612366, -0.5196430683135986, -95.50273895263672, 1.8525994E-4, 0.08538669, 0.3465662
12, 464005819, -0.18029120564460754, -0.5147383213043213, -95.49645233154297, 4.2627238E-5, 0.07841724, 0.3517189
13, 464022486, -0.1720566302537918, -0.512710690498352, -95.49169921875, 0.0067697614, 0.07223084, 0.32730293
14, 464039153, -0.165608748793602, -0.5103228688240051, -95.49484252929688, -0.0034060038, 0.0757238, 0.3368044
15, 464055820, -0.16135530173778534, -0.5113188028335571, -95.48475646972656, -0.0123833325, 0.0645456, 0.3371935
16, 464072487, -0.1612851768732071, -0.5142720341682434, -95.4771957397461, -0.007426892, 0.06881785, 0.33924866
17, 464089154, -0.16191509366035461, -0.5192152261734009, -95.47630310058594, -0.01393353, 0.088385135, 0.34179497
18, 464105821, -0.16523192822933197, -0.5232716202735901, -95.46855163574219, -0.005981385, 0.09253626, 0.34015656
19, 464122488, -0.16825059056282043, -0.5280820727348328, -95.46842193603516, 0.007525574, 0.08262941, 0.3290615
20, 464139155, -0.1709628850221634, -0.5352737307548523, -95.4733657836914, -0.0029455088, 0.07298871, 0.34216785
21, 464155822, -0.17461568117141724, -0.5431462526321411, -95.467529296875, -0.003850284, 0.0840074, 0.35867023
22, 464172489, -0.1787114143371582, -0.5505776405334473, -95.45885467529297, -0.0016186808, 0.0711131, 0.33057022
23, 464189156, -0.18333354592323303, -0.5602070093154907, -95.45355987548828, 0.020168593, 0.07179537, 0.3236866
24, 464205823, -0.18719369173049927, -0.5680211186408997, -95.451171875, 8.9565484E-4, 0.07693484, 0.34818554
25, 464222490, -0.1913219839334488, -0.5780826807022095, -95.44312286376953, -0.010307909, 0.08749996, 0.34494877
26, 464239157, -0.1964004933834076, -0.5883520245552063, -95.44117736816406, 0.004933323, 0.0797455, 0.34075928
27, 464255824, -0.2008875459432602, -0.5987692475318909, -95.43639373779297, -0.0039202976, 0.089996204, 0.34829426
28, 464272491, -0.20661039650440216, -0.609923779964447, -95.43318939208984, -0.005829198, 0.09863447, 0.3516283
29, 464289158, -0.2107079178094864, -0.6223040223121643, -95.4338150024414, 0.009571555, 0.09483637, 0.33755112
30, 464305825, -0.21633489429950714, -0.6329155564308167, -95.42716979980469, 0.02044729, 0.09145088, 0.33229828
31, 464322492, -0.22006481885910034, -0.642882764339447, -95.42401885986328, 0.009473006, 0.082115605, 0.33367252
32, 464339159, -0.22537636756896973, -0.6541669964790344, -95.42365264892578, 0.014831116, 0.095336035, 0.32287884
33, 464355826, -0.23107104003429413, -0.6662777662277222, -95.43235778808594, 0.002208399, 0.098780416, 0.34943104
34, 464372493, -0.23590758442878723, -0.6788151860237122, -95.42761993408203, 0.007867579, 0.09360753, 0.34123802
35, 464389160, -0.2406119853258133, -0.6911900639533997, -95.4109878540039, 0.015614098, 0.102305986, 0.3408165
36, 464405827, -0.24497127532958984, -0.7037479877471924, -95.4060287475586, 0.0133694485, 0.1138982, 0.34613037
37, 464422494, -0.25002530217170715, -0.716552197933197, -95.4006576538086, 0.01013123, 0.11586715, 0.34716988
38, 464439161, -0.2555268108844757, -0.7289168238639832, -95.40259552001953, 0.010757808, 0.10905674, 0.3643856
39, 464455828, -0.2587418556213379, -0.7419878840446472, -95.40607452392578, 0.007929859, 0.12998922, 0.33249283
40, 464472495, -0.26222437620162964, -0.7542462944984436, -95.39383697509766, 0.0022167682, 0.11420854, 0.3368578
41, 464489162, -0.2669077515602112, -0.7658948302268982, -95.39798736572266, 0.025533384, 0.10628001, 0.35841656
42, 464505829, -0.27108439803123474, -0.7785248756408691, -95.39010620117188, 0.012943351, 0.11580986, 0.32867336
43, 464522496, -0.2756832242012024, -0.7924002408981323, -95.38249206542969, 0.012729618, 0.121737964, 0.33430958
44, 464539163, -0.2804741859436035, -0.8058906197547913, -95.37425231933594, 0.023229584, 0.1286909, 0.35620308
45, 464555830, -0.28432154655456543, -0.8185533881187439, -95.36278533935547, 0.02512059, 0.13270803, 0.3627081
46, 464572497, -0.2886697053909302, -0.8322011828422546, -95.35751342773438, 0.0044391872, 0.12344446, 0.33895493
47, 464589164, -0.29230543971061707, -0.8450646996498108, -95.35110473632812, 0.01692568, 0.12574594, 0.31809998
48, 464605831, -0.2970086336135864, -0.8578043580055237, -95.3449935913086, 0.020524206, 0.14657809, 0.33028412
49, 464622498, -0.30141517519950867, -0.8698266744613647, -95.34358215332031, 0.03819571, 0.13608687, 0.3458252
50, 464639165, -0.3062727153301239, -0.8812757134437561, -95.33793640136719, 0.0326359, 0.13312982, 0.36058044
51, 464655832, -0.3106829822063446, -0.8934364318847656, -95.3369140625, 0.024228847, 0.13328715, 0.33649063
52, 464672499, -0.31379589438438416, -0.9078248143196106, -95.33736419677734, 0.03161312, 0.13653062, 0.3315611
53, 464689166, -0.31772419810295105, -0.9210057854652405, -95.33590698242188, 0.03180101, 0.13049418, 0.33952045
54, 464705833, -0.32305318117141724, -0.9341747164726257, -95.32933044433594, 0.031772286, 0.1419981, 0.33788967
55, 464722500, -0.3270604610443115, -0.9476835131645203, -95.32428741455078, 0.037190426, 0.1484366, 0.3464918
56, 464739167, -0.33139675855636597, -0.9615747332572937, -95.32342529296875, 0.03642745, 0.13985011, 0.33210087
57, 464755834, -0.3346911668777466, -0.9771066904067993, -95.31536102294922, 0.025820868, 0.15207575, 0.32839108
58, 464772501, -0.3384392261505127, -0.9897635579109192, -95.31371307373047, 0.043145187, 0.15637305, 0.35142136
59, 464789168, -0.3421162962913513, -1.0027027130126953, -95.30590057373047, 0.035215598, 0.14729373, 0.34631443
60, 464805835, -0.3465941250324249, -1.0167418718338013, -95.30416107177734, 0.045336388, 0.15876405, 0.3278513
61, 464822502, -0.35179734230041504, -1.030277967453003, -95.3028793334961, 0.034853842, 0.15978436, 0.3313179
62, 464839169, -0.3560055196285248, -1.0450165271759033, -95.2919692993164, 0.04371604, 0.16418286, 0.35134792
63, 464855836, -0.3591640293598175, -1.058361291885376, -95.2866439819336, 0.04174949, 0.16566052, 0.3413744
64, 464872503, -0.3629056513309479, -1.0724334716796875, -95.28185272216797, 0.036866743, 0.16675721, 0.3483162
65, 464889170, -0.36643844842910767, -1.085829496383667, -95.27522277832031, 0.026108837, 0.177541, 0.3469038
66, 464905837, -0.36949628591537476, -1.099583625793457, -95.27721405029297, 0.047130473, 0.17857757, 0.34984875
67, 464922504, -0.37293723225593567, -1.112349271774292, -95.27481842041016, 0.044285018, 0.18847546, 0.32293034
68, 464939171, -0.3776458203792572, -1.124343991279602, -95.27084350585938, 0.03241069, 0.16827047, 0.3417015
69, 464955838, -0.38152652978897095, -1.1373361349105835, -95.26753234863281, 0.041747235, 0.17675665, 0.33310032
70, 464972505, -0.38645341992378235, -1.1521062850952148, -95.26219177246094, 0.03868101, 0.1851111, 0.3424635
71, 464989172, -0.39015036821365356, -1.1658223867416382, -95.2564468383789, 0.053213425, 0.18027036, 0.35050106
72, 465005839, -0.39318719506263733, -1.1794573068618774, -95.25540924072266, 0.05270782, 0.16941139, 0.36554432
73, 465022506, -0.39491862058639526, -1.1937425136566162, -95.25127410888672, 0.04866751, 0.18774322, 0.3282051
74, 465039173, -0.40022560954093933, -1.2066915035247803, -95.24671936035156, 0.039381605, 0.19109902, 0.35002995
75, 465055840, -0.4039919376373291, -1.2198182344436646, -95.24295043945312, 0.055202752, 0.18637548, 0.32324505
76, 465072507, -0.4073413014411926, -1.2324693202972412, -95.23634338378906, 0.060292996, 0.18583654, 0.34441376
77, 465089174, -0.41101351380348206, -1.2463483810424805, -95.22992706298828, 0.058737256, 0.2109578, 0.32955265
78, 465105841, -0.4147854149341583, -1.2580057382583618, -95.22421264648438, 0.044053238, 0.19692934, 0.343215
79, 465122508, -0.4185023307800293, -1.2703964710235596, -95.21957397460938, 0.049761295, 0.197921, 0.35191154
80, 465139175, -0.4226667582988739, -1.2833040952682495, -95.21743774414062, 0.065048754, 0.21421048, 0.34515285
81, 465155842, -0.42596930265426636, -1.2961739301681519, -95.21440124511719, 0.06252612, 0.20370749, 0.3638029
82, 465172509, -0.4293574094772339, -1.309162974357605, -95.21439361572266, 0.0632735, 0.2075969, 0.3566084
83, 465189176, -0.43367522954940796, -1.3230372667312622, -95.2109375, 0.057507347, 0.2090554, 0.31873703
84, 465205843, -0.4376409351825714, -1.3333876132965088, -95.20765686035156, 0.05549453, 0.21226873, 0.32672215
85, 465222510, -0.4408777356147766, -1.344754934310913, -95.20331573486328, 0.06997323, 0.21090423, 0.332489
86, 465239177, -0.4445069432258606, -1.3568115234375, -95.20174407958984, 0.06287319, 0.20710428, 0.35750866
87, 465255844, -0.4475439488887787, -1.3692623376846313, -95.19938659667969, 0.058281656, 0.2208343, 0.35460567
88, 465272511, -0.450084388256073, -1.3826813697814941, -95.1954345703125, 0.062247016, 0.21449135, 0.3520441
89, 465289178, -0.45336705446243286, -1.394346833229065, -95.19486236572266, 0.059860107, 0.21142037, 0.35462475
90, 465305845, -0.45783424377441406, -1.4056711196899414, -95.19152069091797, 0.058943566, 0.21852931, 0.3724594
91, 465322512, -0.46128222346305847, -1.418275237083435, -95.18704986572266, 0.06461316, 0.23559467, 0.3483572
92, 465339179, -0.46549057960510254, -1.4298038482666016, -95.18438720703125, 0.06333775, 0.22507635, 0.366354
93, 465355846, -0.4693281948566437, -1.441422939300537, -95.17845153808594, 0.058099598, 0.23356104, 0.36411953
94, 465372513, -0.4728441834449768, -1.454856514930725, -95.17403411865234, 0.057757545, 0.22005172, 0.35020447
95, 465389180, -0.47566089034080505, -1.4670108556747437, -95.17010498046875, 0.06758198, 0.23449594, 0.35709858
96, 465405847, -0.4790813624858856, -1.479811668395996, -95.16812896728516, 0.06442621, 0.24159367, 0.34684563
97, 465422514, -0.4818762540817261, -1.4926000833511353, -95.16556549072266, 0.06846438, 0.23070306, 0.32863426
98, 465439181, -0.48439931869506836, -1.5036929845809937, -95.16158294677734, 0.064605944, 0.24679278, 0.35215855
99, 465455848, -0.48745250701904297, -1.5165441036224365, -95.15937042236328, 0.08175492, 0.23834874, 0.36307907
100, 465472515, -0.48982948064804077, -1.527134895324707, -95.15538024902344, 0.077697724, 0.23869781, 0.3421631
101, 465489182, -0.49277666211128235, -1.5384647846221924, -95.15646362304688, 0.076422274, 0.23300982, 0.33952332
102, 465505849, -0.4962112307548523, -1.5499920845031738, -95.15614318847656, 0.06560659, 0.26040566, 0.3436432
103, 465522516, -0.49870002269744873, -1.560053825378418, -95.15817260742188, 0.07865255, 0.26722336, 0.31947327
104, 465539183, -0.501464307308197, -1.570305585861206, -95.15411376953125, 0.07156969, 0.2555609, 0.37132072
105, 465555850, -0.5050933361053467, -1.5815918445587158, -95.14936065673828, 0.06305693, 0.2516889, 0.34417439
106, 465572517, -0.5086129903793335, -1.5930047035217285, -95.15049743652344, 0.07175073, 0.26828465, 0.35686302
107, 465589184, -0.511074960231781, -1.604819893836975, -95.14996337890625, 0.07478028, 0.26711914, 0.33067036
108, 465605851, -0.5146036744117737, -1.6163663864135742, -95.15005493164062, 0.07540588, 0.26193532, 0.36353207
109, 465622518, -0.5181334614753723, -1.6288676261901855, -95.14734649658203, 0.0813526, 0.2619141, 0.33758926
110, 465639185, -0.5206204056739807, -1.6391887664794922, -95.14582824707031, 0.07912054, 0.26261064, 0.3311472
111, 465655852, -0.5229875445365906, -1.6501939296722412, -95.14495086669922, 0.084581085, 0.26922777, 0.33970737
112, 465672519, -0.5257729291915894, -1.6601364612579346, -95.14341735839844, 0.08308911, 0.2760558, 0.33546925
113, 465689186, -0.5289218425750732, -1.66981840133667, -95.14374542236328, 0.0763102, 0.27194318, 0.34195232
114, 465705853, -0.530614972114563, -1.681546688079834, -95.14378356933594, 0.078844465, 0.26305544, 0.3380623
115, 465722520, -0.5334493517875671, -1.6891130208969116, -95.1400375366211, 0.084710225, 0.2669569, 0.3396597
116, 465739187, -0.5352532863616943, -1.6981432437896729, -95.13724517822266, 0.08125216, 0.28300813, 0.3663807
117, 465755854, -0.5381637811660767, -1.7107117176055908, -95.13455200195312, 0.07740191, 0.27685997, 0.3184328
118, 465772521, -0.5409932732582092, -1.7189699411392212, -95.1322021484375, 0.08510563, 0.2668023, 0.34250832
119, 465789188, -0.5443501472473145, -1.727418065071106, -95.13268280029297, 0.08550963, 0.28579754, 0.36574268
120, 465805855, -0.5466049909591675, -1.738492488861084, -95.1322250366211, 0.08381974, 0.2710758, 0.33733177
121, 465822522, -0.5489665865898132, -1.7494853734970093, -95.1316146850586, 0.0906828, 0.28126252, 0.3505497
122, 465839189, -0.5531561374664307, -1.7590426206588745, -95.12751770019531, 0.08527092, 0.28960264, 0.3475914
123, 465855856, -0.5555240511894226, -1.769052267074585, -95.12630462646484, 0.08085289, 0.29028612, 0.3403139
124, 465872523, -0.5580410361289978, -1.7793673276901245, -95.12435150146484, 0.080018386, 0.28194073, 0.32303047
125, 465889190, -0.5604878664016724, -1.7884756326675415, -95.12571716308594, 0.08586415, 0.2850637, 0.33950233
126, 465905857, -0.5618921518325806, -1.79611074924469, -95.12974548339844, 0.080404356, 0.28263715, 0.34864235
127, 465922524, -0.5641553997993469, -1.8042972087860107, -95.12726593017578, 0.07724285, 0.2898755, 0.3458357
128, 465939191, -0.5667131543159485, -1.8132617473602295, -95.12792205810547, 0.07887527, 0.30080405, 0.33501434
129, 465955858, -0.5695119500160217, -1.8209794759750366, -95.12862396240234, 0.08465894, 0.29459757, 0.35090733
130, 465972525, -0.5721707940101624, -1.8293031454086304, -95.12894439697266, 0.09500583, 0.30008066, 0.34485912
131, 465989192, -0.5744415521621704, -1.8395121097564697, -95.12854766845703, 0.09113417, 0.29622748, 0.34158802
132, 466005859, -0.576178252696991, -1.8468289375305176, -95.13147735595703, 0.088650815, 0.30045018, 0.35903168
133, 466022526, -0.5792157053947449, -1.8539658784866333, -95.1286849975586, 0.07911346, 0.3068858, 0.33821487
134, 466039193, -0.5817452073097229, -1.8615694046020508, -95.13066101074219, 0.080188684, 0.30994827, 0.30513668
135, 466055860, -0.583508312702179, -1.8691152334213257, -95.12857055664062, 0.08800241, 0.31029615, 0.3547945
136, 466072527, -0.5856953859329224, -1.875162959098816, -95.13338470458984, 0.09939344, 0.32095876, 0.3534336
137, 466089194, -0.5874893069267273, -1.8830622434616089, -95.13317108154297, 0.08621214, 0.30733654, 0.34118843
138, 466105861, -0.5900959372520447, -1.8901886940002441, -95.13420867919922, 0.09065007, 0.30927777, 0.34318256
139, 466122528, -0.5929576754570007, -1.898829698562622, -95.13697814941406, 0.09626407, 0.30817342, 0.35584068
140, 466139195, -0.5945014357566833, -1.9069011211395264, -95.14073944091797, 0.08901201, 0.3113857, 0.33112717
141, 466155862, -0.5983266830444336, -1.9138834476470947, -95.14092254638672, 0.08301214, 0.30816197, 0.34469128
142, 466172529, -0.6008438467979431, -1.9219354391098022, -95.14151763916016, 0.09415471, 0.3249528, 0.3374462
143, 466189196, -0.6025327444076538, -1.928942084312439, -95.14070129394531, 0.10103248, 0.3112885, 0.3332243
144, 466205863, -0.6049833297729492, -1.9337202310562134, -95.13951110839844, 0.08384791, 0.3173563, 0.3268385
145, 466222530, -0.6067214608192444, -1.9394854307174683, -95.13838958740234, 0.096750304, 0.3157017, 0.3368349
146, 466239197, -0.6092496514320374, -1.9462687969207764, -95.13980102539062, 0.10780895, 0.3191231, 0.35609436
147, 466255864, -0.6114792823791504, -1.9531534910202026, -95.1408920288086, 0.092143424, 0.31368983, 0.34310913
148, 466272531, -0.6133741140365601, -1.9591411352157593, -95.14192962646484, 0.099835746, 0.32699308, 0.32755566
149, 466289198, -0.6157035827636719, -1.964861512184143, -95.14315795898438, 0.08690136, 0.3169568, 0.35249233
150, 466305865, -0.616018533706665, -1.9722418785095215, -95.14250183105469, 0.100404754, 0.32260922, 0.34300327
151, 466322532, -0.6180658340454102, -1.97848379611969, -95.14659118652344, 0.1106511, 0.31516808, 0.33173656
152, 466339199, -0.619858980178833, -1.9824310541152954, -95.14969635009766, 0.09784805, 0.32669425, 0.34884167
153, 466355866, -0.6217346787452698, -1.98856520652771, -95.14668273925781, 0.095728904, 0.32568768, 0.3344078
154, 466372533, -0.6227048635482788, -1.9933768510818481, -95.14543151855469, 0.09881179, 0.3278194, 0.32166958
155, 466389200, -0.6241604089736938, -1.9988267421722412, -95.14774322509766, 0.09695644, 0.33964348, 0.3466568
156, 466405867, -0.6262798309326172, -2.0051207542419434, -95.14991760253906, 0.09467875, 0.3105334, 0.3461628
157, 466422534, -0.6288669109344482, -2.0113251209259033, -95.15125274658203, 0.11715829, 0.31796294, 0.34379768
158, 466439201, -0.63103848695755, -2.0148544311523438, -95.1509017944336, 0.112173714, 0.31928337, 0.35592937
159, 466455868, -0.632891833782196, -2.020656108856201, -95.15267944335938, 0.1016293, 0.3375552, 0.3444357
160, 466472535, -0.6344966292381287, -2.0261125564575195, -95.15345001220703, 0.10870012, 0.34094134, 0.32112885
161, 466489202, -0.6364905834197998, -2.029656410217285, -95.15550994873047, 0.0922498, 0.32582048, 0.34025288
162, 466505869, -0.6381469964981079, -2.035074234008789, -95.15953063964844, 0.10179383, 0.333809, 0.33334732
163, 466522536, -0.6397876143455505, -2.039229393005371, -95.16326141357422, 0.092015825, 0.3382801, 0.32421398
164, 466539203, -0.6410577893257141, -2.0433428287506104, -95.16661834716797, 0.103968404, 0.32886758, 0.34704208
165, 466555870, -0.6418759226799011, -2.0478456020355225, -95.16854095458984, 0.09714277, 0.3341475, 0.36211014
166, 466572537, -0.6429895162582397, -2.0525872707366943, -95.16651916503906, 0.09827858, 0.33105946, 0.32287502
167, 466589204, -0.6450605988502502, -2.057598829269409, -95.16783905029297, 0.10436271, 0.34051457, 0.35639477
168, 466605871, -0.6461971998214722, -2.06178617477417, -95.1715087890625, 0.11027907, 0.32710204, 0.34817982
169, 466622538, -0.6472869515419006, -2.0648066997528076, -95.17498016357422, 0.102100246, 0.3393615, 0.33219814
170, 466639205, -0.6480679512023926, -2.066917657852173, -95.17742156982422, 0.098527595, 0.3442543, 0.32592487
171, 466655872, -0.6489295363426208, -2.069922924041748, -95.17688751220703, 0.10875565, 0.33169895, 0.3206272
172, 466672539, -0.650118887424469, -2.0722529888153076, -95.17967987060547, 0.10065803, 0.33357808, 0.32425308
173, 466689206, -0.6519348621368408, -2.073664426803589, -95.1813735961914, 0.090388454, 0.3579834, 0.34709644
174, 466705873, -0.6536922454833984, -2.076357364654541, -95.18462371826172, 0.10722085, 0.33997607, 0.36314487
175, 466722540, -0.6547773480415344, -2.079163074493408, -95.18604278564453, 0.11263977, 0.34308088, 0.34716606
176, 466739207, -0.6561675667762756, -2.0810437202453613, -95.18515014648438, 0.11565798, 0.32528058, 0.33568287
177, 466755874, -0.6579750776290894, -2.082735061645508, -95.1847152709961, 0.106230244, 0.3451012, 0.349638
178, 466772541, -0.6604000329971313, -2.0843544006347656, -95.18744659423828, 0.10088811, 0.3492598, 0.33397388
179, 466789208, -0.6601358652114868, -2.0863709449768066, -95.18628692626953, 0.092995785, 0.35591176, 0.34881115
180, 466805875, -0.6605981588363647, -2.0882484912872314, -95.19075775146484, 0.10629021, 0.35771856, 0.3360777
181, 466822542, -0.6616061329841614, -2.08872127532959, -95.19415283203125, 0.10762727, 0.34115928, 0.32386208
182, 466839209, -0.6626390814781189, -2.0889482498168945, -95.19683837890625, 0.09839338, 0.3375222, 0.31757736
183, 466855876, -0.6639840602874756, -2.0890228748321533, -95.19762420654297, 0.10940079, 0.33754283, 0.32814217
184, 466872543, -0.6642010807991028, -2.089690685272217, -95.19944763183594, 0.10659757, 0.35947996, 0.36639214
185, 466889210, -0.664768397808075, -2.0926454067230225, -95.2018814086914, 0.102928326, 0.34695733, 0.34799576
186, 466905877, -0.666517436504364, -2.0928943157196045, -95.20661926269531, 0.1126914, 0.34261608, 0.33960629
187, 466922544, -0.6672300100326538, -2.0936968326568604, -95.20887756347656, 0.10241693, 0.34016755, 0.350317
188, 466939211, -0.6687641739845276, -2.096266031265259, -95.21527099609375, 0.115611225, 0.34011513, 0.3430891
189, 466955878, -0.6687230467796326, -2.096672534942627, -95.21987915039062, 0.10835795, 0.34084085, 0.33894348
190, 466972545, -0.669118344783783, -2.0988986492156982, -95.22450256347656, 0.12155432, 0.3483893, 0.32601166
191, 466989212, -0.6695731282234192, -2.098487377166748, -95.22614288330078, 0.10208609, 0.33858022, 0.37539196
192, 467005879, -0.6710233092308044, -2.1003448963165283, -95.22740936279297, 0.11254128, 0.35650286, 0.33191395
193, 467022546, -0.6720873713493347, -2.100937604904175, -95.23200988769531, 0.10970391, 0.34835532, 0.34257603
194, 467039213, -0.6726357936859131, -2.1017258167266846, -95.23175048828125, 0.09829226, 0.3394657, 0.33269978
195, 467055880, -0.6729839444160461, -2.1020772457122803, -95.23484802246094, 0.12448071, 0.34721056, 0.35985088
196, 467072547, -0.6739833950996399, -2.1032323837280273, -95.23536682128906, 0.110641494, 0.34166607, 0.35675526
197, 467089214, -0.675125777721405, -2.105010509490967, -95.23648071289062, 0.09637357, 0.3382788, 0.35514545
198, 467105881, -0.6753994822502136, -2.1053378582000732, -95.24105072021484, 0.10941334, 0.34339777, 0.35505676
199, 467122548, -0.6770561933517456, -2.106703281402588, -95.24284362792969, 0.10959464, 0.35523674, 0.3489275
200, 467139215, -0.6769199371337891, -2.1077237129211426, -95.24470520019531, 0.117831826, 0.34668818, 0.32147217
201, 467155882, -0.6785461902618408, -2.106342315673828, -95.24311065673828, 0.118777424, 0.34620157, 0.34251308
202, 467172549, -0.6810193657875061, -2.106544017791748, -95.2442855834961, 0.1081191, 0.35269266, 0.3706293
203, 467189216, -0.6815952658653259, -2.1073896884918213, -95.24594116210938, 0.11190368, 0.35612184, 0.3378849
204, 467205883, -0.6818997859954834, -2.1068074703216553, -95.24652862548828, 0.110855415, 0.34152326, 0.33959293
205, 467222550, -0.6827849745750427, -2.1065545082092285, -95.24776458740234, 0.10509609, 0.3470316, 0.34828854
206, 467239217, -0.6844270825386047, -2.1061742305755615, -95.24867248535156, 0.11583293, 0.35197487, 0.31686592
207, 467255884, -0.6844338178634644, -2.103599786758423, -95.25043487548828, 0.11520599, 0.33313817, 0.349514
208, 467272551, -0.6850619912147522, -2.103529930114746, -95.25366973876953, 0.11837886, 0.3417591, 0.32212734
209, 467289218, -0.685414731502533, -2.102712631225586, -95.25630187988281, 0.11710556, 0.35540012, 0.33792305
210, 467305885, -0.6865493059158325, -2.1026196479797363, -95.25767517089844, 0.11880539, 0.34250012, 0.32860756
211, 467322552, -0.6868157386779785, -2.1012043952941895, -95.26203918457031, 0.124810986, 0.34349906, 0.32692146
212, 467339219, -0.6863322854042053, -2.1001667976379395, -95.26268768310547, 0.10827772, 0.34429953, 0.3549137
213, 467355886, -0.6866232752799988, -2.1014883518218994, -95.26192474365234, 0.11011892, 0.35505554, 0.35097122
214, 467372553, -0.6874502301216125, -2.101806163787842, -95.26152801513672, 0.11721602, 0.33827525, 0.33568192
215, 467389220, -0.6869951486587524, -2.0992066860198975, -95.26183319091797, 0.12590377, 0.3402271, 0.35080814
216, 467405887, -0.6877123713493347, -2.0979952812194824, -95.26605224609375, 0.10900111, 0.34998995, 0.33645344
217, 467422554, -0.6875798106193542, -2.0954458713531494, -95.2663345336914, 0.10571322, 0.33683398, 0.35218716
218, 467439221, -0.6885441541671753, -2.094989061355591, -95.27054595947266, 0.11683743, 0.3383883, 0.35151863
219, 467455888, -0.6882333755493164, -2.093921422958374, -95.27005004882812, 0.11427429, 0.34489948, 0.35241413
220, 467472555, -0.6879547834396362, -2.0929086208343506, -95.27210235595703, 0.12987989, 0.33598942, 0.35202026
221, 467489222, -0.6882328391075134, -2.0908751487731934, -95.26850891113281, 0.11658889, 0.3236918, 0.3546524
222, 467505889, -0.6885669827461243, -2.0891668796539307, -95.2715835571289, 0.13329276, 0.3464516, 0.3456478
223, 467522556, -0.6883053779602051, -2.086945056915283, -95.27456665039062, 0.118883215, 0.3506085, 0.36495018
224, 467539223, -0.6889718174934387, -2.0844926834106445, -95.2734375, 0.11628839, 0.34164888, 0.33304024
225, 467555890, -0.6895468235015869, -2.081073522567749, -95.28065490722656, 0.11293808, 0.3363372, 0.31472015
226, 467572557, -0.6897056102752686, -2.0766236782073975, -95.28289031982422, 0.11156483, 0.34040436, 0.3380251
227, 467589224, -0.6896840333938599, -2.0722875595092773, -95.28406524658203, 0.11259538, 0.33881193, 0.35746765
228, 467605891, -0.6888828277587891, -2.0709738731384277, -95.28858184814453, 0.12155889, 0.32800725, 0.34854603
229, 467622558, -0.6886504292488098, -2.0687899589538574, -95.28998565673828, 0.1187475, 0.34185848, 0.33557224
230, 467639225, -0.6879573464393616, -2.065178871154785, -95.29456329345703, 0.111243136, 0.32435933, 0.34275055
231, 467655892, -0.6877733469009399, -2.061720132827759, -95.29822540283203, 0.11268083, 0.3384132, 0.3545437
232, 467672559, -0.6880302429199219, -2.0580337047576904, -95.29834747314453, 0.124468885, 0.34349, 0.33856297
233, 467689226, -0.6875918507575989, -2.0543413162231445, -95.30110168457031, 0.10575073, 0.34480757, 0.34592533
234, 467705893, -0.68679279088974, -2.0515899658203125, -95.3023681640625, 0.1252625, 0.33716917, 0.3436079
235, 467722560, -0.6859179139137268, -2.0473906993865967, -95.306640625, 0.12377117, 0.3413273, 0.34931564
236, 467739227, -0.6847236156463623, -2.0441436767578125, -95.31068420410156, 0.12095605, 0.3335097, 0.33514977
237, 467755894, -0.6834923028945923, -2.0404276847839355, -95.31320190429688, 0.116975404, 0.33994314, 0.34214497
238, 467772561, -0.6834235191345215, -2.0356147289276123, -95.31365203857422, 0.11858489, 0.3274846, 0.34133816
239, 467789228, -0.682626485824585, -2.03071928024292, -95.31746673583984, 0.106578425, 0.33189225, 0.35002518
240, 467805895, -0.20270243287086487, -0.07379046827554703, -95.58094024658203, 0.0016056595, -0.0059023923, 0.33136272
241, 467822562, -0.20370502769947052, -0.07262196391820908, -95.581787109375, 7.4291736E-4, 0.003868213, 0.35844898
242, 467839229, -0.20339614152908325, -0.07248436659574509, -95.58147430419922, -0.0016886408, 0.0013568773, 0.35652924
243, 467855896, -0.20306022465229034, -0.0716363862156868, -95.58092498779297, -0.008714947, -0.0020484945, 0.33391666
244, 467872563, -0.20330844819545746, -0.07114091515541077, -95.5819091796875, -0.0093214465, -0.01026911, 0.35130882
245, 467889230, -0.2025110274553299, -0.07095303386449814, -95.58155822753906, -4.4010094E-4, 0.006497598, 0.3447008
246, 467905897, -0.20317494869232178, -0.0695108100771904, -95.58196258544922, -0.016670465, -0.006470977, 0.37337685
247, 467922564, -0.20294533669948578, -0.07031746208667755, -95.58231353759766, 0.0019346456, 0.0052865106, 0.34427452
248, 467939231, -0.20487461984157562, -0.06899917125701904, -95.58126068115234, 1.6677908E-5, -0.021317678, 0.31610107
249, 467955898, -0.20512060821056366, -0.06875450909137726, -95.58283996582031, -0.0031868329, -0.001735338, 0.3463564
250, 467972565, -0.20532040297985077, -0.06817903369665146, -95.58203125, -0.005541173, -0.0036845317, 0.3492489
251, 467989232, -0.20639829337596893, -0.06791450083255768, -95.58323669433594, -0.012136127, 0.0012473813, 0.35980797
252, 468005899, -0.2066085934638977, -0.06775344163179398, -95.58283996582031, 0.0077533075, -0.021561053, 0.36404896
253, 468022566, -0.20696552097797394, -0.06747500598430634, -95.58244323730469, 7.30116E-4, -0.0102173425, 0.33572006
254, 468039233, -0.20747986435890198, -0.06893946975469589, -95.58283996582031, 0.004223794, -0.014179829, 0.34292603
255, 468055900, -0.20828670263290405, -0.06886988878250122, -95.58317565917969, -0.005599818, -0.0068699145, 0.36453342
256, 468072567, -0.20850692689418793, -0.06867654621601105, -95.5834732055664, -0.010001061, -0.021552129, 0.35337448
257, 468089234, -0.20882397890090942, -0.06945047527551651, -95.58110809326172, -0.005576223, -0.004603549, 0.3615389
258, 468105901, -0.2097681760787964, -0.06963375955820084, -95.58135986328125, 0.015140202, -0.002367087, 0.35641193
259, 468122568, -0.2098999172449112, -0.06925763934850693, -95.58187103271484, -0.00809844, -0.0033759503, 0.33921242
260, 468139235, -0.2102215588092804, -0.0691060870885849, -95.58209228515625, -8.7143993E-4, -0.0024546105, 0.36511135
261, 468155902, -0.2104215919971466, -0.06981557607650757, -95.58354187011719, -0.0035979347, 2.0632865E-4, 0.35153103
262, 468172569, -0.2095911204814911, -0.06997518986463547, -95.58490753173828, -0.0042234072, -0.008265775, 0.34614182
263, 468189236, -0.20975472033023834, -0.06953390687704086, -95.58574676513672, -1.492953E-4, 0.009325092, 0.35906982
264, 468205903, -0.21115146577358246, -0.06743455678224564, -95.58361053466797, -0.0031178177, -0.0044956813, 0.37275887
265, 468222570, -0.21187059581279755, -0.06697967648506165, -95.58330535888672, -0.0020076712, -0.0060453094, 0.34243298
266, 468239237, -0.21180002391338348, -0.06600330770015717, -95.5831527709961, -0.011927461, -0.0053903544, 0.3431282
267, 468255904, -0.2113465666770935, -0.06551320850849152, -95.58446502685547, 0.0031267493, 0.0018062309, 0.3423605
268, 468272571, -0.21023696660995483, -0.06516485661268234, -95.5846939086914, -0.005510183, -0.006940487, 0.35489082
269, 468289238, -0.2104288786649704, -0.0656948909163475, -95.58464050292969, 0.0011318355, 0.0036354444, 0.34880924
270, 468305905, -0.21147465705871582, -0.06455571204423904, -95.58357238769531, -0.015102039, -0.0031125506, 0.35493565
271, 468322572, -0.21117231249809265, -0.06387549638748169, -95.58358001708984, -0.0056812456, -0.009538357, 0.36332703
272, 468339239, -0.21051755547523499, -0.06492410600185394, -95.58499145507812, -0.0058725197, -0.0066726054, 0.3661251
273, 468355906, -0.2113569974899292, -0.06522361934185028, -95.58528900146484, -0.002482015, -0.015265277, 0.3651743
274, 468372573, -0.2123347669839859, -0.06451766192913055, -95.5858383178711, 0.0018827033, -0.019154431, 0.3475952
275, 468389240, -0.21163754165172577, -0.06542214006185532, -95.58493041992188, 0.004492527, -0.003983398, 0.36095142
276, 468405907, -0.2110746055841446, -0.06564312428236008, -95.58511352539062, -0.0072570457, 3.264267E-4, 0.3469925
277, 468422574, -0.21065537631511688, -0.06610864400863647, -95.58586120605469, 0.0015457108, 0.0077417833, 0.33898067
278, 468439241, -0.21019333600997925, -0.0662306398153305, -95.58582305908203, -0.0028475637, 0.008606586, 0.35801888
279, 468455908, -0.20998190343379974, -0.06616079807281494, -95.58690643310547, -0.002800747, -0.012699744, 0.3531828
280, 468472575, -0.2098095566034317, -0.0649154782295227, -95.58892059326172, 0.0024156861, -0.00950894, 0.3545456
281, 468489242, -0.20894967019557953, -0.06493716686964035, -95.59011840820312, 0.0018583487, -0.01612499, 0.36508656
282, 468505909, -0.2083320915699005, -0.06340847909450531, -95.58952331542969, -0.0025658982, -0.010614705, 0.3704672
283, 468522576, -0.20762431621551514, -0.0637289360165596, -95.5884780883789, -0.013383825, -0.0018270997, 0.34076405
284, 468539243, -0.20832203328609467, -0.06392490118741989, -95.58911895751953, 0.0073456266, -0.0041215797, 0.35482407
285, 468555910, -0.20942391455173492, -0.0628296509385109, -95.58950805664062, 0.0013143029, -0.0032778734, 0.3696289
286, 468572577, -0.2102297991514206, -0.061610814183950424, -95.58918762207031, -0.008029724, -0.0012359149, 0.33376598
287, 468589244, -0.2108476310968399, -0.0617707185447216, -95.58878326416016, 0.002769577, -0.008865157, 0.3357668
288, 468605911, -0.21077285706996918, -0.06137552857398987, -95.59097290039062, 0.0022190588, -0.020019388, 0.3649826
289, 468622578, -0.2112817019224167, -0.06105628237128258, -95.59266662597656, -0.0017505334, -0.01953683, 0.34965897
290, 468639245, -0.21073439717292786, -0.06027192994952202, -95.5923843383789, 0.0030019225, -0.010365774, 0.3588009
291, 468655912, -0.21250630915164948, -0.0613483265042305, -95.59341430664062, -0.008418234, 0.0028050526, 0.33468533
292, 468672579, -0.21246930956840515, -0.061645958572626114, -95.59529876708984, -2.753457E-4, -0.019984115, 0.32353783
293, 468689246, -0.21227040886878967, -0.06079544872045517, -95.59529876708984, -0.008357188, -0.0027831965, 0.33298016
294, 468705913, -0.21390415728092194, -0.059938471764326096, -95.59661865234375, 0.006229343, 0.0067093605, 0.36131668
295, 468722580, -0.21376435458660126, -0.05859475955367088, -95.59671020507812, -0.01115924, -0.02069579, 0.3492012
296, 468739247, -0.21404670178890228, -0.05898541584610939, -95.59683227539062, 0.006699905, 0.008059725, 0.33928585
297, 468755914, -0.2134476602077484, -0.059044431895017624, -95.59663391113281, 0.006652441, 1.2924375E-4, 0.3651991
298, 468772581, -0.21322762966156006, -0.05924934893846512, -95.59668731689453, 0.0026867532, -0.0023634802, 0.3443823
299, 468789248, -0.21299457550048828, -0.0584123320877552, -95.59654235839844, 0.005052917, -0.011670859, 0.36278534
300, 468805915, -0.21373845636844635, -0.05718433856964111, -95.59590911865234, -0.0042993627, -0.0115238, 0.35316467
301, 468822582, -0.21403095126152039, -0.05712553486227989, -95.59598541259766, 0.011240173, -0.008351406, 0.35128498
302, 468839249, -0.21451525390148163, -0.0554199293255806, -95.59615325927734, -0.00669725, -0.0077431393, 0.33706188
303, 468855916, -0.21423277258872986, -0.05614779144525528, -95.59685516357422, -0.006024414, -0.004717273, 0.3444023
304, 468872583, -0.21483932435512543, -0.05485308915376663, -95.59562683105469, 0.0033393437, -0.012825942, 0.35395145
305, 468889250, -0.2143072932958603, -0.05428727716207504, -95.59471130371094, 0.004062647, 0.0071015563, 0.34429646
306, 468905917, -0.21409814059734344, -0.054639749228954315, -95.595703125, 0.007841506, -0.02711304, 0.36516857
307, 468922584, -0.21482649445533752, -0.05404238775372505, -95.59559631347656, 0.012012109, -0.023300124, 0.36164474
308, 468939251, -0.21618036925792694, -0.05366675555706024, -95.5954360961914, -0.0028422126, -0.008301728, 0.35216045
309, 468955918, -0.21627196669578552, -0.053392961621284485, -95.59579467773438, 0.008353645, -0.006452811, 0.34277916
310, 468972585, -0.21484334766864777, -0.054050665348768234, -95.59666442871094, 0.017502116, -0.005795463, 0.33849335
311, 468989252, -0.21569496393203735, -0.05382150039076805, -95.59623718261719, 0.015483616, -0.0043633482, 0.3500023
312, 469005919, -0.21595048904418945, -0.05183669924736023, -95.59590911865234, -8.916508E-4, 0.0065454687, 0.35976887
313, 469022586, -0.2155957669019699, -0.05268121883273125, -95.59503173828125, -0.0034138425, -3.7646393E-4, 0.35713577
314, 469039253, -0.21554219722747803, -0.052438367158174515, -95.59652709960938, -0.008952223, -0.015785333, 0.34897518
315, 469055920, -0.21438521146774292, -0.05297820270061493, -95.59783935546875, -0.0054191197, -0.008248853, 0.34368992
316, 469072587, -0.21475541591644287, -0.052718501538038254, -95.5989990234375, 0.016181916, -0.0040528206, 0.36784363
317, 469089254, -0.2161208689212799, -0.053731441497802734, -95.59835815429688, -0.002609334, -0.0022031881, 0.34006405
318, 469105921, -0.2171134650707245, -0.055486515164375305, -95.5987319946289, 0.0029436874, 0.006238978, 0.36216164
319, 469122588, -0.2164919525384903, -0.0543924942612648, -95.59860229492188, -0.0027702223, -0.010399448, 0.3419342
320, 469139255, -0.21578384935855865, -0.05290776491165161, -95.59900665283203, 0.008745641, -0.003807324, 0.3529787
321, 469155922, -0.21682150661945343, -0.05320548266172409, -95.59908294677734, 0.0028721874, -6.6945096E-4, 0.37868404
322, 469172589, -0.21634729206562042, -0.054019615054130554, -95.59911346435547, 0.0068685976, -0.0064243856, 0.35756207
323, 469189256, -0.21528474986553192, -0.053391341120004654, -95.59980773925781, -0.009840151, -0.011165147, 0.3708105
324, 469205923, -0.21662229299545288, -0.05314012989401817, -95.60021209716797, 0.005073551, 0.0052617653, 0.34981441
325, 469222590, -0.21630170941352844, -0.053775589913129807, -95.60018157958984, 3.26583E-4, -0.005030118, 0.34927082
326, 469239257, -0.21630889177322388, -0.05299318581819534, -95.60105895996094, 0.007624569, -1.9221677E-4, 0.3529272
327, 469255924, -0.2171945422887802, -0.053643129765987396, -95.60015106201172, -0.0024184773, 0.0015424821, 0.3704214
328, 469272591, -0.21692101657390594, -0.05416998267173767, -95.60169982910156, -0.0024918779, -0.011548936, 0.3297205
329, 469289258, -0.21669761836528778, -0.054101839661598206, -95.60259246826172, 0.0026258302, 0.006761461, 0.33529758
330, 469305925, -0.21767501533031464, -0.05356161668896675, -95.6028060913086, -0.013963234, -0.0052501876, 0.34897614
331, 469322592, -0.2174941450357437, -0.053272198885679245, -95.6026382446289, -0.001532535, -0.014294108, 0.34596443
332, 469339259, -0.21753226220607758, -0.0526016540825367, -95.60189056396484, 0.0095701665, -0.010321509, 0.35746765
333, 469355926, -0.2175276130437851, -0.05172106996178627, -95.60221099853516, 0.0036774054, -0.0028382626, 0.34521866
334, 469372593, -0.21751776337623596, -0.051919251680374146, -95.60257720947266, 0.006701547, -0.009541756, 0.34786892
335, 469389260, -0.2179945409297943, -0.05311945080757141, -95.60292053222656, 8.867344E-4, -0.0147668235, 0.3572836
336, 469405927, -0.21796798706054688, -0.05390489101409912, -95.60295867919922, 0.006979447, -0.0057156035, 0.3476801
337, 469422594, -0.21789853274822235, -0.05286349356174469, -95.60218811035156, 0.0018047702, -0.0109668635, 0.3492298
338, 469439261, -0.21820136904716492, -0.052883222699165344, -95.60154724121094, -0.0018493924, -0.014537813, 0.37648582
339, 469455928, -0.2190767377614975, -0.052873898297548294, -95.60161590576172, 0.010283034, -0.006735522, 0.33171368
340, 469472595, -0.21899989247322083, -0.05348862707614899, -95.60247039794922, 0.0022074943, -0.0036896088, 0.3383808
341, 469489262, -0.21869336068630219, -0.05440600961446762, -95.60292053222656, -0.0018512364, -0.0053098775, 0.34173393
342, 469505929, -0.21849314868450165, -0.05462042987346649, -95.60380554199219, 0.010063297, -4.5933572E-4, 0.34029102
343, 469522596, -0.21888236701488495, -0.053878650069236755, -95.60401153564453, -0.00611277, 0.004195319, 0.35552406
344, 469539263, -0.22040680050849915, -0.0537412203848362, -95.604736328125, -0.0015445837, -0.009458736, 0.35817719
345, 469555930, -0.2208961546421051, -0.053473424166440964, -95.60515594482422, 0.007291106, -0.004556248, 0.3371153
346, 469572597, -0.22083160281181335, -0.05415165796875954, -95.60523986816406, -0.0030029183, -0.016005173, 0.32949638
347, 469589264, -0.2199839949607849, -0.05452192574739456, -95.60501098632812, -0.012842719, -0.012725733, 0.3344202
348, 469605931, -0.22015884518623352, -0.05444728955626488, -95.6052474975586, -0.0030373288, -0.0070984457, 0.35115147
349, 469622598, -0.2196761816740036, -0.05460277572274208, -95.60712432861328, -0.006109051, -7.2376116E-4, 0.35714626
350, 469639265, -0.21937453746795654, -0.05590306594967842, -95.60819244384766, 0.010770601, -0.0057055578, 0.37993813
351, 469655932, -0.2188340276479721, -0.05626605823636055, -95.60777282714844, 0.013703876, -4.506318E-5, 0.36753178
352, 469672599, -0.21840859949588776, -0.054764602333307266, -95.60697174072266, -0.009060352, -0.001609289, 0.34472942
353, 469689266, -0.2172994762659073, -0.052479177713394165, -95.6075210571289, -0.0088380985, -0.013654754, 0.35036087
354, 469705933, -0.2163507491350174, -0.05192422494292259, -95.6072998046875, -0.010565641, -0.010529732, 0.325737
355, 469722600, -0.2163265347480774, -0.0517750047147274, -95.60633850097656, -0.0033190993, 5.91548E-4, 0.34712887
356, 469739267, -0.21709699928760529, -0.05195905268192291, -95.60623931884766, 0.002342432, -8.275576E-4, 0.34764767
357, 469755934, -0.2171526849269867, -0.051994312554597855, -95.60738372802734, 0.0018165361, -0.014152871, 0.31695557
358, 469772601, -0.21736955642700195, -0.0520043782889843, -95.60834503173828, 0.0137700895, -0.012775535, 0.33315468
359, 469789268, -0.21798068284988403, -0.052212752401828766, -95.60847473144531, -0.011679392, -0.012247318, 0.34893894
360, 469805935, -0.20446431636810303, -0.07842240482568741, -95.6075439453125, -0.013057252, -0.0014639505, 0.36850834
361, 469822602, -0.20540018379688263, -0.07826327532529831, -95.60794830322266, -0.01570742, -0.014780265, 0.36456966
362, 469839269, -0.20595382153987885, -0.07849328219890594, -95.60723876953125, -0.01993816, -0.0063187433, 0.35951805
363, 469855936, -0.20605351030826569, -0.07815761864185333, -95.60865783691406, -0.014188779, 3.917178E-4, 0.36753082
364, 469872603, -0.20661252737045288, -0.07894755899906158, -95.60868072509766, -0.019162448, -0.0020088044, 0.36111736
365, 469889270, -0.20699366927146912, -0.07816427201032639, -95.607421875, -6.218842E-4, -0.009461806, 0.3675022
366, 469905937, -0.20630615949630737, -0.07843849062919617, -95.6070785522461, 0.0017839028, -0.0011960955, 0.33057404
367, 469922604, -0.20578515529632568, -0.07814524322748184, -95.60640716552734, -0.008509919, 0.0022517699, 0.36142063
368, 469939271, -0.20561999082565308, -0.07766105234622955, -95.60680389404297, -0.008242758, -0.015303234, 0.3494177
369, 469955938, -0.20525741577148438, -0.07819098979234695, -95.60790252685547, -0.0025544274, -0.004951894, 0.35473824
370, 469972605, -0.20465196669101715, -0.07904978841543198, -95.60812377929688, 0.009728622, 0.00577892, 0.3377638
371, 469989272, -0.2049654722213745, -0.07825720310211182, -95.6087875366211, -0.011408486, 0.00837241, 0.36272812
372, 470005939, -0.20591901242733002, -0.07877852767705917, -95.60841369628906, 5.75514E-4, 0.008983468, 0.34948158
373, 470022606, -0.20590482652187347, -0.07884855568408966, -95.60816192626953, -0.0014175798, 0.006809817, 0.34096813
374, 470039273, -0.20491501688957214, -0.07961750030517578, -95.6083984375, -0.0018339242, -0.010923491, 0.3493395
375, 470055940, -0.20488430559635162, -0.07967007160186768, -95.6083755493164, 0.0021366512, -0.0085493, 0.34156895
376, 470072607, -0.2054094523191452, -0.0798286721110344, -95.60989379882812, -0.0063548656, 0.0100280205, 0.35226727
377, 470089274, -0.20528998970985413, -0.08045028895139694, -95.61054229736328, 0.0036913047, 0.018408729, 0.34680843
378, 470105941, -0.20470668375492096, -0.08043913543224335, -95.61006927490234, -0.008165932, 0.007861843, 0.34738064
379, 470122608, -0.20416095852851868, -0.07891230285167694, -95.60894775390625, -0.011077459, -0.0038956928, 0.3674898
380, 470139275, -0.20524275302886963, -0.07908768951892853, -95.60872650146484, -0.01420667, -0.016562995, 0.36006927
381, 470155942, -0.20467372238636017, -0.07985594123601913, -95.60835266113281, 0.001225894, -0.013292447, 0.36054516
382, 470172609, -0.20438015460968018, -0.07998598366975784, -95.6081771850586, 0.0018758461, 0.00772321, 0.36832047
383, 470189276, -0.20385155081748962, -0.07980236411094666, -95.60944366455078, -0.003886609, -0.0050788904, 0.34615612
384, 470205943, -0.20321446657180786, -0.08061475306749344, -95.61036682128906, -0.0039532958, 0.0017360051, 0.35350323
385, 470222610, -0.20389194786548615, -0.08000663667917252, -95.60901641845703, -0.010152151, -0.009366192, 0.33954716
386, 470239277, -0.20465408265590668, -0.07893780618906021, -95.61038208007812, -0.002061428, -6.556482E-4, 0.35834408
387, 470255944, -0.20474335551261902, -0.07816144078969955, -95.61050415039062, -0.0033938512, -0.009335475, 0.33509445
388, 470272611, -0.20482046902179718, -0.07735215872526169, -95.61056518554688, -0.009524246, -2.3257047E-4, 0.35673237
389, 470289278, -0.20502029359340668, -0.07707176357507706, -95.61114501953125, -0.007042918, 0.004644375, 0.34914207
390, 470305945, -0.20434002578258514, -0.07848887145519257, -95.61131286621094, -0.0033369518, 0.0016683015, 0.34387398
391, 470322612, -0.20455266535282135, -0.07789713144302368, -95.61053466796875, -0.025085492, -0.0040485356, 0.36268616
392, 470339279, -0.20473219454288483, -0.07835865765810013, -95.61058044433594, 0.002827269, -0.0048523876, 0.35679626
393, 470355946, -0.2037694901227951, -0.07878465950489044, -95.60989379882812, -0.0024745294, -0.008692103, 0.35041618
394, 470372613, -0.2030961960554123, -0.07834049314260483, -95.61041259765625, -1.2838026E-4, -0.0067889066, 0.35203457
395, 470389280, -0.20339636504650116, -0.0788717195391655, -95.61164093017578, -0.0031744572, 0.003614406, 0.33321285
396, 470405947, -0.20418402552604675, -0.08060359209775925, -95.61224365234375, -0.017557358, -9.200727E-4, 0.36089897
397, 470422614, -0.20465408265590668, -0.08050563186407089, -95.61276245117188, 0.00130164, -0.0020498652, 0.34088135
398, 470439281, -0.20455580949783325, -0.07986272126436234, -95.61292266845703, -0.0040695304, 1.5738019E-4, 0.34645748
399, 470455948, -0.20458924770355225, -0.07916216552257538, -95.61211395263672, 0.0046502645, -0.01127645, 0.36066246
400, 470472615, -0.20462572574615479, -0.07918120175600052, -95.61309814453125, 0.003186564, -0.0027170943, 0.36467552
401, 470489282, -0.20456120371818542, -0.07977449148893356, -95.61273956298828, 0.0014367923, 0.0033188234, 0.36987686
402, 470505949, -0.2046435922384262, -0.0806436687707901, -95.61381530761719, -0.002286821, 0.008725367, 0.3650055
403, 470522616, -0.20433014631271362, -0.08098059892654419, -95.61526489257812, -0.001328396, -0.0079803355, 0.3425579
404, 470539283, -0.20449066162109375, -0.08115746080875397, -95.61418151855469, -0.004815968, -0.012191027, 0.355793
405, 470555950, -0.20460113883018494, -0.08131591230630875, -95.61344146728516, -0.0024753483, 0.010764601, 0.34412956
406, 470572617, -0.20400452613830566, -0.08082538098096848, -95.61294555664062, 0.0071713882, 0.0017012322, 0.3560915
407, 470589284, -0.20262159407138824, -0.0814218670129776, -95.61324310302734, 0.007697465, -0.005193148, 0.33869743
408, 470605951, -0.20203451812267303, -0.08234968036413193, -95.61356353759766, 0.01393711, 0.006790638, 0.36403847
409, 470622618, -0.20128436386585236, -0.08186914771795273, -95.61441802978516, 8.9679507E-4, 8.7256666E-4, 0.36227322
410, 470639285, -0.2011955976486206, -0.08177396655082703, -95.61397552490234, 0.0060594445, -0.00772749, 0.33192635
411, 470655952, -0.2010543793439865, -0.08157132565975189, -95.61465454101562, 0.008314259, -0.004277445, 0.32828045
412, 470672619, -0.20179857313632965, -0.08171121776103973, -95.61380767822266, -0.008088986, 8.856535E-4, 0.32828808
413, 470689286, -0.20171327888965607, -0.0828491598367691, -95.61465454101562, -0.012372573, 4.815133E-6, 0.3579378
414, 470705953, -0.20252589881420135, -0.0824863463640213, -95.61396026611328, -0.010099428, -0.0023381917, 0.3295107
415, 470722620, -0.20281492173671722, -0.08339573442935944, -95.6131820678711, -0.001056121, 0.0011865675, 0.34047127
416, 470739287, -0.2032012939453125, -0.08346113562583923, -95.61361694335938, -0.0057223127, 0.016024789, 0.33170414
417, 470755954, -0.20399421453475952, -0.08486324548721313, -95.61399841308594, -0.0067379754, 0.004929772, 0.34752083
418, 470772621, -0.20389196276664734, -0.08642549812793732, -95.61466217041016, 0.0051791077, 8.588721E-4, 0.3318634
419, 470789288, -0.20458000898361206, -0.08638744801282883, -95.61444854736328, 0.0046952376, 0.009112616, 0.3354187
420, 470805955, -0.20411238074302673, -0.08597368746995926, -95.61431884765625, -0.0024087606, 0.0040339855, 0.3474388
421, 470822622, -0.2047041803598404, -0.0864274799823761, -95.61497497558594, 0.007206605, -0.00743678, 0.3462963
422, 470839289, -0.20541320741176605, -0.08627063781023026, -95.61390686035156, 0.013736695, -0.014348595, 0.3432684
423, 470855956, -0.20594824850559235, -0.08663129806518555, -95.61358642578125, -0.00555933, -0.0038505371, 0.33918
424, 470872623, -0.20683741569519043, -0.08539295196533203, -95.61392974853516, 0.010614106, 0.009431586, 0.34806728
425, 470889290, -0.2055833786725998, -0.08495942503213882, -95.61417388916016, 0.0022072948, 0.015568236, 0.36747932
426, 470905957, -0.20574596524238586, -0.08652623742818832, -95.61406707763672, 0.007474455, -6.9424E-4, 0.34356976
427, 470922624, -0.20544295012950897, -0.08524994552135468, -95.6145248413086, -0.00899326, 0.0015677767, 0.3658142
428, 470939291, -0.205400750041008, -0.08467213064432144, -95.61346435546875, 0.0011893439, -0.0019880133, 0.32593918
429, 470955958, -0.20507416129112244, -0.08519196510314941, -95.6127700805664, -0.00576632, 0.0041782414, 0.36550522
430, 470972625, -0.2043510377407074, -0.08573296666145325, -95.61412811279297, 0.0011493997, 0.0014476655, 0.35908413
431, 470989292, -0.20297415554523468, -0.08676145225763321, -95.61479949951172, 6.3356623E-4, 0.0047177714, 0.3569355
432, 471005959, -0.2028777152299881, -0.08683299273252487, -95.61446380615234, 0.009062058, 6.7278446E-4, 0.3402834
433, 471022626, -0.20107392966747284, -0.08571188151836395, -95.6153793334961, 0.003873802, -0.0062043495, 0.35147762
434, 471039293, -0.20082373917102814, -0.08574352413415909, -95.615478515625, -0.008195391, -0.0024550557, 0.33654022
435, 471055960, -0.2004973441362381, -0.08570627123117447, -95.61519622802734, 0.013858867, -0.0072248545, 0.37342453
436, 471072627, -0.20072518289089203, -0.08498173952102661, -95.61434936523438, -0.0169459, -5.134695E-4, 0.3604412
437, 471089294, -0.20041485130786896, -0.08560770004987717, -95.61553192138672, -0.002056107, -0.0101012075, 0.35894108
438, 471105961, -0.20082484185695648, -0.08551326394081116, -95.61627197265625, -0.0033545012, -0.007697087, 0.36440372
439, 471122628, -0.20113727450370789, -0.0849030390381813, -95.61717224121094, -0.0068278904, 0.007932636, 0.3576069
440, 471139295, -0.20159202814102173, -0.08437055349349976, -95.61784362792969, -0.0069726417, 0.009295084, 0.33912754
441, 471155962, -0.20165957510471344, -0.084676094353199, -95.6192398071289, -0.0020868012, -0.009208373, 0.34888077
442, 471172629, -0.20151427388191223, -0.08619251102209091, -95.61968994140625, -0.0019073399, -0.002560651, 0.3627119
443, 471189296, -0.20058967173099518, -0.08585715293884277, -95.62055969238281, -0.0016434414, -0.012420824, 0.36247158
444, 471205963, -0.20025554299354553, -0.08661248534917831, -95.62005615234375, -0.0025700794, -0.004176176, 0.3494854
445, 471222630, -0.19976086914539337, -0.08632924407720566, -95.61983489990234, -0.005217656, -0.001651587, 0.37257862
446, 471239297, -0.19951334595680237, -0.08411575108766556, -95.61956787109375, -0.007564361, 9.50577E-4, 0.36271286
447, 471255964, -0.19908036291599274, -0.0833127349615097, -95.61990356445312, -0.010249667, -0.015244977, 0.35908985
448, 471272631, -0.199446439743042, -0.08410172909498215, -95.61912536621094, -0.005755674, -0.0032156599, 0.35978985
449, 471289298, -0.19956012070178986, -0.08480391651391983, -95.61935424804688, 0.004817591, -0.010512158, 0.34942436
450, 471305965, -0.19902902841567993, -0.08499383181333542, -95.61897277832031, -0.001044249, -0.0057067904, 0.36436844
451, 471322632, -0.1998547464609146, -0.08527866005897522, -95.61849975585938, 0.0020823763, 0.0038904937, 0.33731365
452, 471339299, -0.1994647979736328, -0.08544973284006119, -95.61859893798828, -0.0093697645, -0.0051261135, 0.35472107
453, 471355966, -0.19954024255275726, -0.08501005172729492, -95.61804962158203, 0.011327716, -0.002213021, 0.33760357
454, 471372633, -0.19990186393260956, -0.08384952694177628, -95.61845397949219, 0.0067893723, -0.0051401337, 0.36885738
455, 471389300, -0.1988309919834137, -0.08522215485572815, -95.6192398071289, -0.010495369, -0.010167612, 0.37682343
456, 471405967, -0.19870135188102722, -0.085332490503788, -95.619873046875, -0.0122457845, 0.0013593988, 0.3444662
457, 471422634, -0.1973726600408554, -0.08595522493124008, -95.61959075927734, 0.010666728, -0.0012174044, 0.360919
458, 471439301, -0.19696977734565735, -0.08608881384134293, -95.61955261230469, -0.013496493, -0.0068603302, 0.35407734
459, 471455968, -0.19777755439281464, -0.085629902780056, -95.62059020996094, 0.0020585277, 0.008139972, 0.33417892
460, 471472635, -0.19784991443157196, -0.08540124446153641, -95.62114715576172, -2.5282285E-4, -0.012353796, 0.35181904
461, 471489302, -0.19787096977233887, -0.0863962396979332, -95.62156677246094, 0.017849227, -0.0013859863, 0.36682987
462, 471505969, -0.196448415517807, -0.0878155454993248, -95.62102508544922, 0.0026905052, -0.005552065, 0.34795952
463, 471522636, -0.19654390215873718, -0.08788477629423141, -95.62102508544922, 0.008668178, -0.0029644768, 0.351161
464, 471539303, -0.19651974737644196, -0.08831683546304703, -95.62223052978516, 0.007080847, -0.0038686853, 0.35673904
465, 471555970, -0.19753777980804443, -0.08838047832250595, -95.62149810791016, -0.010064059, -0.0039648097, 0.3711443
466, 471572637, -0.19754138588905334, -0.08964703232049942, -95.62104797363281, -0.010784161, 9.167655E-4, 0.34241486
467, 471589304, -0.1982700079679489, -0.09008738398551941, -95.62100219726562, 0.003037755, 0.004034832, 0.33690453
468, 471605971, -0.19812561571598053, -0.09032680094242096, -95.62052154541016, 0.002632805, 0.0105597805, 0.3797598
469, 471622638, -0.19791164994239807, -0.08999253064393997, -95.6204605102539, -0.012337835, 7.1923154E-5, 0.35135555
470, 471639305, -0.19746646285057068, -0.09035203605890274, -95.62128448486328, 0.0046945405, -0.0040056542, 0.33168697
471, 471655972, -0.1972489058971405, -0.09056488424539566, -95.6192626953125, -0.003828165, -0.012514292, 0.33207607
472, 471672639, -0.1971515417098999, -0.09028144180774689, -95.61959075927734, 0.0010485469, 3.8306453E-4, 0.34100342
473, 471689306, -0.19707293808460236, -0.08935286849737167, -95.61994171142578, -0.005554793, -0.0011448866, 0.32034492
474, 471705973, -0.1982065886259079, -0.09044744819402695, -95.62039184570312, -0.0029186278, -0.0010970618, 0.33084774
475, 471722640, -0.19848492741584778, -0.0914786159992218, -95.62042999267578, -0.0018154534, -8.026944E-4, 0.35551453
476, 471739307, -0.19853244721889496, -0.09290517866611481, -95.62127685546875, 0.0036984205, -0.008338798, 0.363842
477, 471755974, -0.2000500112771988, -0.09306691586971283, -95.62071228027344, -2.553867E-4, 0.017148592, 0.32696533
478, 471772641, -0.2005719393491745, -0.09442827850580215, -95.62085723876953, -6.812147E-4, -6.840195E-5, 0.34943104
479, 471789308, -0.200278177857399, -0.09506905823945999, -95.62130737304688, -0.0039852466, 0.010212109, 0.3383236
480, 471805975, -0.20564983785152435, -0.07456182688474655, -95.62671661376953, -0.0042102397, -0.0023057475, 0.3688097
481, 471822642, -0.205599844455719, -0.07372180372476578, -95.62724304199219, -6.894397E-4, -1.8306497E-4, 0.34682083
482, 471839309, -0.20585836470127106, -0.0734914243221283, -95.62711334228516, -0.006194565, 5.624791E-4, 0.34189606
483, 471855976, -0.20651227235794067, -0.07495305687189102, -95.62726593017578, -0.0071338313, -1.4217694E-4, 0.34301186
484, 471872643, -0.2068599909543991, -0.07441447675228119, -95.62678527832031, 0.003222379, -0.008787953, 0.34750748
485, 471889310, -0.2068367302417755, -0.07577396184206009, -95.62874603271484, -0.004221676, -0.008942916, 0.35692406
486, 471905977, -0.20773029327392578, -0.07591724395751953, -95.62818908691406, -0.01153431, -0.012651803, 0.3539915
487, 471922644, -0.20716388523578644, -0.07528073340654373, -95.6290512084961, -0.0017954913, 0.002852007, 0.36832237
488, 471939311, -0.20665977895259857, -0.07440024614334106, -95.63040924072266, -0.014168312, 4.5135384E-4, 0.3445301
489, 471955978, -0.20704510807991028, -0.07390828430652618, -95.63157653808594, -0.010009916, -0.009232493, 0.3383808
490, 471972645, -0.2062561810016632, -0.07227395474910736, -95.63106536865234, 0.0014217733, 0.00931089, 0.34453583
491, 471989312, -0.20660391449928284, -0.07188329845666885, -95.63215637207031, -4.4650162E-4, -0.0051323795, 0.36894226
492, 472005979, -0.20734049379825592, -0.07286398857831955, -95.63175964355469, -0.010795178, 1.4177967E-4, 0.3573475
493, 472022646, -0.20707662403583527, -0.07347981631755829, -95.63275146484375, -0.012267127, -0.005372183, 0.33077812
494, 472039313, -0.20686644315719604, -0.07354816794395447, -95.63349914550781, 0.002162225, 0.0067915106, 0.35399532
495, 472055980, -0.20616412162780762, -0.07260757684707642, -95.63426208496094, -0.016416458, -0.009532801, 0.36254025
496, 472072647, -0.20780661702156067, -0.07234389334917068, -95.63298797607422, 0.01583087, 0.008217238, 0.33786678
497, 472089314, -0.20859000086784363, -0.07174810767173767, -95.63375091552734, -0.009325346, 0.00376775, 0.3619957
498, 472105981, -0.20884297788143158, -0.07126543670892715, -95.63447570800781, -0.0067026163, 4.928347E-4, 0.37660503
499, 472122648, -0.2083268165588379, -0.07107847183942795, -95.63399505615234, 0.0024885086, 0.0034382509, 0.31599712
500, 472139315, -0.20799490809440613, -0.07258875668048859, -95.6347427368164, 0.0034941288, -0.008498732, 0.33365917
501, 472155982, -0.20872023701667786, -0.07262175530195236, -95.63452911376953, -0.0018382199, -1.5794334E-5, 0.34326267
502, 472172649, -0.20936642587184906, -0.07437605410814285, -95.6357421875, 0.012784962, -0.00546677, 0.34027863
503, 472189316, -0.20865625143051147, -0.07263480126857758, -95.63495635986328, 0.015398373, -0.007001823, 0.345582
504, 472205983, -0.20807978510856628, -0.07371637970209122, -95.63497924804688, 0.002325655, -0.0025754124, 0.35923958
505, 472222650, -0.20735390484333038, -0.0733938217163086, -95.63505554199219, 0.009812668, -0.018665385, 0.3581171
506, 472239317, -0.20791880786418915, -0.07382705062627792, -95.63499450683594, 8.3572674E-4, -0.009072025, 0.35574532
507, 472255984, -0.2089359015226364, -0.07541769742965698, -95.6358871459961, -0.005428734, 0.0075403266, 0.35338402
508, 472272651, -0.20965071022510529, -0.07442034035921097, -95.63467407226562, 0.010448716, -0.003986063, 0.36051273
509, 472289318, -0.208967924118042, -0.07374044507741928, -95.63504791259766, -0.0017580809, 7.050332E-4, 0.32916927
510, 472305985, -0.20864082872867584, -0.0739893764257431, -95.6351089477539, 8.17637E-4, -0.0040009515, 0.34260273
511, 472322652, -0.210232675075531, -0.07430407404899597, -95.63441467285156, -0.011471273, -0.0057812072, 0.37841988
512, 472339319, -0.21027767658233643, -0.07432959973812103, -95.63430786132812, 0.012690172, 6.3991325E-4, 0.3306942
513, 472355986, -0.21015198528766632, -0.07425501942634583, -95.63427734375, -0.0060170884, -0.0036163523, 0.34902382
514, 472372653, -0.21016646921634674, -0.07490433752536774, -95.63362121582031, 0.005422673, -0.00266019, 0.34551716
515, 472389320, -0.20975297689437866, -0.07641727477312088, -95.63356018066406, 0.002241635, 0.0020125124, 0.35606098
516, 472405987, -0.20947742462158203, -0.0754454955458641, -95.63296508789062, -0.008363545, 0.012512714, 0.36600685
517, 472422654, -0.20990581810474396, -0.07565878331661224, -95.6329116821289, -0.008411088, -0.0038882855, 0.37154484
518, 472439321, -0.2118738442659378, -0.07487546652555466, -95.63323974609375, 0.008540343, -0.004095204, 0.33105373
519, 472455988, -0.2125331461429596, -0.07462319731712341, -95.6339340209961, -0.01060298, -0.008889175, 0.34271145
520, 472472655, -0.21118541061878204, -0.07428361475467682, -95.63294219970703, -0.002547248, -0.008717907, 0.33535385
521, 472489322, -0.21056370437145233, -0.07489185780286789, -95.63339233398438, 0.0038729364, -0.0036014398, 0.36523056
522, 472505989, -0.20906248688697815, -0.0746939480304718, -95.6336441040039, 0.006648763, -0.004450983, 0.35327625
523, 472522656, -0.2089320570230484, -0.07487525045871735, -95.63519287109375, -0.00523605, 0.0010695532, 0.3745613
524, 472539323, -0.20907257497310638, -0.07521277666091919, -95.63522338867188, -0.010616836, 0.0014289288, 0.3503561
525, 472555990, -0.20935915410518646, -0.0754474475979805, -95.63558197021484, -5.4928747E-5, -0.009629789, 0.35012245
526, 472572657, -0.21072670817375183, -0.07616384327411652, -95.63487243652344, 0.0076905754, -0.012827487, 0.35886955
527, 472589324, -0.21033769845962524, -0.07676883041858673, -95.6367416381836, -0.0026982944, 0.0019648063, 0.34915447
528, 472605991, -0.21015584468841553, -0.07688461989164352, -95.63812255859375, 0.013832845, -0.0025573994, 0.33222675
529, 472622658, -0.20984922349452972, -0.07836027443408966, -95.6399917602539, -0.0012339897, -0.0025083532, 0.34588718
530, 472639325, -0.21033957600593567, -0.07998485118150711, -95.64006805419922, -0.0062276777, 0.0017284353, 0.3734169
531, 472655992, -0.20942439138889313, -0.07941436022520065, -95.6397705078125, -0.00849199, -0.012334869, 0.35984325
532, 472672659, -0.20944295823574066, -0.07949380576610565, -95.63937377929688, -0.0014794846, 0.0023233509, 0.3519659
533, 472689326, -0.2095494121313095, -0.07901335507631302, -95.63880920410156, 0.0025480345, 0.010691063, 0.35474586
534, 472705993, -0.20967750251293182, -0.07845112681388855, -95.63887786865234, 0.0059403754, -0.004699174, 0.3455906
535, 472722660, -0.20949207246303558, -0.07921326905488968, -95.63812255859375, -0.0067502423, 0.008413308, 0.34843922
536, 472739327, -0.21026162803173065, -0.07853371649980545, -95.6385269165039, 0.006700374, 0.0051653776, 0.35859585
537, 472755994, -0.20968300104141235, -0.07889321446418762, -95.63943481445312, -0.021813562, 0.0076061212, 0.33925343
538, 472772661, -0.21082556247711182, -0.07799522578716278, -95.63892364501953, 0.0029389863, -3.9905444E-4, 0.3514309
539, 472789328, -0.21087411046028137, -0.07884757220745087, -95.63971710205078, -0.0034041498, -0.006248955, 0.33392334
540, 472805995, -0.211011603474617, -0.07837945222854614, -95.64093780517578, -0.017986126, -5.1828026E-4, 0.35663223
541, 472822662, -0.20971018075942993, -0.08003325760364532, -95.64116668701172, -0.0023387345, -0.010613362, 0.34877205
542, 472839329, -0.2097204476594925, -0.0797509029507637, -95.64164733886719, -0.0070625413, -0.013847118, 0.3497076
543, 472855996, -0.2104969173669815, -0.07933123409748077, -95.64009094238281, 0.008414144, -0.013917183, 0.3312559
544, 472872663, -0.2113649845123291, -0.078724704682827, -95.64054107666016, -0.0097308615, -0.009094395, 0.32900333
545, 472889330, -0.20997442305088043, -0.08065110445022583, -95.63982391357422, -0.0072431923, -0.010292201, 0.34475422
546, 472905997, -0.20921318233013153, -0.08047661185264587, -95.6400375366211, -0.005223254, -0.019797642, 0.33422375
547, 472922664, -0.2095828354358673, -0.07991217821836472, -95.64002990722656, -0.012948817, -0.0020250406, 0.35425663
548, 472939331, -0.20943313837051392, -0.07910386472940445, -95.639892578125, 0.0072427345, 0.010861702, 0.3593588
549, 472955998, -0.20815683901309967, -0.08056091517210007, -95.6395034790039, -7.065397E-4, -0.0091361, 0.34857082
550, 472972665, -0.2078728824853897, -0.07996660470962524, -95.63826751708984, 0.0061980565, -0.0049750283, 0.36261272
551, 472989332, -0.20769159495830536, -0.0794934555888176, -95.63819885253906, 0.0059019485, 0.003945022, 0.3612833
552, 473005999, -0.20808345079421997, -0.07794038951396942, -95.6375961303711, -0.008646817, -0.014579521, 0.350832
553, 473022666, -0.20857642590999603, -0.07695095986127853, -95.6375503540039, -0.0033826765, -0.0027142672, 0.3414297
554, 473039333, -0.20834286510944366, -0.07700509577989578, -95.63805389404297, 0.003751162, -0.0059486087, 0.33311462
555, 473056000, -0.20673419535160065, -0.07820097357034683, -95.63792419433594, -0.0049343165, -0.0047943946, 0.35668755
556, 473072667, -0.2063618004322052, -0.0773906484246254, -95.6369400024414, -0.0021587454, -0.0017274304, 0.34772205
557, 473089334, -0.20676428079605103, -0.07723516970872879, -95.6359634399414, -0.0064021144, 0.0052521825, 0.34169292
558, 473106001, -0.2074751853942871, -0.07727133482694626, -95.63560485839844, -0.00569809, -8.663991E-4, 0.36153793
559, 473122668, -0.20570729672908783, -0.07529962062835693, -95.63721466064453, -0.007739994, -3.267349E-4, 0.33555794
560, 473139335, -0.20637720823287964, -0.07550777494907379, -95.63765716552734, -0.0061115264, 0.0015507451, 0.3436203
561, 473156002, -0.20694658160209656, -0.0754576325416565, -95.63870239257812, 0.003373733, 0.0054994044, 0.36230564
562, 473172669, -0.20650170743465424, -0.07618600130081177, -95.63953399658203, -0.0011084108, -0.002605584, 0.34068394
563, 473189336, -0.2067456841468811, -0.07666528224945068, -95.63983154296875, -1.0703957E-4, -0.0027459457, 0.355093
564, 473206003, -0.2071944922208786, -0.07507146149873734, -95.63997650146484, -9.7126025E-4, -0.005577741, 0.36725044
565, 473222670, -0.20638391375541687, -0.0742684006690979, -95.63866424560547, 9.939538E-4, -0.01081606, 0.35195827
566, 473239337, -0.20634253323078156, -0.07382123172283173, -95.63798522949219, -0.008218255, 0.0039167064, 0.3587494
567, 473256004, -0.20547041296958923, -0.07448716461658478, -95.637939453125, -0.008071623, -0.017407969, 0.3733816
568, 473272671, -0.2062084823846817, -0.07471302896738052, -95.63737487792969, -0.00434216, 2.899967E-4, 0.35441017
569, 473289338, -0.20663012564182281, -0.07491090148687363, -95.63751220703125, -0.006754356, 0.0030140276, 0.33378696
570, 473306005, -0.20731419324874878, -0.07579688727855682, -95.63752746582031, -0.008563628, -0.009100074, 0.37086582
571, 473322672, -0.2072959840297699, -0.07748513668775558, -95.63787078857422, -0.01049519, -0.004921826, 0.37263298
572, 473339339, -0.20713180303573608, -0.0779648870229721, -95.63805389404297, -0.0037402972, -0.0019966667, 0.3481655
573, 473356006, -0.20645439624786377, -0.0776953473687172, -95.63831329345703, -0.0045605497, 0.00816884, 0.34378433
574, 473372673, -0.20741523802280426, -0.0781850814819336, -95.63876342773438, 0.0033387155, -0.0053668227, 0.33243752
575, 473389340, -0.20754343271255493, -0.07837261259555817, -95.63848876953125, 0.008540561, -0.0011014526, 0.3371477
576, 473406007, -0.207177996635437, -0.07816600799560547, -95.63858795166016, -0.015255129, 0.010316363, 0.38187027
577, 473422674, -0.2068791538476944, -0.07886052876710892, -95.63855743408203, -0.002393973, -0.004640564, 0.3572216
578, 473439341, -0.20652998983860016, -0.07838514447212219, -95.6385269165039, -0.019376032, 0.0026486765, 0.35020065
579, 473456008, -0.2083004266023636, -0.0786219909787178, -95.63917541503906, -8.8168704E-4, -0.007147025, 0.34709835
580, 473472675, -0.20875169336795807, -0.07754608988761902, -95.6408462524414, -0.0041074315, -8.066041E-4, 0.34157944
581, 473489342, -0.20858979225158691, -0.07841938734054565, -95.64030456542969, -0.01543526, -0.01133139, 0.36588573
582, 473506009, -0.2080000787973404, -0.07856056839227676, -95.63993835449219, -0.0066613774, -0.007008241, 0.35771656
583, 473522676, -0.2066546082496643, -0.07973480969667435, -95.6397933959961, -0.008596668, -0.014925295, 0.34126663
584, 473539343, -0.20559830963611603, -0.08044742047786713, -95.64038848876953, -0.004946149, -0.0033536032, 0.34961605
585, 473556010, -0.20651184022426605, -0.08074110746383667, -95.6401596069336, 0.0057598483, 0.010471475, 0.36219597
586, 473572677, -0.2079518884420395, -0.08125773072242737, -95.63890075683594, -0.0012223867, 0.008317301, 0.3293686
587, 473589344, -0.2064625769853592, -0.0820857509970665, -95.63905334472656, -0.0054704514, -0.0070492607, 0.35877037
588, 473606011, -0.20556747913360596, -0.08144652843475342, -95.63871765136719, -0.004247815, -0.007621067, 0.35969162
589, 473622678, -0.2052220106124878, -0.08069529384374619, -95.6390151977539, 0.0021145032, -0.0024246222, 0.3538084
590, 473639345, -0.20552971959114075, -0.07973022758960724, -95.6396255493164, -0.013953231, -0.012163621, 0.3783617
591, 473656012, -0.20550864934921265, -0.07917602360248566, -95.63968658447266, -0.010774679, -0.0028361115, 0.34437084
592, 473672679, -0.20672163367271423, -0.07883866876363754, -95.64017486572266, 0.0047369185, -7.9339417E-4, 0.3576126
593, 473689346, -0.2060318887233734, -0.07887543737888336, -95.6404037475586, 0.0012044816, -0.006250366, 0.35046482
594, 473706013, -0.2063889354467392, -0.07971400022506714, -95.64044952392578, -0.011642174, -0.013729737, 0.34445858
595, 473722680, -0.2051311433315277, -0.07855023443698883, -95.64019012451172, 0.008440765, -0.008444338, 0.35785675
596, 473739347, -0.2040293663740158, -0.07926326990127563, -95.63961029052734, -0.00884193, -0.0017710258, 0.32069302
597, 473756014, -0.20451943576335907, -0.07787477970123291, -95.63995361328125, -0.0021219722, -0.012853428, 0.32466602
598, 473772681, -0.2053775042295456, -0.07817922532558441, -95.64015197753906, -0.006113107, -0.0016970648, 0.34426022
599, 473789348, -0.20641747117042542, -0.07893871515989304, -95.63995361328125, -0.0039127283, -0.012643224, 0.36883545
600, 473806015, -0.20696339011192322, -0.07421333342790604, -95.6376724243164, 0.0040061628, -0.004797329, 0.3574047
601, 473822682, -0.20731128752231598, -0.07340623438358307, -95.6373062133789, -0.0082577225, -0.011666122, 0.35410213
602, 473839349, -0.20698754489421844, -0.07343023270368576, -95.63639068603516, 0.0043558935, 0.0020799453, 0.36410236
603, 473856016, -0.2079038918018341, -0.0739215612411499, -95.63556671142578, -7.018652E-4, 0.009858582, 0.36810875
604, 473872683, -0.20899930596351624, -0.07498019933700562, -95.63761138916016, -0.0027714462, 0.006237225, 0.36028004
605, 473889350, -0.2078952193260193, -0.07539058476686478, -95.63707733154297, 0.004051754, -0.00490931, 0.35192585
606, 473906017, -0.20729279518127441, -0.07462338358163834, -95.63611602783203, -0.005624377, -0.0071476013, 0.34956455
607, 473922684, -0.20784114301204681, -0.07425205409526825, -95.63679504394531, 0.0032049476, -0.0016833651, 0.35225296
608, 473939351, -0.2077762931585312, -0.0747290626168251, -95.63667297363281, -0.0023876855, -0.008000561, 0.37990665
609, 473956018, -0.20834605395793915, -0.07381850481033325, -95.6364974975586, -0.0016163714, 0.005352064, 0.33076477
610, 473972685, -0.20809583365917206, -0.07400033622980118, -95.63726806640625, 0.0028713897, 7.933453E-4, 0.3688755
611, 473989352, -0.20758232474327087, -0.07590323686599731, -95.63887023925781, 0.002710206, -8.372935E-4, 0.3407507
612, 474006019, -0.2075062245130539, -0.0754864364862442, -95.63951110839844, -0.013127669, -0.0045161615, 0.35089684
613, 474022686, -0.20763307809829712, -0.07514651864767075, -95.63980102539062, 0.0026707754, 0.005432558, 0.3574314
614, 474039353, -0.20760224759578705, -0.07525917887687683, -95.64022064208984, 0.021108976, -0.0069822487, 0.36504555
615, 474056020, -0.2073480635881424, -0.07684707641601562, -95.64057159423828, -0.0030877935, -0.0046057156, 0.3640871
616, 474072687, -0.20813938975334167, -0.0779266431927681, -95.64015197753906, -0.009862619, -0.0049160556, 0.34227467
617, 474089354, -0.2086285948753357, -0.07874349504709244, -95.64171600341797, 0.008456103, -0.011634912, 0.3638649
618, 474106021, -0.20843592286109924, -0.07894842326641083, -95.64168548583984, -0.0021218592, -2.7615376E-4, 0.33148575
619, 474122688, -0.2074681967496872, -0.0787268653512001, -95.64118194580078, -0.005861994, 0.0015520399, 0.35163307
620, 474139355, -0.20717287063598633, -0.07961524277925491, -95.64104461669922, -0.0027562124, -0.010404235, 0.34166527
621, 474156022, -0.207152858376503, -0.07893628627061844, -95.64131164550781, -8.6842553E-4, -0.0025168695, 0.34872437
622, 474172689, -0.20767781138420105, -0.07770858705043793, -95.64210510253906, -0.008446213, 0.002837998, 0.35774422
623, 474189356, -0.20750226080417633, -0.07768210768699646, -95.64154052734375, -3.8626138E-4, -0.0049399375, 0.3346796
624, 474206023, -0.20712219178676605, -0.07825656980276108, -95.64183044433594, 2.1658406E-4, -0.0013352341, 0.35276604
625, 474222690, -0.20739836990833282, -0.07926752418279648, -95.64281463623047, -0.014607498, 0.004480795, 0.35661697
626, 474239357, -0.20728181302547455, -0.07957196980714798, -95.64381408691406, -0.012348733, -0.0011440214, 0.34527397
627, 474256024, -0.20715633034706116, -0.07934309542179108, -95.64275360107422, -0.0046269894, -6.547812E-4, 0.3591032
628, 474272691, -0.20751816034317017, -0.08077573031187057, -95.64230346679688, -0.027516948, 0.0056453138, 0.346694
629, 474289358, -0.2072523534297943, -0.08127645403146744, -95.6434326171875, -9.903597E-4, -0.005262154, 0.33928013
630, 474306025, -0.206802636384964, -0.08135773241519928, -95.6426773071289, -0.0058775623, -0.01873369, 0.37455368
631, 474322692, -0.2065926492214203, -0.08052375167608261, -95.64176940917969, -0.0035404311, -0.006912366, 0.34150887
632, 474339359, -0.2064860463142395, -0.07906745374202728, -95.64208984375, -2.7241165E-4, -0.004904995, 0.3658285
633, 474356026, -0.20691484212875366, -0.07941814512014389, -95.6419677734375, 0.0011722062, 2.5592233E-5, 0.34281826
634, 474372693, -0.20709018409252167, -0.07926476001739502, -95.64144134521484, -0.010589982, 0.002456024, 0.34957123
635, 474389360, -0.2078016847372055, -0.07944971323013306, -95.64198303222656, -0.0035667229, -0.008080682, 0.35877132
636, 474406027, -0.2076604962348938, -0.07889503240585327, -95.64295196533203, -0.0012458185, -3.0949037E-4, 0.35377312
637, 474422694, -0.20757605135440826, -0.07932668179273605, -95.6433334350586, 0.005239285, -0.0049104234, 0.3400669
638, 474439361, -0.20688334107398987, -0.0799453854560852, -95.64466094970703, 0.009758435, -0.0020939077, 0.34130955
639, 474456028, -0.20631417632102966, -0.0805647000670433, -95.64593505859375, -0.0053909887, -0.02062344, 0.36348248
640, 474472695, -0.20661711692810059, -0.08026804774999619, -95.64630126953125, 5.044015E-5, -0.0034059193, 0.35550785
641, 474489362, -0.2062506228685379, -0.0818980410695076, -95.64569091796875, -0.003504952, -0.0038311754, 0.35184574
642, 474506029, -0.20673131942749023, -0.08235020935535431, -95.64634704589844, 0.0012865507, -0.014116754, 0.33641624
643, 474522696, -0.2066762000322342, -0.0829307958483696, -95.64693450927734, -0.010231392, -0.0048995637, 0.35279655
644, 474539363, -0.2061021476984024, -0.08325245976448059, -95.64728546142578, -0.005328689, 0.0107149035, 0.3234253
645, 474556030, -0.20534183084964752, -0.08430856466293335, -95.64791107177734, 0.0050575943, -0.0055003003, 0.34001637
646, 474572697, -0.20603415369987488, -0.08380868285894394, -95.6485595703125, -0.005203411, -0.0076137516, 0.3406105
647, 474589364, -0.20518474280834198, -0.08481971174478531, -95.64883422851562, -0.011732243, -0.001479055, 0.3357582
648, 474606031, -0.20497632026672363, -0.08549422025680542, -95.647705078125, -0.011426625, 0.0038941554, 0.3399372
649, 474622698, -0.20501886308193207, -0.08632883429527283, -95.64778137207031, -0.015729774, -0.0011991278, 0.37299633
650, 474639365, -0.20457717776298523, -0.08498141169548035, -95.64808654785156, -0.010959488, 0.009470536, 0.35372162
651, 474656032, -0.20459069311618805, -0.0845046117901802, -95.6479721069336, 0.0042653945, 0.004610861, 0.3789692
652, 474672699, -0.20482654869556427, -0.08517513424158096, -95.64768981933594, -0.013476489, 6.195142E-4, 0.34717178
653, 474689366, -0.2045174539089203, -0.08586953580379486, -95.64740753173828, -0.006572196, -0.009255966, 0.3464203
654, 474706033, -0.20431457459926605, -0.08629010617733002, -95.64627838134766, -0.009232282, -9.1446744E-4, 0.34998035
655, 474722700, -0.20485906302928925, -0.08646317571401596, -95.64488983154297, -0.007898431, 0.0025105386, 0.36400795
656, 474739367, -0.20455525815486908, -0.08660946041345596, -95.64484405517578, 0.0034133994, 0.006649992, 0.37486553
657, 474756034, -0.2040795087814331, -0.0861472487449646, -95.64447021484375, -0.005168758, -0.0045421035, 0.36370087
658, 474772701, -0.2043927013874054, -0.08642029762268066, -95.64404296875, 0.0053110584, 0.0012349606, 0.3705969
659, 474789368, -0.20443961024284363, -0.08776748925447464, -95.64350128173828, -0.005537379, -0.006044066, 0.35741806
660, 474806035, -0.20385532081127167, -0.0881803035736084, -95.64338684082031, -0.013137487, 0.005149219, 0.3433857
661, 474822702, -0.20402982831001282, -0.08761697262525558, -95.64307403564453, -0.0063561983, -0.0060189646, 0.35247707
662, 474839369, -0.2048117071390152, -0.08750749379396439, -95.64308166503906, -0.0032953834, -0.008930497, 0.37369537
663, 474856036, -0.20547184348106384, -0.08698658645153046, -95.64389038085938, 6.232999E-4, -0.010643307, 0.3354473
664, 474872703, -0.20528487861156464, -0.08744241297245026, -95.64488983154297, -0.009513729, -0.01399682, 0.3630314
665, 474889370, -0.20549754798412323, -0.08607078343629837, -95.6441650390625, -0.010277156, 0.0048268777, 0.3661995
666, 474906037, -0.20612871646881104, -0.08646003901958466, -95.64431762695312, -0.010753853, 0.014828083, 0.3689432
667, 474922704, -0.20555275678634644, -0.0875813439488411, -95.64434051513672, -0.013108647, 0.012683152, 0.35036278
668, 474939371, -0.20656900107860565, -0.08650938421487808, -95.64434814453125, -0.012836589, -0.008622266, 0.3436308
669, 474956038, -0.20710761845111847, -0.08517313003540039, -95.64512634277344, -0.015722739, -0.017094659, 0.36299992
670, 474972705, -0.20757067203521729, -0.08479133248329163, -95.6457290649414, 0.01266785, 0.0097203115, 0.34903812
671, 474989372, -0.2084852010011673, -0.08370435982942581, -95.64582061767578, 8.152198E-4, -0.0051444625, 0.3497734
672, 475006039, -0.2093607783317566, -0.08373100310564041, -95.64752197265625, -0.009483773, 0.0022098979, 0.34037495
673, 475022706, -0.2080603539943695, -0.08457140624523163, -95.6471939086914, 0.0014757989, 0.0033324673, 0.35347176
674, 475039373, -0.20765508711338043, -0.0848495364189148, -95.64551544189453, 2.7842206E-4, 0.00990365, 0.3490734
675, 475056040, -0.20684067904949188, -0.0842694491147995, -95.64630126953125, 0.002336689, 0.0028675105, 0.3505478
676, 475072707, -0.20733068883419037, -0.08446365594863892, -95.64746856689453, 0.0030258268, -0.012368388, 0.3389864
677, 475089374, -0.20702573657035828, -0.08550012856721878, -95.64752960205078, -0.0036495605, -0.0025029294, 0.3555689
678, 475106041, -0.2075008600950241, -0.08547040075063705, -95.6466293334961, -0.0053655114, -0.009076268, 0.3491869
679, 475122708, -0.20812711119651794, -0.0857483446598053, -95.6468734741211, -0.015287415, 0.0036908102, 0.36118317
680, 475139375, -0.20877209305763245, -0.08671601861715317, -95.6463851928711, 0.0034050727, -0.004422031, 0.35886574
681, 475156042, -0.2077755182981491, -0.08651944249868393, -95.64662170410156, -0.0075570988, -5.241658E-4, 0.35232258
682, 475172709, -0.20824769139289856, -0.08635639399290085, -95.64656066894531, -0.008278487, 8.8818546E-4, 0.36594868
683, 475189376, -0.20892518758773804, -0.08621689677238464, -95.64663696289062, -0.0030838174, 0.003645532, 0.32679558
684, 475206043, -0.2086571455001831, -0.08826517313718796, -95.64689636230469, -0.007924366, 0.008480041, 0.35271454
685, 475222710, -0.20832519233226776, -0.08771773427724838, -95.64559936523438, 0.012855044, -0.0052103978, 0.3441229
686, 475239377, -0.20847488939762115, -0.08841930329799652, -95.64634704589844, -0.007743744, 0.005067969, 0.36448383
687, 475256044, -0.20841315388679504, -0.08826710283756256, -95.64627838134766, -0.01072578, -0.008183481, 0.34518623
688, 475272711, -0.20889243483543396, -0.0901893675327301, -95.64667510986328, -0.004900478, -0.0060938816, 0.32898426
689, 475289378, -0.20820993185043335, -0.09059137850999832, -95.64751434326172, -0.008719647, 3.4774162E-4, 0.34792995
690, 475306045, -0.2072879523038864, -0.08943820744752884, -95.64712524414062, 0.003085516, -0.008803137, 0.37413597
691, 475322712, -0.20664779841899872, -0.08923009037971497, -95.64686584472656, -0.0038867267, -0.0022415468, 0.33873177
692, 475339379, -0.20703302323818207, -0.08933331072330475, -95.64743041992188, 6.9093966E-4, -0.004416264, 0.34794998
693, 475356046, -0.20749959349632263, -0.08925905078649521, -95.64808654785156, 2.667614E-4, 1.06987616E-4, 0.34739304
694, 475372713, -0.20787441730499268, -0.08955468982458115, -95.64884948730469, -0.004950273, -0.0066050193, 0.33935547
695, 475389380, -0.20833344757556915, -0.08895903825759888, -95.64844512939453, 0.00831925, -0.0010085193, 0.3323002
696, 475406047, -0.20820701122283936, -0.0875590518116951, -95.64710235595703, 0.015439323, -0.02197125, 0.33474827
697, 475422714, -0.20746484398841858, -0.08702132850885391, -95.6458969116211, -3.9325707E-4, -9.320717E-4, 0.36285305
698, 475439381, -0.20600610971450806, -0.08791998028755188, -95.64603424072266, 9.151956E-4, -0.0057047484, 0.35325432
699, 475456048, -0.2064676433801651, -0.08684156835079193, -95.6458740234375, -0.015615712, -0.0019039244, 0.35307407
700, 475472715, -0.20637939870357513, -0.08534009009599686, -95.64653778076172, 7.8295016E-5, 0.003833978, 0.35540676
701, 475489382, -0.20723527669906616, -0.08534735441207886, -95.64629364013672, -0.0034787701, -0.01241504, 0.35107136
702, 475506049, -0.20714910328388214, -0.08488959074020386, -95.64644622802734, -0.0018127948, -0.019817358, 0.31628036
703, 475522716, -0.20683932304382324, -0.08617883175611496, -95.64704895019531, -0.0114224395, -0.004044226, 0.3411789
704, 475539383, -0.2064501941204071, -0.08699353039264679, -95.6462631225586, 0.0017420495, 0.0051186667, 0.34166527
705, 475556050, -0.20637166500091553, -0.08856923133134842, -95.64697265625, 0.012540706, -0.00455518, 0.34103584
706, 475572717, -0.20663779973983765, -0.08876422047615051, -95.64765167236328, -0.0010795065, -0.007120188, 0.33755207
707, 475589384, -0.20553511381149292, -0.08781863749027252, -95.64746856689453, 7.6595054E-4, 0.004653778, 0.3596754
708, 475606051, -0.20548777282238007, -0.08919665962457657, -95.64830017089844, 0.008871956, 0.0013163281, 0.33202648
709, 475622718, -0.20704026520252228, -0.08995268493890762, -95.64823913574219, -0.012464888, 0.0022323078, 0.3586979
710, 475639385, -0.20809803903102875, -0.08922559767961502, -95.64844512939453, -8.875464E-4, 0.003896394, 0.3475952
711, 475656052, -0.20771470665931702, -0.08837440609931946, -95.64710998535156, -0.0010713718, -0.009093205, 0.3622179
712, 475672719, -0.2078603208065033, -0.08821810036897659, -95.64791870117188, 0.0042694826, 0.0010762245, 0.35075283
713, 475689386, -0.2091408222913742, -0.08722583204507828, -95.6474609375, 0.0035569437, -0.013866478, 0.34356976
714, 475706053, -0.20920296013355255, -0.0882323831319809, -95.64818572998047, 0.0039753886, 0.010744786, 0.3540125
715, 475722720, -0.20954686403274536, -0.088322713971138, -95.64725494384766, -0.00412109, -0.003640207, 0.36172485
716, 475739387, -0.20882484316825867, -0.08863728493452072, -95.64806365966797, -0.0014333104, -0.0032632027, 0.3602171
717, 475756054, -0.20815150439739227, -0.08894605189561844, -95.64791107177734, 0.009000296, -0.01374434, 0.35099983
718, 475772721, -0.20647484064102173, -0.08904652297496796, -95.64842987060547, -0.0024522056, -0.004199714, 0.36367416
719, 475789388, -0.20620432496070862, -0.0889430120587349, -95.64855194091797, -8.542443E-4, 9.7524555E-4, 0.3731184
720, 475806055, -0.20666788518428802, -0.07839787006378174, -95.64380645751953, -0.0052941376, -0.003896986, 0.33763027
721, 475822722, -0.20734736323356628, -0.07743361592292786, -95.64292907714844, -0.0012178784, -0.0052450364, 0.34164047
722, 475839389, -0.20741912722587585, -0.07652299851179123, -95.64205932617188, -0.0037044652, -0.004510832, 0.34381676
723, 475856056, -0.2085539698600769, -0.07664644718170166, -95.64111328125, 0.0024976465, 0.0039694104, 0.3419733
724, 475872723, -0.20942959189414978, -0.07633720338344574, -95.64173126220703, -0.0024600315, -0.0075232103, 0.33819866
725, 475889390, -0.20944508910179138, -0.07658468186855316, -95.64091491699219, 7.147905E-4, -0.0022675013, 0.34365463
726, 475906057, -0.20945031940937042, -0.0777771919965744, -95.64118194580078, -0.013917706, -0.0023904415, 0.36596775
727, 475922724, -0.20919346809387207, -0.0764332264661789, -95.6421890258789, 0.0023015924, -0.0038035165, 0.35128975
728, 475939391, -0.20761294662952423, -0.07634629309177399, -95.64299774169922, 0.0046369904, 0.0034250934, 0.3717308
729, 475956058, -0.2077745497226715, -0.0771322101354599, -95.64362335205078, 0.00882041, -0.004002979, 0.35588455
730, 475972725, -0.20738978683948517, -0.07743664085865021, -95.6436767578125, 0.0036690906, -0.010952721, 0.32790852
731, 475989392, -0.20881281793117523, -0.07699287682771683, -95.64466094970703, 0.0025243291, -0.002153425, 0.35999012
732, 476006059, -0.20809897780418396, -0.07616709917783737, -95.64472961425781, -0.01286423, -0.0010298865, 0.34268856
733, 476022726, -0.2087346315383911, -0.07647337019443512, -95.64447021484375, -0.006785674, -6.6336984E-4, 0.34242153
734, 476039393, -0.20933927595615387, -0.07660763710737228, -95.64400482177734, -1.0161763E-4, 8.3500077E-4, 0.33875084
735, 476056060, -0.20932918787002563, -0.07734434306621552, -95.6451416015625, -0.008041245, 0.011442892, 0.35729408
736, 476072727, -0.20989321172237396, -0.07847217470407486, -95.64449310302734, -0.007888459, -0.005025233, 0.33868408
737, 476089394, -0.21000638604164124, -0.07925224304199219, -95.64356231689453, -0.0074510104, -0.004447116, 0.32582855
738, 476106061, -0.2115258425474167, -0.08002163469791412, -95.64369201660156, 0.0033613686, 0.013140537, 0.34577465
739, 476122728, -0.2111445516347885, -0.08058085292577744, -95.64396667480469, 0.0014849153, -0.0011295603, 0.3467207
740, 476139395, -0.2108805924654007, -0.08069393038749695, -95.64422607421875, -0.018991448, -0.007774727, 0.35229778
741, 476156062, -0.21080179512500763, -0.08078990131616592, -95.64326477050781, 1.7156672E-4, -0.012602379, 0.35258484
742, 476172729, -0.21027065813541412, -0.08004453033208847, -95.64254760742188, 0.013810531, -0.006780716, 0.36046314
743, 476189396, -0.21059560775756836, -0.08094761520624161, -95.64334869384766, 9.4322074E-4, 0.010953598, 0.34797287
744, 476206063, -0.21025167405605316, -0.08062998950481415, -95.64157104492188, -0.009016718, -0.007061108, 0.33693314
745, 476222730, -0.21039406955242157, -0.07988319545984268, -95.64283752441406, 0.0075510936, -4.503332E-4, 0.35888767
746, 476239397, -0.20996689796447754, -0.07973313331604004, -95.6423568725586, 0.0027000986, -0.002651495, 0.34392548
747, 476256064, -0.21123042702674866, -0.07985586673021317, -95.64268493652344, 0.009298431, -0.011237846, 0.3432846
748, 476272731, -0.21171905100345612, -0.08101026713848114, -95.64164733886719, -0.0018143725, 0.004180814, 0.3608322
749, 476289398, -0.21065658330917358, -0.08185094594955444, -95.641845703125, 0.009008705, -0.0045583653, 0.3615656
750, 476306065, -0.21092146635055542, -0.08187610656023026, -95.64154815673828, 0.011137387, -0.009066097, 0.3450756
751, 476322732, -0.21106339991092682, -0.08159911632537842, -95.64161682128906, 0.0061207083, -0.014338992, 0.343935
752, 476339399, -0.20985253155231476, -0.08272435516119003, -95.64153289794922, -4.3181394E-4, -0.0069861175, 0.3453436
753, 476356066, -0.20927196741104126, -0.0823313444852829, -95.64237976074219, 0.0014916399, -0.00791016, 0.3333311
754, 476372733, -0.2098042070865631, -0.0825551301240921, -95.64259338378906, 0.0026799606, 0.004552572, 0.33114815
755, 476389400, -0.20958952605724335, -0.08144713193178177, -95.64226531982422, -0.0056386157, 0.0026935677, 0.3731079
756, 476406067, -0.2093915343284607, -0.08132267743349075, -95.6428451538086, -0.0037626084, -0.0075969095, 0.33563137
757, 476422734, -0.2092365026473999, -0.08136396110057831, -95.6431884765625, 0.002628102, -0.00828121, 0.3414421
758, 476439401, -0.21006762981414795, -0.08322769403457642, -95.64425659179688, -0.009201656, 8.646712E-4, 0.35354614
759, 476456068, -0.20912793278694153, -0.08433546125888824, -95.64491271972656, 5.360762E-4, -0.011816301, 0.3576889
760, 476472735, -0.20869684219360352, -0.08421354740858078, -95.6447525024414, -0.012239355, 0.0027685957, 0.34351635
761, 476489402, -0.20979757606983185, -0.08646349608898163, -95.64448547363281, 0.0070940373, -0.0037329833, 0.34453106
762, 476506069, -0.21140851080417633, -0.08539408445358276, -95.64617919921875, -0.0050581484, -0.00989179, 0.34381008
763, 476522736, -0.21131838858127594, -0.08600463718175888, -95.64632415771484, 5.909691E-4, 0.0065728547, 0.3430624
764, 476539403, -0.21050967276096344, -0.08706793189048767, -95.64614868164062, -0.0018353309, 0.0014485299, 0.34817696
765, 476556070, -0.21032272279262543, -0.08700553327798843, -95.64753723144531, -0.006828631, 0.0016371757, 0.34666538
766, 476572737, -0.21054284274578094, -0.08689548820257187, -95.6484146118164, -0.0050141476, 0.0051012514, 0.34649944
767, 476589404, -0.21172364056110382, -0.08631128072738647, -95.64789581298828, -0.0042319885, 0.002314089, 0.364439
768, 476606071, -0.21247634291648865, -0.08732450753450394, -95.64717864990234, -0.011448941, 0.006073377, 0.35736752
769, 476622738, -0.21230533719062805, -0.08704262971878052, -95.64656829833984, 0.0013062267, -0.001894708, 0.3450699
770, 476639405, -0.21322189271450043, -0.08843149989843369, -95.64653778076172, -0.012739205, -0.0028933245, 0.34461594
771, 476656072, -0.21311387419700623, -0.08872412890195847, -95.64563751220703, 0.0075537427, 0.004274521, 0.36981392
772, 476672739, -0.21394698321819305, -0.08975754678249359, -95.64582824707031, 0.005840351, -0.011097071, 0.35107708
773, 476689406, -0.21379710733890533, -0.08921549469232559, -95.6461181640625, 7.12919E-5, 0.0034249623, 0.35568714
774, 476706073, -0.2131444364786148, -0.08973431587219238, -95.6468734741211, -0.006133011, -0.006316829, 0.34324074
775, 476722740, -0.2124718278646469, -0.0892498791217804, -95.64749908447266, -0.0033056515, 0.0010710898, 0.32865524
776, 476739407, -0.21332737803459167, -0.08858982473611832, -95.64824676513672, -0.0027679012, 0.0024133252, 0.34790993
777, 476756074, -0.21332690119743347, -0.08919717371463776, -95.64781188964844, -0.007873092, 0.0022050233, 0.353405
778, 476772741, -0.2129187434911728, -0.0891655683517456, -95.64723205566406, -0.010355968, -0.00224048, 0.34518337
779, 476789408, -0.21462011337280273, -0.09021316468715668, -95.64672088623047, 0.0058264015, -0.011427522, 0.33947086
780, 476806075, -0.21595029532909393, -0.09135081619024277, -95.64613342285156, 0.0013425371, -0.017025942, 0.33660412
781, 476822742, -0.21579279005527496, -0.08995753526687622, -95.64544677734375, -0.0039869854, 0.001558713, 0.33732796
782, 476839409, -0.2165093719959259, -0.08922339230775833, -95.64578247070312, 0.005413567, -0.004700447, 0.36754322
783, 476856076, -0.21681253612041473, -0.08862251788377762, -95.6469955444336, -0.0012915278, -0.0014172398, 0.34606552
784, 476872743, -0.21689373254776, -0.08774006366729736, -95.6466064453125, -0.019740066, -0.009014077, 0.3624897
785, 476889410, -0.2165275514125824, -0.08742184191942215, -95.64700317382812, -0.0054725087, -0.0069444766, 0.34946156
786, 476906077, -0.2165854275226593, -0.08708343654870987, -95.64705657958984, -0.011611783, 0.001159656, 0.34927273
787, 476922744, -0.21713796257972717, -0.08703093230724335, -95.64724731445312, -0.009241489, 0.006648407, 0.36884308
788, 476939411, -0.21605677902698517, -0.08699890971183777, -95.64715576171875, -0.005690068, -0.0022457307, 0.3344059
789, 476956078, -0.21589629352092743, -0.08732395619153976, -95.6466064453125, 0.001187978, -0.0061260327, 0.35075665
790, 476972745, -0.2153160274028778, -0.08729900419712067, -95.6466064453125, -0.0073243408, -0.0046524717, 0.36661243
791, 476989412, -0.21462804079055786, -0.08700009435415268, -95.64662170410156, -5.2951178E-5, -0.005943612, 0.35498333
792, 477006079, -0.2144802212715149, -0.08788030594587326, -95.64647674560547, -0.01128866, 0.0052273744, 0.35614395
793, 477022746, -0.21439161896705627, -0.0871029943227768, -95.64659881591797, 0.011962426, 0.0041480074, 0.34090805
794, 477039413, -0.21499282121658325, -0.08629216253757477, -95.64676666259766, 0.0032525565, -0.015355131, 0.3402853
795, 477056080, -0.21577684581279755, -0.08638046681880951, -95.64690399169922, 0.006301249, -2.3378756E-4, 0.35410213
796, 477072747, -0.21648713946342468, -0.08728094398975372, -95.6469955444336, -0.0024233544, -0.0070767547, 0.3385687
797, 477089414, -0.21729908883571625, -0.08749322593212128, -95.64824676513672, 0.003010833, 0.007223706, 0.33234787
798, 477106081, -0.217299222946167, -0.08724014461040497, -95.64684295654297, -0.00699309, 0.0037303658, 0.35796928
799, 477122748, -0.21641206741333008, -0.08745701611042023, -95.64527893066406, -0.0020436475, 0.0044483314, 0.3641405
800, 477139415, -0.21598200500011444, -0.08763332664966583, -95.6453628540039, 0.0046047023, -0.013655431, 0.33486652
801, 477156082, -0.21622590720653534, -0.08786928653717041, -95.64556884765625, 0.008560378, -0.0010465304, 0.34740543
802, 477172749, -0.2160223126411438, -0.08769308030605316, -95.64583587646484, -0.008078478, 5.219787E-4, 0.35758018
803, 477189416, -0.21598947048187256, -0.08646591007709503, -95.64556121826172, -0.010459511, 0.0063948287, 0.3774519
804, 477206083, -0.21677166223526, -0.08645598590373993, -95.64537048339844, 0.011832161, 0.0040860656, 0.36341953
805, 477222750, -0.21666043996810913, -0.08723471313714981, -95.64546203613281, -0.0057442426, -0.010327594, 0.33951664
806, 477239417, -0.21720963716506958, -0.08695565909147263, -95.64517211914062, -0.0015310651, -0.0033064857, 0.37707043
807, 477256084, -0.2181103229522705, -0.08753366768360138, -95.64518737792969, -6.6126965E-4, -0.002755631, 0.36069584
808, 477272751, -0.2191406637430191, -0.08824744820594788, -95.64498901367188, -0.001531957, -0.009395313, 0.3415308
809, 477289418, -0.21849222481250763, -0.08801053464412689, -95.6456298828125, 0.0051908116, -0.007457907, 0.3596468
810, 477306085, -0.21755684912204742, -0.08842345327138901, -95.64395141601562, 0.0101535525, -0.0029568442, 0.36092854
811, 477322752, -0.21695385873317719, -0.08941071480512619, -95.64324188232422, -0.0018384822, 0.0048570456, 0.3585987
812, 477339419, -0.21689565479755402, -0.09014282375574112, -95.6434326171875, -0.022162927, -0.0012772316, 0.34726238
813, 477356086, -0.21749836206436157, -0.08975589275360107, -95.64356231689453, -0.008077664, -0.008462024, 0.35572243
814, 477372753, -0.21655036509037018, -0.08882440626621246, -95.64244842529297, -7.0252875E-4, 1.338895E-5, 0.35030174
815, 477389420, -0.21664629876613617, -0.08845270425081253, -95.64205169677734, -0.01361519, 0.008956091, 0.3587923
816, 477406087, -0.21601766347885132, -0.08757943660020828, -95.6410140991211, 0.0059025325, -0.008256107, 0.3546543
817, 477422754, -0.21564801037311554, -0.08724942058324814, -95.64057922363281, 0.0059881024, 0.0034884016, 0.36142254
818, 477439421, -0.21645620465278625, -0.08761340379714966, -95.64060974121094, -0.004670314, -0.0016468181, 0.3534584
819, 477456088, -0.21755589544773102, -0.08806449174880981, -95.64030456542969, 9.236686E-4, -0.0043778103, 0.36916828
820, 477472755, -0.21814417839050293, -0.08869703859090805, -95.64124298095703, -0.005888669, 0.0026213957, 0.33932304
821, 477489422, -0.21901677548885345, -0.08981798589229584, -95.64229583740234, -0.010270253, 0.002514782, 0.35856915
822, 477506089, -0.21925963461399078, -0.0902479812502861, -95.64302062988281, -0.01068186, -0.009083605, 0.34174728
823, 477522756, -0.21856577694416046, -0.08879537880420685, -95.6431655883789, 4.0698698E-4, 0.010576804, 0.35864544
824, 477539423, -0.21827900409698486, -0.08940520137548447, -95.64295196533203, -0.0063088224, -0.003477756, 0.33904934
825, 477556090, -0.2178708016872406, -0.08828024566173553, -95.64337921142578, 0.00972125, 0.014318625, 0.35832882
826, 477572757, -0.21791963279247284, -0.08823102712631226, -95.64393615722656, -0.007707621, 1.5761767E-4, 0.3449211
827, 477589424, -0.21913662552833557, -0.08942456543445587, -95.64388275146484, -0.00858236, -0.0021864718, 0.34740067
828, 477606091, -0.21881593763828278, -0.08934831619262695, -95.64405822753906, 4.5288438E-5, -0.005997049, 0.34015083
829, 477622758, -0.21810592710971832, -0.08883371204137802, -95.6443862915039, 3.0733948E-4, -0.0038944478, 0.3494978
830, 477639425, -0.21803224086761475, -0.08876663446426392, -95.64435577392578, -0.0015163036, -0.0076098493, 0.33444214
831, 477656092, -0.21762174367904663, -0.0887947827577591, -95.6438980102539, -0.0053024194, -0.011239321, 0.3484249
832, 477672759, -0.21818070113658905, -0.08804155886173248, -95.64451599121094, -0.003492721, 0.0064719655, 0.34829617
833, 477689426, -0.21747548878192902, -0.08752483874559402, -95.64569091796875, -0.00945986, -0.0051786657, 0.34380722
834, 477706093, -0.21755461394786835, -0.08904136717319489, -95.64623260498047, -0.011181487, -0.004391535, 0.36289597
835, 477722760, -0.21830686926841736, -0.08960232883691788, -95.64673614501953, -0.004358061, -0.0062366035, 0.34741783
836, 477739427, -0.21852615475654602, -0.09007090330123901, -95.64586639404297, 0.008067873, -0.0058022905, 0.34035683
837, 477756094, -0.21955522894859314, -0.09024886041879654, -95.6458969116211, -0.0010034584, 0.0056100627, 0.35340977
838, 477772761, -0.2200402468442917, -0.08937716484069824, -95.64539337158203, -0.006633167, 0.004883055, 0.35097408
839, 477789428, -0.21973705291748047, -0.0888672024011612, -95.64520263671875, -0.006727582, -0.0020937244, 0.33569145
840, 477806095, -0.2102607786655426, -0.07826699316501617, -95.64706420898438, -0.010896162, -0.016755886, 0.36883163
841, 477822762, -0.21055153012275696, -0.07859858125448227, -95.64664459228516, -6.0171523E-4, -0.010647542, 0.3554001
842, 477839429, -0.20947396755218506, -0.07698360085487366, -95.6438217163086, -0.008833943, -0.014813492, 0.3800993
843, 477856096, -0.21001587808132172, -0.07699757069349289, -95.6439437866211, -0.013349202, 0.01435516, 0.3515625
844, 477872763, -0.21090827882289886, -0.07765793800354004, -95.64385223388672, -0.009355812, 0.021435173, 0.36774063
845, 477889430, -0.2103443145751953, -0.077092744410038, -95.64411926269531, -0.0025523433, -0.005173746, 0.35187435
846, 477906097, -0.2103995531797409, -0.07724205404520035, -95.64299011230469, -0.0034203306, 0.011036731, 0.34367943
847, 477922764, -0.21104995906352997, -0.07846047729253769, -95.6431884765625, -7.867023E-4, 0.0051715886, 0.37526226
848, 477939431, -0.21220120787620544, -0.07814717292785645, -95.64179992675781, 0.00610704, 0.004743013, 0.34400082
849, 477956098, -0.21169725060462952, -0.07739029824733734, -95.64128112792969, -0.0029154196, -0.01738401, 0.35419655
850, 477972765, -0.21107415854930878, -0.07676823437213898, -95.640869140625, -0.0031444954, -0.014818976, 0.35195827
851, 477989432, -0.21171557903289795, -0.07575558871030807, -95.6408462524414, -9.121773E-4, -0.02112025, 0.37260723
852, 478006099, -0.21185284852981567, -0.07724220305681229, -95.64080810546875, -0.006342629, -0.007706607, 0.337121
853, 478022766, -0.2118120789527893, -0.07654564827680588, -95.640380859375, 0.0051679737, -0.0048177615, 0.35432053
854, 478039433, -0.21194344758987427, -0.07638788968324661, -95.64069366455078, -0.0066212346, -0.0073798583, 0.35036469
855, 478056100, -0.21143567562103271, -0.07467401027679443, -95.64118194580078, -0.004925059, -0.0022535012, 0.35574722
856, 478072767, -0.21109746396541595, -0.07413884252309799, -95.64079284667969, 0.006535792, -0.0014474445, 0.35892105
857, 478089434, -0.2114672064781189, -0.07423647493124008, -95.64057159423828, -0.017871508, -0.018918939, 0.36108494
858, 478106101, -0.21163815259933472, -0.07422912865877151, -95.64048767089844, -0.0027876073, -0.0046910243, 0.37268448
859, 478122768, -0.21308934688568115, -0.07363194227218628, -95.64009094238281, -0.018485652, -0.0024269996, 0.35328865
860, 478139435, -0.21213963627815247, -0.0741671696305275, -95.63995361328125, -0.009633794, -0.0072930497, 0.34452248
861, 478156102, -0.21294397115707397, -0.07407188415527344, -95.6386489868164, -0.0102307, 0.0098101245, 0.34540558
862, 478172769, -0.21162672340869904, -0.07346156239509583, -95.63809204101562, -0.0071892124, -0.0041446025, 0.34823895
863, 478189436, -0.21241040527820587, -0.07286310195922852, -95.63768768310547, 0.0028611063, -0.007706698, 0.34332561
864, 478206103, -0.211866557598114, -0.07211266458034515, -95.6366958618164, 0.0049426756, 0.0061915256, 0.35252476
865, 478222770, -0.21149656176567078, -0.07176359742879868, -95.63579559326172, -0.012662876, -0.009080311, 0.3499937
866, 478239437, -0.21210764348506927, -0.07117004692554474, -95.63526916503906, -0.001452271, 0.002738994, 0.3415804
867, 478256104, -0.21190574765205383, -0.07033023983240128, -95.63493347167969, -0.006570141, 0.007397334, 0.33639526
868, 478272771, -0.21179930865764618, -0.07079394161701202, -95.6364517211914, -0.012620603, 5.3570642E-5, 0.3595562
869, 478289438, -0.21193020045757294, -0.07280796021223068, -95.63660430908203, -0.0060252873, -0.012040561, 0.34386253
870, 478306105, -0.21174488961696625, -0.07304583489894867, -95.63656616210938, -0.012405092, -0.0021131518, 0.3627329
871, 478322772, -0.21168731153011322, -0.07376929372549057, -95.63594055175781, -0.010017108, 0.0016789665, 0.3313856
872, 478339439, -0.2120591402053833, -0.07321260869503021, -95.63658142089844, 0.007531613, -0.0037702392, 0.33020496
873, 478356106, -0.2104099690914154, -0.07315229624509811, -95.63668823242188, 0.0044006086, 0.0039208233, 0.33899593
874, 478372773, -0.2110489159822464, -0.07292144000530243, -95.63595581054688, 0.009405223, -0.0064232247, 0.33844566
875, 478389440, -0.21147091686725616, -0.07312145829200745, -95.63617706298828, -0.0047627594, -0.014904613, 0.36147118
876, 478406107, -0.21092872321605682, -0.0723971277475357, -95.63597869873047, -0.007944887, -0.010806443, 0.33925343
877, 478422774, -0.2104673534631729, -0.07302998751401901, -95.63591003417969, 0.0015228554, -0.005120515, 0.339509
878, 478439441, -0.21079084277153015, -0.07118693739175797, -95.6351547241211, -0.01948025, -0.0076250713, 0.3308115
879, 478456108, -0.21207131445407867, -0.07278594374656677, -95.6363754272461, -0.0037540079, -0.005297798, 0.3183775
880, 478472775, -0.2127271443605423, -0.07211218774318695, -95.63774108886719, 0.004859211, -0.0017197977, 0.36400318
881, 478489442, -0.21303702890872955, -0.07324820756912231, -95.63793182373047, -0.015022362, 0.003761882, 0.3577261
882, 478506109, -0.21303030848503113, -0.07440770417451859, -95.63739013671875, 1.2004217E-5, -0.0011006276, 0.37582588
883, 478522776, -0.21232245862483978, -0.07408468425273895, -95.63777160644531, -0.0070286146, 1.4165658E-4, 0.33447838
884, 478539443, -0.21178889274597168, -0.07473821938037872, -95.63776397705078, -0.007400189, -0.0038789983, 0.33356762
885, 478556110, -0.21246618032455444, -0.07556493580341339, -95.63835144042969, -0.0098102, -0.0078082345, 0.34974766
886, 478572777, -0.2126374989748001, -0.07482998818159103, -95.6380844116211, -0.010710744, -0.0024765907, 0.34721947
887, 478589444, -0.21317291259765625, -0.07462158054113388, -95.6390609741211, 7.121053E-4, 0.0022822008, 0.36496544
888, 478606111, -0.21364930272102356, -0.07444320619106293, -95.63842010498047, -5.9215043E-4, -0.011136129, 0.35263252
889, 478622778, -0.2121153622865677, -0.07490279525518417, -95.63751220703125, 0.012777419, -0.011926981, 0.35012722
890, 478639445, -0.21338042616844177, -0.07496190071105957, -95.63734436035156, -0.011430655, -0.00759667, 0.347888
891, 478656112, -0.2138795256614685, -0.07367877662181854, -95.63792419433594, -0.0059135025, -0.0017778622, 0.34473228
892, 478672779, -0.2143927961587906, -0.0742182806134224, -95.63946533203125, -0.0062088366, -0.004855395, 0.3539343
893, 478689446, -0.21444068849086761, -0.07373334467411041, -95.64097595214844, 8.5159135E-4, -0.005219215, 0.34751797
894, 478706113, -0.21474799513816833, -0.07510294765233994, -95.64167022705078, 0.0051793386, -0.023119165, 0.36176682
895, 478722780, -0.21398350596427917, -0.07523628324270248, -95.6417465209961, -3.378311E-4, -0.013435481, 0.37267876
896, 478739447, -0.2138672024011612, -0.07598040252923965, -95.64248657226562, 8.8964833E-4, -0.012281077, 0.34093666
897, 478756114, -0.2135077714920044, -0.07589489966630936, -95.64225006103516, -0.007078685, -0.005019139, 0.3618126
898, 478772781, -0.2126559019088745, -0.07557365298271179, -95.64169311523438, -0.006363624, 0.0070821, 0.3657875
899, 478789448, -0.21210940182209015, -0.07352560758590698, -95.6413803100586, -0.0124596525, -9.4476657E-4, 0.35194588
900, 478806115, -0.2124137133359909, -0.07368793338537216, -95.64069366455078, -0.009715811, 3.6987115E-4, 0.36784554
901, 478822782, -0.21291880309581757, -0.07378444075584412, -95.64073181152344, 0.0027440917, 0.0025974433, 0.36872673
902, 478839449, -0.21289370954036713, -0.07496976852416992, -95.6410140991211, -0.0019735226, -0.0111912945, 0.37271976
903, 478856116, -0.21283487975597382, -0.07412442564964294, -95.64037322998047, 0.008018929, 0.010426948, 0.33866692
904, 478872783, -0.21334563195705414, -0.07389425486326218, -95.64044189453125, 0.004269004, 0.00687002, 0.39080143
905, 478889450, -0.21356596052646637, -0.07368385791778564, -95.64118194580078, -0.01250604, -0.012945282, 0.35940647
906, 478906117, -0.21364234387874603, -0.07359796017408371, -95.6416015625, -0.008569278, -0.0036997253, 0.34058952
907, 478922784, -0.21387360990047455, -0.07333318144083023, -95.64143371582031, -0.0067495964, -0.004480264, 0.37125874
908, 478939451, -0.21390599012374878, -0.07432566583156586, -95.64207458496094, -0.008061818, -0.012521027, 0.35635185
909, 478956118, -0.21418792009353638, -0.07416136562824249, -95.64241027832031, -0.009416866, 0.0020867519, 0.3599348
910, 478972785, -0.2147447168827057, -0.07464126497507095, -95.64262390136719, -0.003926753, -0.008836108, 0.3475933
911, 478989452, -0.2145482897758484, -0.07403185963630676, -95.6426773071289, 0.009075054, 0.0032516744, 0.32944584
912, 479006119, -0.21352888643741608, -0.074158675968647, -95.64229583740234, -2.515778E-4, -0.007253628, 0.36403465
913, 479022786, -0.21277369558811188, -0.07528504729270935, -95.64111328125, 2.7849802E-4, -0.008497204, 0.35098457
914, 479039453, -0.21218706667423248, -0.07722001522779465, -95.64090728759766, -0.018188408, 0.010648422, 0.36768723
915, 479056120, -0.21201832592487335, -0.07654312998056412, -95.64027404785156, -0.014402199, 0.0049961125, 0.3417263
916, 479072787, -0.21159829199314117, -0.07700242102146149, -95.64026641845703, -0.009031923, -0.0021666647, 0.34128094
917, 479089454, -0.2115790843963623, -0.07734718173742294, -95.6402816772461, 0.0037619334, -0.0015114662, 0.3577299
918, 479106121, -0.2114059031009674, -0.07840919494628906, -95.63953399658203, -0.001914048, -0.006225218, 0.34229374
919, 479122788, -0.21241135895252228, -0.08074300736188889, -95.64080047607422, -0.0036926812, -0.004773161, 0.3381214
920, 479139455, 0.004874041769653559, -0.20196746289730072, -95.64803314208984, -0.19518359, 0.24230678, 0.15659046
921, 479156122, 0.055404871702194214, -0.1944407969713211, -97.24539184570312, 2.2718956, 0.6289274, 0.50610733
922, 479172789, 0.11542854458093643, -0.20824559032917023, -97.76689147949219, -0.17668341, -0.7520189, 0.364707
923, 479189456, 0.1312320977449417, -0.20162008702754974, -98.09136199951172, -0.13386808, 0.022284333, 0.34153175
924, 479206123, 0.1453620195388794, -0.19802257418632507, -98.32012939453125, 0.05602427, -0.0592751, 0.33938885
925, 479222790, 0.15385600924491882, -0.18808569014072418, -98.5456771850586, 0.067911536, -0.124900356, 0.3522873
926, 479239457, 0.1676502525806427, -0.180975079536438, -98.73407745361328, 0.34226125, -0.30950135, 0.363595
927, 479256124, 0.18204689025878906, -0.17812524735927582, -98.67900848388672, 0.20670743, -0.23383266, 0.36938667
928, 479272791, 0.19539420306682587, -0.175104022026062, -98.5362548828125, 0.15289202, -0.12137937, 0.36123943
929, 479289458, 0.20747017860412598, -0.1758822351694107, -98.36845397949219, 0.073053636, 0.09367109, 0.3629675
930, 479306125, 0.2148646116256714, -0.18174360692501068, -98.1889419555664, 0.30842105, 0.09912125, 0.33595085
931, 479322792, 0.22316846251487732, -0.18763718008995056, -97.78274536132812, 0.29431304, 0.14230245, 0.3475628
932, 479339459, 0.2292626053094864, -0.19328440725803375, -97.28660583496094, 0.35912973, 0.15450865, 0.33703804
933, 479356126, 0.2394542098045349, -0.19703815877437592, -96.86244201660156, 0.20645212, 0.04213733, 0.3832159
934, 479372793, 0.25555387139320374, -0.19366315007209778, -96.58596801757812, 0.2531075, 0.03255497, 0.35770607
935, 479389460, 0.2708073854446411, -0.1937006115913391, -96.41455078125, 0.26923063, -0.04081349, 0.38236904
936, 479406127, 0.2830376923084259, -0.1959986835718155, -96.16389465332031, 0.2675652, 0.017367115, 0.3470726
937, 479422794, 0.29118186235427856, -0.20314237475395203, -95.92012023925781, -0.08129488, 0.10151885, 0.3271675
938, 479439461, 0.2993456721305847, -0.21153393387794495, -95.80000305175781, -0.1898474, 0.3634969, 0.34065056
939, 479456128, 0.3069816529750824, -0.21467114984989166, -95.6480712890625, 0.28434575, 0.39109024, 0.3369522
940, 479472795, 0.3165470361709595, -0.21003124117851257, -95.49449157714844, 0.26018205, 0.13315089, 0.3122406
941, 479489462, 0.3234187960624695, -0.18446016311645508, -95.4581527709961, 0.3633887, -0.8422886, 0.36477375
942, 479506129, 0.3257772922515869, -0.18265868723392487, -95.54203796386719, 0.38274664, -0.39067864, 0.36645412
943, 479522796, 0.3205636739730835, -0.18209420144557953, -95.56598663330078, 0.2034252, -0.02238602, 0.36851597
944, 479539463, 0.30341508984565735, -0.17306466400623322, -95.41690826416016, 0.20057265, 0.14998159, 0.3174324
945, 479556130, 0.29425689578056335, -0.1511240452528, -95.17711639404297, -0.031258747, -0.016096218, 0.3744707
946, 479572797, 0.3016059100627899, -0.1267620176076889, -95.0467529296875, -0.14402752, -0.049965076, 0.3629942
947, 479589464, 0.3061712384223938, -0.10872377455234528, -94.9820785522461, -0.11524308, -0.054189928, 0.3557377
948, 479606131, 0.29927411675453186, -0.10176526755094528, -94.85794067382812, 0.070994474, -0.06694878, 0.33529663
949, 479622798, 0.2960916757583618, -0.09466803818941116, -94.73872375488281, 0.17512238, 0.018556112, 0.3337412
950, 479639465, 0.29221856594085693, -0.0903298631310463, -94.58676147460938, 0.06882023, 0.067826904, 0.33518982
951, 479656132, 0.28005972504615784, -0.08202776312828064, -94.55628967285156, -2.7439184E-4, 0.09569826, 0.34515572
952, 479672799, 0.251916766166687, -0.07304980605840683, -94.56295776367188, 0.17656021, 0.029477235, 0.36357307
953, 479689466, 0.22349706292152405, -0.06265468895435333, -94.60298156738281, 0.37717262, -0.02079499, 0.35440636
954, 479706133, 0.2138085961341858, -0.057799261063337326, -94.64678955078125, 0.52038515, -0.18384895, 0.33458328
955, 479722800, 0.23195962607860565, -0.055433277040719986, -94.69269561767578, 0.28782886, -0.10324579, 0.34172726
956, 479739467, 0.26210471987724304, -0.052668847143650055, -94.63980102539062, -0.20129848, 0.060929015, 0.36929417
957, 479756134, 0.29273536801338196, -0.05163653939962387, -94.57943725585938, -0.27652693, 0.040026233, 0.35814667
958, 479772801, 0.30405694246292114, -0.04384351149201393, -94.53631591796875, -0.11565387, 0.046167344, 0.34432888
959, 479789468, 0.3074803352355957, -0.04342767223715782, -94.5640869140625, 0.1128381, 0.13507347, 0.37451744
960, 479806135, 0.30073124170303345, -0.030982956290245056, -94.5837173461914, 0.397734, 0.042902227, 0.3413639
961, 479822802, 0.2831914722919464, -0.02309489995241165, -94.56130981445312, 0.27511826, 0.011621649, 0.3635111
962, 479839469, 0.26940250396728516, -0.011112972162663937, -94.57320404052734, -0.13621685, 0.07143392, 0.3379221
963, 479856136, 0.2574544847011566, -0.003563330974429846, -94.64775848388672, -0.16509025, -0.21341519, 0.32175732
964, 479872803, 0.2616647183895111, -0.013013272546231747, -94.87667846679688, 0.14081152, -0.1064651, 0.34243965
965, 479889470, 0.28099942207336426, -0.016622770577669144, -95.11479187011719, 0.3904915, -0.13267879, 0.35685825
966, 479906137, 0.29903239011764526, -0.013251314871013165, -95.23410034179688, 0.50995255, -0.050623246, 0.33137035
967, 479922804, 0.30104538798332214, -0.004906464368104935, -95.2924575805664, 0.18088195, -0.04614374, 0.35286522
968, 479939471, 0.29388222098350525, 0.0046888054348528385, -95.30606842041016, 0.07916889, 0.13012041, 0.3508253
969, 479956138, 0.2675653398036957, 0.028866678476333618, -95.31033325195312, 0.13392675, 0.006790207, 0.3566332
970, 479972805, 0.23806434869766235, 0.05886353924870491, -95.26069641113281, 0.15129721, -0.12008426, 0.362463
971, 479989472, 0.20356251299381256, 0.067027747631073, -95.28385925292969, -0.070364885, -0.22681297, 0.3347311
972, 480006139, 0.16966651380062103, 0.05825994536280632, -95.29568481445312, -0.27587897, 0.08431686, 0.33850765
973, 480022806, 0.1585744023323059, 0.04242783412337303, -95.30603790283203, -0.18667148, 0.116166666, 0.3540697
974, 480039473, 0.16948436200618744, 0.03323784098029137, -95.38993072509766, -0.16249679, 0.06627275, 0.330225
975, 480056140, 0.18743443489074707, 0.025386229157447815, -95.46698760986328, -0.056946456, -0.030919416, 0.35880756
976, 480072807, 0.20096509158611298, 0.020702311769127846, -95.4953842163086, -0.06444904, -0.07260237, 0.32994652
977, 480089474, 0.19789941608905792, 0.008064212277531624, -95.53235626220703, 0.072570786, -0.014115907, 0.38327885
978, 480106141, 0.18942683935165405, -0.010546592995524406, -95.50171661376953, 0.22575787, 0.003071874, 0.36247063
979, 480122808, 0.19727063179016113, -0.02924954891204834, -95.46995544433594, 0.14048292, -0.015735436, 0.34796906
980, 480139475, 0.2106754034757614, -0.05138663947582245, -95.46859741210938, -0.0022377812, -0.030714797, 0.34830284
981, 480156142, 0.23157386481761932, -0.07463718950748444, -95.46773529052734, -0.22248635, 0.005010667, 0.34051704
982, 480172809, 0.25116783380508423, -0.0913044661283493, -95.44049835205078, -0.245229, 0.07596948, 0.37722397
983, 480189476, 0.27345478534698486, -0.10383723676204681, -95.4303207397461, -0.07261663, -0.0048063314, 0.39653587
984, 480206143, 0.2720409035682678, -0.11405269801616669, -95.43904876708984, 0.11708001, -0.027866747, 0.36858177
985, 480222810, 0.24871237576007843, -0.12169772386550903, -95.39256286621094, 0.13195266, -0.010301012, 0.38872147
986, 480239477, 0.20640124380588531, -0.128910630941391, -95.4054183959961, 0.015314398, -0.08395354, 0.33202648
987, 480256144, 0.15430322289466858, -0.12585587799549103, -95.47329711914062, -0.039063647, -0.03527613, 0.36966038
988, 480272811, 0.10860171914100647, -0.11265532672405243, -95.51847076416016, -0.13519986, -0.053468782, 0.3243389
989, 480289478, 0.08034030348062515, -0.11021383106708527, -95.496337890625, -0.623885, 0.24378748, 0.36686707
990, 480306145, 0.08161795139312744, -0.10594725608825684, -95.39781951904297, -0.5665798, 0.5430087, 0.33612442
991, 480322812, 0.0900348424911499, -0.09496597945690155, -95.32037353515625, -0.50793785, 0.26438054, 0.3531866
992, 480339479, 0.09260856360197067, -0.07623066008090973, -95.23490905761719, 0.07090728, -0.2239389, 0.37970734
993, 480356146, 0.09636339545249939, -0.055791597813367844, -95.17045593261719, 0.31693217, -0.23515919, 0.3512411
994, 480372813, 0.11382392793893814, -0.05664144456386566, -95.19925689697266, 0.5446037, -0.13172822, 0.33351517
995, 480389480, 0.14494776725769043, -0.07113076746463776, -95.26964569091797, 0.48127127, -0.26716346, 0.35391617
996, 480406147, 0.19991983473300934, -0.08162804692983627, -95.38955688476562, 0.15238798, -0.16483395, 0.3762741
997, 480422814, 0.2269705981016159, -0.08909989893436432, -95.46874237060547, -0.3763697, 0.030024774, 0.3683958
998, 480439481, 0.246932253241539, -0.09139960259199142, -95.56926727294922, -0.5339398, 0.18294863, 0.33902073
999, 480456148, 0.28624603152275085, -0.09192726761102676, -95.58638763427734, -0.3226357, 0.20252325, 0.3718443
1000, 480472815, 0.3145242929458618, -0.08038676530122757, -95.61995697021484, -0.09754201, 0.04969617, 0.37269592
1001, 480489482, 0.34272709488868713, -0.06474354863166809, -95.66304016113281, 0.22152223, 0.02795918, 0.3402176
1002, 480506149, 0.35565319657325745, -0.05152014642953873, -95.72100067138672, 0.3085167, 0.067073196, 0.35350323
1003, 480522816, 0.3667094111442566, -0.04604668542742729, -95.75459289550781, 0.2213226, -0.12824117, 0.34506607
1004, 480539483, 0.3634013533592224, -0.0399598591029644, -95.81928253173828, 0.08421775, -0.14824426, 0.36785126
1005, 480556150, 0.3484286367893219, -0.04362722858786583, -95.93927001953125, 0.09060913, -0.16673341, 0.32413483
1006, 480572817, 0.32081109285354614, -0.045685213059186935, -96.05567932128906, 0.042314243, -0.0198511, 0.34938908
1007, 480589484, 0.2798760235309601, -0.04469060152769089, -96.1407699584961, -0.18643586, 0.008494885, 0.39077473
1008, 480606151, 0.25445756316185, -0.03982115909457207, -96.15230560302734, -0.34788725, 0.31142774, 0.3253727
1009, 480622818, 0.22883860766887665, -0.03620315343141556, -96.06034088134766, -0.17827974, 0.4908891, 0.36872005
1010, 480639485, 0.19042116403579712, -0.014500733464956284, -95.8706283569336, 0.04169953, 0.0856618, 0.34260845
1011, 480656152, 0.16302315890789032, 0.019878767430782318, -95.66400146484375, 0.26039118, -0.21293548, 0.36737347
1012, 480672819, 0.14905579388141632, 0.05367074906826019, -95.53267669677734, 0.14496487, -0.2840298, 0.34953403
1013, 480689486, 0.15259188413619995, 0.04931038245558739, -95.5650863647461, 0.035102285, -0.2539664, 0.36074066
1014, 480706153, 0.163207545876503, 0.037471167743206024, -95.58847045898438, 0.036833353, -0.14691368, 0.34637737
1015, 480722820, 0.1914689987897873, 0.02701113000512123, -95.6116714477539, -0.087199576, -0.07129616, 0.35169888
1016, 480739487, 0.22266773879528046, 0.027482787147164345, -95.65678405761719, -0.22102803, 0.045578174, 0.3498068
1017, 480756154, 0.24500061571598053, 0.024489371106028557, -95.70533752441406, -0.15554692, 0.01851128, 0.35618305
1018, 480772821, 0.25790655612945557, 0.017245346680283546, -95.7345962524414, -0.11972085, 0.06747862, 0.32314777
1019, 480789488, 0.26587799191474915, 0.006216099020093679, -95.75956726074219, 0.044063684, 0.017449569, 0.34117794
1020, 480806155, 0.2815965712070465, -0.01009528711438179, -95.75025177001953, 0.17557438, 0.13038178, 0.32735062
1021, 480822822, 0.30036425590515137, -0.017635082826018333, -95.7456283569336, 0.044493206, -0.018588532, 0.36484337
1022, 480839489, 0.3103805184364319, -0.027008624747395515, -95.782958984375, -0.18288109, -0.037718486, 0.3425789
1023, 480856156, 0.3094013035297394, -0.026137882843613625, -95.88720703125, -0.19526403, -0.10013568, 0.3602028
1024, 480872823, 0.3085997998714447, -0.02902130037546158, -95.95397186279297, -0.07963675, -0.028930435, 0.33626652
1025, 480889490, 0.3217012286186218, -0.04654311761260033, -95.97433471679688, 0.04997038, 0.05552003, 0.33392715
1026, 480906157, 0.33101117610931396, -0.05958233401179314, -95.96963500976562, 0.0060617183, -0.022575751, 0.33680058
1027, 480922824, 0.3312280774116516, -0.07074306160211563, -95.98509216308594, -0.09582316, -0.067200385, 0.39089775
