PacketCounter,SampleTimeFine,Euler_X,Euler_Y,Euler_Z,FreeAcc_X,FreeAcc_Y,FreeAcc_Z
1,463822482,-0.017960300669074,-0.9258915781974792,-93.13955688476562,-0.33358264,0.22766656,0.34825993
2,463839149,-0.2790104150772095,-0.758804202079773,-94.17345428466795,-0.8035502,0.34739313,0.36598969
3,463855816,-0.8353359699249268,-0.5844365358352661,-95.30824279785156,0.42411476,-0.18863292,0.30652332
4,463872483,-0.8924024105072021,-0.6658297777175903,-95.4474105834961,1.2796352,-0.2845245,0.3767767
5,463889150,-0.779633104801178,-0.5862778425216675,-95.46473693847656,-0.10091317,0.24023367,0.33060646
6,463905817,-0.547265350818634,-0.5602359771728516,-95.4564208984375,0.07508615,0.016907452,0.3220644
7,463922484,-0.3976472914218902,-0.5470241904258728,-95.46847534179688,0.03267941,0.060769618,0.35473347
8,463939151,-0.3126136064529419,-0.5385754704475403,-95.4967803955078,0.029031647,0.07111701,0.33617783
9,463955818,-0.2505180835723877,-0.5277515649795532,-95.49993133544922,-0.0006317471,0.06896463,0.33771992
10,463972485,-0.2152471989393234,-0.5212892293930054,-95.50250244140624,-0.014434705,0.08392037,0.3733387
11,463989152,-0.1949645578861236,-0.5196430683135986,-95.50273895263672,0.00018525994,0.08538669,0.3465662
12,464005819,-0.1802912056446075,-0.5147383213043213,-95.49645233154295,4.2627238e-05,0.07841724,0.3517189
13,464022486,-0.1720566302537918,-0.512710690498352,-95.49169921875,0.0067697614,0.07223084,0.32730293
14,464039153,-0.165608748793602,-0.5103228688240051,-95.49484252929688,-0.0034060038,0.0757238,0.3368044
15,464055820,-0.1613553017377853,-0.5113188028335571,-95.48475646972656,-0.0123833325,0.0645456,0.3371935
16,464072487,-0.1612851768732071,-0.5142720341682434,-95.4771957397461,-0.007426892,0.06881785,0.33924866
17,464089154,-0.1619150936603546,-0.5192152261734009,-95.47630310058594,-0.01393353,0.088385135,0.34179497
18,464105821,-0.1652319282293319,-0.5232716202735901,-95.4685516357422,-0.005981385,0.09253626,0.34015656
19,464122488,-0.1682505905628204,-0.5280820727348328,-95.46842193603516,0.007525574,0.08262941,0.3290615
20,464139155,-0.1709628850221634,-0.5352737307548523,-95.4733657836914,-0.0029455088,0.07298871,0.34216785
21,464155822,-0.1746156811714172,-0.5431462526321411,-95.467529296875,-0.003850284,0.0840074,0.35867023
22,464172489,-0.1787114143371582,-0.5505776405334473,-95.45885467529295,-0.0016186808,0.0711131,0.33057022
23,464189156,-0.183333545923233,-0.5602070093154907,-95.45355987548828,0.020168593,0.07179537,0.3236866
24,464205823,-0.1871936917304992,-0.5680211186408997,-95.451171875,0.00089565484,0.07693484,0.34818554
25,464222490,-0.1913219839334488,-0.5780826807022095,-95.44312286376952,-0.010307909,0.08749996,0.34494877
26,464239157,-0.1964004933834076,-0.5883520245552063,-95.44117736816406,0.004933323,0.0797455,0.34075928
27,464255824,-0.2008875459432602,-0.5987692475318909,-95.43639373779295,-0.0039202976,0.089996204,0.34829426
28,464272491,-0.2066103965044021,-0.609923779964447,-95.43318939208984,-0.005829198,0.09863447,0.3516283
29,464289158,-0.2107079178094864,-0.6223040223121643,-95.4338150024414,0.009571555,0.09483637,0.33755112
30,464305825,-0.2163348942995071,-0.6329155564308167,-95.42716979980467,0.02044729,0.09145088,0.33229828
31,464322492,-0.2200648188591003,-0.642882764339447,-95.42401885986328,0.009473006,0.082115605,0.33367252
32,464339159,-0.2253763675689697,-0.6541669964790344,-95.42365264892578,0.014831116,0.095336035,0.32287884
33,464355826,-0.2310710400342941,-0.6662777662277222,-95.43235778808594,0.002208399,0.098780416,0.34943104
34,464372493,-0.2359075844287872,-0.6788151860237122,-95.42761993408205,0.007867579,0.09360753,0.34123802
35,464389160,-0.2406119853258133,-0.6911900639533997,-95.4109878540039,0.015614098,0.102305986,0.3408165
36,464405827,-0.2449712753295898,-0.7037479877471924,-95.4060287475586,0.0133694485,0.1138982,0.34613037
37,464422494,-0.2500253021717071,-0.716552197933197,-95.4006576538086,0.01013123,0.11586715,0.34716988
38,464439161,-0.2555268108844757,-0.7289168238639832,-95.40259552001952,0.010757808,0.10905674,0.3643856
39,464455828,-0.2587418556213379,-0.7419878840446472,-95.40607452392578,0.007929859,0.12998922,0.33249283
40,464472495,-0.2622243762016296,-0.7542462944984436,-95.39383697509766,0.0022167682,0.11420854,0.3368578
41,464489162,-0.2669077515602112,-0.7658948302268982,-95.39798736572266,0.025533384,0.10628001,0.35841656
42,464505829,-0.2710843980312347,-0.7785248756408691,-95.39010620117188,0.012943351,0.11580986,0.32867336
43,464522496,-0.2756832242012024,-0.7924002408981323,-95.38249206542967,0.012729618,0.121737964,0.33430958
44,464539163,-0.2804741859436035,-0.8058906197547913,-95.37425231933594,0.023229584,0.1286909,0.35620308
45,464555830,-0.2843215465545654,-0.8185533881187439,-95.36278533935548,0.02512059,0.13270803,0.3627081
46,464572497,-0.2886697053909302,-0.8322011828422546,-95.35751342773438,0.0044391872,0.12344446,0.33895493
47,464589164,-0.292305439710617,-0.8450646996498108,-95.35110473632812,0.01692568,0.12574594,0.31809998
48,464605831,-0.2970086336135864,-0.8578043580055237,-95.3449935913086,0.020524206,0.14657809,0.33028412
49,464622498,-0.3014151751995086,-0.8698266744613647,-95.34358215332033,0.03819571,0.13608687,0.3458252
50,464639165,-0.3062727153301239,-0.8812757134437561,-95.3379364013672,0.0326359,0.13312982,0.36058044
51,464655832,-0.3106829822063446,-0.8934364318847656,-95.3369140625,0.024228847,0.13328715,0.33649063
52,464672499,-0.3137958943843841,-0.9078248143196106,-95.33736419677734,0.03161312,0.13653062,0.3315611
53,464689166,-0.317724198102951,-0.9210057854652404,-95.33590698242188,0.03180101,0.13049418,0.33952045
54,464705833,-0.3230531811714172,-0.9341747164726256,-95.32933044433594,0.031772286,0.1419981,0.33788967
55,464722500,-0.3270604610443115,-0.9476835131645204,-95.32428741455078,0.037190426,0.1484366,0.3464918
56,464739167,-0.3313967585563659,-0.9615747332572936,-95.32342529296876,0.03642745,0.13985011,0.33210087
57,464755834,-0.3346911668777466,-0.9771066904067992,-95.31536102294922,0.025820868,0.15207575,0.32839108
58,464772501,-0.3384392261505127,-0.9897635579109192,-95.31371307373048,0.043145187,0.15637305,0.35142136
59,464789168,-0.3421162962913513,-1.002702713012695,-95.30590057373048,0.035215598,0.14729373,0.34631443
60,464805835,-0.3465941250324249,-1.0167418718338013,-95.30416107177734,0.045336388,0.15876405,0.3278513
61,464822502,-0.351797342300415,-1.030277967453003,-95.3028793334961,0.034853842,0.15978436,0.3313179
62,464839169,-0.3560055196285248,-1.045016527175903,-95.2919692993164,0.04371604,0.16418286,0.35134792
63,464855836,-0.3591640293598175,-1.058361291885376,-95.2866439819336,0.04174949,0.16566052,0.3413744
64,464872503,-0.3629056513309479,-1.0724334716796875,-95.28185272216795,0.036866743,0.16675721,0.3483162
65,464889170,-0.3664384484291076,-1.085829496383667,-95.27522277832033,0.026108837,0.177541,0.3469038
66,464905837,-0.3694962859153747,-1.099583625793457,-95.27721405029295,0.047130473,0.17857757,0.34984875
67,464922504,-0.3729372322559356,-1.112349271774292,-95.27481842041016,0.044285018,0.18847546,0.32293034
68,464939171,-0.3776458203792572,-1.124343991279602,-95.27084350585938,0.03241069,0.16827047,0.3417015
69,464955838,-0.3815265297889709,-1.1373361349105835,-95.2675323486328,0.041747235,0.17675665,0.33310032
70,464972505,-0.3864534199237823,-1.1521062850952148,-95.26219177246094,0.03868101,0.1851111,0.3424635
71,464989172,-0.3901503682136535,-1.1658223867416382,-95.2564468383789,0.053213425,0.18027036,0.35050106
72,465005839,-0.3931871950626373,-1.1794573068618774,-95.25540924072266,0.05270782,0.16941139,0.36554432
73,465022506,-0.3949186205863952,-1.1937425136566162,-95.25127410888672,0.04866751,0.18774322,0.3282051
74,465039173,-0.4002256095409393,-1.2066915035247805,-95.24671936035156,0.039381605,0.19109902,0.35002995
75,465055840,-0.4039919376373291,-1.2198182344436646,-95.24295043945312,0.055202752,0.18637548,0.32324505
76,465072507,-0.4073413014411926,-1.2324693202972412,-95.23634338378906,0.060292996,0.18583654,0.34441376
77,465089174,-0.411013513803482,-1.2463483810424805,-95.22992706298828,0.058737256,0.2109578,0.32955265
78,465105841,-0.4147854149341583,-1.2580057382583618,-95.22421264648438,0.044053238,0.19692934,0.343215
79,465122508,-0.4185023307800293,-1.2703964710235596,-95.21957397460938,0.049761295,0.197921,0.35191154
80,465139175,-0.4226667582988739,-1.2833040952682495,-95.21743774414062,0.065048754,0.21421048,0.34515285
81,465155842,-0.4259693026542663,-1.296173930168152,-95.2144012451172,0.06252612,0.20370749,0.3638029
82,465172509,-0.4293574094772339,-1.309162974357605,-95.21439361572266,0.0632735,0.2075969,0.3566084
83,465189176,-0.4336752295494079,-1.3230372667312622,-95.2109375,0.057507347,0.2090554,0.31873703
84,465205843,-0.4376409351825714,-1.3333876132965088,-95.20765686035156,0.05549453,0.21226873,0.32672215
85,465222510,-0.4408777356147766,-1.344754934310913,-95.20331573486328,0.06997323,0.21090423,0.332489
86,465239177,-0.4445069432258606,-1.3568115234375,-95.20174407958984,0.06287319,0.20710428,0.35750866
87,465255844,-0.4475439488887787,-1.3692623376846311,-95.19938659667967,0.058281656,0.2208343,0.35460567
88,465272511,-0.450084388256073,-1.382681369781494,-95.1954345703125,0.062247016,0.21449135,0.3520441
89,465289178,-0.4533670544624328,-1.394346833229065,-95.19486236572266,0.059860107,0.21142037,0.35462475
90,465305845,-0.457834243774414,-1.4056711196899414,-95.19152069091795,0.058943566,0.21852931,0.3724594
91,465322512,-0.4612822234630584,-1.418275237083435,-95.18704986572266,0.06461316,0.23559467,0.3483572
92,465339179,-0.4654905796051025,-1.4298038482666016,-95.18438720703124,0.06333775,0.22507635,0.366354
93,465355846,-0.4693281948566437,-1.441422939300537,-95.17845153808594,0.058099598,0.23356104,0.36411953
94,465372513,-0.4728441834449768,-1.454856514930725,-95.17403411865234,0.057757545,0.22005172,0.35020447
95,465389180,-0.475660890340805,-1.4670108556747437,-95.17010498046876,0.06758198,0.23449594,0.35709858
96,465405847,-0.4790813624858856,-1.479811668395996,-95.16812896728516,0.06442621,0.24159367,0.34684563
97,465422514,-0.4818762540817261,-1.4926000833511353,-95.16556549072266,0.06846438,0.23070306,0.32863426
98,465439181,-0.4843993186950683,-1.5036929845809937,-95.16158294677734,0.064605944,0.24679278,0.35215855
99,465455848,-0.4874525070190429,-1.5165441036224363,-95.15937042236328,0.08175492,0.23834874,0.36307907
100,465472515,-0.4898294806480407,-1.527134895324707,-95.15538024902344,0.077697724,0.23869781,0.3421631
101,465489182,-0.4927766621112823,-1.5384647846221924,-95.15646362304688,0.076422274,0.23300982,0.33952332
102,465505849,-0.4962112307548523,-1.5499920845031738,-95.15614318847656,0.06560659,0.26040566,0.3436432
103,465522516,-0.4987000226974487,-1.560053825378418,-95.15817260742188,0.07865255,0.26722336,0.31947327
104,465539183,-0.501464307308197,-1.570305585861206,-95.15411376953124,0.07156969,0.2555609,0.37132072
105,465555850,-0.5050933361053467,-1.5815918445587158,-95.14936065673828,0.06305693,0.2516889,0.34417439
106,465572517,-0.5086129903793335,-1.5930047035217283,-95.15049743652344,0.07175073,0.26828465,0.35686302
107,465589184,-0.511074960231781,-1.604819893836975,-95.14996337890624,0.07478028,0.26711914,0.33067036
108,465605851,-0.5146036744117737,-1.6163663864135742,-95.15005493164062,0.07540588,0.26193532,0.36353207
109,465622518,-0.5181334614753723,-1.6288676261901855,-95.14734649658205,0.0813526,0.2619141,0.33758926
110,465639185,-0.5206204056739807,-1.6391887664794922,-95.14582824707033,0.07912054,0.26261064,0.3311472
111,465655852,-0.5229875445365906,-1.6501939296722412,-95.14495086669922,0.084581085,0.26922777,0.33970737
112,465672519,-0.5257729291915894,-1.6601364612579346,-95.14341735839844,0.08308911,0.2760558,0.33546925
113,465689186,-0.5289218425750732,-1.66981840133667,-95.14374542236328,0.0763102,0.27194318,0.34195232
114,465705853,-0.530614972114563,-1.681546688079834,-95.14378356933594,0.078844465,0.26305544,0.3380623
115,465722520,-0.5334493517875671,-1.6891130208969116,-95.1400375366211,0.084710225,0.2669569,0.3396597
116,465739187,-0.5352532863616943,-1.6981432437896729,-95.13724517822266,0.08125216,0.28300813,0.3663807
117,465755854,-0.5381637811660767,-1.7107117176055908,-95.13455200195312,0.07740191,0.27685997,0.3184328
118,465772521,-0.5409932732582092,-1.7189699411392212,-95.1322021484375,0.08510563,0.2668023,0.34250832
119,465789188,-0.5443501472473145,-1.727418065071106,-95.13268280029295,0.08550963,0.28579754,0.36574268
120,465805855,-0.5466049909591675,-1.738492488861084,-95.1322250366211,0.08381974,0.2710758,0.33733177
121,465822522,-0.5489665865898132,-1.7494853734970093,-95.1316146850586,0.0906828,0.28126252,0.3505497
122,465839189,-0.5531561374664307,-1.7590426206588743,-95.12751770019533,0.08527092,0.28960264,0.3475914
123,465855856,-0.5555240511894226,-1.769052267074585,-95.12630462646484,0.08085289,0.29028612,0.3403139
124,465872523,-0.5580410361289978,-1.7793673276901243,-95.12435150146484,0.080018386,0.28194073,0.32303047
125,465889190,-0.5604878664016724,-1.7884756326675415,-95.12571716308594,0.08586415,0.2850637,0.33950233
126,465905857,-0.5618921518325806,-1.79611074924469,-95.12974548339844,0.080404356,0.28263715,0.34864235
127,465922524,-0.5641553997993469,-1.8042972087860107,-95.12726593017578,0.07724285,0.2898755,0.3458357
128,465939191,-0.5667131543159485,-1.8132617473602293,-95.12792205810548,0.07887527,0.30080405,0.33501434
129,465955858,-0.5695119500160217,-1.8209794759750368,-95.12862396240234,0.08465894,0.29459757,0.35090733
130,465972525,-0.5721707940101624,-1.8293031454086304,-95.12894439697266,0.09500583,0.30008066,0.34485912
131,465989192,-0.5744415521621704,-1.8395121097564695,-95.12854766845705,0.09113417,0.29622748,0.34158802
132,466005859,-0.576178252696991,-1.8468289375305176,-95.13147735595705,0.088650815,0.30045018,0.35903168
133,466022526,-0.5792157053947449,-1.8539658784866333,-95.1286849975586,0.07911346,0.3068858,0.33821487
134,466039193,-0.5817452073097229,-1.8615694046020508,-95.1306610107422,0.080188684,0.30994827,0.30513668
135,466055860,-0.583508312702179,-1.8691152334213257,-95.12857055664062,0.08800241,0.31029615,0.3547945
136,466072527,-0.5856953859329224,-1.875162959098816,-95.13338470458984,0.09939344,0.32095876,0.3534336
137,466089194,-0.5874893069267273,-1.8830622434616089,-95.13317108154295,0.08621214,0.30733654,0.34118843
138,466105861,-0.5900959372520447,-1.890188694000244,-95.13420867919922,0.09065007,0.30927777,0.34318256
139,466122528,-0.5929576754570007,-1.898829698562622,-95.13697814941406,0.09626407,0.30817342,0.35584068
140,466139195,-0.5945014357566833,-1.9069011211395264,-95.14073944091795,0.08901201,0.3113857,0.33112717
141,466155862,-0.5983266830444336,-1.9138834476470947,-95.14092254638672,0.08301214,0.30816197,0.34469128
142,466172529,-0.6008438467979431,-1.9219354391098025,-95.14151763916016,0.09415471,0.3249528,0.3374462
143,466189196,-0.6025327444076538,-1.928942084312439,-95.14070129394533,0.10103248,0.3112885,0.3332243
144,466205863,-0.6049833297729492,-1.9337202310562132,-95.13951110839844,0.08384791,0.3173563,0.3268385
145,466222530,-0.6067214608192444,-1.9394854307174685,-95.13838958740234,0.096750304,0.3157017,0.3368349
146,466239197,-0.6092496514320374,-1.9462687969207764,-95.13980102539062,0.10780895,0.3191231,0.35609436
147,466255864,-0.6114792823791504,-1.9531534910202024,-95.1408920288086,0.092143424,0.31368983,0.34310913
148,466272531,-0.6133741140365601,-1.9591411352157595,-95.14192962646484,0.099835746,0.32699308,0.32755566
149,466289198,-0.6157035827636719,-1.964861512184143,-95.14315795898438,0.08690136,0.3169568,0.35249233
150,466305865,-0.616018533706665,-1.9722418785095213,-95.14250183105467,0.100404754,0.32260922,0.34300327
151,466322532,-0.6180658340454102,-1.97848379611969,-95.14659118652344,0.1106511,0.31516808,0.33173656
152,466339199,-0.619858980178833,-1.9824310541152956,-95.14969635009766,0.09784805,0.32669425,0.34884167
153,466355866,-0.6217346787452698,-1.98856520652771,-95.1466827392578,0.095728904,0.32568768,0.3344078
154,466372533,-0.6227048635482788,-1.993376851081848,-95.14543151855467,0.09881179,0.3278194,0.32166958
155,466389200,-0.6241604089736938,-1.9988267421722408,-95.14774322509766,0.09695644,0.33964348,0.3466568
156,466405867,-0.6262798309326172,-2.005120754241944,-95.14991760253906,0.09467875,0.3105334,0.3461628
157,466422534,-0.6288669109344482,-2.0113251209259038,-95.15125274658205,0.11715829,0.31796294,0.34379768
158,466439201,-0.63103848695755,-2.014854431152344,-95.1509017944336,0.112173714,0.31928337,0.35592937
159,466455868,-0.632891833782196,-2.020656108856201,-95.15267944335938,0.1016293,0.3375552,0.3444357
160,466472535,-0.6344966292381287,-2.0261125564575195,-95.15345001220705,0.10870012,0.34094134,0.32112885
161,466489202,-0.6364905834197998,-2.029656410217285,-95.15550994873048,0.0922498,0.32582048,0.34025288
162,466505869,-0.6381469964981079,-2.035074234008789,-95.15953063964844,0.10179383,0.333809,0.33334732
163,466522536,-0.6397876143455505,-2.039229393005371,-95.16326141357422,0.092015825,0.3382801,0.32421398
164,466539203,-0.6410577893257141,-2.0433428287506104,-95.16661834716795,0.103968404,0.32886758,0.34704208
165,466555870,-0.6418759226799011,-2.0478456020355225,-95.16854095458984,0.09714277,0.3341475,0.36211014
166,466572537,-0.6429895162582397,-2.0525872707366943,-95.16651916503906,0.09827858,0.33105946,0.32287502
167,466589204,-0.6450605988502502,-2.057598829269409,-95.16783905029295,0.10436271,0.34051457,0.35639477
168,466605871,-0.6461971998214722,-2.06178617477417,-95.1715087890625,0.11027907,0.32710204,0.34817982
169,466622538,-0.6472869515419006,-2.064806699752808,-95.17498016357422,0.102100246,0.3393615,0.33219814
170,466639205,-0.6480679512023926,-2.066917657852173,-95.17742156982422,0.098527595,0.3442543,0.32592487
171,466655872,-0.6489295363426208,-2.069922924041748,-95.17688751220705,0.10875565,0.33169895,0.3206272
172,466672539,-0.650118887424469,-2.072252988815308,-95.17967987060548,0.10065803,0.33357808,0.32425308
173,466689206,-0.6519348621368408,-2.073664426803589,-95.1813735961914,0.090388454,0.3579834,0.34709644
174,466705873,-0.6536922454833984,-2.076357364654541,-95.18462371826172,0.10722085,0.33997607,0.36314487
175,466722540,-0.6547773480415344,-2.079163074493408,-95.18604278564452,0.11263977,0.34308088,0.34716606
176,466739207,-0.6561675667762756,-2.0810437202453613,-95.18515014648438,0.11565798,0.32528058,0.33568287
177,466755874,-0.6579750776290894,-2.082735061645508,-95.1847152709961,0.106230244,0.3451012,0.349638
178,466772541,-0.6604000329971313,-2.0843544006347656,-95.18744659423828,0.10088811,0.3492598,0.33397388
179,466789208,-0.6601358652114868,-2.086370944976806,-95.18628692626952,0.092995785,0.35591176,0.34881115
180,466805875,-0.6605981588363647,-2.0882484912872314,-95.19075775146484,0.10629021,0.35771856,0.3360777
181,466822542,-0.6616061329841614,-2.08872127532959,-95.19415283203124,0.10762727,0.34115928,0.32386208
182,466839209,-0.6626390814781189,-2.0889482498168945,-95.19683837890624,0.09839338,0.3375222,0.31757736
183,466855876,-0.6639840602874756,-2.0890228748321533,-95.19762420654295,0.10940079,0.33754283,0.32814217
184,466872543,-0.6642010807991028,-2.089690685272217,-95.19944763183594,0.10659757,0.35947996,0.36639214
185,466889210,-0.664768397808075,-2.0926454067230225,-95.2018814086914,0.102928326,0.34695733,0.34799576
186,466905877,-0.666517436504364,-2.0928943157196045,-95.20661926269533,0.1126914,0.34261608,0.33960629
187,466922544,-0.6672300100326538,-2.0936968326568604,-95.20887756347656,0.10241693,0.34016755,0.350317
188,466939211,-0.6687641739845276,-2.096266031265259,-95.21527099609376,0.115611225,0.34011513,0.3430891
189,466955878,-0.6687230467796326,-2.096672534942627,-95.21987915039062,0.10835795,0.34084085,0.33894348
190,466972545,-0.669118344783783,-2.0988986492156982,-95.22450256347656,0.12155432,0.3483893,0.32601166
191,466989212,-0.6695731282234192,-2.098487377166748,-95.22614288330078,0.10208609,0.33858022,0.37539196
192,467005879,-0.6710233092308044,-2.1003448963165283,-95.22740936279295,0.11254128,0.35650286,0.33191395
193,467022546,-0.6720873713493347,-2.100937604904175,-95.23200988769533,0.10970391,0.34835532,0.34257603
194,467039213,-0.6726357936859131,-2.101725816726685,-95.23175048828124,0.09829226,0.3394657,0.33269978
195,467055880,-0.6729839444160461,-2.1020772457122803,-95.23484802246094,0.12448071,0.34721056,0.35985088
196,467072547,-0.6739833950996399,-2.103232383728028,-95.23536682128906,0.110641494,0.34166607,0.35675526
197,467089214,-0.675125777721405,-2.105010509490967,-95.23648071289062,0.09637357,0.3382788,0.35514545
198,467105881,-0.6753994822502136,-2.105337858200073,-95.24105072021484,0.10941334,0.34339777,0.35505676
199,467122548,-0.6770561933517456,-2.106703281402588,-95.24284362792967,0.10959464,0.35523674,0.3489275
200,467139215,-0.6769199371337891,-2.1077237129211426,-95.24470520019533,0.117831826,0.34668818,0.32147217
201,467155882,-0.6785461902618408,-2.106342315673828,-95.24311065673828,0.118777424,0.34620157,0.34251308
202,467172549,-0.6810193657875061,-2.106544017791748,-95.2442855834961,0.1081191,0.35269266,0.3706293
203,467189216,-0.6815952658653259,-2.1073896884918213,-95.24594116210938,0.11190368,0.35612184,0.3378849
204,467205883,-0.6818997859954834,-2.1068074703216557,-95.24652862548828,0.110855415,0.34152326,0.33959293
205,467222550,-0.6827849745750427,-2.1065545082092285,-95.24776458740234,0.10509609,0.3470316,0.34828854
206,467239217,-0.6844270825386047,-2.106174230575561,-95.24867248535156,0.11583293,0.35197487,0.31686592
207,467255884,-0.6844338178634644,-2.103599786758423,-95.25043487548828,0.11520599,0.33313817,0.349514
208,467272551,-0.6850619912147522,-2.103529930114746,-95.25366973876952,0.11837886,0.3417591,0.32212734
209,467289218,-0.685414731502533,-2.102712631225586,-95.2563018798828,0.11710556,0.35540012,0.33792305
210,467305885,-0.6865493059158325,-2.1026196479797363,-95.25767517089844,0.11880539,0.34250012,0.32860756
211,467322552,-0.6868157386779785,-2.101204395294189,-95.26203918457033,0.124810986,0.34349906,0.32692146
212,467339219,-0.6863322854042053,-2.1001667976379395,-95.26268768310548,0.10827772,0.34429953,0.3549137
213,467355886,-0.6866232752799988,-2.1014883518218994,-95.26192474365234,0.11011892,0.35505554,0.35097122
214,467372553,-0.6874502301216125,-2.101806163787842,-95.26152801513672,0.11721602,0.33827525,0.33568192
215,467389220,-0.6869951486587524,-2.099206686019897,-95.26183319091795,0.12590377,0.3402271,0.35080814
216,467405887,-0.6877123713493347,-2.0979952812194824,-95.26605224609376,0.10900111,0.34998995,0.33645344
217,467422554,-0.6875798106193542,-2.0954458713531494,-95.2663345336914,0.10571322,0.33683398,0.35218716
218,467439221,-0.6885441541671753,-2.094989061355591,-95.27054595947266,0.11683743,0.3383883,0.35151863
219,467455888,-0.6882333755493164,-2.093921422958374,-95.27005004882812,0.11427429,0.34489948,0.35241413
220,467472555,-0.6879547834396362,-2.0929086208343506,-95.27210235595705,0.12987989,0.33598942,0.35202026
221,467489222,-0.6882328391075134,-2.0908751487731934,-95.2685089111328,0.11658889,0.3236918,0.3546524
222,467505889,-0.6885669827461243,-2.0891668796539307,-95.2715835571289,0.13329276,0.3464516,0.3456478
223,467522556,-0.6883053779602051,-2.086945056915283,-95.27456665039062,0.118883215,0.3506085,0.36495018
224,467539223,-0.6889718174934387,-2.0844926834106445,-95.2734375,0.11628839,0.34164888,0.33304024
225,467555890,-0.6895468235015869,-2.081073522567749,-95.28065490722656,0.11293808,0.3363372,0.31472015
226,467572557,-0.6897056102752686,-2.076623678207397,-95.28289031982422,0.11156483,0.34040436,0.3380251
227,467589224,-0.6896840333938599,-2.0722875595092773,-95.28406524658205,0.11259538,0.33881193,0.35746765
228,467605891,-0.6888828277587891,-2.070973873138428,-95.28858184814452,0.12155889,0.32800725,0.34854603
229,467622558,-0.6886504292488098,-2.0687899589538574,-95.28998565673828,0.1187475,0.34185848,0.33557224
230,467639225,-0.6879573464393616,-2.065178871154785,-95.29456329345705,0.111243136,0.32435933,0.34275055
231,467655892,-0.6877733469009399,-2.061720132827759,-95.29822540283205,0.11268083,0.3384132,0.3545437
232,467672559,-0.6880302429199219,-2.0580337047576904,-95.29834747314452,0.124468885,0.34349,0.33856297
233,467689226,-0.6875918507575989,-2.0543413162231445,-95.30110168457033,0.10575073,0.34480757,0.34592533
234,467705893,-0.68679279088974,-2.0515899658203125,-95.3023681640625,0.1252625,0.33716917,0.3436079
235,467722560,-0.6859179139137268,-2.0473906993865967,-95.306640625,0.12377117,0.3413273,0.34931564
236,467739227,-0.6847236156463623,-2.0441436767578125,-95.31068420410156,0.12095605,0.3335097,0.33514977
237,467755894,-0.6834923028945923,-2.0404276847839355,-95.31320190429688,0.116975404,0.33994314,0.34214497
238,467772561,-0.6834235191345215,-2.0356147289276123,-95.31365203857422,0.11858489,0.3274846,0.34133816
239,467789228,-0.682626485824585,-2.03071928024292,-95.31746673583984,0.106578425,0.33189225,0.35002518
240,467805895,-0.2027024328708648,-0.073790468275547,-95.58094024658205,0.0016056595,-0.0059023923,0.33136272
241,467822562,-0.2037050276994705,-0.072621963918209,-95.581787109375,0.00074291736,0.003868213,0.35844898
242,467839229,-0.2033961415290832,-0.072484366595745,-95.58147430419922,-0.0016886408,0.0013568773,0.35652924
243,467855896,-0.2030602246522903,-0.0716363862156868,-95.58092498779295,-0.008714947,-0.0020484945,0.33391666
244,467872563,-0.2033084481954574,-0.0711409151554107,-95.5819091796875,-0.0093214465,-0.01026911,0.35130882
245,467889230,-0.2025110274553299,-0.0709530338644981,-95.58155822753906,-0.00044010094,0.006497598,0.3447008
246,467905897,-0.2031749486923217,-0.0695108100771904,-95.58196258544922,-0.016670465,-0.006470977,0.37337685
247,467922564,-0.2029453366994857,-0.0703174620866775,-95.58231353759766,0.0019346456,0.0052865106,0.34427452
248,467939231,-0.2048746198415756,-0.068999171257019,-95.58126068115234,1.6677908e-05,-0.021317678,0.31610107
249,467955898,-0.2051206082105636,-0.0687545090913772,-95.58283996582033,-0.0031868329,-0.001735338,0.3463564
250,467972565,-0.2053204029798507,-0.0681790336966514,-95.58203125,-0.005541173,-0.0036845317,0.3492489
251,467989232,-0.2063982933759689,-0.0679145008325576,-95.58323669433594,-0.012136127,0.0012473813,0.35980797
252,468005899,-0.2066085934638977,-0.0677534416317939,-95.58283996582033,0.0077533075,-0.021561053,0.36404896
253,468022566,-0.2069655209779739,-0.0674750059843063,-95.58244323730467,0.000730116,-0.0102173425,0.33572006
254,468039233,-0.2074798643589019,-0.0689394697546958,-95.58283996582033,0.004223794,-0.014179829,0.34292603
255,468055900,-0.208286702632904,-0.0688698887825012,-95.58317565917967,-0.005599818,-0.0068699145,0.36453342
256,468072567,-0.2085069268941879,-0.068676546216011,-95.5834732055664,-0.010001061,-0.021552129,0.35337448
257,468089234,-0.2088239789009094,-0.0694504752755165,-95.58110809326172,-0.005576223,-0.004603549,0.3615389
258,468105901,-0.2097681760787964,-0.0696337595582008,-95.58135986328124,0.015140202,-0.002367087,0.35641193
259,468122568,-0.2098999172449112,-0.0692576393485069,-95.58187103271484,-0.00809844,-0.0033759503,0.33921242
260,468139235,-0.2102215588092804,-0.0691060870885849,-95.58209228515624,-0.00087143993,-0.0024546105,0.36511135
261,468155902,-0.2104215919971466,-0.0698155760765075,-95.5835418701172,-0.0035979347,0.00020632865,0.35153103
262,468172569,-0.2095911204814911,-0.0699751898646354,-95.58490753173828,-0.0042234072,-0.008265775,0.34614182
263,468189236,-0.2097547203302383,-0.0695339068770408,-95.58574676513672,-0.0001492953,0.009325092,0.35906982
264,468205903,-0.2111514657735824,-0.0674345567822456,-95.58361053466795,-0.0031178177,-0.0044956813,0.37275887
265,468222570,-0.2118705958127975,-0.0669796764850616,-95.58330535888672,-0.0020076712,-0.0060453094,0.34243298
266,468239237,-0.2118000239133834,-0.0660033077001571,-95.5831527709961,-0.011927461,-0.0053903544,0.3431282
267,468255904,-0.2113465666770935,-0.0655132085084915,-95.58446502685548,0.0031267493,0.0018062309,0.3423605
268,468272571,-0.2102369666099548,-0.0651648566126823,-95.5846939086914,-0.005510183,-0.006940487,0.35489082
269,468289238,-0.2104288786649704,-0.0656948909163475,-95.58464050292967,0.0011318355,0.0036354444,0.34880924
270,468305905,-0.2114746570587158,-0.064555712044239,-95.58357238769533,-0.015102039,-0.0031125506,0.35493565
271,468322572,-0.2111723124980926,-0.0638754963874816,-95.58358001708984,-0.0056812456,-0.009538357,0.36332703
272,468339239,-0.2105175554752349,-0.0649241060018539,-95.58499145507812,-0.0058725197,-0.0066726054,0.3661251
273,468355906,-0.2113569974899292,-0.0652236193418502,-95.58528900146484,-0.002482015,-0.015265277,0.3651743
274,468372573,-0.2123347669839859,-0.0645176619291305,-95.5858383178711,0.0018827033,-0.019154431,0.3475952
275,468389240,-0.2116375416517257,-0.0654221400618553,-95.58493041992188,0.004492527,-0.003983398,0.36095142
276,468405907,-0.2110746055841446,-0.06564312428236,-95.58511352539062,-0.0072570457,0.0003264267,0.3469925
277,468422574,-0.2106553763151168,-0.0661086440086364,-95.58586120605467,0.0015457108,0.0077417833,0.33898067
278,468439241,-0.2101933360099792,-0.0662306398153305,-95.58582305908205,-0.0028475637,0.008606586,0.35801888
279,468455908,-0.2099819034337997,-0.0661607980728149,-95.58690643310548,-0.002800747,-0.012699744,0.3531828
280,468472575,-0.2098095566034317,-0.0649154782295227,-95.58892059326172,0.0024156861,-0.00950894,0.3545456
281,468489242,-0.2089496701955795,-0.0649371668696403,-95.59011840820312,0.0018583487,-0.01612499,0.36508656
282,468505909,-0.2083320915699005,-0.0634084790945053,-95.58952331542967,-0.0025658982,-0.010614705,0.3704672
283,468522576,-0.2076243162155151,-0.0637289360165596,-95.5884780883789,-0.013383825,-0.0018270997,0.34076405
284,468539243,-0.2083220332860946,-0.0639249011874198,-95.58911895751952,0.0073456266,-0.0041215797,0.35482407
285,468555910,-0.2094239145517349,-0.0628296509385109,-95.58950805664062,0.0013143029,-0.0032778734,0.3696289
286,468572577,-0.2102297991514206,-0.0616108141839504,-95.58918762207033,-0.008029724,-0.0012359149,0.33376598
287,468589244,-0.2108476310968399,-0.0617707185447216,-95.58878326416016,0.002769577,-0.008865157,0.3357668
288,468605911,-0.2107728570699691,-0.0613755285739898,-95.59097290039062,0.0022190588,-0.020019388,0.3649826
289,468622578,-0.2112817019224167,-0.0610562823712825,-95.59266662597656,-0.0017505334,-0.01953683,0.34965897
290,468639245,-0.2107343971729278,-0.060271929949522,-95.5923843383789,0.0030019225,-0.010365774,0.3588009
291,468655912,-0.2125063091516494,-0.0613483265042305,-95.59341430664062,-0.008418234,0.0028050526,0.33468533
292,468672579,-0.2124693095684051,-0.0616459585726261,-95.59529876708984,-0.0002753457,-0.019984115,0.32353783
293,468689246,-0.2122704088687896,-0.0607954487204551,-95.59529876708984,-0.008357188,-0.0027831965,0.33298016
294,468705913,-0.2139041572809219,-0.059938471764326,-95.59661865234376,0.006229343,0.0067093605,0.36131668
295,468722580,-0.2137643545866012,-0.0585947595536708,-95.59671020507812,-0.01115924,-0.02069579,0.3492012
296,468739247,-0.2140467017889022,-0.0589854158461093,-95.59683227539062,0.006699905,0.008059725,0.33928585
297,468755914,-0.2134476602077484,-0.0590444318950176,-95.5966339111328,0.006652441,0.00012924375,0.3651991
298,468772581,-0.21322762966156,-0.0592493489384651,-95.59668731689452,0.0026867532,-0.0023634802,0.3443823
299,468789248,-0.2129945755004882,-0.0584123320877552,-95.59654235839844,0.005052917,-0.011670859,0.36278534
300,468805915,-0.2137384563684463,-0.0571843385696411,-95.59590911865234,-0.0042993627,-0.0115238,0.35316467
301,468822582,-0.2140309512615203,-0.0571255348622798,-95.59598541259766,0.011240173,-0.008351406,0.35128498
302,468839249,-0.2145152539014816,-0.0554199293255806,-95.59615325927734,-0.00669725,-0.0077431393,0.33706188
303,468855916,-0.2142327725887298,-0.0561477914452552,-95.59685516357422,-0.006024414,-0.004717273,0.3444023
304,468872583,-0.2148393243551254,-0.0548530891537666,-95.59562683105467,0.0033393437,-0.012825942,0.35395145
305,468889250,-0.2143072932958603,-0.054287277162075,-95.59471130371094,0.004062647,0.0071015563,0.34429646
306,468905917,-0.2140981405973434,-0.0546397492289543,-95.595703125,0.007841506,-0.02711304,0.36516857
307,468922584,-0.2148264944553375,-0.054042387753725,-95.59559631347656,0.012012109,-0.023300124,0.36164474
308,468939251,-0.2161803692579269,-0.0536667555570602,-95.5954360961914,-0.0028422126,-0.008301728,0.35216045
309,468955918,-0.2162719666957855,-0.0533929616212844,-95.59579467773438,0.008353645,-0.006452811,0.34277916
310,468972585,-0.2148433476686477,-0.0540506653487682,-95.59666442871094,0.017502116,-0.005795463,0.33849335
311,468989252,-0.2156949639320373,-0.053821500390768,-95.5962371826172,0.015483616,-0.0043633482,0.3500023
312,469005919,-0.2159504890441894,-0.0518366992473602,-95.59590911865234,-0.0008916508,0.0065454687,0.35976887
313,469022586,-0.2155957669019699,-0.0526812188327312,-95.59503173828124,-0.0034138425,-0.00037646393,0.35713577
314,469039253,-0.215542197227478,-0.0524383671581745,-95.59652709960938,-0.008952223,-0.015785333,0.34897518
315,469055920,-0.2143852114677429,-0.0529782027006149,-95.59783935546876,-0.0054191197,-0.008248853,0.34368992
316,469072587,-0.2147554159164428,-0.0527185015380382,-95.5989990234375,0.016181916,-0.0040528206,0.36784363
317,469089254,-0.2161208689212799,-0.0537314414978027,-95.59835815429688,-0.002609334,-0.0022031881,0.34006405
318,469105921,-0.2171134650707245,-0.0554865151643753,-95.5987319946289,0.0029436874,0.006238978,0.36216164
319,469122588,-0.2164919525384903,-0.0543924942612648,-95.59860229492188,-0.0027702223,-0.010399448,0.3419342
320,469139255,-0.2157838493585586,-0.0529077649116516,-95.59900665283205,0.008745641,-0.003807324,0.3529787
321,469155922,-0.2168215066194534,-0.053205482661724,-95.59908294677734,0.0028721874,-0.00066945096,0.37868404
322,469172589,-0.2163472920656204,-0.0540196150541305,-95.59911346435548,0.0068685976,-0.0064243856,0.35756207
323,469189256,-0.2152847498655319,-0.0533913411200046,-95.5998077392578,-0.009840151,-0.011165147,0.3708105
324,469205923,-0.2166222929954528,-0.0531401298940181,-95.60021209716795,0.005073551,0.0052617653,0.34981441
325,469222590,-0.2163017094135284,-0.0537755899131298,-95.60018157958984,0.000326583,-0.005030118,0.34927082
326,469239257,-0.2163088917732238,-0.0529931858181953,-95.60105895996094,0.007624569,-0.00019221677,0.3529272
327,469255924,-0.2171945422887802,-0.0536431297659873,-95.60015106201172,-0.0024184773,0.0015424821,0.3704214
328,469272591,-0.2169210165739059,-0.0541699826717376,-95.60169982910156,-0.0024918779,-0.011548936,0.3297205
329,469289258,-0.2166976183652877,-0.0541018396615982,-95.60259246826172,0.0026258302,0.006761461,0.33529758
330,469305925,-0.2176750153303146,-0.0535616166889667,-95.6028060913086,-0.013963234,-0.0052501876,0.34897614
331,469322592,-0.2174941450357437,-0.0532721988856792,-95.6026382446289,-0.001532535,-0.014294108,0.34596443
332,469339259,-0.2175322622060775,-0.0526016540825367,-95.60189056396484,0.0095701665,-0.010321509,0.35746765
333,469355926,-0.2175276130437851,-0.0517210699617862,-95.60221099853516,0.0036774054,-0.0028382626,0.34521866
334,469372593,-0.2175177633762359,-0.0519192516803741,-95.60257720947266,0.006701547,-0.009541756,0.34786892
335,469389260,-0.2179945409297943,-0.0531194508075714,-95.60292053222656,0.0008867344,-0.0147668235,0.3572836
336,469405927,-0.2179679870605468,-0.0539048910140991,-95.60295867919922,0.006979447,-0.0057156035,0.3476801
337,469422594,-0.2178985327482223,-0.0528634935617446,-95.60218811035156,0.0018047702,-0.0109668635,0.3492298
338,469439261,-0.2182013690471649,-0.0528832226991653,-95.60154724121094,-0.0018493924,-0.014537813,0.37648582
339,469455928,-0.2190767377614975,-0.0528738982975482,-95.60161590576172,0.010283034,-0.006735522,0.33171368
340,469472595,-0.2189998924732208,-0.0534886270761489,-95.60247039794922,0.0022074943,-0.0036896088,0.3383808
341,469489262,-0.2186933606863021,-0.0544060096144676,-95.60292053222656,-0.0018512364,-0.0053098775,0.34173393
342,469505929,-0.2184931486845016,-0.0546204298734664,-95.6038055419922,0.010063297,-0.00045933572,0.34029102
343,469522596,-0.2188823670148849,-0.0538786500692367,-95.60401153564452,-0.00611277,0.004195319,0.35552406
344,469539263,-0.2204068005084991,-0.0537412203848362,-95.604736328125,-0.0015445837,-0.009458736,0.35817719
345,469555930,-0.2208961546421051,-0.0534734241664409,-95.60515594482422,0.007291106,-0.004556248,0.3371153
346,469572597,-0.2208316028118133,-0.0541516579687595,-95.60523986816406,-0.0030029183,-0.016005173,0.32949638
347,469589264,-0.2199839949607849,-0.0545219257473945,-95.60501098632812,-0.012842719,-0.012725733,0.3344202
348,469605931,-0.2201588451862335,-0.0544472895562648,-95.6052474975586,-0.0030373288,-0.0070984457,0.35115147
349,469622598,-0.2196761816740036,-0.054602775722742,-95.60712432861328,-0.006109051,-0.00072376116,0.35714626
350,469639265,-0.2193745374679565,-0.0559030659496784,-95.60819244384766,0.010770601,-0.0057055578,0.37993813
351,469655932,-0.2188340276479721,-0.0562660582363605,-95.60777282714844,0.013703876,-4.506318e-05,0.36753178
352,469672599,-0.2184085994958877,-0.0547646023333072,-95.60697174072266,-0.009060352,-0.001609289,0.34472942
353,469689266,-0.2172994762659073,-0.0524791777133941,-95.6075210571289,-0.0088380985,-0.013654754,0.35036087
354,469705933,-0.2163507491350174,-0.0519242249429225,-95.6072998046875,-0.010565641,-0.010529732,0.325737
355,469722600,-0.2163265347480774,-0.0517750047147274,-95.60633850097656,-0.0033190993,0.000591548,0.34712887
356,469739267,-0.2170969992876052,-0.0519590526819229,-95.60623931884766,0.002342432,-0.0008275576,0.34764767
357,469755934,-0.2171526849269867,-0.0519943125545978,-95.60738372802734,0.0018165361,-0.014152871,0.31695557
358,469772601,-0.2173695564270019,-0.0520043782889843,-95.60834503173828,0.0137700895,-0.012775535,0.33315468
359,469789268,-0.217980682849884,-0.0522127524018287,-95.60847473144533,-0.011679392,-0.012247318,0.34893894
360,469805935,-0.204464316368103,-0.0784224048256874,-95.6075439453125,-0.013057252,-0.0014639505,0.36850834
361,469822602,-0.2054001837968826,-0.0782632753252983,-95.60794830322266,-0.01570742,-0.014780265,0.36456966
362,469839269,-0.2059538215398788,-0.0784932821989059,-95.60723876953124,-0.01993816,-0.0063187433,0.35951805
363,469855936,-0.2060535103082656,-0.0781576186418533,-95.60865783691406,-0.014188779,0.0003917178,0.36753082
364,469872603,-0.2066125273704528,-0.0789475589990615,-95.60868072509766,-0.019162448,-0.0020088044,0.36111736
365,469889270,-0.2069936692714691,-0.0781642720103263,-95.607421875,-0.0006218842,-0.009461806,0.3675022
366,469905937,-0.2063061594963073,-0.0784384906291961,-95.6070785522461,0.0017839028,-0.0011960955,0.33057404
367,469922604,-0.2057851552963256,-0.0781452432274818,-95.60640716552734,-0.008509919,0.0022517699,0.36142063
368,469939271,-0.205619990825653,-0.0776610523462295,-95.60680389404295,-0.008242758,-0.015303234,0.3494177
369,469955938,-0.2052574157714843,-0.0781909897923469,-95.60790252685548,-0.0025544274,-0.004951894,0.35473824
370,469972605,-0.2046519666910171,-0.0790497884154319,-95.60812377929688,0.009728622,0.00577892,0.3377638
371,469989272,-0.2049654722213745,-0.0782572031021118,-95.6087875366211,-0.011408486,0.00837241,0.36272812
372,470005939,-0.20591901242733,-0.0787785276770591,-95.60841369628906,0.000575514,0.008983468,0.34948158
373,470022606,-0.2059048265218734,-0.0788485556840896,-95.60816192626952,-0.0014175798,0.006809817,0.34096813
374,470039273,-0.2049150168895721,-0.0796175003051757,-95.6083984375,-0.0018339242,-0.010923491,0.3493395
375,470055940,-0.2048843055963516,-0.0796700716018676,-95.6083755493164,0.0021366512,-0.0085493,0.34156895
376,470072607,-0.2054094523191452,-0.0798286721110344,-95.60989379882812,-0.0063548656,0.0100280205,0.35226727
377,470089274,-0.2052899897098541,-0.0804502889513969,-95.61054229736328,0.0036913047,0.018408729,0.34680843
378,470105941,-0.2047066837549209,-0.0804391354322433,-95.61006927490234,-0.008165932,0.007861843,0.34738064
379,470122608,-0.2041609585285186,-0.0789123028516769,-95.60894775390624,-0.011077459,-0.0038956928,0.3674898
380,470139275,-0.2052427530288696,-0.0790876895189285,-95.60872650146484,-0.01420667,-0.016562995,0.36006927
381,470155942,-0.2046737223863601,-0.0798559412360191,-95.6083526611328,0.001225894,-0.013292447,0.36054516
382,470172609,-0.2043801546096801,-0.0799859836697578,-95.6081771850586,0.0018758461,0.00772321,0.36832047
383,470189276,-0.2038515508174896,-0.0798023641109466,-95.60944366455078,-0.003886609,-0.0050788904,0.34615612
384,470205943,-0.2032144665718078,-0.0806147530674934,-95.61036682128906,-0.0039532958,0.0017360051,0.35350323
385,470222610,-0.2038919478654861,-0.0800066366791725,-95.60901641845705,-0.010152151,-0.009366192,0.33954716
386,470239277,-0.2046540826559066,-0.0789378061890602,-95.61038208007812,-0.002061428,-0.0006556482,0.35834408
387,470255944,-0.204743355512619,-0.0781614407896995,-95.61050415039062,-0.0033938512,-0.009335475,0.33509445
388,470272611,-0.2048204690217971,-0.0773521587252616,-95.61056518554688,-0.009524246,-0.00023257047,0.35673237
389,470289278,-0.2050202935934066,-0.077071763575077,-95.61114501953124,-0.007042918,0.004644375,0.34914207
390,470305945,-0.2043400257825851,-0.0784888714551925,-95.61131286621094,-0.0033369518,0.0016683015,0.34387398
391,470322612,-0.2045526653528213,-0.0778971314430236,-95.61053466796876,-0.025085492,-0.0040485356,0.36268616
392,470339279,-0.2047321945428848,-0.0783586576581001,-95.61058044433594,0.002827269,-0.0048523876,0.35679626
393,470355946,-0.2037694901227951,-0.0787846595048904,-95.60989379882812,-0.0024745294,-0.008692103,0.35041618
394,470372613,-0.2030961960554123,-0.0783404931426048,-95.61041259765624,-0.00012838026,-0.0067889066,0.35203457
395,470389280,-0.2033963650465011,-0.0788717195391655,-95.61164093017578,-0.0031744572,0.003614406,0.33321285
396,470405947,-0.2041840255260467,-0.0806035920977592,-95.61224365234376,-0.017557358,-0.0009200727,0.36089897
397,470422614,-0.2046540826559066,-0.0805056318640708,-95.61276245117188,0.00130164,-0.0020498652,0.34088135
398,470439281,-0.2045558094978332,-0.0798627212643623,-95.61292266845705,-0.0040695304,0.00015738019,0.34645748
399,470455948,-0.2045892477035522,-0.0791621655225753,-95.61211395263672,0.0046502645,-0.01127645,0.36066246
400,470472615,-0.2046257257461547,-0.0791812017560005,-95.61309814453124,0.003186564,-0.0027170943,0.36467552
401,470489282,-0.2045612037181854,-0.0797744914889335,-95.61273956298828,0.0014367923,0.0033188234,0.36987686
402,470505949,-0.2046435922384262,-0.0806436687707901,-95.6138153076172,-0.002286821,0.008725367,0.3650055
403,470522616,-0.2043301463127136,-0.0809805989265441,-95.61526489257812,-0.001328396,-0.0079803355,0.3425579
404,470539283,-0.2044906616210937,-0.0811574608087539,-95.61418151855467,-0.004815968,-0.012191027,0.355793
405,470555950,-0.2046011388301849,-0.0813159123063087,-95.61344146728516,-0.0024753483,0.010764601,0.34412956
406,470572617,-0.2040045261383056,-0.0808253809809684,-95.61294555664062,0.0071713882,0.0017012322,0.3560915
407,470589284,-0.2026215940713882,-0.0814218670129776,-95.61324310302734,0.007697465,-0.005193148,0.33869743
408,470605951,-0.202034518122673,-0.0823496803641319,-95.61356353759766,0.01393711,0.006790638,0.36403847
409,470622618,-0.2012843638658523,-0.0818691477179527,-95.61441802978516,0.00089679507,0.00087256666,0.36227322
410,470639285,-0.2011955976486206,-0.081773966550827,-95.61397552490234,0.0060594445,-0.00772749,0.33192635
411,470655952,-0.2010543793439865,-0.0815713256597518,-95.61465454101562,0.008314259,-0.004277445,0.32828045
412,470672619,-0.2017985731363296,-0.0817112177610397,-95.61380767822266,-0.008088986,0.0008856535,0.32828808
413,470689286,-0.201713278889656,-0.0828491598367691,-95.61465454101562,-0.012372573,4.815133e-06,0.3579378
414,470705953,-0.2025258988142013,-0.0824863463640213,-95.61396026611328,-0.010099428,-0.0023381917,0.3295107
415,470722620,-0.2028149217367172,-0.0833957344293594,-95.6131820678711,-0.001056121,0.0011865675,0.34047127
416,470739287,-0.2032012939453125,-0.0834611356258392,-95.61361694335938,-0.0057223127,0.016024789,0.33170414
417,470755954,-0.2039942145347595,-0.0848632454872131,-95.61399841308594,-0.0067379754,0.004929772,0.34752083
418,470772621,-0.2038919627666473,-0.0864254981279373,-95.61466217041016,0.0051791077,0.0008588721,0.3318634
419,470789288,-0.204580008983612,-0.0863874480128288,-95.61444854736328,0.0046952376,0.009112616,0.3354187
420,470805955,-0.2041123807430267,-0.0859736874699592,-95.61431884765624,-0.0024087606,0.0040339855,0.3474388
421,470822622,-0.2047041803598404,-0.0864274799823761,-95.61497497558594,0.007206605,-0.00743678,0.3462963
422,470839289,-0.205413207411766,-0.0862706378102302,-95.61390686035156,0.013736695,-0.014348595,0.3432684
423,470855956,-0.2059482485055923,-0.0866312980651855,-95.61358642578124,-0.00555933,-0.0038505371,0.33918
424,470872623,-0.2068374156951904,-0.085392951965332,-95.61392974853516,0.010614106,0.009431586,0.34806728
425,470889290,-0.2055833786725998,-0.0849594250321388,-95.61417388916016,0.0022072948,0.015568236,0.36747932
426,470905957,-0.2057459652423858,-0.0865262374281883,-95.61406707763672,0.007474455,-0.00069424,0.34356976
427,470922624,-0.2054429501295089,-0.0852499455213546,-95.6145248413086,-0.00899326,0.0015677767,0.3658142
428,470939291,-0.205400750041008,-0.0846721306443214,-95.61346435546876,0.0011893439,-0.0019880133,0.32593918
429,470955958,-0.2050741612911224,-0.0851919651031494,-95.6127700805664,-0.00576632,0.0041782414,0.36550522
430,470972625,-0.2043510377407074,-0.0857329666614532,-95.61412811279295,0.0011493997,0.0014476655,0.35908413
431,470989292,-0.2029741555452346,-0.0867614522576332,-95.61479949951172,0.00063356623,0.0047177714,0.3569355
432,471005959,-0.2028777152299881,-0.0868329927325248,-95.61446380615234,0.009062058,0.00067278446,0.3402834
433,471022626,-0.2010739296674728,-0.0857118815183639,-95.6153793334961,0.003873802,-0.0062043495,0.35147762
434,471039293,-0.2008237391710281,-0.085743524134159,-95.615478515625,-0.008195391,-0.0024550557,0.33654022
435,471055960,-0.2004973441362381,-0.0857062712311744,-95.61519622802734,0.013858867,-0.0072248545,0.37342453
436,471072627,-0.200725182890892,-0.0849817395210266,-95.61434936523438,-0.0169459,-0.0005134695,0.3604412
437,471089294,-0.2004148513078689,-0.0856077000498771,-95.61553192138672,-0.002056107,-0.0101012075,0.35894108
438,471105961,-0.2008248418569564,-0.0855132639408111,-95.61627197265624,-0.0033545012,-0.007697087,0.36440372
439,471122628,-0.2011372745037078,-0.0849030390381813,-95.61717224121094,-0.0068278904,0.007932636,0.3576069
440,471139295,-0.2015920281410217,-0.0843705534934997,-95.61784362792967,-0.0069726417,0.009295084,0.33912754
441,471155962,-0.2016595751047134,-0.084676094353199,-95.6192398071289,-0.0020868012,-0.009208373,0.34888077
442,471172629,-0.2015142738819122,-0.0861925110220909,-95.61968994140624,-0.0019073399,-0.002560651,0.3627119
443,471189296,-0.2005896717309951,-0.0858571529388427,-95.6205596923828,-0.0016434414,-0.012420824,0.36247158
444,471205963,-0.2002555429935455,-0.0866124853491783,-95.62005615234376,-0.0025700794,-0.004176176,0.3494854
445,471222630,-0.1997608691453933,-0.0863292440772056,-95.61983489990234,-0.005217656,-0.001651587,0.37257862
446,471239297,-0.1995133459568023,-0.0841157510876655,-95.61956787109376,-0.007564361,0.000950577,0.36271286
447,471255964,-0.1990803629159927,-0.0833127349615097,-95.61990356445312,-0.010249667,-0.015244977,0.35908985
448,471272631,-0.199446439743042,-0.0841017290949821,-95.61912536621094,-0.005755674,-0.0032156599,0.35978985
449,471289298,-0.1995601207017898,-0.0848039165139198,-95.61935424804688,0.004817591,-0.010512158,0.34942436
450,471305965,-0.1990290284156799,-0.0849938318133354,-95.61897277832033,-0.001044249,-0.0057067904,0.36436844
451,471322632,-0.1998547464609146,-0.0852786600589752,-95.61849975585938,0.0020823763,0.0038904937,0.33731365
452,471339299,-0.1994647979736328,-0.0854497328400611,-95.61859893798828,-0.0093697645,-0.0051261135,0.35472107
453,471355966,-0.1995402425527572,-0.0850100517272949,-95.61804962158205,0.011327716,-0.002213021,0.33760357
454,471372633,-0.1999018639326095,-0.0838495269417762,-95.6184539794922,0.0067893723,-0.0051401337,0.36885738
455,471389300,-0.1988309919834137,-0.0852221548557281,-95.6192398071289,-0.010495369,-0.010167612,0.37682343
456,471405967,-0.1987013518810272,-0.085332490503788,-95.619873046875,-0.0122457845,0.0013593988,0.3444662
457,471422634,-0.1973726600408554,-0.08595522493124,-95.61959075927734,0.010666728,-0.0012174044,0.360919
458,471439301,-0.1969697773456573,-0.0860888138413429,-95.61955261230467,-0.013496493,-0.0068603302,0.35407734
459,471455968,-0.1977775543928146,-0.085629902780056,-95.62059020996094,0.0020585277,0.008139972,0.33417892
460,471472635,-0.1978499144315719,-0.0854012444615364,-95.62114715576172,-0.00025282285,-0.012353796,0.35181904
461,471489302,-0.1978709697723388,-0.0863962396979332,-95.62156677246094,0.017849227,-0.0013859863,0.36682987
462,471505969,-0.196448415517807,-0.0878155454993248,-95.62102508544922,0.0026905052,-0.005552065,0.34795952
463,471522636,-0.1965439021587371,-0.0878847762942314,-95.62102508544922,0.008668178,-0.0029644768,0.351161
464,471539303,-0.1965197473764419,-0.088316835463047,-95.62223052978516,0.007080847,-0.0038686853,0.35673904
465,471555970,-0.1975377798080444,-0.0883804783225059,-95.62149810791016,-0.010064059,-0.0039648097,0.3711443
466,471572637,-0.1975413858890533,-0.0896470323204994,-95.6210479736328,-0.010784161,0.0009167655,0.34241486
467,471589304,-0.1982700079679489,-0.0900873839855194,-95.62100219726562,0.003037755,0.004034832,0.33690453
468,471605971,-0.1981256157159805,-0.0903268009424209,-95.62052154541016,0.002632805,0.0105597805,0.3797598
469,471622638,-0.197911649942398,-0.0899925306439399,-95.6204605102539,-0.012337835,7.1923154e-05,0.35135555
470,471639305,-0.1974664628505706,-0.0903520360589027,-95.62128448486328,0.0046945405,-0.0040056542,0.33168697
471,471655972,-0.1972489058971405,-0.0905648842453956,-95.6192626953125,-0.003828165,-0.012514292,0.33207607
472,471672639,-0.1971515417098999,-0.0902814418077468,-95.61959075927734,0.0010485469,0.00038306453,0.34100342
473,471689306,-0.1970729380846023,-0.0893528684973716,-95.61994171142578,-0.005554793,-0.0011448866,0.32034492
474,471705973,-0.1982065886259079,-0.0904474481940269,-95.62039184570312,-0.0029186278,-0.0010970618,0.33084774
475,471722640,-0.1984849274158477,-0.0914786159992218,-95.62042999267578,-0.0018154534,-0.0008026944,0.35551453
476,471739307,-0.1985324472188949,-0.0929051786661148,-95.62127685546876,0.0036984205,-0.008338798,0.363842
477,471755974,-0.2000500112771988,-0.0930669158697128,-95.62071228027344,-0.0002553867,0.017148592,0.32696533
478,471772641,-0.2005719393491745,-0.0944282785058021,-95.62085723876952,-0.0006812147,-6.840195e-05,0.34943104
479,471789308,-0.200278177857399,-0.0950690582394599,-95.62130737304688,-0.0039852466,0.010212109,0.3383236
480,471805975,-0.2056498378515243,-0.0745618268847465,-95.62671661376952,-0.0042102397,-0.0023057475,0.3688097
481,471822642,-0.205599844455719,-0.0737218037247657,-95.6272430419922,-0.0006894397,-0.00018306497,0.34682083
482,471839309,-0.205858364701271,-0.0734914243221283,-95.62711334228516,-0.006194565,0.0005624791,0.34189606
483,471855976,-0.2065122723579406,-0.074953056871891,-95.62726593017578,-0.0071338313,-0.00014217694,0.34301186
484,471872643,-0.2068599909543991,-0.0744144767522811,-95.62678527832033,0.003222379,-0.008787953,0.34750748
485,471889310,-0.2068367302417755,-0.07577396184206,-95.62874603271484,-0.004221676,-0.008942916,0.35692406
486,471905977,-0.2077302932739257,-0.0759172439575195,-95.62818908691406,-0.01153431,-0.012651803,0.3539915
487,471922644,-0.2071638852357864,-0.0752807334065437,-95.6290512084961,-0.0017954913,0.002852007,0.36832237
488,471939311,-0.2066597789525985,-0.074400246143341,-95.63040924072266,-0.014168312,0.00045135384,0.3445301
489,471955978,-0.2070451080799102,-0.0739082843065261,-95.63157653808594,-0.010009916,-0.009232493,0.3383808
490,471972645,-0.2062561810016632,-0.0722739547491073,-95.63106536865234,0.0014217733,0.00931089,0.34453583
491,471989312,-0.2066039144992828,-0.0718832984566688,-95.63215637207033,-0.00044650162,-0.0051323795,0.36894226
492,472005979,-0.2073404937982559,-0.0728639885783195,-95.63175964355467,-0.010795178,0.00014177967,0.3573475
493,472022646,-0.2070766240358352,-0.0734798163175582,-95.63275146484376,-0.012267127,-0.005372183,0.33077812
494,472039313,-0.206866443157196,-0.0735481679439544,-95.6334991455078,0.002162225,0.0067915106,0.35399532
495,472055980,-0.2061641216278076,-0.0726075768470764,-95.63426208496094,-0.016416458,-0.009532801,0.36254025
496,472072647,-0.2078066170215606,-0.0723438933491706,-95.63298797607422,0.01583087,0.008217238,0.33786678
497,472089314,-0.2085900008678436,-0.0717481076717376,-95.63375091552734,-0.009325346,0.00376775,0.3619957
498,472105981,-0.2088429778814315,-0.0712654367089271,-95.6344757080078,-0.0067026163,0.0004928347,0.37660503
499,472122648,-0.2083268165588379,-0.0710784718394279,-95.63399505615234,0.0024885086,0.0034382509,0.31599712
500,472139315,-0.2079949080944061,-0.0725887566804885,-95.6347427368164,0.0034941288,-0.008498732,0.33365917
501,472155982,-0.2087202370166778,-0.0726217553019523,-95.63452911376952,-0.0018382199,-1.5794334e-05,0.34326267
502,472172649,-0.209366425871849,-0.0743760541081428,-95.6357421875,0.012784962,-0.00546677,0.34027863
503,472189316,-0.2086562514305114,-0.0726348012685775,-95.63495635986328,0.015398373,-0.007001823,0.345582
504,472205983,-0.2080797851085662,-0.0737163797020912,-95.63497924804688,0.002325655,-0.0025754124,0.35923958
505,472222650,-0.2073539048433303,-0.0733938217163086,-95.6350555419922,0.009812668,-0.018665385,0.3581171
506,472239317,-0.2079188078641891,-0.0738270506262779,-95.63499450683594,0.00083572674,-0.009072025,0.35574532
507,472255984,-0.2089359015226364,-0.0754176974296569,-95.6358871459961,-0.005428734,0.0075403266,0.35338402
508,472272651,-0.2096507102251052,-0.0744203403592109,-95.63467407226562,0.010448716,-0.003986063,0.36051273
509,472289318,-0.208967924118042,-0.0737404450774192,-95.63504791259766,-0.0017580809,0.0007050332,0.32916927
510,472305985,-0.2086408287286758,-0.0739893764257431,-95.6351089477539,0.000817637,-0.0040009515,0.34260273
511,472322652,-0.210232675075531,-0.0743040740489959,-95.63441467285156,-0.011471273,-0.0057812072,0.37841988
512,472339319,-0.2102776765823364,-0.074329599738121,-95.63430786132812,0.012690172,0.00063991325,0.3306942
513,472355986,-0.2101519852876663,-0.0742550194263458,-95.63427734375,-0.0060170884,-0.0036163523,0.34902382
514,472372653,-0.2101664692163467,-0.0749043375253677,-95.63362121582033,0.005422673,-0.00266019,0.34551716
515,472389320,-0.2097529768943786,-0.0764172747731208,-95.63356018066406,0.002241635,0.0020125124,0.35606098
516,472405987,-0.209477424621582,-0.0754454955458641,-95.63296508789062,-0.008363545,0.012512714,0.36600685
517,472422654,-0.2099058181047439,-0.0756587833166122,-95.6329116821289,-0.008411088,-0.0038882855,0.37154484
518,472439321,-0.2118738442659378,-0.0748754665255546,-95.63323974609376,0.008540343,-0.004095204,0.33105373
519,472455988,-0.2125331461429596,-0.0746231973171234,-95.6339340209961,-0.01060298,-0.008889175,0.34271145
520,472472655,-0.211185410618782,-0.0742836147546768,-95.63294219970705,-0.002547248,-0.008717907,0.33535385
521,472489322,-0.2105637043714523,-0.0748918578028678,-95.63339233398438,0.0038729364,-0.0036014398,0.36523056
522,472505989,-0.2090624868869781,-0.0746939480304718,-95.6336441040039,0.006648763,-0.004450983,0.35327625
523,472522656,-0.2089320570230484,-0.0748752504587173,-95.63519287109376,-0.00523605,0.0010695532,0.3745613
524,472539323,-0.2090725749731063,-0.0752127766609191,-95.63522338867188,-0.010616836,0.0014289288,0.3503561
525,472555990,-0.2093591541051864,-0.0754474475979805,-95.63558197021484,-5.4928747e-05,-0.009629789,0.35012245
526,472572657,-0.2107267081737518,-0.0761638432741165,-95.63487243652344,0.0076905754,-0.012827487,0.35886955
527,472589324,-0.2103376984596252,-0.0767688304185867,-95.6367416381836,-0.0026982944,0.0019648063,0.34915447
528,472605991,-0.2101558446884155,-0.0768846198916435,-95.63812255859376,0.013832845,-0.0025573994,0.33222675
529,472622658,-0.2098492234945297,-0.0783602744340896,-95.6399917602539,-0.0012339897,-0.0025083532,0.34588718
530,472639325,-0.2103395760059356,-0.0799848511815071,-95.64006805419922,-0.0062276777,0.0017284353,0.3734169
531,472655992,-0.2094243913888931,-0.0794143602252006,-95.6397705078125,-0.00849199,-0.012334869,0.35984325
532,472672659,-0.2094429582357406,-0.0794938057661056,-95.63937377929688,-0.0014794846,0.0023233509,0.3519659
533,472689326,-0.2095494121313095,-0.079013355076313,-95.63880920410156,0.0025480345,0.010691063,0.35474586
534,472705993,-0.2096775025129318,-0.0784511268138885,-95.63887786865234,0.0059403754,-0.004699174,0.3455906
535,472722660,-0.2094920724630355,-0.0792132690548896,-95.63812255859376,-0.0067502423,0.008413308,0.34843922
536,472739327,-0.2102616280317306,-0.0785337164998054,-95.6385269165039,0.006700374,0.0051653776,0.35859585
537,472755994,-0.2096830010414123,-0.0788932144641876,-95.63943481445312,-0.021813562,0.0076061212,0.33925343
538,472772661,-0.2108255624771118,-0.0779952257871627,-95.63892364501952,0.0029389863,-0.00039905444,0.3514309
539,472789328,-0.2108741104602813,-0.0788475722074508,-95.63971710205078,-0.0034041498,-0.006248955,0.33392334
540,472805995,-0.211011603474617,-0.0783794522285461,-95.64093780517578,-0.017986126,-0.00051828026,0.35663223
541,472822662,-0.2097101807594299,-0.0800332576036453,-95.64116668701172,-0.0023387345,-0.010613362,0.34877205
542,472839329,-0.2097204476594925,-0.0797509029507637,-95.6416473388672,-0.0070625413,-0.013847118,0.3497076
543,472855996,-0.2104969173669815,-0.0793312340974807,-95.6400909423828,0.008414144,-0.013917183,0.3312559
544,472872663,-0.2113649845123291,-0.078724704682827,-95.64054107666016,-0.0097308615,-0.009094395,0.32900333
545,472889330,-0.2099744230508804,-0.0806511044502258,-95.63982391357422,-0.0072431923,-0.010292201,0.34475422
546,472905997,-0.2092131823301315,-0.0804766118526458,-95.6400375366211,-0.005223254,-0.019797642,0.33422375
547,472922664,-0.2095828354358673,-0.0799121782183647,-95.64002990722656,-0.012948817,-0.0020250406,0.35425663
548,472939331,-0.2094331383705139,-0.0791038647294044,-95.639892578125,0.0072427345,0.010861702,0.3593588
549,472955998,-0.2081568390130996,-0.0805609151721,-95.6395034790039,-0.0007065397,-0.0091361,0.34857082
550,472972665,-0.2078728824853897,-0.0799666047096252,-95.63826751708984,0.0061980565,-0.0049750283,0.36261272
551,472989332,-0.2076915949583053,-0.0794934555888176,-95.63819885253906,0.0059019485,0.003945022,0.3612833
552,473005999,-0.2080834507942199,-0.0779403895139694,-95.6375961303711,-0.008646817,-0.014579521,0.350832
553,473022666,-0.208576425909996,-0.0769509598612785,-95.6375503540039,-0.0033826765,-0.0027142672,0.3414297
554,473039333,-0.2083428651094436,-0.0770050957798957,-95.63805389404295,0.003751162,-0.0059486087,0.33311462
555,473056000,-0.2067341953516006,-0.0782009735703468,-95.63792419433594,-0.0049343165,-0.0047943946,0.35668755
556,473072667,-0.2063618004322052,-0.0773906484246254,-95.6369400024414,-0.0021587454,-0.0017274304,0.34772205
557,473089334,-0.206764280796051,-0.0772351697087287,-95.6359634399414,-0.0064021144,0.0052521825,0.34169292
558,473106001,-0.2074751853942871,-0.0772713348269462,-95.63560485839844,-0.00569809,-0.0008663991,0.36153793
559,473122668,-0.2057072967290878,-0.0752996206283569,-95.63721466064452,-0.007739994,-0.0003267349,0.33555794
560,473139335,-0.2063772082328796,-0.0755077749490737,-95.63765716552734,-0.0061115264,0.0015507451,0.3436203
561,473156002,-0.2069465816020965,-0.0754576325416565,-95.63870239257812,0.003373733,0.0054994044,0.36230564
562,473172669,-0.2065017074346542,-0.0761860013008117,-95.63953399658205,-0.0011084108,-0.002605584,0.34068394
563,473189336,-0.2067456841468811,-0.0766652822494506,-95.63983154296876,-0.00010703957,-0.0027459457,0.355093
564,473206003,-0.2071944922208786,-0.0750714614987373,-95.63997650146484,-0.00097126025,-0.005577741,0.36725044
565,473222670,-0.2063839137554168,-0.0742684006690979,-95.63866424560548,0.0009939538,-0.01081606,0.35195827
566,473239337,-0.2063425332307815,-0.0738212317228317,-95.6379852294922,-0.008218255,0.0039167064,0.3587494
567,473256004,-0.2054704129695892,-0.0744871646165847,-95.637939453125,-0.008071623,-0.017407969,0.3733816
568,473272671,-0.2062084823846817,-0.0747130289673805,-95.63737487792967,-0.00434216,0.0002899967,0.35441017
569,473289338,-0.2066301256418228,-0.0749109014868736,-95.63751220703124,-0.006754356,0.0030140276,0.33378696
570,473306005,-0.2073141932487487,-0.0757968872785568,-95.63752746582033,-0.008563628,-0.009100074,0.37086582
571,473322672,-0.2072959840297699,-0.0774851366877555,-95.63787078857422,-0.01049519,-0.004921826,0.37263298
572,473339339,-0.207131803035736,-0.0779648870229721,-95.63805389404295,-0.0037402972,-0.0019966667,0.3481655
573,473356006,-0.2064543962478637,-0.0776953473687172,-95.63831329345705,-0.0045605497,0.00816884,0.34378433
574,473372673,-0.2074152380228042,-0.0781850814819336,-95.63876342773438,0.0033387155,-0.0053668227,0.33243752
575,473389340,-0.2075434327125549,-0.0783726125955581,-95.63848876953124,0.008540561,-0.0011014526,0.3371477
576,473406007,-0.207177996635437,-0.0781660079956054,-95.63858795166016,-0.015255129,0.010316363,0.38187027
577,473422674,-0.2068791538476944,-0.0788605287671089,-95.63855743408205,-0.002393973,-0.004640564,0.3572216
578,473439341,-0.2065299898386001,-0.0783851444721221,-95.6385269165039,-0.019376032,0.0026486765,0.35020065
579,473456008,-0.2083004266023636,-0.0786219909787178,-95.63917541503906,-0.00088168704,-0.007147025,0.34709835
580,473472675,-0.208751693367958,-0.077546089887619,-95.6408462524414,-0.0041074315,-0.0008066041,0.34157944
581,473489342,-0.2085897922515869,-0.0784193873405456,-95.64030456542967,-0.01543526,-0.01133139,0.36588573
582,473506009,-0.2080000787973404,-0.0785605683922767,-95.6399383544922,-0.0066613774,-0.007008241,0.35771656
583,473522676,-0.2066546082496643,-0.0797348096966743,-95.6397933959961,-0.008596668,-0.014925295,0.34126663
584,473539343,-0.205598309636116,-0.0804474204778671,-95.64038848876952,-0.004946149,-0.0033536032,0.34961605
585,473556010,-0.206511840224266,-0.0807411074638366,-95.6401596069336,0.0057598483,0.010471475,0.36219597
586,473572677,-0.2079518884420395,-0.0812577307224273,-95.63890075683594,-0.0012223867,0.008317301,0.3293686
587,473589344,-0.2064625769853592,-0.0820857509970665,-95.63905334472656,-0.0054704514,-0.0070492607,0.35877037
588,473606011,-0.2055674791336059,-0.0814465284347534,-95.6387176513672,-0.004247815,-0.007621067,0.35969162
589,473622678,-0.2052220106124878,-0.0806952938437461,-95.6390151977539,0.0021145032,-0.0024246222,0.3538084
590,473639345,-0.2055297195911407,-0.0797302275896072,-95.6396255493164,-0.013953231,-0.012163621,0.3783617
591,473656012,-0.2055086493492126,-0.0791760236024856,-95.63968658447266,-0.010774679,-0.0028361115,0.34437084
592,473672679,-0.2067216336727142,-0.0788386687636375,-95.64017486572266,0.0047369185,-0.00079339417,0.3576126
593,473689346,-0.2060318887233734,-0.0788754373788833,-95.6404037475586,0.0012044816,-0.006250366,0.35046482
594,473706013,-0.2063889354467392,-0.0797140002250671,-95.64044952392578,-0.011642174,-0.013729737,0.34445858
595,473722680,-0.2051311433315277,-0.0785502344369888,-95.64019012451172,0.008440765,-0.008444338,0.35785675
596,473739347,-0.2040293663740158,-0.0792632699012756,-95.63961029052734,-0.00884193,-0.0017710258,0.32069302
597,473756014,-0.204519435763359,-0.0778747797012329,-95.63995361328124,-0.0021219722,-0.012853428,0.32466602
598,473772681,-0.2053775042295456,-0.0781792253255844,-95.64015197753906,-0.006113107,-0.0016970648,0.34426022
599,473789348,-0.2064174711704254,-0.078938715159893,-95.63995361328124,-0.0039127283,-0.012643224,0.36883545
600,473806015,-0.2069633901119232,-0.074213333427906,-95.6376724243164,0.0040061628,-0.004797329,0.3574047
601,473822682,-0.2073112875223159,-0.073406234383583,-95.6373062133789,-0.0082577225,-0.011666122,0.35410213
602,473839349,-0.2069875448942184,-0.0734302327036857,-95.63639068603516,0.0043558935,0.0020799453,0.36410236
603,473856016,-0.2079038918018341,-0.0739215612411499,-95.63556671142578,-0.0007018652,0.009858582,0.36810875
604,473872683,-0.2089993059635162,-0.0749801993370056,-95.63761138916016,-0.0027714462,0.006237225,0.36028004
605,473889350,-0.2078952193260193,-0.0753905847668647,-95.63707733154295,0.004051754,-0.00490931,0.35192585
606,473906017,-0.2072927951812744,-0.0746233835816383,-95.63611602783205,-0.005624377,-0.0071476013,0.34956455
607,473922684,-0.2078411430120468,-0.0742520540952682,-95.63679504394533,0.0032049476,-0.0016833651,0.35225296
608,473939351,-0.2077762931585312,-0.0747290626168251,-95.6366729736328,-0.0023876855,-0.008000561,0.37990665
609,473956018,-0.2083460539579391,-0.0738185048103332,-95.6364974975586,-0.0016163714,0.005352064,0.33076477
610,473972685,-0.208095833659172,-0.0740003362298011,-95.63726806640624,0.0028713897,0.0007933453,0.3688755
611,473989352,-0.2075823247432708,-0.0759032368659973,-95.6388702392578,0.002710206,-0.0008372935,0.3407507
612,474006019,-0.2075062245130539,-0.0754864364862442,-95.63951110839844,-0.013127669,-0.0045161615,0.35089684
613,474022686,-0.2076330780982971,-0.0751465186476707,-95.63980102539062,0.0026707754,0.005432558,0.3574314
614,474039353,-0.207602247595787,-0.0752591788768768,-95.64022064208984,0.021108976,-0.0069822487,0.36504555
615,474056020,-0.2073480635881424,-0.0768470764160156,-95.64057159423828,-0.0030877935,-0.0046057156,0.3640871
616,474072687,-0.2081393897533416,-0.0779266431927681,-95.64015197753906,-0.009862619,-0.0049160556,0.34227467
617,474089354,-0.2086285948753357,-0.0787434950470924,-95.64171600341795,0.008456103,-0.011634912,0.3638649
618,474106021,-0.2084359228610992,-0.0789484232664108,-95.64168548583984,-0.0021218592,-0.00027615376,0.33148575
619,474122688,-0.2074681967496872,-0.0787268653512001,-95.64118194580078,-0.005861994,0.0015520399,0.35163307
620,474139355,-0.2071728706359863,-0.0796152427792549,-95.64104461669922,-0.0027562124,-0.010404235,0.34166527
621,474156022,-0.207152858376503,-0.0789362862706184,-95.6413116455078,-0.00086842553,-0.0025168695,0.34872437
622,474172689,-0.207677811384201,-0.0777085870504379,-95.64210510253906,-0.008446213,0.002837998,0.35774422
623,474189356,-0.2075022608041763,-0.0776821076869964,-95.64154052734376,-0.00038626138,-0.0049399375,0.3346796
624,474206023,-0.207122191786766,-0.078256569802761,-95.64183044433594,0.00021658406,-0.0013352341,0.35276604
625,474222690,-0.2073983699083328,-0.0792675241827964,-95.64281463623048,-0.014607498,0.004480795,0.35661697
626,474239357,-0.2072818130254745,-0.0795719698071479,-95.64381408691406,-0.012348733,-0.0011440214,0.34527397
627,474256024,-0.2071563303470611,-0.079343095421791,-95.64275360107422,-0.0046269894,-0.0006547812,0.3591032
628,474272691,-0.2075181603431701,-0.0807757303118705,-95.64230346679688,-0.027516948,0.0056453138,0.346694
629,474289358,-0.2072523534297943,-0.0812764540314674,-95.6434326171875,-0.0009903597,-0.005262154,0.33928013
630,474306025,-0.206802636384964,-0.0813577324151992,-95.6426773071289,-0.0058775623,-0.01873369,0.37455368
631,474322692,-0.2065926492214203,-0.0805237516760826,-95.64176940917967,-0.0035404311,-0.006912366,0.34150887
632,474339359,-0.2064860463142395,-0.0790674537420272,-95.64208984375,-0.00027241165,-0.004904995,0.3658285
633,474356026,-0.2069148421287536,-0.0794181451201438,-95.6419677734375,0.0011722062,2.5592233e-05,0.34281826
634,474372693,-0.2070901840925216,-0.079264760017395,-95.64144134521484,-0.010589982,0.002456024,0.34957123
635,474389360,-0.2078016847372055,-0.079449713230133,-95.64198303222656,-0.0035667229,-0.008080682,0.35877132
636,474406027,-0.2076604962348938,-0.0788950324058532,-95.64295196533205,-0.0012458185,-0.00030949037,0.35377312
637,474422694,-0.2075760513544082,-0.079326681792736,-95.6433334350586,0.005239285,-0.0049104234,0.3400669
638,474439361,-0.2068833410739898,-0.0799453854560852,-95.64466094970705,0.009758435,-0.0020939077,0.34130955
639,474456028,-0.2063141763210296,-0.0805647000670433,-95.64593505859376,-0.0053909887,-0.02062344,0.36348248
640,474472695,-0.2066171169281005,-0.0802680477499961,-95.64630126953124,5.044015e-05,-0.0034059193,0.35550785
641,474489362,-0.2062506228685379,-0.0818980410695076,-95.64569091796876,-0.003504952,-0.0038311754,0.35184574
642,474506029,-0.2067313194274902,-0.0823502093553543,-95.64634704589844,0.0012865507,-0.014116754,0.33641624
643,474522696,-0.2066762000322342,-0.0829307958483696,-95.64693450927734,-0.010231392,-0.0048995637,0.35279655
644,474539363,-0.2061021476984024,-0.0832524597644805,-95.64728546142578,-0.005328689,0.0107149035,0.3234253
645,474556030,-0.2053418308496475,-0.0843085646629333,-95.64791107177734,0.0050575943,-0.0055003003,0.34001637
646,474572697,-0.2060341536998748,-0.0838086828589439,-95.6485595703125,-0.005203411,-0.0076137516,0.3406105
647,474589364,-0.2051847428083419,-0.0848197117447853,-95.64883422851562,-0.011732243,-0.001479055,0.3357582
648,474606031,-0.2049763202667236,-0.0854942202568054,-95.647705078125,-0.011426625,0.0038941554,0.3399372
649,474622698,-0.205018863081932,-0.0863288342952728,-95.64778137207033,-0.015729774,-0.0011991278,0.37299633
650,474639365,-0.2045771777629852,-0.0849814116954803,-95.64808654785156,-0.010959488,0.009470536,0.35372162
651,474656032,-0.204590693116188,-0.0845046117901802,-95.6479721069336,0.0042653945,0.004610861,0.3789692
652,474672699,-0.2048265486955642,-0.0851751342415809,-95.64768981933594,-0.013476489,0.0006195142,0.34717178
653,474689366,-0.2045174539089203,-0.0858695358037948,-95.64740753173828,-0.006572196,-0.009255966,0.3464203
654,474706033,-0.204314574599266,-0.08629010617733,-95.64627838134766,-0.009232282,-0.00091446744,0.34998035
655,474722700,-0.2048590630292892,-0.0864631757140159,-95.64488983154295,-0.007898431,0.0025105386,0.36400795
656,474739367,-0.204555258154869,-0.0866094604134559,-95.64484405517578,0.0034133994,0.006649992,0.37486553
657,474756034,-0.2040795087814331,-0.0861472487449646,-95.64447021484376,-0.005168758,-0.0045421035,0.36370087
658,474772701,-0.2043927013874054,-0.0864202976226806,-95.64404296875,0.0053110584,0.0012349606,0.3705969
659,474789368,-0.2044396102428436,-0.0877674892544746,-95.64350128173828,-0.005537379,-0.006044066,0.35741806
660,474806035,-0.2038553208112716,-0.0881803035736084,-95.64338684082033,-0.013137487,0.005149219,0.3433857
661,474822702,-0.2040298283100128,-0.0876169726252555,-95.64307403564452,-0.0063561983,-0.0060189646,0.35247707
662,474839369,-0.2048117071390152,-0.0875074937939643,-95.64308166503906,-0.0032953834,-0.008930497,0.37369537
663,474856036,-0.2054718434810638,-0.0869865864515304,-95.64389038085938,0.0006232999,-0.010643307,0.3354473
664,474872703,-0.2052848786115646,-0.0874424129724502,-95.64488983154295,-0.009513729,-0.01399682,0.3630314
665,474889370,-0.2054975479841232,-0.0860707834362983,-95.6441650390625,-0.010277156,0.0048268777,0.3661995
666,474906037,-0.206128716468811,-0.0864600390195846,-95.64431762695312,-0.010753853,0.014828083,0.3689432
667,474922704,-0.2055527567863464,-0.0875813439488411,-95.64434051513672,-0.013108647,0.012683152,0.35036278
668,474939371,-0.2065690010786056,-0.086509384214878,-95.64434814453124,-0.012836589,-0.008622266,0.3436308
669,474956038,-0.2071076184511184,-0.0851731300354003,-95.64512634277344,-0.015722739,-0.017094659,0.36299992
670,474972705,-0.2075706720352172,-0.0847913324832916,-95.6457290649414,0.01266785,0.0097203115,0.34903812
671,474989372,-0.2084852010011673,-0.0837043598294258,-95.64582061767578,0.0008152198,-0.0051444625,0.3497734
672,475006039,-0.2093607783317566,-0.0837310031056404,-95.64752197265624,-0.009483773,0.0022098979,0.34037495
673,475022706,-0.2080603539943695,-0.0845714062452316,-95.6471939086914,0.0014757989,0.0033324673,0.35347176
674,475039373,-0.2076550871133804,-0.0848495364189148,-95.64551544189452,0.00027842206,0.00990365,0.3490734
675,475056040,-0.2068406790494918,-0.0842694491147995,-95.64630126953124,0.002336689,0.0028675105,0.3505478
676,475072707,-0.2073306888341903,-0.0844636559486389,-95.64746856689452,0.0030258268,-0.012368388,0.3389864
677,475089374,-0.2070257365703582,-0.0855001285672187,-95.64752960205078,-0.0036495605,-0.0025029294,0.3555689
678,475106041,-0.2075008600950241,-0.085470400750637,-95.6466293334961,-0.0053655114,-0.009076268,0.3491869
679,475122708,-0.2081271111965179,-0.0857483446598053,-95.6468734741211,-0.015287415,0.0036908102,0.36118317
680,475139375,-0.2087720930576324,-0.0867160186171531,-95.6463851928711,0.0034050727,-0.004422031,0.35886574
681,475156042,-0.2077755182981491,-0.0865194424986839,-95.64662170410156,-0.0075570988,-0.0005241658,0.35232258
682,475172709,-0.2082476913928985,-0.0863563939929008,-95.64656066894533,-0.008278487,0.00088818546,0.36594868
683,475189376,-0.208925187587738,-0.0862168967723846,-95.64663696289062,-0.0030838174,0.003645532,0.32679558
684,475206043,-0.2086571455001831,-0.0882651731371879,-95.64689636230467,-0.007924366,0.008480041,0.35271454
685,475222710,-0.2083251923322677,-0.0877177342772483,-95.64559936523438,0.012855044,-0.0052103978,0.3441229
686,475239377,-0.2084748893976211,-0.0884193032979965,-95.64634704589844,-0.007743744,0.005067969,0.36448383
687,475256044,-0.208413153886795,-0.0882671028375625,-95.64627838134766,-0.01072578,-0.008183481,0.34518623
688,475272711,-0.2088924348354339,-0.0901893675327301,-95.64667510986328,-0.004900478,-0.0060938816,0.32898426
689,475289378,-0.2082099318504333,-0.0905913785099983,-95.64751434326172,-0.008719647,0.00034774162,0.34792995
690,475306045,-0.2072879523038864,-0.0894382074475288,-95.64712524414062,0.003085516,-0.008803137,0.37413597
691,475322712,-0.2066477984189987,-0.0892300903797149,-95.64686584472656,-0.0038867267,-0.0022415468,0.33873177
692,475339379,-0.207033023238182,-0.0893333107233047,-95.64743041992188,0.00069093966,-0.004416264,0.34794998
693,475356046,-0.2074995934963226,-0.0892590507864952,-95.64808654785156,0.0002667614,0.000106987616,0.34739304
694,475372713,-0.2078744173049926,-0.0895546898245811,-95.64884948730467,-0.004950273,-0.0066050193,0.33935547
695,475389380,-0.2083334475755691,-0.0889590382575988,-95.64844512939452,0.00831925,-0.0010085193,0.3323002
696,475406047,-0.2082070112228393,-0.0875590518116951,-95.64710235595705,0.015439323,-0.02197125,0.33474827
697,475422714,-0.2074648439884185,-0.0870213285088539,-95.6458969116211,-0.00039325707,-0.0009320717,0.36285305
698,475439381,-0.206006109714508,-0.0879199802875518,-95.64603424072266,0.0009151956,-0.0057047484,0.35325432
699,475456048,-0.2064676433801651,-0.0868415683507919,-95.6458740234375,-0.015615712,-0.0019039244,0.35307407
700,475472715,-0.2063793987035751,-0.0853400900959968,-95.64653778076172,7.8295016e-05,0.003833978,0.35540676
701,475489382,-0.2072352766990661,-0.0853473544120788,-95.64629364013672,-0.0034787701,-0.01241504,0.35107136
702,475506049,-0.2071491032838821,-0.0848895907402038,-95.64644622802734,-0.0018127948,-0.019817358,0.31628036
703,475522716,-0.2068393230438232,-0.0861788317561149,-95.64704895019533,-0.0114224395,-0.004044226,0.3411789
704,475539383,-0.2064501941204071,-0.0869935303926467,-95.6462631225586,0.0017420495,0.0051186667,0.34166527
705,475556050,-0.2063716650009155,-0.0885692313313484,-95.64697265625,0.012540706,-0.00455518,0.34103584
706,475572717,-0.2066377997398376,-0.0887642204761505,-95.64765167236328,-0.0010795065,-0.007120188,0.33755207
707,475589384,-0.2055351138114929,-0.0878186374902725,-95.64746856689452,0.00076595054,0.004653778,0.3596754
708,475606051,-0.20548777282238,-0.0891966596245765,-95.64830017089844,0.008871956,0.0013163281,0.33202648
709,475622718,-0.2070402652025222,-0.0899526849389076,-95.6482391357422,-0.012464888,0.0022323078,0.3586979
710,475639385,-0.2080980390310287,-0.089225597679615,-95.64844512939452,-0.0008875464,0.003896394,0.3475952
711,475656052,-0.207714706659317,-0.0883744060993194,-95.64710998535156,-0.0010713718,-0.009093205,0.3622179
712,475672719,-0.2078603208065033,-0.0882181003689765,-95.64791870117188,0.0042694826,0.0010762245,0.35075283
713,475689386,-0.2091408222913742,-0.0872258320450782,-95.6474609375,0.0035569437,-0.013866478,0.34356976
714,475706053,-0.2092029601335525,-0.0882323831319809,-95.64818572998048,0.0039753886,0.010744786,0.3540125
715,475722720,-0.2095468640327453,-0.088322713971138,-95.64725494384766,-0.00412109,-0.003640207,0.36172485
716,475739387,-0.2088248431682586,-0.0886372849345207,-95.64806365966795,-0.0014333104,-0.0032632027,0.3602171
717,475756054,-0.2081515043973922,-0.0889460518956184,-95.64791107177734,0.009000296,-0.01374434,0.35099983
718,475772721,-0.2064748406410217,-0.0890465229749679,-95.64842987060548,-0.0024522056,-0.004199714,0.36367416
719,475789388,-0.2062043249607086,-0.0889430120587349,-95.64855194091795,-0.0008542443,0.00097524555,0.3731184
720,475806055,-0.206667885184288,-0.0783978700637817,-95.64380645751952,-0.0052941376,-0.003896986,0.33763027
721,475822722,-0.2073473632335662,-0.0774336159229278,-95.64292907714844,-0.0012178784,-0.0052450364,0.34164047
722,475839389,-0.2074191272258758,-0.0765229985117912,-95.64205932617188,-0.0037044652,-0.004510832,0.34381676
723,475856056,-0.2085539698600769,-0.0766464471817016,-95.64111328125,0.0024976465,0.0039694104,0.3419733
724,475872723,-0.2094295918941497,-0.0763372033834457,-95.64173126220705,-0.0024600315,-0.0075232103,0.33819866
725,475889390,-0.2094450891017913,-0.0765846818685531,-95.6409149169922,0.0007147905,-0.0022675013,0.34365463
726,475906057,-0.2094503194093704,-0.0777771919965744,-95.64118194580078,-0.013917706,-0.0023904415,0.36596775
727,475922724,-0.209193468093872,-0.0764332264661789,-95.6421890258789,0.0023015924,-0.0038035165,0.35128975
728,475939391,-0.2076129466295242,-0.0763462930917739,-95.64299774169922,0.0046369904,0.0034250934,0.3717308
729,475956058,-0.2077745497226715,-0.0771322101354599,-95.64362335205078,0.00882041,-0.004002979,0.35588455
730,475972725,-0.2073897868394851,-0.0774366408586502,-95.6436767578125,0.0036690906,-0.010952721,0.32790852
731,475989392,-0.2088128179311752,-0.0769928768277168,-95.64466094970705,0.0025243291,-0.002153425,0.35999012
732,476006059,-0.2080989778041839,-0.0761670991778373,-95.6447296142578,-0.01286423,-0.0010298865,0.34268856
733,476022726,-0.2087346315383911,-0.0764733701944351,-95.64447021484376,-0.006785674,-0.00066336984,0.34242153
734,476039393,-0.2093392759561538,-0.0766076371073722,-95.64400482177734,-0.00010161763,0.00083500077,0.33875084
735,476056060,-0.2093291878700256,-0.0773443430662155,-95.6451416015625,-0.008041245,0.011442892,0.35729408
736,476072727,-0.2098932117223739,-0.0784721747040748,-95.64449310302734,-0.007888459,-0.005025233,0.33868408
737,476089394,-0.2100063860416412,-0.0792522430419921,-95.64356231689452,-0.0074510104,-0.004447116,0.32582855
738,476106061,-0.2115258425474167,-0.0800216346979141,-95.64369201660156,0.0033613686,0.013140537,0.34577465
739,476122728,-0.2111445516347885,-0.0805808529257774,-95.64396667480467,0.0014849153,-0.0011295603,0.3467207
740,476139395,-0.2108805924654007,-0.0806939303874969,-95.64422607421876,-0.018991448,-0.007774727,0.35229778
741,476156062,-0.2108017951250076,-0.0807899013161659,-95.6432647705078,0.00017156672,-0.012602379,0.35258484
742,476172729,-0.2102706581354141,-0.0800445303320884,-95.64254760742188,0.013810531,-0.006780716,0.36046314
743,476189396,-0.2105956077575683,-0.0809476152062416,-95.64334869384766,0.00094322074,0.010953598,0.34797287
744,476206063,-0.2102516740560531,-0.0806299895048141,-95.64157104492188,-0.009016718,-0.007061108,0.33693314
745,476222730,-0.2103940695524215,-0.0798831954598426,-95.64283752441406,0.0075510936,-0.0004503332,0.35888767
746,476239397,-0.2099668979644775,-0.07973313331604,-95.6423568725586,0.0027000986,-0.002651495,0.34392548
747,476256064,-0.2112304270267486,-0.0798558667302131,-95.64268493652344,0.009298431,-0.011237846,0.3432846
748,476272731,-0.2117190510034561,-0.0810102671384811,-95.6416473388672,-0.0018143725,0.004180814,0.3608322
749,476289398,-0.2106565833091735,-0.0818509459495544,-95.641845703125,0.009008705,-0.0045583653,0.3615656
750,476306065,-0.2109214663505554,-0.0818761065602302,-95.64154815673828,0.011137387,-0.009066097,0.3450756
751,476322732,-0.2110633999109268,-0.0815991163253784,-95.64161682128906,0.0061207083,-0.014338992,0.343935
752,476339399,-0.2098525315523147,-0.08272435516119,-95.64153289794922,-0.00043181394,-0.0069861175,0.3453436
753,476356066,-0.2092719674110412,-0.0823313444852829,-95.6423797607422,0.0014916399,-0.00791016,0.3333311
754,476372733,-0.2098042070865631,-0.0825551301240921,-95.64259338378906,0.0026799606,0.004552572,0.33114815
755,476389400,-0.2095895260572433,-0.0814471319317817,-95.64226531982422,-0.0056386157,0.0026935677,0.3731079
756,476406067,-0.2093915343284607,-0.0813226774334907,-95.6428451538086,-0.0037626084,-0.0075969095,0.33563137
757,476422734,-0.2092365026473999,-0.0813639611005783,-95.6431884765625,0.002628102,-0.00828121,0.3414421
758,476439401,-0.2100676298141479,-0.0832276940345764,-95.64425659179688,-0.009201656,0.0008646712,0.35354614
759,476456068,-0.2091279327869415,-0.0843354612588882,-95.64491271972656,0.0005360762,-0.011816301,0.3576889
760,476472735,-0.2086968421936035,-0.0842135474085807,-95.6447525024414,-0.012239355,0.0027685957,0.34351635
761,476489402,-0.2097975760698318,-0.0864634960889816,-95.6444854736328,0.0070940373,-0.0037329833,0.34453106
762,476506069,-0.2114085108041763,-0.0853940844535827,-95.64617919921876,-0.0050581484,-0.00989179,0.34381008
763,476522736,-0.2113183885812759,-0.0860046371817588,-95.64632415771484,0.0005909691,0.0065728547,0.3430624
764,476539403,-0.2105096727609634,-0.0870679318904876,-95.64614868164062,-0.0018353309,0.0014485299,0.34817696
765,476556070,-0.2103227227926254,-0.0870055332779884,-95.64753723144533,-0.006828631,0.0016371757,0.34666538
766,476572737,-0.2105428427457809,-0.0868954882025718,-95.6484146118164,-0.0050141476,0.0051012514,0.34649944
767,476589404,-0.2117236405611038,-0.0863112807273864,-95.64789581298828,-0.0042319885,0.002314089,0.364439
768,476606071,-0.2124763429164886,-0.0873245075345039,-95.64717864990234,-0.011448941,0.006073377,0.35736752
769,476622738,-0.212305337190628,-0.0870426297187805,-95.64656829833984,0.0013062267,-0.001894708,0.3450699
770,476639405,-0.2132218927145004,-0.0884314998984336,-95.64653778076172,-0.012739205,-0.0028933245,0.34461594
771,476656072,-0.2131138741970062,-0.0887241289019584,-95.64563751220705,0.0075537427,0.004274521,0.36981392
772,476672739,-0.213946983218193,-0.0897575467824935,-95.64582824707033,0.005840351,-0.011097071,0.35107708
773,476689406,-0.2137971073389053,-0.0892154946923255,-95.6461181640625,7.12919e-05,0.0034249623,0.35568714
774,476706073,-0.2131444364786148,-0.0897343158721923,-95.6468734741211,-0.006133011,-0.006316829,0.34324074
775,476722740,-0.2124718278646469,-0.0892498791217804,-95.64749908447266,-0.0033056515,0.0010710898,0.32865524
776,476739407,-0.2133273780345916,-0.0885898247361183,-95.64824676513672,-0.0027679012,0.0024133252,0.34790993
777,476756074,-0.2133269011974334,-0.0891971737146377,-95.64781188964844,-0.007873092,0.0022050233,0.353405
778,476772741,-0.2129187434911728,-0.0891655683517456,-95.64723205566406,-0.010355968,-0.00224048,0.34518337
779,476789408,-0.2146201133728027,-0.0902131646871566,-95.64672088623048,0.0058264015,-0.011427522,0.33947086
780,476806075,-0.2159502953290939,-0.0913508161902427,-95.64613342285156,0.0013425371,-0.017025942,0.33660412
781,476822742,-0.2157927900552749,-0.0899575352668762,-95.64544677734376,-0.0039869854,0.001558713,0.33732796
782,476839409,-0.2165093719959259,-0.0892233923077583,-95.64578247070312,0.005413567,-0.004700447,0.36754322
783,476856076,-0.2168125361204147,-0.0886225178837776,-95.6469955444336,-0.0012915278,-0.0014172398,0.34606552
784,476872743,-0.21689373254776,-0.0877400636672973,-95.6466064453125,-0.019740066,-0.009014077,0.3624897
785,476889410,-0.2165275514125824,-0.0874218419194221,-95.64700317382812,-0.0054725087,-0.0069444766,0.34946156
786,476906077,-0.2165854275226593,-0.0870834365487098,-95.64705657958984,-0.011611783,0.001159656,0.34927273
787,476922744,-0.2171379625797271,-0.0870309323072433,-95.64724731445312,-0.009241489,0.006648407,0.36884308
788,476939411,-0.2160567790269851,-0.0869989097118377,-95.64715576171876,-0.005690068,-0.0022457307,0.3344059
789,476956078,-0.2158962935209274,-0.0873239561915397,-95.6466064453125,0.001187978,-0.0061260327,0.35075665
790,476972745,-0.2153160274028778,-0.0872990041971206,-95.6466064453125,-0.0073243408,-0.0046524717,0.36661243
791,476989412,-0.2146280407905578,-0.0870000943541526,-95.64662170410156,-5.2951178e-05,-0.005943612,0.35498333
792,477006079,-0.2144802212715149,-0.0878803059458732,-95.64647674560548,-0.01128866,0.0052273744,0.35614395
793,477022746,-0.2143916189670562,-0.0871029943227768,-95.64659881591795,0.011962426,0.0041480074,0.34090805
794,477039413,-0.2149928212165832,-0.0862921625375747,-95.64676666259766,0.0032525565,-0.015355131,0.3402853
795,477056080,-0.2157768458127975,-0.0863804668188095,-95.64690399169922,0.006301249,-0.00023378756,0.35410213
796,477072747,-0.2164871394634246,-0.0872809439897537,-95.6469955444336,-0.0024233544,-0.0070767547,0.3385687
797,477089414,-0.2172990888357162,-0.0874932259321212,-95.64824676513672,0.003010833,0.007223706,0.33234787
798,477106081,-0.217299222946167,-0.0872401446104049,-95.64684295654295,-0.00699309,0.0037303658,0.35796928
799,477122748,-0.21641206741333,-0.0874570161104202,-95.64527893066406,-0.0020436475,0.0044483314,0.3641405
800,477139415,-0.2159820050001144,-0.0876333266496658,-95.6453628540039,0.0046047023,-0.013655431,0.33486652
801,477156082,-0.2162259072065353,-0.0878692865371704,-95.64556884765624,0.008560378,-0.0010465304,0.34740543
802,477172749,-0.2160223126411438,-0.0876930803060531,-95.64583587646484,-0.008078478,0.0005219787,0.35758018
803,477189416,-0.2159894704818725,-0.086465910077095,-95.64556121826172,-0.010459511,0.0063948287,0.3774519
804,477206083,-0.21677166223526,-0.0864559859037399,-95.64537048339844,0.011832161,0.0040860656,0.36341953
805,477222750,-0.2166604399681091,-0.0872347131371498,-95.6454620361328,-0.0057442426,-0.010327594,0.33951664
806,477239417,-0.2172096371650695,-0.0869556590914726,-95.64517211914062,-0.0015310651,-0.0033064857,0.37707043
807,477256084,-0.2181103229522705,-0.0875336676836013,-95.64518737792967,-0.00066126965,-0.002755631,0.36069584
808,477272751,-0.2191406637430191,-0.0882474482059478,-95.64498901367188,-0.001531957,-0.009395313,0.3415308
809,477289418,-0.2184922248125076,-0.0880105346441268,-95.6456298828125,0.0051908116,-0.007457907,0.3596468
810,477306085,-0.2175568491220474,-0.088423453271389,-95.64395141601562,0.0101535525,-0.0029568442,0.36092854
811,477322752,-0.2169538587331771,-0.0894107148051261,-95.64324188232422,-0.0018384822,0.0048570456,0.3585987
812,477339419,-0.216895654797554,-0.0901428237557411,-95.6434326171875,-0.022162927,-0.0012772316,0.34726238
813,477356086,-0.2174983620643615,-0.089755892753601,-95.64356231689452,-0.008077664,-0.008462024,0.35572243
814,477372753,-0.2165503650903701,-0.0888244062662124,-95.64244842529295,-0.00070252875,1.338895e-05,0.35030174
815,477389420,-0.2166462987661361,-0.0884527042508125,-95.64205169677734,-0.01361519,0.008956091,0.3587923
816,477406087,-0.2160176634788513,-0.0875794366002082,-95.6410140991211,0.0059025325,-0.008256107,0.3546543
817,477422754,-0.2156480103731155,-0.0872494205832481,-95.6405792236328,0.0059881024,0.0034884016,0.36142254
818,477439421,-0.2164562046527862,-0.0876134037971496,-95.64060974121094,-0.004670314,-0.0016468181,0.3534584
819,477456088,-0.217555895447731,-0.0880644917488098,-95.64030456542967,0.0009236686,-0.0043778103,0.36916828
820,477472755,-0.2181441783905029,-0.088697038590908,-95.64124298095705,-0.005888669,0.0026213957,0.33932304
821,477489422,-0.2190167754888534,-0.0898179858922958,-95.64229583740234,-0.010270253,0.002514782,0.35856915
822,477506089,-0.2192596346139907,-0.0902479812502861,-95.6430206298828,-0.01068186,-0.009083605,0.34174728
823,477522756,-0.2185657769441604,-0.0887953788042068,-95.6431655883789,0.00040698698,0.010576804,0.35864544
824,477539423,-0.2182790040969848,-0.0894052013754844,-95.64295196533205,-0.0063088224,-0.003477756,0.33904934
825,477556090,-0.2178708016872406,-0.0882802456617355,-95.64337921142578,0.00972125,0.014318625,0.35832882
826,477572757,-0.2179196327924728,-0.0882310271263122,-95.64393615722656,-0.007707621,0.00015761767,0.3449211
827,477589424,-0.2191366255283355,-0.0894245654344558,-95.64388275146484,-0.00858236,-0.0021864718,0.34740067
828,477606091,-0.2188159376382827,-0.0893483161926269,-95.64405822753906,4.5288438e-05,-0.005997049,0.34015083
829,477622758,-0.2181059271097183,-0.088833712041378,-95.6443862915039,0.00030733948,-0.0038944478,0.3494978
830,477639425,-0.2180322408676147,-0.0887666344642639,-95.64435577392578,-0.0015163036,-0.0076098493,0.33444214
831,477656092,-0.2176217436790466,-0.0887947827577591,-95.6438980102539,-0.0053024194,-0.011239321,0.3484249
832,477672759,-0.218180701136589,-0.0880415588617324,-95.64451599121094,-0.003492721,0.0064719655,0.34829617
833,477689426,-0.217475488781929,-0.087524838745594,-95.64569091796876,-0.00945986,-0.0051786657,0.34380722
834,477706093,-0.2175546139478683,-0.0890413671731948,-95.64623260498048,-0.011181487,-0.004391535,0.36289597
835,477722760,-0.2183068692684173,-0.0896023288369178,-95.64673614501952,-0.004358061,-0.0062366035,0.34741783
836,477739427,-0.218526154756546,-0.090070903301239,-95.64586639404295,0.008067873,-0.0058022905,0.34035683
837,477756094,-0.2195552289485931,-0.0902488604187965,-95.6458969116211,-0.0010034584,0.0056100627,0.35340977
838,477772761,-0.2200402468442917,-0.0893771648406982,-95.64539337158205,-0.006633167,0.004883055,0.35097408
839,477789428,-0.2197370529174804,-0.0888672024011612,-95.64520263671876,-0.006727582,-0.0020937244,0.33569145
840,477806095,-0.2102607786655426,-0.0782669931650161,-95.64706420898438,-0.010896162,-0.016755886,0.36883163
841,477822762,-0.2105515301227569,-0.0785985812544822,-95.64664459228516,-0.00060171523,-0.010647542,0.3554001
842,477839429,-0.209473967552185,-0.0769836008548736,-95.6438217163086,-0.008833943,-0.014813492,0.3800993
843,477856096,-0.2100158780813217,-0.0769975706934928,-95.6439437866211,-0.013349202,0.01435516,0.3515625
844,477872763,-0.2109082788228988,-0.07765793800354,-95.64385223388672,-0.009355812,0.021435173,0.36774063
845,477889430,-0.2103443145751953,-0.077092744410038,-95.64411926269533,-0.0025523433,-0.005173746,0.35187435
846,477906097,-0.2103995531797409,-0.0772420540452003,-95.64299011230467,-0.0034203306,0.011036731,0.34367943
847,477922764,-0.2110499590635299,-0.0784604772925376,-95.6431884765625,-0.0007867023,0.0051715886,0.37526226
848,477939431,-0.2122012078762054,-0.0781471729278564,-95.6417999267578,0.00610704,0.004743013,0.34400082
849,477956098,-0.2116972506046295,-0.0773902982473373,-95.64128112792967,-0.0029154196,-0.01738401,0.35419655
850,477972765,-0.2110741585493087,-0.0767682343721389,-95.640869140625,-0.0031444954,-0.014818976,0.35195827
851,477989432,-0.2117155790328979,-0.075755588710308,-95.6408462524414,-0.0009121773,-0.02112025,0.37260723
852,478006099,-0.2118528485298156,-0.0772422030568122,-95.64080810546876,-0.006342629,-0.007706607,0.337121
853,478022766,-0.2118120789527893,-0.0765456482768058,-95.640380859375,0.0051679737,-0.0048177615,0.35432053
854,478039433,-0.2119434475898742,-0.0763878896832466,-95.64069366455078,-0.0066212346,-0.0073798583,0.35036469
855,478056100,-0.2114356756210327,-0.0746740102767944,-95.64118194580078,-0.004925059,-0.0022535012,0.35574722
856,478072767,-0.2110974639654159,-0.0741388425230979,-95.64079284667967,0.006535792,-0.0014474445,0.35892105
857,478089434,-0.2114672064781189,-0.07423647493124,-95.64057159423828,-0.017871508,-0.018918939,0.36108494
858,478106101,-0.2116381525993347,-0.0742291286587715,-95.64048767089844,-0.0027876073,-0.0046910243,0.37268448
859,478122768,-0.2130893468856811,-0.0736319422721862,-95.6400909423828,-0.018485652,-0.0024269996,0.35328865
860,478139435,-0.2121396362781524,-0.0741671696305275,-95.63995361328124,-0.009633794,-0.0072930497,0.34452248
861,478156102,-0.2129439711570739,-0.0740718841552734,-95.6386489868164,-0.0102307,0.0098101245,0.34540558
862,478172769,-0.211626723408699,-0.0734615623950958,-95.63809204101562,-0.0071892124,-0.0041446025,0.34823895
863,478189436,-0.2124104052782058,-0.0728631019592285,-95.63768768310548,0.0028611063,-0.007706698,0.34332561
864,478206103,-0.211866557598114,-0.0721126645803451,-95.6366958618164,0.0049426756,0.0061915256,0.35252476
865,478222770,-0.2114965617656707,-0.0717635974287986,-95.63579559326172,-0.012662876,-0.009080311,0.3499937
866,478239437,-0.2121076434850692,-0.0711700469255447,-95.63526916503906,-0.001452271,0.002738994,0.3415804
867,478256104,-0.2119057476520538,-0.0703302398324012,-95.63493347167967,-0.006570141,0.007397334,0.33639526
868,478272771,-0.2117993086576461,-0.070793941617012,-95.6364517211914,-0.012620603,5.3570642e-05,0.3595562
869,478289438,-0.2119302004575729,-0.0728079602122306,-95.63660430908205,-0.0060252873,-0.012040561,0.34386253
870,478306105,-0.2117448896169662,-0.0730458348989486,-95.63656616210938,-0.012405092,-0.0021131518,0.3627329
871,478322772,-0.2116873115301132,-0.0737692937254905,-95.6359405517578,-0.010017108,0.0016789665,0.3313856
872,478339439,-0.2120591402053833,-0.0732126086950302,-95.63658142089844,0.007531613,-0.0037702392,0.33020496
873,478356106,-0.2104099690914154,-0.0731522962450981,-95.63668823242188,0.0044006086,0.0039208233,0.33899593
874,478372773,-0.2110489159822464,-0.0729214400053024,-95.63595581054688,0.009405223,-0.0064232247,0.33844566
875,478389440,-0.2114709168672561,-0.0731214582920074,-95.63617706298828,-0.0047627594,-0.014904613,0.36147118
876,478406107,-0.2109287232160568,-0.0723971277475357,-95.63597869873048,-0.007944887,-0.010806443,0.33925343
877,478422774,-0.2104673534631729,-0.073029987514019,-95.63591003417967,0.0015228554,-0.005120515,0.339509
878,478439441,-0.2107908427715301,-0.0711869373917579,-95.6351547241211,-0.01948025,-0.0076250713,0.3308115
879,478456108,-0.2120713144540786,-0.0727859437465667,-95.6363754272461,-0.0037540079,-0.005297798,0.3183775
880,478472775,-0.2127271443605423,-0.0721121877431869,-95.6377410888672,0.004859211,-0.0017197977,0.36400318
881,478489442,-0.2130370289087295,-0.0732482075691223,-95.63793182373048,-0.015022362,0.003761882,0.3577261
882,478506109,-0.2130303084850311,-0.0744077041745185,-95.63739013671876,1.2004217e-05,-0.0011006276,0.37582588
883,478522776,-0.2123224586248397,-0.0740846842527389,-95.63777160644533,-0.0070286146,0.00014165658,0.33447838
884,478539443,-0.2117888927459716,-0.0747382193803787,-95.63776397705078,-0.007400189,-0.0038789983,0.33356762
885,478556110,-0.2124661803245544,-0.0755649358034133,-95.63835144042967,-0.0098102,-0.0078082345,0.34974766
886,478572777,-0.2126374989748001,-0.074829988181591,-95.6380844116211,-0.010710744,-0.0024765907,0.34721947
887,478589444,-0.2131729125976562,-0.0746215805411338,-95.6390609741211,0.0007121053,0.0022822008,0.36496544
888,478606111,-0.2136493027210235,-0.0744432061910629,-95.63842010498048,-0.00059215043,-0.011136129,0.35263252
889,478622778,-0.2121153622865677,-0.0749027952551841,-95.63751220703124,0.012777419,-0.011926981,0.35012722
890,478639445,-0.2133804261684417,-0.0749619007110595,-95.63734436035156,-0.011430655,-0.00759667,0.347888
891,478656112,-0.2138795256614685,-0.0736787766218185,-95.63792419433594,-0.0059135025,-0.0017778622,0.34473228
892,478672779,-0.2143927961587906,-0.0742182806134224,-95.63946533203124,-0.0062088366,-0.004855395,0.3539343
893,478689446,-0.2144406884908676,-0.0737333446741104,-95.64097595214844,0.00085159135,-0.005219215,0.34751797
894,478706113,-0.2147479951381683,-0.0751029476523399,-95.64167022705078,0.0051793386,-0.023119165,0.36176682
895,478722780,-0.2139835059642791,-0.0752362832427024,-95.6417465209961,-0.0003378311,-0.013435481,0.37267876
896,478739447,-0.2138672024011612,-0.0759804025292396,-95.64248657226562,0.00088964833,-0.012281077,0.34093666
897,478756114,-0.2135077714920044,-0.0758948996663093,-95.64225006103516,-0.007078685,-0.005019139,0.3618126
898,478772781,-0.2126559019088745,-0.0755736529827117,-95.64169311523438,-0.006363624,0.0070821,0.3657875
899,478789448,-0.2121094018220901,-0.0735256075859069,-95.6413803100586,-0.0124596525,-0.00094476657,0.35194588
900,478806115,-0.2124137133359909,-0.0736879333853721,-95.64069366455078,-0.009715811,0.00036987115,0.36784554
901,478822782,-0.2129188030958175,-0.0737844407558441,-95.64073181152344,0.0027440917,0.0025974433,0.36872673
902,478839449,-0.2128937095403671,-0.0749697685241699,-95.6410140991211,-0.0019735226,-0.0111912945,0.37271976
903,478856116,-0.2128348797559738,-0.0741244256496429,-95.64037322998048,0.008018929,0.010426948,0.33866692
904,478872783,-0.2133456319570541,-0.0738942548632621,-95.64044189453124,0.004269004,0.00687002,0.39080143
905,478889450,-0.2135659605264663,-0.0736838579177856,-95.64118194580078,-0.01250604,-0.012945282,0.35940647
906,478906117,-0.213642343878746,-0.0735979601740837,-95.6416015625,-0.008569278,-0.0036997253,0.34058952
907,478922784,-0.2138736099004745,-0.0733331814408302,-95.64143371582033,-0.0067495964,-0.004480264,0.37125874
908,478939451,-0.2139059901237487,-0.0743256658315658,-95.64207458496094,-0.008061818,-0.012521027,0.35635185
909,478956118,-0.2141879200935363,-0.0741613656282424,-95.64241027832033,-0.009416866,0.0020867519,0.3599348
910,478972785,-0.2147447168827057,-0.0746412649750709,-95.6426239013672,-0.003926753,-0.008836108,0.3475933
911,478989452,-0.2145482897758484,-0.0740318596363067,-95.6426773071289,0.009075054,0.0032516744,0.32944584
912,479006119,-0.213528886437416,-0.074158675968647,-95.64229583740234,-0.0002515778,-0.007253628,0.36403465
913,479022786,-0.2127736955881118,-0.0752850472927093,-95.64111328125,0.00027849802,-0.008497204,0.35098457
914,479039453,-0.2121870666742324,-0.0772200152277946,-95.64090728759766,-0.018188408,0.010648422,0.36768723
915,479056120,-0.2120183259248733,-0.0765431299805641,-95.64027404785156,-0.014402199,0.0049961125,0.3417263
916,479072787,-0.2115982919931411,-0.0770024210214614,-95.64026641845705,-0.009031923,-0.0021666647,0.34128094
917,479089454,-0.2115790843963623,-0.0773471817374229,-95.6402816772461,0.0037619334,-0.0015114662,0.3577299
918,479106121,-0.2114059031009674,-0.078409194946289,-95.63953399658205,-0.001914048,-0.006225218,0.34229374
919,479122788,-0.2124113589525222,-0.0807430073618888,-95.64080047607422,-0.0036926812,-0.004773161,0.3381214
920,479139455,0.0048740417696535,-0.2019674628973007,-95.64803314208984,-0.19518359,0.24230678,0.15659046
921,479156122,0.0554048717021942,-0.1944407969713211,-97.24539184570312,2.2718956,0.6289274,0.50610733
922,479172789,0.1154285445809364,-0.2082455903291702,-97.7668914794922,-0.17668341,-0.7520189,0.364707
923,479189456,0.1312320977449417,-0.2016200870275497,-98.09136199951172,-0.13386808,0.022284333,0.34153175
924,479206123,0.1453620195388794,-0.198022574186325,-98.32012939453124,0.05602427,-0.0592751,0.33938885
925,479222790,0.1538560092449188,-0.1880856901407241,-98.5456771850586,0.067911536,-0.124900356,0.3522873
926,479239457,0.1676502525806427,-0.180975079536438,-98.73407745361328,0.34226125,-0.30950135,0.363595
927,479256124,0.182046890258789,-0.1781252473592758,-98.67900848388672,0.20670743,-0.23383266,0.36938667
928,479272791,0.1953942030668258,-0.175104022026062,-98.5362548828125,0.15289202,-0.12137937,0.36123943
929,479289458,0.2074701786041259,-0.1758822351694107,-98.3684539794922,0.073053636,0.09367109,0.3629675
930,479306125,0.2148646116256714,-0.1817436069250106,-98.1889419555664,0.30842105,0.09912125,0.33595085
931,479322792,0.2231684625148773,-0.1876371800899505,-97.78274536132812,0.29431304,0.14230245,0.3475628
932,479339459,0.2292626053094864,-0.1932844072580337,-97.28660583496094,0.35912973,0.15450865,0.33703804
933,479356126,0.2394542098045349,-0.1970381587743759,-96.86244201660156,0.20645212,0.04213733,0.3832159
934,479372793,0.2555538713932037,-0.1936631500720977,-96.58596801757812,0.2531075,0.03255497,0.35770607
935,479389460,0.2708073854446411,-0.1937006115913391,-96.41455078125,0.26923063,-0.04081349,0.38236904
936,479406127,0.2830376923084259,-0.1959986835718155,-96.16389465332033,0.2675652,0.017367115,0.3470726
937,479422794,0.2911818623542785,-0.203142374753952,-95.9201202392578,-0.08129488,0.10151885,0.3271675
938,479439461,0.2993456721305847,-0.2115339338779449,-95.8000030517578,-0.1898474,0.3634969,0.34065056
939,479456128,0.3069816529750824,-0.2146711498498916,-95.6480712890625,0.28434575,0.39109024,0.3369522
940,479472795,0.3165470361709595,-0.2100312411785125,-95.49449157714844,0.26018205,0.13315089,0.3122406
941,479489462,0.3234187960624695,-0.184460163116455,-95.4581527709961,0.3633887,-0.8422886,0.36477375
942,479506129,0.3257772922515869,-0.1826586872339248,-95.5420379638672,0.38274664,-0.39067864,0.36645412
943,479522796,0.3205636739730835,-0.1820942014455795,-95.56598663330078,0.2034252,-0.02238602,0.36851597
944,479539463,0.3034150898456573,-0.1730646640062332,-95.41690826416016,0.20057265,0.14998159,0.3174324
945,479556130,0.2942568957805633,-0.1511240452528,-95.17711639404295,-0.031258747,-0.016096218,0.3744707
946,479572797,0.3016059100627899,-0.1267620176076889,-95.0467529296875,-0.14402752,-0.049965076,0.3629942
947,479589464,0.3061712384223938,-0.1087237745523452,-94.9820785522461,-0.11524308,-0.054189928,0.3557377
948,479606131,0.2992741167545318,-0.1017652675509452,-94.85794067382812,0.070994474,-0.06694878,0.33529663
949,479622798,0.2960916757583618,-0.0946680381894111,-94.7387237548828,0.17512238,0.018556112,0.3337412
950,479639465,0.2922185659408569,-0.0903298631310463,-94.58676147460938,0.06882023,0.067826904,0.33518982
951,479656132,0.2800597250461578,-0.0820277631282806,-94.55628967285156,-0.00027439184,0.09569826,0.34515572
952,479672799,0.251916766166687,-0.0730498060584068,-94.56295776367188,0.17656021,0.029477235,0.36357307
953,479689466,0.223497062921524,-0.0626546889543533,-94.6029815673828,0.37717262,-0.02079499,0.35440636
954,479706133,0.2138085961341858,-0.0577992610633373,-94.64678955078124,0.52038515,-0.18384895,0.33458328
955,479722800,0.2319596260786056,-0.0554332770407199,-94.69269561767578,0.28782886,-0.10324579,0.34172726
956,479739467,0.262104719877243,-0.05266884714365,-94.63980102539062,-0.20129848,0.060929015,0.36929417
957,479756134,0.2927353680133819,-0.0516365393996238,-94.57943725585938,-0.27652693,0.040026233,0.35814667
958,479772801,0.3040569424629211,-0.0438435114920139,-94.53631591796876,-0.11565387,0.046167344,0.34432888
959,479789468,0.3074803352355957,-0.0434276722371578,-94.5640869140625,0.1128381,0.13507347,0.37451744
960,479806135,0.3007312417030334,-0.030982956290245,-94.5837173461914,0.397734,0.042902227,0.3413639
961,479822802,0.2831914722919464,-0.0230948999524116,-94.56130981445312,0.27511826,0.011621649,0.3635111
962,479839469,0.2694025039672851,-0.0111129721626639,-94.57320404052734,-0.13621685,0.07143392,0.3379221
963,479856136,0.2574544847011566,-0.0035633309744298,-94.64775848388672,-0.16509025,-0.21341519,0.32175732
964,479872803,0.2616647183895111,-0.0130132725462317,-94.87667846679688,0.14081152,-0.1064651,0.34243965
965,479889470,0.2809994220733642,-0.0166227705776691,-95.1147918701172,0.3904915,-0.13267879,0.35685825
966,479906137,0.2990323901176452,-0.0132513148710131,-95.23410034179688,0.50995255,-0.050623246,0.33137035
967,479922804,0.3010453879833221,-0.0049064643681049,-95.2924575805664,0.18088195,-0.04614374,0.35286522
968,479939471,0.2938822209835052,0.0046888054348528,-95.30606842041016,0.07916889,0.13012041,0.3508253
969,479956138,0.2675653398036957,0.0288666784763336,-95.31033325195312,0.13392675,0.006790207,0.3566332
970,479972805,0.2380643486976623,0.0588635392487049,-95.2606964111328,0.15129721,-0.12008426,0.362463
971,479989472,0.2035625129938125,0.067027747631073,-95.28385925292967,-0.070364885,-0.22681297,0.3347311
972,480006139,0.169666513800621,0.0582599453628063,-95.29568481445312,-0.27587897,0.08431686,0.33850765
973,480022806,0.1585744023323059,0.042427834123373,-95.30603790283205,-0.18667148,0.116166666,0.3540697
974,480039473,0.1694843620061874,0.0332378409802913,-95.38993072509766,-0.16249679,0.06627275,0.330225
975,480056140,0.187434434890747,0.0253862291574478,-95.46698760986328,-0.056946456,-0.030919416,0.35880756
976,480072807,0.2009650915861129,0.0207023117691278,-95.4953842163086,-0.06444904,-0.07260237,0.32994652
977,480089474,0.1978994160890579,0.0080642122775316,-95.53235626220705,0.072570786,-0.014115907,0.38327885
978,480106141,0.189426839351654,-0.0105465929955244,-95.50171661376952,0.22575787,0.003071874,0.36247063
979,480122808,0.1972706317901611,-0.0292495489120483,-95.46995544433594,0.14048292,-0.015735436,0.34796906
980,480139475,0.2106754034757614,-0.0513866394758224,-95.46859741210938,-0.0022377812,-0.030714797,0.34830284
981,480156142,0.2315738648176193,-0.0746371895074844,-95.46773529052734,-0.22248635,0.005010667,0.34051704
982,480172809,0.2511678338050842,-0.0913044661283493,-95.44049835205078,-0.245229,0.07596948,0.37722397
983,480189476,0.2734547853469848,-0.1038372367620468,-95.4303207397461,-0.07261663,-0.0048063314,0.39653587
984,480206143,0.2720409035682678,-0.1140526980161666,-95.43904876708984,0.11708001,-0.027866747,0.36858177
985,480222810,0.2487123757600784,-0.121697723865509,-95.39256286621094,0.13195266,-0.010301012,0.38872147
986,480239477,0.2064012438058853,-0.128910630941391,-95.4054183959961,0.015314398,-0.08395354,0.33202648
987,480256144,0.1543032228946685,-0.125855877995491,-95.47329711914062,-0.039063647,-0.03527613,0.36966038
988,480272811,0.1086017191410064,-0.1126553267240524,-95.51847076416016,-0.13519986,-0.053468782,0.3243389
989,480289478,0.0803403034806251,-0.1102138310670852,-95.496337890625,-0.623885,0.24378748,0.36686707
990,480306145,0.0816179513931274,-0.1059472560882568,-95.39781951904295,-0.5665798,0.5430087,0.33612442
991,480322812,0.0900348424911499,-0.0949659794569015,-95.32037353515624,-0.50793785,0.26438054,0.3531866
992,480339479,0.0926085636019706,-0.0762306600809097,-95.2349090576172,0.07090728,-0.2239389,0.37970734
993,480356146,0.0963633954524993,-0.0557915978133678,-95.1704559326172,0.31693217,-0.23515919,0.3512411
994,480372813,0.1138239279389381,-0.0566414445638656,-95.19925689697266,0.5446037,-0.13172822,0.33351517
995,480389480,0.1449477672576904,-0.0711307674646377,-95.26964569091795,0.48127127,-0.26716346,0.35391617
996,480406147,0.1999198347330093,-0.0816280469298362,-95.38955688476562,0.15238798,-0.16483395,0.3762741
997,480422814,0.2269705981016159,-0.0890998989343643,-95.46874237060548,-0.3763697,0.030024774,0.3683958
998,480439481,0.246932253241539,-0.0913996025919914,-95.56926727294922,-0.5339398,0.18294863,0.33902073
999,480456148,0.2862460315227508,-0.0919272676110267,-95.58638763427734,-0.3226357,0.20252325,0.3718443
1000,480472815,0.3145242929458618,-0.0803867653012275,-95.61995697021484,-0.09754201,0.04969617,0.37269592
1001,480489482,0.3427270948886871,-0.064743548631668,-95.6630401611328,0.22152223,0.02795918,0.3402176
1002,480506149,0.3556531965732574,-0.0515201464295387,-95.72100067138672,0.3085167,0.067073196,0.35350323
1003,480522816,0.3667094111442566,-0.0460466854274272,-95.7545928955078,0.2213226,-0.12824117,0.34506607
1004,480539483,0.3634013533592224,-0.0399598591029644,-95.81928253173828,0.08421775,-0.14824426,0.36785126
1005,480556150,0.3484286367893219,-0.0436272285878658,-95.93927001953124,0.09060913,-0.16673341,0.32413483
1006,480572817,0.3208110928535461,-0.0456852130591869,-96.05567932128906,0.042314243,-0.0198511,0.34938908
1007,480589484,0.2798760235309601,-0.0446906015276908,-96.1407699584961,-0.18643586,0.008494885,0.39077473
1008,480606151,0.25445756316185,-0.039821159094572,-96.15230560302734,-0.34788725,0.31142774,0.3253727
1009,480622818,0.2288386076688766,-0.0362031534314155,-96.06034088134766,-0.17827974,0.4908891,0.36872005
1010,480639485,0.1904211640357971,-0.0145007334649562,-95.8706283569336,0.04169953,0.0856618,0.34260845
1011,480656152,0.1630231589078903,0.0198787674307823,-95.66400146484376,0.26039118,-0.21293548,0.36737347
1012,480672819,0.1490557938814163,0.0536707490682601,-95.53267669677734,0.14496487,-0.2840298,0.34953403
1013,480689486,0.1525918841361999,0.0493103824555873,-95.5650863647461,0.035102285,-0.2539664,0.36074066
1014,480706153,0.163207545876503,0.037471167743206,-95.58847045898438,0.036833353,-0.14691368,0.34637737
1015,480722820,0.1914689987897873,0.0270111300051212,-95.6116714477539,-0.087199576,-0.07129616,0.35169888
1016,480739487,0.2226677387952804,0.0274827871471643,-95.6567840576172,-0.22102803,0.045578174,0.3498068
1017,480756154,0.2450006157159805,0.0244893711060285,-95.70533752441406,-0.15554692,0.01851128,0.35618305
1018,480772821,0.2579065561294555,0.0172453466802835,-95.7345962524414,-0.11972085,0.06747862,0.32314777
1019,480789488,0.2658779919147491,0.0062160990200936,-95.7595672607422,0.044063684,0.017449569,0.34117794
1020,480806155,0.2815965712070465,-0.0100952871143817,-95.75025177001952,0.17557438,0.13038178,0.32735062
1021,480822822,0.3003642559051513,-0.0176350828260183,-95.7456283569336,0.044493206,-0.018588532,0.36484337
1022,480839489,0.3103805184364319,-0.0270086247473955,-95.782958984375,-0.18288109,-0.037718486,0.3425789
1023,480856156,0.3094013035297394,-0.0261378828436136,-95.88720703125,-0.19526403,-0.10013568,0.3602028
1024,480872823,0.3085997998714447,-0.0290213003754615,-95.95397186279295,-0.07963675,-0.028930435,0.33626652
1025,480889490,0.3217012286186218,-0.0465431176126003,-95.97433471679688,0.04997038,0.05552003,0.33392715
1026,480906157,0.3310111761093139,-0.0595823340117931,-95.96963500976562,0.0060617183,-0.022575751,0.33680058
1027,480922824,0.3312280774116516,-0.0707430616021156,-95.98509216308594,-0.09582316,-0.067200385,0.39089775
1028,480939491,0.3217883706092834,-0.0816842764616012,-96.01754760742188,-0.11330039,-0.02004413,0.3408308
1029,480956158,0.303899198770523,-0.0820518881082534,-96.0849380493164,-0.13870001,-0.012013463,0.3580494
1030,480972825,0.2816994488239288,-0.0863523259758949,-96.17830657958984,-0.015930675,0.09418971,0.36045742
1031,480989492,0.2664674818515777,-0.0813129693269729,-96.19397735595705,0.05330933,0.037069153,0.3790903
1032,481006159,0.2439485639333725,-0.0756690576672554,-96.14768981933594,0.23426633,-0.111320995,0.3475685
1033,481022826,0.220164269208908,-0.0744971707463264,-95.93563079833984,0.043460004,0.02244076,0.34918118
1034,481039493,0.1931977123022079,-0.0813851431012153,-95.741455078125,-0.41418168,0.038874775,0.30669975
1035,481056160,0.1738567501306533,-0.0976546853780746,-95.6741180419922,-0.6189763,0.09488794,0.3621893
1036,481072827,0.1664905399084091,-0.1146305203437805,-95.66454315185548,-0.4241827,0.06169485,0.34763622
1037,481089494,0.174318790435791,-0.1297119706869125,-95.65276336669922,-0.22642322,0.09033467,0.3630495
1038,481106161,0.1933085322380066,-0.1415323913097381,-95.61530303955078,-0.23156077,0.097236425,0.36673546
1039,481122828,0.2189017385244369,-0.1498362720012664,-95.61389923095705,-0.31914616,-0.007120483,0.35036564
1040,481139495,0.2488582879304886,-0.1488443315029144,-95.66020965576172,-0.40596366,0.033743847,0.35631847
1041,481156162,0.2750298678874969,-0.1486117094755172,-95.70919036865234,-0.485582,0.075043134,0.3335495
1042,481172829,0.2980108559131622,-0.1466267555952072,-95.72650909423828,-0.4373187,0.17436336,0.34336376
1043,481189496,0.3170590400695801,-0.141880989074707,-95.7256088256836,-0.30749473,0.07889345,0.33925438
1044,481206163,0.3333795964717865,-0.1399506777524948,-95.75252532958984,-0.15558134,0.028254112,0.35359097
1045,481222830,0.3513326346874237,-0.1405687183141708,-95.7491683959961,-0.17157204,0.002672344,0.3209381
1046,481239497,0.3676344156265259,-0.1423517018556594,-95.77056121826172,-0.23312788,-0.082965374,0.3545866
1047,481256164,0.3795607388019562,-0.1428946405649185,-95.81631469726562,-0.3763324,-0.06058265,0.3675375
1048,481272831,0.3881203830242157,-0.1429667025804519,-95.88135528564452,-0.18233548,-0.011812556,0.32442856
1049,481289498,0.396623820066452,-0.1471929252147674,-95.89634704589844,-0.24552463,0.03615318,0.36089802
1050,481306165,0.402662068605423,-0.1525129228830337,-95.88414764404295,-0.23061346,0.039357487,0.35789967
1051,481322832,0.4028818607330322,-0.1558380872011184,-95.88909149169922,-0.16449356,-0.02134248,0.33843327
1052,481339499,0.4009132385253906,-0.1596259921789169,-95.8607940673828,-0.4109922,-0.022853022,0.35982418
1053,481356166,0.3973654210567474,-0.1604186594486236,-95.8610610961914,-0.20022804,-0.035989776,0.32613945
1054,481372833,0.4094646573066711,-0.1571906208992004,-95.86080169677734,-0.002095123,-0.0064302324,0.35054874
1055,481389500,0.4287256598472595,-0.1502559632062912,-95.85870361328124,-0.0032688281,0.013171299,0.34547806
1056,481406167,0.4481084942817688,-0.1470652371644973,-95.8547592163086,0.017361064,-0.0040471796,0.3551712
1057,481422834,0.4656382799148559,-0.1453809440135955,-95.85093688964844,0.0075077373,0.0013714982,0.3471899
1058,481439501,0.4811202883720398,-0.1391816139221191,-95.8478546142578,-0.00869299,0.0017543008,0.3415184
1059,481456168,0.5041214227676392,-0.1362749636173248,-95.8380889892578,0.004037966,0.006786465,0.33124447
1060,481472835,0.533820629119873,-0.1226530820131301,-95.81722259521484,0.004894644,-0.0007886489,0.3610382
1061,481489502,0.5682095289230347,-0.0975121185183525,-95.77559661865234,0.006487741,-0.009336677,0.3560562
1062,481506169,0.5108885765075684,-0.0762208998203277,-95.78203582763672,0.023349654,-0.009642237,0.34910393
1063,481522836,0.4895599484443664,-0.0414142422378063,-95.78533935546876,-0.009042985,-0.002398432,0.3610239
1064,481539503,0.4113336205482483,0.0107228243723511,-95.82948303222656,0.032077204,0.20858581,0.519639
1065,481556170,0.2615537345409393,0.1226541772484779,-96.3526840209961,-0.2652314,0.090658866,-0.51562405
1066,481572837,0.3463216423988342,0.1517791748046875,-96.38313293457033,0.24301662,-0.3105444,1.009304
1067,481589504,0.3390193581581116,0.1540816128253936,-96.38279724121094,0.01211629,0.0016830001,0.38484478
1068,481606171,0.3394207954406738,0.1561456620693206,-96.38125610351562,0.0090866685,-0.0069153607,0.34958935
1069,481622838,0.3376311659812927,0.1588563174009323,-96.37980651855467,0.020119581,-0.01111125,0.36641407
1070,481639505,0.3356896936893463,0.1612651944160461,-96.37860107421876,0.006879176,-0.007957669,0.36962223
1071,481656172,0.3346860706806183,0.1625063419342041,-96.37821197509766,0.009315127,-0.008843809,0.35194874
1072,481672839,0.3351008296012878,0.1641729027032852,-96.37779235839844,0.006854697,0.0041665784,0.3420086
1073,481689506,0.3344801366329193,0.1667000651359558,-96.37631225585938,0.009101659,-0.005031991,0.34464073
1074,481706173,0.3332032263278961,0.1682960391044616,-96.3760986328125,0.000997258,-0.0051029315,0.3499937
1075,481722840,0.3327458798885345,0.1673447489738464,-96.3759765625,0.012546344,0.0047854614,0.3463087
1076,481739507,0.3313033580780029,0.1679413914680481,-96.376220703125,0.01322478,-0.0052924464,0.36426353
1077,481756174,0.331013947725296,0.1679728329181671,-96.37639617919922,0.0053616827,-0.012488505,0.34767914
1078,481772841,0.3310601413249969,0.167997270822525,-96.3756103515625,0.012865882,-0.0002547873,0.37924576
1079,481789508,0.3312098681926727,0.1673423051834106,-96.37627410888672,-0.012094443,-0.010220539,0.33429623
1080,481806175,0.3304245173931122,0.1668408364057541,-96.37541961669922,0.0072750505,-0.005274874,0.37057686
1081,481822842,0.3311653435230255,0.168270394206047,-96.37550354003906,0.0134940175,0.003724454,0.3422022
1082,481839509,0.3308719098567962,0.1685598045587539,-96.37480926513672,-3.096702e-05,-0.0004244546,0.3582735
1083,481856176,0.3317987620830536,0.1683859825134277,-96.37399291992188,0.013253699,-0.007608878,0.36119175
1084,481872843,0.3311324715614319,0.1674519181251526,-96.37380981445312,0.00059017114,0.002585006,0.35045815
1085,481889510,0.3310352265834808,0.1680006235837936,-96.37274932861328,-0.0014053918,-0.0056729615,0.35307217
1086,481906177,0.3295667767524719,0.1675510257482528,-96.3719711303711,0.004433507,-0.005076444,0.33683968
1087,481922844,0.3292648196220398,0.1673866659402847,-96.3716049194336,0.009200243,-0.0056183874,0.33206272
1088,481939511,0.329526275396347,0.1682614386081695,-96.37168884277344,0.0075177746,-0.018517878,0.36140823
1089,481956178,0.3292696177959442,0.1677865535020828,-96.37140655517578,0.010320263,-0.0053523635,0.355649
1090,481972845,0.3282054662704468,0.1686412543058395,-96.37125396728516,0.0146911675,-0.007649224,0.33003807
1091,481989512,0.3280087113380432,0.1681466847658157,-96.3704071044922,0.0029870786,-0.010378915,0.3559494
1092,482006179,0.3272317945957184,0.1675131767988205,-96.37057495117188,-0.0011940089,-0.011948267,0.35278988
1093,482022846,0.3280474543571472,0.1671407669782638,-96.37081909179688,0.009226913,-0.008502999,0.35247993
1094,482039513,0.3281316459178924,0.168165922164917,-96.37097930908205,0.00012543792,-0.0030369875,0.35835457
1095,482056180,0.3276249766349792,0.1674749553203582,-96.3710708618164,0.0050517474,-0.009502328,0.364707
1096,482072847,0.32758629322052,0.1675482094287872,-96.37109375,0.0066869445,-0.0057170964,0.3360567
1097,482089514,0.3277651965618133,0.1684866398572921,-96.370849609375,-0.0075058704,0.0043816133,0.332613
1098,482106181,0.3276731669902801,0.1668048202991485,-96.3704071044922,-0.00093401526,-0.0013620966,0.3386345
1099,482122848,0.3276617527008056,0.1676879972219467,-96.3708038330078,0.009306325,0.009532718,0.36293888
1100,482139515,0.3281002938747406,0.167606234550476,-96.36981201171876,0.0012034924,-0.007176795,0.3433771
1101,482156182,0.3275527060031891,0.1675686836242675,-96.3687515258789,0.009201343,-0.007309207,0.34316826
1102,482172849,0.3274687528610229,0.1676569283008575,-96.36835479736328,-0.0055002663,-0.0103963055,0.3406124
1103,482189516,0.3267307877540588,0.1671139001846313,-96.36766052246094,-0.013766657,-0.003032795,0.3498621
1104,482206183,0.3255204856395721,0.1674744337797165,-96.36720275878906,0.012215734,0.0007975518,0.33733082
1105,482222850,0.325705885887146,0.1671356707811355,-96.36712646484376,0.018897349,-0.0055987593,0.35986328
1106,482239517,0.3253932297229767,0.1673859506845474,-96.36624145507812,0.015801085,0.0015369431,0.36456203
1107,482256184,0.3254473209381103,0.1684272289276123,-96.36581420898438,-0.0017845981,0.007962784,0.35622597
1108,482272851,0.3244749009609222,0.1685521602630615,-96.36547088623048,0.020009138,-0.00079751515,0.34066582
1109,482289518,0.3244908154010772,0.1694353222846985,-96.36363220214844,0.018939124,0.007817704,0.35120296
1110,482306185,0.3246712684631347,0.1694393903017044,-96.36368560791016,0.015865002,0.002073079,0.35013294
1111,482322852,0.3245677053928375,0.1689978539943695,-96.36299896240234,-0.010088975,0.0068063256,0.35601044
1112,482339519,0.3233121633529663,0.1673159897327423,-96.36315155029295,0.020937713,0.005944596,0.34853363
