sep=,
DeviceTag:,Movella DOT,,,,,,,,,,,,,,,,,
FirmwareVersion:,3.0.0,,,,,,,,,,,,,,,,,
AppVersion:,2023.6.1,,,,,,,,,,,,,,,,,
SyncStatus:,Un-synced,,,,,,,,,,,,,,,,,
OutputRate:,60Hz,,,,,,,,,,,,,,,,,
FilterProfile:,Dynamic,,,,,,,,,,,,,,,,,
Measurement Mode:,Sensor fusion Mode - Complete (Euler),,,,,,,,,,,,,,,,,
StartTime:,2024-11-03 21:46:02.664 +0700,,,,,,,,,,,,,,,,,
 2024,,,,,,,,,,,,,,,,,,,

PacketCounter,SampleTimeFine,Euler_X,Euler_Y,Euler_Z,FreeAcc_X,FreeAcc_Y,FreeAcc_Z
1, 19062979, -0.46609607338905334, 0.027744995430111885, -0.0922553539276123, -3.595878E-4, 0.0072645587, 0.34332752
2, 19079646, -0.4647054672241211, 0.007020771037787199, -0.08307284116744995, -0.015231849, 0.004321253, 0.33835983
3, 19096313, -0.4650706350803375, 0.0040331510826945305, -0.04331845045089722, -0.0076195295, 0.003575156, 0.35154438
4, 19112980, -0.4654295742511749, -0.0026465863920748234, 0.03986614942550659, -0.008136994, -0.0050051115, 0.33947754
5, 19129647, -0.47257471084594727, -0.012150764465332031, 0.023725390434265137, -0.013863384, -0.0032476678, 0.33680725
6, 19146314, -0.4796295464038849, -0.020804457366466522, 0.04884931817650795, -0.01592024, 0.019760571, 0.3668642
7, 19162981, -0.4809231162071228, -0.029728015884757042, 0.03710668161511421, -0.015925994, -0.00438208, 0.3308792
8, 19179648, -0.48630088567733765, -0.039602842181921005, 0.04161817580461502, -0.020206098, 0.0065776617, 0.33168793
9, 19196315, -0.4907873570919037, -0.04926132410764694, 0.02241428568959236, -0.020065269, 0.020677853, 0.34011173
10, 19212982, -0.4919995069503784, -0.060523007065057755, 0.020316284149885178, -0.010155409, 0.010841726, 0.34461784
11, 19229649, -0.49457186460494995, -0.07501626014709473, 0.029416080564260483, -0.0208369, 0.0039013976, 0.32181454
12, 19246316, -0.4975048899650574, -0.0870613306760788, 0.04986753314733505, -0.015084319, 0.017160993, 0.34094715
13, 19262983, -0.49926042556762695, -0.09998047351837158, 0.05526096746325493, -0.026876992, 0.013464194, 0.34624958
14, 19279650, -0.5019601583480835, -0.1132860779762268, 0.06730979681015015, -0.022169093, 0.012396982, 0.32635784
15, 19296317, -0.5043245553970337, -0.12587831914424896, 0.06853731721639633, -0.03629749, -2.0512553E-4, 0.35414028
16, 19312984, -0.508065938949585, -0.139088436961174, 0.0601302832365036, -0.025979709, 0.0042733024, 0.33841515
17, 19329651, -0.5113788843154907, -0.15292194485664368, 0.06958664208650589, -0.042203326, 0.022676544, 0.32445717
18, 19346318, -0.5157343149185181, -0.16666412353515625, 0.0762566328048706, -0.03479186, 0.009439029, 0.35171986
19, 19362985, -0.5184650421142578, -0.17990601062774658, 0.068947434425354, -0.045163974, 0.006646891, 0.34292316
20, 19379652, -0.5228493809700012, -0.1926998496055603, 0.06785871088504791, -0.041731704, 0.0051018856, 0.35524368
21, 19396319, -0.5257346034049988, -0.20672744512557983, 0.06134190782904625, -0.0626931, 0.02404015, 0.35894203
22, 19412986, -0.5298597812652588, -0.21822062134742737, 0.07381021231412888, -0.05740173, 0.0011604548, 0.33683968
23, 19429653, -0.5346259474754333, -0.2313397079706192, 0.07730560004711151, -0.04139211, 0.027080417, 0.3485098
24, 19446320, -0.539110004901886, -0.24542801082134247, 0.07686661928892136, -0.04793264, 0.00888033, 0.36712933
25, 19462987, -0.5433416366577148, -0.25761672854423523, 0.07757418602705002, -0.05516431, 0.018668447, 0.32466698
26, 19479654, -0.5471569895744324, -0.27083173394203186, 0.09621543437242508, -0.04898779, 0.028281933, 0.34017086
27, 19496321, -0.5503226518630981, -0.28467175364494324, 0.09651658684015274, -0.062063277, -0.0013314527, 0.3399353
28, 19512988, -0.5549628138542175, -0.2987914979457855, 0.10252084583044052, -0.067347154, 0.021807002, 0.32659912
29, 19529655, -0.5588349103927612, -0.31221479177474976, 0.10565971583127975, -0.06752556, 0.017471952, 0.33796692
30, 19546322, -0.5624682307243347, -0.32530853152275085, 0.1180868074297905, -0.07077491, 0.00564703, 0.35569763
31, 19562989, -0.5683788657188416, -0.33715108036994934, 0.13780413568019867, -0.05980793, 0.009565303, 0.33499622
32, 19579656, -0.5724560618400574, -0.35061100125312805, 0.1438078135251999, -0.072694615, 0.018393114, 0.35282898
33, 19596323, -0.5772345662117004, -0.3646243214607239, 0.14371663331985474, -0.07825566, 0.011575715, 0.33307838
34, 19612990, -0.5812327861785889, -0.3784347176551819, 0.1468556821346283, -0.07687952, 0.020244868, 0.36502838
35, 19629657, -0.5863242149353027, -0.390878826379776, 0.14721448719501495, -0.08364404, 0.0154213635, 0.34718513
36, 19646324, -0.589582622051239, -0.4034581482410431, 0.15664659440517426, -0.06972362, 0.031486116, 0.34606266
37, 19662991, -0.5939778685569763, -0.4171605110168457, 0.16564016044139862, -0.06448886, 0.024111468, 0.31758308
38, 19679658, -0.5979873538017273, -0.43026626110076904, 0.17453348636627197, -0.092855066, 0.03454024, 0.3421135
39, 19696325, -0.601264238357544, -0.44388291239738464, 0.18103009462356567, -0.09239752, 0.04129975, 0.32694626
40, 19712992, -0.6057928800582886, -0.45693692564964294, 0.19067327678203583, -0.08125033, 0.031954013, 0.3217888
41, 19729659, -0.6087667942047119, -0.4704119563102722, 0.18259626626968384, -0.08826091, 0.033992637, 0.36223316
42, 19746326, -0.6120370626449585, -0.4837222099304199, 0.18875324726104736, -0.09806377, 0.027079737, 0.32364845
43, 19762993, -0.6168202757835388, -0.49723371863365173, 0.19692665338516235, -0.08786523, 0.03471368, 0.35250187
44, 19779660, -0.6219144463539124, -0.5101110339164734, 0.1978154182434082, -0.104273014, 0.027686352, 0.32395267
45, 19796327, -0.6258573532104492, -0.5233646631240845, 0.20330551266670227, -0.10450255, 0.036245435, 0.35333824
46, 19812994, -0.6296527981758118, -0.5358555316925049, 0.20739750564098358, -0.101238504, 0.03429464, 0.33085537
47, 19829661, -0.6337131857872009, -0.5501314997673035, 0.20871713757514954, -0.09817633, 0.018260457, 0.34739494
48, 19846328, -0.6385948657989502, -0.565325915813446, 0.20472507178783417, -0.09322526, 0.028739192, 0.3363762
49, 19862995, -0.6425697207450867, -0.5775763988494873, 0.20574016869068146, -0.108016364, 0.03433008, 0.35132217
50, 19879662, -0.6467914581298828, -0.5902359485626221, 0.1904221475124359, -0.109199144, 0.03775152, 0.34324074
51, 19896329, -0.6509919166564941, -0.6039514541625977, 0.19273294508457184, -0.105630964, 0.018226912, 0.34614277
52, 19912996, -0.6551908254623413, -0.6171980500221252, 0.20045430958271027, -0.12759806, 0.038671315, 0.34275723
53, 19929663, -0.659850001335144, -0.6302810907363892, 0.20773278176784515, -0.12172665, 0.04281918, 0.35168076
54, 19946330, -0.6633791327476501, -0.6428763270378113, 0.2175232321023941, -0.118296914, 0.03257171, 0.35750103
55, 19962997, -0.6671696305274963, -0.6563014388084412, 0.21633879840373993, -0.12525722, 0.031161744, 0.34012222
56, 19979664, -0.6717807650566101, -0.6676601767539978, 0.22316360473632812, -0.09265918, 0.03078637, 0.34075737
57, 19996331, -0.6765871047973633, -0.6807332038879395, 0.22758959233760834, -0.13022943, 0.044884216, 0.3551073
58, 20012998, -0.6809834241867065, -0.6939699649810791, 0.23121297359466553, -0.124863334, 0.036036693, 0.3462925
59, 20029665, -0.6853750944137573, -0.7070116400718689, 0.24175778031349182, -0.1243427, 0.03215797, 0.3525715
60, 20046332, -0.6884922981262207, -0.7198178172111511, 0.23751799762248993, -0.13016896, 0.044382773, 0.3572321
61, 20062999, -0.692096471786499, -0.7316514849662781, 0.23893101513385773, -0.13699014, 0.045812324, 0.3620081
62, 20079666, -0.6954313516616821, -0.7446169257164001, 0.2454894632101059, -0.1315591, 0.039362043, 0.35313606
63, 20096333, -0.6992717385292053, -0.7573070526123047, 0.2393297553062439, -0.14480561, 0.020942189, 0.36895847
64, 20113000, -0.7029911875724792, -0.7701305150985718, 0.2372961938381195, -0.14704634, 0.048510287, 0.32393837
65, 20129667, -0.7074819207191467, -0.7830832004547119, 0.2386668175458908, -0.15272266, 0.043510713, 0.32785702
66, 20146334, -0.7116698026657104, -0.796303927898407, 0.22802701592445374, -0.14077483, 0.055338454, 0.34557915
67, 20163001, -0.7155662775039673, -0.8104258179664612, 0.2313682585954666, -0.15110502, 0.05985867, 0.34765148
68, 20179668, -0.719760537147522, -0.8235851526260376, 0.21480968594551086, -0.14725816, 0.043774117, 0.36973858
69, 20196335, -0.7229649424552917, -0.8368431925773621, 0.2156030833721161, -0.1586417, 0.03977987, 0.35770035
70, 20213002, -0.7265570759773254, -0.847708523273468, 0.21585971117019653, -0.15611917, 0.051962223, 0.37260532
71, 20229669, -0.7302525043487549, -0.8590158820152283, 0.21282856166362762, -0.1623449, 0.04998906, 0.34013557
72, 20246336, -0.7344399094581604, -0.8721977472305298, 0.20724515616893768, -0.15677632, 0.052072875, 0.35374355
73, 20263003, -0.7379794120788574, -0.8848280906677246, 0.19910860061645508, -0.17030331, 0.047720954, 0.34959507
74, 20279670, -0.7404033541679382, -0.8945319652557373, 0.19534145295619965, -0.16491881, 0.0384593, 0.35554028
75, 20296337, -0.7438502311706543, -0.905486524105072, 0.19070763885974884, -0.17072348, 0.050746996, 0.3478613
76, 20313004, -0.7489997148513794, -0.9161878228187561, 0.19085195660591125, -0.17320547, 0.044912644, 0.3547268
77, 20329671, -0.7525010704994202, -0.9286414980888367, 0.18690936267375946, -0.15966795, 0.06377616, 0.34591103
78, 20346338, -0.75429368019104, -0.940658450126648, 0.19666197896003723, -0.16938297, 0.056100555, 0.351099
79, 20363005, -0.7576618194580078, -0.9522371292114258, 0.1890384405851364, -0.18026166, 0.04539995, 0.3398161
80, 20379672, -0.7620701193809509, -0.9644503593444824, 0.19603146612644196, -0.17637414, 0.061406467, 0.33762932
81, 20396339, -0.7656270861625671, -0.9753485918045044, 0.1967199593782425, -0.17023823, 0.053129554, 0.33110428
82, 20413006, -0.7689919471740723, -0.9883420467376709, 0.1993609070777893, -0.18371695, 0.06717731, 0.3478632
83, 20429673, -0.7715880274772644, -1.000190019607544, 0.19812685251235962, -0.18151328, 0.054861613, 0.34292316
84, 20446340, -0.7751040458679199, -1.0119134187698364, 0.2022080421447754, -0.17717698, 0.04934686, 0.33335304
85, 20463007, -0.7792458534240723, -1.0226726531982422, 0.20633816719055176, -0.17344916, 0.063400954, 0.3269186
86, 20479674, -0.7815353274345398, -1.0322728157043457, 0.20429746806621552, -0.18737823, 0.047922526, 0.35313702
87, 20496341, -0.7855459451675415, -1.0436515808105469, 0.19623947143554688, -0.19979502, 0.05745397, 0.35480213
88, 20513008, -0.7888433933258057, -1.0531803369522095, 0.1960238665342331, -0.18559869, 0.0729235, 0.34154034
89, 20529675, -0.7919249534606934, -1.0650415420532227, 0.20257648825645447, -0.19333406, 0.06574366, 0.35438347
90, 20546342, -0.7937504649162292, -1.0750783681869507, 0.20338374376296997, -0.18312226, 0.069266, 0.3614912
91, 20563009, -0.7968154549598694, -1.0849257707595825, 0.20727239549160004, -0.20023721, 0.059083883, 0.34469414
92, 20579676, -0.8003022074699402, -1.09577214717865, 0.19628006219863892, -0.19269522, 0.071811944, 0.35472775
93, 20596343, -0.8040430545806885, -1.1057802438735962, 0.2023870050907135, -0.18340409, 0.05173058, 0.3573799
94, 20613010, -0.8078213930130005, -1.115267276763916, 0.20562471449375153, -0.19880623, 0.055831965, 0.35056782
95, 20629677, -0.8105441331863403, -1.125459909439087, 0.20533880591392517, -0.2022398, 0.046137676, 0.3309431
96, 20646344, -0.8132724761962891, -1.1359976530075073, 0.20152825117111206, -0.18616727, 0.07003719, 0.35177326
97, 20663011, -0.8164493441581726, -1.144452452659607, 0.20570620894432068, -0.21475226, 0.06118561, 0.32031918
98, 20679678, -0.8193581104278564, -1.1541436910629272, 0.2053116410970688, -0.20629516, 0.054959644, 0.3528967
99, 20696345, -0.8230090737342834, -1.163319706916809, 0.20720148086547852, -0.21492882, 0.076901115, 0.3322878
100, 20713012, -0.8263155221939087, -1.1727575063705444, 0.21082934737205505, -0.22028765, 0.072445326, 0.33512974
101, 20729679, -0.8285043239593506, -1.1813273429870605, 0.21320891380310059, -0.2147757, 0.05966749, 0.34734058
102, 20746346, -0.8321006894111633, -1.1892627477645874, 0.21379214525222778, -0.21461523, 0.07367134, 0.35731316
103, 20763013, -0.8346629738807678, -1.1981377601623535, 0.21473629772663116, -0.21424961, 0.0628516, 0.36548615
104, 20779680, -0.8375450968742371, -1.206432819366455, 0.2156626284122467, -0.21605098, 0.07082967, 0.34268093
105, 20796347, -0.8401902914047241, -1.2149618864059448, 0.21937598288059235, -0.20937875, 0.065874465, 0.34762
106, 20813014, -0.8435773253440857, -1.2231285572052002, 0.21657326817512512, -0.23138706, 0.078021124, 0.32252216
107, 20829681, -0.845592200756073, -1.2307502031326294, 0.21304386854171753, -0.22617193, 0.072963335, 0.35694313
108, 20846348, -0.847695529460907, -1.238036036491394, 0.21144017577171326, -0.22213487, 0.055598263, 0.3658409
109, 20863015, -0.8491113781929016, -1.2446932792663574, 0.21170112490653992, -0.22885966, 0.07599077, 0.34034252
110, 20879682, -0.8521186709403992, -1.2522294521331787, 0.2116619050502777, -0.21597862, 0.06718408, 0.34742928
111, 20896349, -0.8551472425460815, -1.2604703903198242, 0.21321231126785278, -0.22434527, 0.07220487, 0.32613945
112, 20913016, -0.8570618033409119, -1.2679928541183472, 0.20818118751049042, -0.22813344, 0.06267777, 0.3399601
113, 20929683, -0.8585665822029114, -1.2752349376678467, 0.2061462700366974, -0.22233376, 0.07081266, 0.34753513
114, 20946350, -0.8608375787734985, -1.282099723815918, 0.21379783749580383, -0.23395887, 0.06888822, 0.35296345
115, 20963017, -0.8638626933097839, -1.2896448373794556, 0.2134762406349182, -0.22943485, 0.07428527, 0.34876442
116, 20979684, -0.864838719367981, -1.2971670627593994, 0.2095910757780075, -0.23222348, 0.06882683, 0.35752583
117, 20996351, -0.8661947846412659, -1.3025156259536743, 0.20286725461483002, -0.22816242, 0.06651149, 0.3479786
118, 21013018, -0.8688439130783081, -1.3099344968795776, 0.20257069170475006, -0.24409615, 0.07457566, 0.35267067
119, 21029685, -0.8720031380653381, -1.316248893737793, 0.19998332858085632, -0.2419395, 0.0754986, 0.35409737
120, 21046352, -0.4425603747367859, 0.07497253268957138, -0.06344635039567947, 0.026096234, 0.001622952, 0.34006786
121, 21063019, -0.4424537718296051, 0.07461777329444885, -0.06353794038295746, -4.285311E-4, -0.012075798, 0.34720135
122, 21079686, -0.44224366545677185, 0.07552403956651688, -0.06408778578042984, 3.5061498E-4, 5.928751E-4, 0.31830215
123, 21096353, -0.44150274991989136, 0.07452819496393204, -0.06353630870580673, -0.0012791525, 0.0038649547, 0.35204315
124, 21113020, -0.44149360060691833, 0.07536464184522629, -0.060144953429698944, 0.01848511, 0.012784021, 0.34721756
125, 21129687, -0.44042912125587463, 0.07650385797023773, -0.0578450933098793, 0.005574854, 0.009061006, 0.34483147
126, 21146354, -0.44004368782043457, 0.07666515558958054, -0.05795569717884064, 0.009734763, -0.003991344, 0.3357315
127, 21163021, -0.44093555212020874, 0.07606318593025208, -0.056784726679325104, 0.0042058756, 0.005280934, 0.35580635
128, 21179688, -0.44023528695106506, 0.07468276470899582, -0.056714631617069244, -0.0066455314, -0.009400228, 0.3412981
129, 21196355, -0.4397270381450653, 0.07380474358797073, -0.05653827264904976, 0.017574988, -0.0055600596, 0.34911346
130, 21213022, -0.43973854184150696, 0.07354515790939331, -0.057851243764162064, -0.008725941, 1.2523361E-4, 0.34892082
131, 21229689, -0.43959152698516846, 0.07353541254997253, -0.057366885244846344, 0.0087133255, -0.0065422906, 0.31531334
132, 21246356, -0.43976351618766785, 0.07359305769205093, -0.056960709393024445, -0.009027162, 0.011329013, 0.37097454
133, 21263023, -0.4391791820526123, 0.07470612972974777, -0.05546605587005615, 0.0033410839, -0.008547108, 0.3483057
134, 21279690, -0.43980270624160767, 0.0737794041633606, -0.05504951253533363, 0.009994314, 0.006831377, 0.34020805
135, 21296357, -0.4412546753883362, 0.07536255568265915, -0.05386227369308472, 0.0040261345, 0.0052151787, 0.36428928
136, 21313024, -0.4409604072570801, 0.07630205154418945, -0.0519859716296196, -0.0019971523, 0.009970154, 0.3587122
137, 21329691, -0.44094493985176086, 0.07675598561763763, -0.05148659646511078, 0.009997063, -0.009938304, 0.3406334
138, 21346358, -0.4413948655128479, 0.07797491550445557, -0.05214652419090271, 0.0023374674, -0.012675902, 0.35277557
139, 21363025, -0.4414671063423157, 0.0777040645480156, -0.05179765447974205, -0.005576095, -0.006900561, 0.35573292
140, 21379692, -0.44266051054000854, 0.07838142663240433, -0.04928160458803177, 0.0052400413, 0.008212554, 0.34265232
141, 21396359, -0.4417969584465027, 0.07799013704061508, -0.0471324622631073, 0.011849297, 0.008336276, 0.3547268
142, 21413026, -0.44259607791900635, 0.078582264482975, -0.04794473573565483, 0.0055651125, 7.0667465E-4, 0.34736443
143, 21429693, -0.4424453377723694, 0.0786627009510994, -0.04666409641504288, -5.5602734E-4, -0.0064378297, 0.36228752
144, 21446360, -0.44233056902885437, 0.07914599031209946, -0.04477929696440697, -0.008285662, 0.002065169, 0.35591793
145, 21463027, -0.44293293356895447, 0.07761581987142563, -0.04564264416694641, 0.009004932, -0.013117668, 0.36664677
146, 21479694, -0.44221144914627075, 0.0769139751791954, -0.04520929604768753, 0.0097555965, 0.0014260964, 0.34754086
147, 21496361, -0.4411998987197876, 0.07605114579200745, -0.04394543915987015, 0.002679606, 0.006887995, 0.3505354
148, 21513028, -0.44189441204071045, 0.07469125092029572, -0.04546242207288742, -0.010116238, -0.012912127, 0.36127186
149, 21529695, -0.4422846734523773, 0.07418911904096603, -0.04560895264148712, 0.0059390822, 0.0018160393, 0.3547821
150, 21546362, -0.4419735074043274, 0.07431621849536896, -0.046598732471466064, 4.738501E-4, 0.0014135728, 0.34872532
151, 21563029, -0.4422946274280548, 0.07540154457092285, -0.04623562842607498, 0.0057874955, -0.00486301, 0.3513193
152, 21579696, -0.44260913133621216, 0.07418990135192871, -0.04646584019064903, 0.0063133864, -0.013386792, 0.33265018
153, 21596363, -0.4423244595527649, 0.07420016825199127, -0.04714951291680336, 0.016035326, 0.0024393087, 0.36862278
154, 21613030, -0.44237080216407776, 0.07564432919025421, -0.04646127298474312, 0.0022119305, -0.0021868506, 0.3447752
155, 21629697, -0.44268548488616943, 0.07556118816137314, -0.04527014121413231, -0.00456737, -0.005385723, 0.34323978
156, 21646364, -0.4427200257778168, 0.07432525604963303, -0.042291879653930664, 0.0054995534, 0.00243663, 0.3357191
157, 21663031, -0.4428015947341919, 0.07478231936693192, -0.0412178710103035, 5.343907E-4, -0.015924232, 0.356678
158, 21679698, -0.4425505995750427, 0.07543084025382996, -0.041152868419885635, 0.020259654, -2.8127708E-5, 0.3615017
159, 21696365, -0.4421830177307129, 0.07603686302900314, -0.04039984196424484, -0.005758001, 0.012185785, 0.33817673
160, 21713032, -0.4429132342338562, 0.07562369108200073, -0.039463549852371216, -0.014226875, 0.012094087, 0.34843063
161, 21729699, -0.4426913857460022, 0.07559186965227127, -0.041748564690351486, -0.002873847, 0.007103713, 0.34506607
162, 21746366, -0.44288426637649536, 0.07648392766714096, -0.04396587610244751, 0.010025674, -0.016681071, 0.3437147
163, 21763033, -0.44303467869758606, 0.0756615400314331, -0.04382273182272911, -0.007903266, -3.0484723E-4, 0.35183525
164, 21779700, -0.44339635968208313, 0.07498065382242203, -0.042441170662641525, 0.009710332, 0.0047498355, 0.3377905
165, 21796367, -0.4428166449069977, 0.07603089511394501, -0.04110574722290039, -0.0102938, -0.00940092, 0.33236694
166, 21813034, -0.4435593783855438, 0.07546653598546982, -0.041457369923591614, 0.0060322224, 0.0015053633, 0.32376766
167, 21829701, -0.44309940934181213, 0.07549495995044708, -0.04112152010202408, -0.0046522, 0.013202142, 0.35648346
168, 21846368, -0.4430202543735504, 0.07401154935359955, -0.04263073951005936, 0.01013416, 0.007820816, 0.35147285
169, 21863035, -0.44299784302711487, 0.07355780899524689, -0.042921364307403564, 0.014824319, -4.376768E-4, 0.3564949
170, 21879702, -0.4423060417175293, 0.07372517883777618, -0.043324925005435944, 0.004912785, 0.0030684941, 0.3493166
171, 21896369, -0.44127753376960754, 0.07407014816999435, -0.04304247349500656, 9.020542E-4, -0.0028178627, 0.34772968
172, 21913036, -0.4407646656036377, 0.07384943217039108, -0.04304923489689827, 0.019134702, -0.006326751, 0.3559208
173, 21929703, -0.4416179060935974, 0.07367105782032013, -0.04230170696973801, 0.0043327077, -0.013738151, 0.36610794
174, 21946370, -0.44200873374938965, 0.07504086941480637, -0.04300040379166603, 4.1982674E-4, -0.002973351, 0.3534212
175, 21963037, -0.44290879368782043, 0.07565779983997345, -0.04429095983505249, 0.009248683, -0.005278737, 0.3486929
176, 21979704, -0.44187673926353455, 0.07540059089660645, -0.04463707283139229, 0.012140733, -0.00441633, 0.34596825
177, 21996371, -0.44283023476600647, 0.07507811486721039, -0.044809747487306595, 0.004995601, -6.1910646E-4, 0.32992554
178, 22013038, -0.4435306191444397, 0.07531888782978058, -0.044946908950805664, 0.005724665, -0.0048640016, 0.34011078
179, 22029705, -0.44255855679512024, 0.07490807771682739, -0.04492001608014107, 0.0035128072, -0.005633508, 0.36949444
180, 22046372, -0.44158390164375305, 0.07472728937864304, -0.04536017030477524, 0.010066099, -0.004702863, 0.34120655
181, 22063039, -0.44065070152282715, 0.07401778548955917, -0.043628863990306854, 0.0061555384, -0.0040652608, 0.3531065
182, 22079706, -0.44141146540641785, 0.07263221591711044, -0.04399745166301727, 0.006998211, -0.0047489833, 0.35043907
183, 22096373, -0.4412711262702942, 0.07251498103141785, -0.043903645128011703, -0.011770586, 0.003000389, 0.3500452
184, 22113040, -0.4417031407356262, 0.07280880957841873, -0.044274598360061646, 3.840686E-4, 0.0038137771, 0.33657265
185, 22129707, -0.4420018494129181, 0.07268696278333664, -0.04478183388710022, -0.0016630704, -0.0015877173, 0.34253597
186, 22146374, -0.441847026348114, 0.07358323037624359, -0.043852075934410095, -0.0033086936, 0.010717996, 0.35446835
187, 22163041, -0.44231125712394714, 0.07386269420385361, -0.044977087527513504, 0.0023030443, 0.004119979, 0.35450077
188, 22179708, -0.442067950963974, 0.07325615733861923, -0.04608310014009476, 0.0073106126, -0.015289651, 0.3451643
189, 22196375, -0.4415372610092163, 0.07293062657117844, -0.04770054295659065, 0.011133528, 0.009554348, 0.36632347
190, 22213042, -0.44180357456207275, 0.07306117564439774, -0.04703181982040405, 0.0016474515, -2.259262E-4, 0.37448597
191, 22229709, -0.44196200370788574, 0.07368656992912292, -0.046325065195560455, 0.0018946211, -0.010850852, 0.36052513
192, 22246376, -0.44203001260757446, 0.07303887605667114, -0.04573923349380493, 0.005035105, 0.008547924, 0.35402298
193, 22263043, -0.4430159032344818, 0.07362966984510422, -0.04641789197921753, -0.010070504, -0.010995803, 0.3501234
194, 22279710, -0.44352081418037415, 0.07504763454198837, -0.046153027564287186, 0.0037447033, 0.007857517, 0.3403082
195, 22296377, -0.443656861782074, 0.07454489171504974, -0.045180607587099075, 0.006086855, -0.0036748254, 0.33011723
196, 22313044, -0.4425371289253235, 0.07484278827905655, -0.045092467218637466, 0.0064614755, -0.0043895114, 0.33495045
197, 22329711, -0.4426387846469879, 0.07379757612943649, -0.045124899595975876, 0.019841867, -0.010172644, 0.33505535
198, 22346378, -0.4424418807029724, 0.07356986403465271, -0.044164374470710754, 0.011468622, -0.0024659557, 0.3290348
199, 22363045, -0.4425849914550781, 0.07281111180782318, -0.04370087757706642, 0.0091349, 0.0023420316, 0.34506226
200, 22379712, -0.4421534240245819, 0.07307260483503342, -0.04440055415034294, 0.002614679, -0.004828697, 0.34481812
201, 22396379, -0.4415944814682007, 0.07199029624462128, -0.04371096193790436, -0.0013940101, 7.2111917E-4, 0.33617115
202, 22413046, -0.4425663948059082, 0.07165563851594925, -0.04421734809875488, 0.00265235, -0.0048364606, 0.33967972
203, 22429713, -0.4436677098274231, 0.07194993644952774, -0.043410856276750565, 0.005752106, 0.0031604173, 0.33576488
204, 22446380, -0.44356417655944824, 0.07204710692167282, -0.04278471693396568, 0.0052329777, -0.006472181, 0.35097694
205, 22463047, -0.44250068068504333, 0.07170429825782776, -0.0432933010160923, 0.012305525, 0.0045586308, 0.32969666
206, 22479714, -0.44202038645744324, 0.07246411591768265, -0.043317411094903946, 0.0020837742, -0.007689904, 0.32768345
207, 22496381, -0.442067950963974, 0.07157307863235474, -0.04336928948760033, -0.002012984, -0.0029251385, 0.36393738
208, 22513048, -0.4417521059513092, 0.07150645554065704, -0.043965984135866165, -6.240023E-4, -0.007576279, 0.33721352
209, 22529715, -0.4426998496055603, 0.07116034626960754, -0.041444726288318634, 0.01290267, -0.013978947, 0.36829853
210, 22546382, -0.4421618580818176, 0.07106732577085495, -0.041257936507463455, 0.0037633993, -0.008724692, 0.3470888
211, 22563049, -0.4411951005458832, 0.07054205238819122, -0.040270283818244934, 0.0069548413, 0.0014542801, 0.34404373
212, 22579716, -0.4415116608142853, 0.07089487463235855, -0.04139351844787598, -0.008633422, -0.008549122, 0.36205196
213, 22596383, -0.44146087765693665, 0.07118663936853409, -0.04127010330557823, 0.008697157, -0.011780669, 0.36810493
214, 22613050, -0.4414350688457489, 0.0709126740694046, -0.041214194148778915, -0.003751868, -0.005927993, 0.33724213
215, 22629717, -0.44094523787498474, 0.07137493789196014, -0.04187344014644623, 0.019979991, 0.004691034, 0.3587036
216, 22646384, -0.4406627118587494, 0.07158065587282181, -0.04161509871482849, -0.007521398, -0.011397188, 0.3653555
217, 22663051, -0.44070082902908325, 0.07195030152797699, -0.04177328571677208, -0.0044786874, 1.09221E-4, 0.3430252
218, 22679718, -0.44074511528015137, 0.07168300449848175, -0.04195857048034668, 0.009493377, -0.0032919163, 0.34948158
219, 22696385, -0.44101765751838684, 0.07337488979101181, -0.043929457664489746, 0.0022471691, -0.00307587, 0.34659576
220, 22713052, -0.44068846106529236, 0.07281830161809921, -0.04379362612962723, 0.019901847, 0.004079681, 0.34472752
221, 22729719, -0.44118741154670715, 0.0735272467136383, -0.04504132643342018, 7.498986E-4, -0.005544522, 0.3569317
222, 22746386, -0.44140225648880005, 0.07379837334156036, -0.0443248488008976, -0.002838192, -0.012099476, 0.36788845
223, 22763053, -0.44129928946495056, 0.07393571734428406, -0.04371492937207222, -0.0014950035, 0.008369932, 0.35031986
224, 22779720, -0.4409946799278259, 0.07485029101371765, -0.042930539697408676, -0.005631535, -0.002254701, 0.33290386
225, 22796387, -0.44079408049583435, 0.07388841360807419, -0.04369896650314331, 0.011273845, -0.005202662, 0.34789276
226, 22813054, -0.4418489634990692, 0.07367024570703506, -0.04426586255431175, 0.004427901, -0.005773434, 0.3604126
227, 22829721, -0.4414067566394806, 0.07228022068738937, -0.04400639608502388, 0.0014169477, 9.814175E-4, 0.34499836
228, 22846388, -0.44097599387168884, 0.07248436659574509, -0.04406193271279335, 2.454862E-4, 0.012402572, 0.35300446
229, 22863055, -0.4406038224697113, 0.0727941021323204, -0.04426553100347519, -0.002116944, 0.0061878865, 0.3661251
230, 22879722, -0.4407752752304077, 0.07351835817098618, -0.04460783302783966, 0.0069534834, -0.010032365, 0.35588646
231, 22896389, -0.44024619460105896, 0.07331443578004837, -0.04393645003437996, -0.003862581, -0.006566514, 0.34997082
232, 22913056, -0.4401153326034546, 0.07235213369131088, -0.04274015873670578, -0.005366605, -0.0011043601, 0.3426218
233, 22929723, -0.44008147716522217, 0.07196889072656631, -0.04271197319030762, 0.0028565987, -0.0033525198, 0.36383915
234, 22946390, -0.4406643211841583, 0.07212703675031662, -0.0440911129117012, -0.0057728672, -0.006331354, 0.32285595
235, 22963057, -0.44088998436927795, 0.07169030606746674, -0.0450778529047966, -0.002752584, -0.0055222893, 0.35863972
236, 22979724, -0.43996667861938477, 0.07196499407291412, -0.04598506912589073, 0.006560717, -0.009703124, 0.35807037
237, 22996391, -0.44021227955818176, 0.07131362706422806, -0.04606929421424866, 0.0039598267, 0.010548894, 0.3683281
238, 23013058, -0.4401906132698059, 0.07093048840761185, -0.04547039046883583, 0.018277176, -0.014650167, 0.33804893
239, 23029725, -0.43966203927993774, 0.07013629376888275, -0.04625466838479042, -0.0011436761, 0.007792475, 0.3539009
240, 23046392, -0.4445366859436035, 0.06978899240493774, -0.04302721843123436, 0.0131345475, 0.009950182, 0.35391712
241, 23063059, -0.4444846212863922, 0.06856709718704224, -0.04292206093668938, 0.004381419, -0.0058055464, 0.34084225
242, 23079726, -0.4443892538547516, 0.06900902092456818, -0.04380575567483902, 0.0099936295, -0.0026909842, 0.34159756
243, 23096393, -0.4444010257720947, 0.06951457262039185, -0.04353237897157669, 0.006012853, -0.0056917574, 0.34935093
244, 23113060, -0.4442058503627777, 0.06989753246307373, -0.04376063123345375, 0.008849943, -0.013676311, 0.355052
245, 23129727, -0.4448468089103699, 0.06886590272188187, -0.043919190764427185, -0.003676918, 0.008793506, 0.34763718
246, 23146394, -0.44612258672714233, 0.0676787793636322, -0.04340038076043129, 0.009643606, -0.0057118945, 0.36520767
247, 23163061, -0.4461308419704437, 0.06827319413423538, -0.042487725615501404, -0.0035359864, -0.002615353, 0.3379526
248, 23179728, -0.4461745321750641, 0.06983216106891632, -0.04240133613348007, 0.007145052, -0.0035817882, 0.36025715
249, 23196395, -0.4458360970020294, 0.0712345689535141, -0.04153314232826233, 0.00535597, -0.008514374, 0.33187675
250, 23213062, -0.44567447900772095, 0.07083620876073837, -0.042075399309396744, -0.010904118, 0.004442816, 0.33807564
251, 23229729, -0.4460834264755249, 0.06994222849607468, -0.04124382883310318, 0.010038771, -0.0147577785, 0.34609604
252, 23246396, -0.4451722204685211, 0.07250230014324188, -0.0408259853720665, -0.0048144623, -0.0026852812, 0.34763336
253, 23263063, -0.4461314082145691, 0.07443191111087799, -0.0409429706633091, 0.009652772, 0.004993433, 0.36703587
254, 23279730, -0.44607383012771606, 0.07515568286180496, -0.04082513600587845, 0.016461702, 0.0023648718, 0.3301897
255, 23296397, -0.44649219512939453, 0.07484815269708633, -0.040146101266145706, 0.005693044, -0.011430806, 0.3514042
256, 23313064, -0.4472644627094269, 0.07436075061559677, -0.03869294002652168, -0.0015055125, -0.0059458637, 0.34932613
257, 23329731, -0.44773346185684204, 0.07369190454483032, -0.03713540360331535, -0.0023832135, 0.0048273876, 0.33463478
258, 23346398, -0.4479951560497284, 0.07407336682081223, -0.0375005304813385, 0.0025284174, -0.0018511169, 0.35626507
259, 23363065, -0.4485790431499481, 0.07587682455778122, -0.03634064644575119, -0.011632739, -0.00814652, 0.35725498
260, 23379732, -0.44889605045318604, 0.07545515149831772, -0.037350255995988846, 0.010771339, 5.400143E-4, 0.34260082
261, 23396399, -0.4486149847507477, 0.07645625621080399, -0.037687692791223526, -5.103215E-4, 0.0050345003, 0.34124756
262, 23413066, -0.4493495523929596, 0.07685771584510803, -0.038115546107292175, -0.0018853894, 7.970577E-4, 0.3562498
263, 23429733, -0.44849643111228943, 0.07808932662010193, -0.03613908588886261, 0.00397488, 0.0039780033, 0.37269402
264, 23446400, -0.4481271207332611, 0.07801276445388794, -0.03459237515926361, 0.0012149077, 0.0016445769, 0.34229755
265, 23463067, -0.4477870464324951, 0.07881294190883636, -0.03319387137889862, 0.0039952346, -0.007620608, 0.35238552
266, 23479734, -0.447878360748291, 0.07890984416007996, -0.03315301612019539, 0.0061110244, -0.004141971, 0.33492088
267, 23496401, -0.4497148096561432, 0.07879003882408142, -0.03221917897462845, 0.014258059, 0.0027939014, 0.35373592
268, 23513068, -0.4502771198749542, 0.07857752591371536, -0.03249465674161911, -0.010344145, 7.5796735E-4, 0.35865116
269, 23529735, -0.4503713548183441, 0.08028550446033478, -0.032375771552324295, 0.00810172, 0.005743155, 0.360425
270, 23546402, -0.44992074370384216, 0.08087464421987534, -0.03247012570500374, 0.0070118313, -0.0036155945, 0.3423767
271, 23563069, -0.45049282908439636, 0.08026167750358582, -0.03337176516652107, 0.006164298, -0.00973386, 0.36214828
272, 23579736, -0.4510064125061035, 0.0796859934926033, -0.03355018422007561, 0.0025796997, -0.009733318, 0.3444805
273, 23596403, -0.4510900378227234, 0.08109703660011292, -0.033601634204387665, 0.0045837928, 0.006157695, 0.3582182
274, 23613070, -0.4502656161785126, 0.08301714062690735, -0.03346165642142296, 0.006785525, -0.014874169, 0.34565735
275, 23629737, -0.4500562250614166, 0.0832648053765297, -0.034501753747463226, 0.011372074, 0.0076697143, 0.3794403
276, 23646404, -0.45072269439697266, 0.08398865908384323, -0.03475198522210121, 0.0044931336, -0.014484963, 0.33734226
277, 23663071, -0.4496096968650818, 0.08480365574359894, -0.035489942878484726, 0.009520624, 0.0054324022, 0.35827827
278, 23679738, -0.44910928606987, 0.08515160530805588, -0.03544571250677109, -2.5519766E-4, 6.09443E-4, 0.3747034
279, 23696405, -0.44950586557388306, 0.08535072207450867, -0.035845622420310974, 0.0042684292, 0.006848793, 0.34471226
280, 23713072, -0.4489869177341461, 0.08560071140527725, -0.034899838268756866, 0.0073685395, -0.0011378905, 0.34320164
281, 23729739, -0.44785651564598083, 0.08692829310894012, -0.03378723934292793, -0.00780981, 0.011482854, 0.3437395
282, 23746406, -0.44753921031951904, 0.08776374161243439, -0.03402591869235039, 0.0065654875, 0.009146785, 0.33972073
283, 23763073, -0.447969913482666, 0.08761955052614212, -0.033925868570804596, -0.0020086141, 0.009366719, 0.33050728
284, 23779740, -0.44745394587516785, 0.08694199472665787, -0.03321802243590355, -0.002775474, -0.002683982, 0.34836006
285, 23796407, -0.44584840536117554, 0.08613631129264832, -0.032599177211523056, 0.0028431276, 0.008506023, 0.3480873
286, 23813074, -0.4462103545665741, 0.08597166836261749, -0.03205408155918121, 8.818573E-4, 2.8254482E-4, 0.3167925
287, 23829741, -0.44582778215408325, 0.08453893661499023, -0.03227322921156883, 0.0056972383, 0.0119381845, 0.35442924
288, 23846408, -0.4462904930114746, 0.0855049416422844, -0.033179789781570435, 0.0078062178, 0.005201768, 0.34926605
289, 23863075, -0.4467260241508484, 0.08525421470403671, -0.03297346085309982, 0.01643107, -0.0051435847, 0.35282898
290, 23879742, -0.44690021872520447, 0.08461332321166992, -0.033034659922122955, 0.0029901944, 0.014399429, 0.35272694
291, 23896409, -0.44767969846725464, 0.0851365402340889, -0.03406203165650368, -0.003022055, 0.0063761086, 0.35731888
292, 23913076, -0.447982519865036, 0.08491592854261398, -0.033798251301050186, -0.0014564113, 0.008646801, 0.34611034
293, 23929743, -0.44756922125816345, 0.08517468720674515, -0.033019959926605225, -0.0035228871, -0.0065777977, 0.3331318
294, 23946410, -0.4472949802875519, 0.08448010683059692, -0.03422833979129791, 0.014624158, 0.008092835, 0.34067154
295, 23963077, -0.44717302918434143, 0.0851307287812233, -0.03421895578503609, 0.0036131616, -0.0059058163, 0.34739494
296, 23979744, -0.4469606578350067, 0.08531525731086731, -0.03367822617292404, 0.0045972965, 0.010956773, 0.35483456
297, 23996411, -0.44758206605911255, 0.08542783558368683, -0.03374337777495384, -0.005039797, 0.0018166259, 0.35633564
298, 24013078, -0.4466579258441925, 0.08494912832975388, -0.03413895517587662, 0.004812367, -3.6361718E-4, 0.3266306
299, 24029745, -0.44739222526550293, 0.08584476262331009, -0.033341433852910995, -0.0045392285, -0.026771512, 0.3463993
300, 24046412, -0.44544169306755066, 0.08634540438652039, -0.032769836485385895, 0.016856624, -0.007228706, 0.3466158
301, 24063079, -0.4448336958885193, 0.08689150959253311, -0.031761713325977325, 0.007223643, -0.00885888, 0.34628582
302, 24079746, -0.44563353061676025, 0.086969755589962, -0.03256310150027275, 0.015013133, 3.4986413E-4, 0.34775734
303, 24096413, -0.4462122321128845, 0.08800461143255234, -0.03309682011604309, 0.00429127, -0.0019208424, 0.32744312
304, 24113080, -0.4470166265964508, 0.0886484831571579, -0.030282868072390556, 0.0020870427, 0.0039319526, 0.33320808
305, 24129747, -0.44655799865722656, 0.08847708255052567, -0.02934434823691845, 0.0022740716, 0.0077443956, 0.36310196
306, 24146414, -0.44650453329086304, 0.08799269795417786, -0.029181357473134995, 0.022134013, 0.012332902, 0.35880184
307, 24163081, -0.44762712717056274, 0.08822458982467651, -0.029053401201963425, 0.019988736, -0.0011880586, 0.34074116
308, 24179748, -0.4473933279514313, 0.08812219649553299, -0.027889490127563477, 7.6545763E-4, -0.005099504, 0.34486103
309, 24196415, -0.44773074984550476, 0.08777611702680588, -0.027346279472112656, 0.0097486945, -0.011774568, 0.3724661
310, 24213082, -0.4466705024242401, 0.08823610097169876, -0.025997936725616455, -0.001956002, 9.2900713E-4, 0.35041142
311, 24229749, -0.44729408621788025, 0.08748673647642136, -0.02546185813844204, 0.02076011, -0.0026228616, 0.35188198
312, 24246416, -0.4463387727737427, 0.08675834536552429, -0.024670710787177086, 0.0024013997, -8.13898E-4, 0.35996628
313, 24263083, -0.4466475546360016, 0.08701594173908234, -0.02647467516362667, 0.012486293, 0.0012786653, 0.34790993
314, 24279750, -0.44767358899116516, 0.0873057097196579, -0.028584696352481842, -0.00318703, 0.0040956303, 0.34125805
315, 24296417, -0.44757628440856934, 0.08776336908340454, -0.030430087819695473, 4.552924E-4, 0.010495556, 0.34635735
316, 24313084, -0.4488617479801178, 0.08728946000337601, -0.029417334124445915, 0.0016392261, 0.003132038, 0.35875702
317, 24329751, -0.4489622116088867, 0.0871141329407692, -0.028031283989548683, 0.007196166, -0.0029248765, 0.34292984
318, 24346418, -0.4491097629070282, 0.08643802255392075, -0.028171168640255928, 0.005046818, -0.0053954385, 0.3405962
319, 24363085, -0.4493306279182434, 0.0855521410703659, -0.027491416782140732, 0.019972863, 0.0071217166, 0.37967968
320, 24379752, -0.4500918686389923, 0.08533044159412384, -0.026685943827033043, 0.011710072, 0.00642869, 0.34325504
321, 24396419, -0.4499730169773102, 0.08561637252569199, -0.02650076523423195, 0.008438085, 0.0039445427, 0.32970238
322, 24413086, -0.4502217471599579, 0.08591870963573456, -0.027485081925988197, -0.015449046, -0.0075768377, 0.35850716
323, 24429753, -0.45112696290016174, 0.08357806503772736, -0.02890760265290737, -0.0030064457, 4.9286353E-4, 0.33969498
324, 24446420, -0.45094969868659973, 0.08269639313220978, -0.027855277061462402, 0.018299352, -0.010580712, 0.34000778
325, 24463087, -0.45064830780029297, 0.08151371777057648, -0.02835586480796337, 0.0010834825, -0.0057938993, 0.35494423
326, 24479754, -0.45164579153060913, 0.08003468066453934, -0.02748141437768936, 0.013505444, 0.01244359, 0.34136105
327, 24496421, -0.45199358463287354, 0.08033892512321472, -0.027569573372602463, -0.005708671, 0.004137777, 0.34345055
328, 24513088, -0.4519251883029938, 0.08037541061639786, -0.02707255445420742, 0.013220992, 0.0029354584, 0.34664917
329, 24529755, -0.4516804814338684, 0.0814429223537445, -0.027544928714632988, 0.0036496166, -0.00779478, 0.34201813
330, 24546422, -0.45136788487434387, 0.0829240158200264, -0.02664468251168728, -0.003692413, -0.018489767, 0.3586445
331, 24563089, -0.4512861371040344, 0.0830250084400177, -0.025790078565478325, 0.0045842165, 0.011265932, 0.34582138
332, 24579756, -0.45101478695869446, 0.08456581830978394, -0.02584240771830082, -0.0028290027, -0.009714027, 0.34754562
333, 24596423, -0.4517212510108948, 0.08395837992429733, -0.0249607153236866, -0.011547723, 0.004583936, 0.34223938
334, 24613090, -0.45179465413093567, 0.08495359867811203, -0.02365998364984989, 0.0021453176, 0.0069093094, 0.34399796
335, 24629757, -0.45093005895614624, 0.0848444253206253, -0.021657608449459076, 0.01053548, 0.0050918837, 0.36580276
336, 24646424, -0.45053091645240784, 0.08448977768421173, -0.021768031641840935, 3.590321E-4, 0.01825078, 0.3500433
337, 24663091, -0.45123448967933655, 0.08448945730924606, -0.021636059507727623, -0.007873765, 0.0040356833, 0.36697102
338, 24679758, -0.4504932463169098, 0.08499196916818619, -0.020994458347558975, 0.02476063, 0.0024824606, 0.37563038
339, 24696425, -0.45041805505752563, 0.08477244526147842, -0.02104799821972847, 0.010663426, 6.373402E-4, 0.34266663
340, 24713092, -0.4497808814048767, 0.0837816447019577, -0.022962864488363266, -5.4010336E-4, -0.009198766, 0.35278797
341, 24729759, -0.44988813996315, 0.08404833823442459, -0.02432391047477722, 0.013635453, 0.013041435, 0.34679317
342, 24746426, -0.4503076672554016, 0.08387508243322372, -0.0235154926776886, -0.008986129, -0.00853999, 0.35075188
343, 24763093, -0.4506889581680298, 0.0840160995721817, -0.023892248049378395, 0.004488861, -0.0023832384, 0.34037971
344, 24779760, -0.45158469676971436, 0.0849808007478714, -0.02334652841091156, 0.013631961, -0.0016175912, 0.36140156
345, 24796427, -0.45232030749320984, 0.08502480387687683, -0.022519607096910477, 0.008341498, -0.0086707, 0.36767483
346, 24813094, -0.45264437794685364, 0.08507968485355377, -0.02212471142411232, 0.012687751, -0.0015275399, 0.3369255
347, 24829761, -0.4523391127586365, 0.08548122644424438, -0.022459208965301514, -6.891193E-4, 0.0022337185, 0.34518528
348, 24846428, -0.4532151222229004, 0.0855613648891449, -0.02306579239666462, -0.0023166726, -0.009969988, 0.34591007
349, 24863095, -0.4531383514404297, 0.08580108731985092, -0.02427719719707966, 8.7418844E-4, -0.011145635, 0.36135292
350, 24879762, -0.45305654406547546, 0.08643072098493576, -0.024872910231351852, 0.0056782123, -0.009063992, 0.36424732
351, 24896429, -0.4523489773273468, 0.0860118716955185, -0.02559242770075798, -0.018220419, 0.0052645053, 0.33648968
352, 24913096, -0.45321255922317505, 0.08562594652175903, -0.02633771300315857, 0.0021059983, -0.0047873924, 0.38356495
353, 24929763, -0.45406389236450195, 0.08536102622747421, -0.0273746307939291, -6.0347887E-4, 0.009818869, 0.35409737
354, 24946430, -0.4542791545391083, 0.08459930121898651, -0.027669472619891167, 0.010056655, -0.003833537, 0.34855938
355, 24963097, -0.4540702998638153, 0.08455512672662735, -0.027976220473647118, 0.014699164, 0.006477077, 0.362072
356, 24979764, -0.4539157450199127, 0.08453438431024551, -0.02653689682483673, 3.5552093E-4, 0.0045845546, 0.35634613
357, 24996431, -0.45569154620170593, 0.08598515391349792, -0.02555946446955204, -0.008184905, 9.2349265E-4, 0.33553696
358, 25013098, -0.45517048239707947, 0.08525790274143219, -0.027022074908018112, -0.00214826, -0.004812894, 0.34941006
359, 25029765, -0.4565920829772949, 0.08450156450271606, -0.028894608840346336, 0.012798436, -0.0011098606, 0.3544569
360, 25046432, -0.4499073326587677, 0.07281465083360672, -0.03238155320286751, 0.0123212235, -0.0029748213, 0.35260582
361, 25063099, -0.4493991732597351, 0.07191634178161621, -0.03184182196855545, 0.0050811837, -4.5003285E-4, 0.33187294
362, 25079766, -0.44948887825012207, 0.07174710929393768, -0.031721342355012894, 0.003992607, 0.0023438442, 0.3620634
363, 25096433, -0.4497256875038147, 0.07141141593456268, -0.03254690393805504, 0.007992282, 0.0065426715, 0.33391285
364, 25113100, -0.4501572847366333, 0.07216811925172806, -0.031175687909126282, -0.012609735, -0.01236409, 0.33321095
365, 25129767, -0.45070913434028625, 0.07258433103561401, -0.03084312379360199, 0.0034601544, -0.010029861, 0.36039352
366, 25146434, -0.45069852471351624, 0.07146318256855011, -0.030873073264956474, -0.0075988625, 2.431297E-4, 0.3588009
367, 25163101, -0.45051804184913635, 0.07356426864862442, -0.031235462054610252, 0.015168532, -0.005116725, 0.36114216
368, 25179768, -0.45095598697662354, 0.07537959516048431, -0.03292285278439522, -0.0020505546, 0.0022102322, 0.34893227
369, 25196435, -0.4518051743507385, 0.07564184814691544, -0.03268444165587425, 0.002192213, 0.009746977, 0.33319378
370, 25213102, -0.452327162027359, 0.0751202255487442, -0.03324221447110176, 0.009443005, -0.0047949883, 0.36536217
371, 25229769, -0.45193254947662354, 0.07596363127231598, -0.03371415287256241, 0.003372726, -0.002283569, 0.36824894
372, 25246436, -0.4522240161895752, 0.07466712594032288, -0.032709427177906036, 0.011601205, 0.0024221924, 0.34727097
373, 25263103, -0.4522930383682251, 0.07443069666624069, -0.03226301819086075, 0.002116455, -0.0039044535, 0.3422804
374, 25279770, -0.4528990685939789, 0.07542229443788528, -0.03253886476159096, 0.004060292, 0.0020702502, 0.36787415
375, 25296437, -0.4522429406642914, 0.07728728652000427, -0.03206826373934746, 0.013792814, -9.102775E-4, 0.3588295
376, 25313104, -0.4520665407180786, 0.07692967355251312, -0.03259383141994476, 0.0054343524, -0.00568486, 0.32948494
377, 25329771, -0.4522920250892639, 0.07651999592781067, -0.03317082300782204, -0.0041767024, -0.011274098, 0.35095406
378, 25346438, -0.45415157079696655, 0.07636244595050812, -0.03325502946972847, 0.0059183985, -0.01423547, 0.34476662
379, 25363105, -0.45414867997169495, 0.07523718476295471, -0.033197421580553055, 0.0076758987, 0.00454683, 0.32668495
380, 25379772, -0.4534666836261749, 0.07431971281766891, -0.03298987075686455, 0.011355876, -5.009554E-4, 0.3633566
381, 25396439, -0.4528167247772217, 0.07349510490894318, -0.033509667962789536, 0.0057821563, -0.013306582, 0.3526516
382, 25413106, -0.45206862688064575, 0.07253178209066391, -0.03505592793226242, -0.00792723, 9.5202547E-4, 0.33907795
383, 25429773, -0.4510919451713562, 0.07173275202512741, -0.03569169342517853, 0.0015157352, 0.0017390146, 0.3534279
384, 25446440, -0.45105037093162537, 0.07238024473190308, -0.03522023186087608, 0.008319949, -0.01516162, 0.35112
385, 25463107, -0.4498745799064636, 0.07318250834941864, -0.03581215813755989, -0.008483408, 0.0015843296, 0.36911678
386, 25479774, -0.4502394199371338, 0.07166747748851776, -0.03529210761189461, 0.010193464, -0.00549771, 0.315547
387, 25496441, -0.44971007108688354, 0.07078669220209122, -0.03615615889430046, 0.019000003, 0.0041216663, 0.3574896
388, 25513108, -0.44861072301864624, 0.07088835537433624, -0.036153241991996765, -0.0056811552, -0.0018905215, 0.36748886
389, 25529775, -0.4478725790977478, 0.07045557349920273, -0.03446238860487938, 0.010276536, -0.0036452168, 0.36553383
390, 25546442, -0.44844311475753784, 0.06893520057201385, -0.03580036386847496, 0.0073031406, 0.0019408189, 0.3687954
391, 25563109, -0.4484054446220398, 0.07079540938138962, -0.03572927415370941, 0.013645196, 4.6632835E-4, 0.33381367
392, 25579776, -0.4484051764011383, 0.07061035931110382, -0.03596142679452896, 0.006241386, 0.006797518, 0.3525076
393, 25596443, -0.44774970412254333, 0.07132873684167862, -0.035498328506946564, 0.0051352913, -0.007703154, 0.35076427
394, 25613110, -0.44759422540664673, 0.07142933458089828, -0.03425038605928421, 0.011011804, -0.0026538495, 0.3527689
395, 25629777, -0.44731202721595764, 0.07187210023403168, -0.03401600196957588, 0.006844948, -0.0085981665, 0.3467512
396, 25646444, -0.44770562648773193, 0.07301461696624756, -0.03390482813119888, 0.005481712, 0.006680977, 0.34769154
397, 25663111, -0.44851425290107727, 0.0711071565747261, -0.03415185213088989, 0.005378949, 0.0064598145, 0.3438568
398, 25679778, -0.4486805200576782, 0.07049223780632019, -0.034520089626312256, -0.018433075, -0.006831754, 0.34180355
399, 25696445, -0.4484425187110901, 0.06951098144054413, -0.03492698445916176, -0.009883776, -0.0010840972, 0.36521912
400, 25713112, -0.44727128744125366, 0.06977349519729614, -0.03407358005642891, 0.0056160693, -0.012237782, 0.3467722
401, 25729779, -0.44792523980140686, 0.07052399963140488, -0.033872783184051514, 0.0070379362, -0.0064409203, 0.36013222
402, 25746446, -0.4468958079814911, 0.0709087923169136, -0.033294983208179474, 0.004830145, -0.009044252, 0.34240723
403, 25763113, -0.44696760177612305, 0.07129639387130737, -0.032823629677295685, -0.0073343194, 0.0052891653, 0.36573792
404, 25779780, -0.4475177526473999, 0.07245704531669617, -0.03236262500286102, 0.003585404, -0.0048340927, 0.36231613
405, 25796447, -0.44709858298301697, 0.07297028601169586, -0.032528482377529144, 0.014936414, -0.008393013, 0.36200333
406, 25813114, -0.44666481018066406, 0.07300624251365662, -0.033766936510801315, 0.004028869, -0.0055372613, 0.35680008
407, 25829781, -0.4457986354827881, 0.07308997213840485, -0.03375238552689552, 0.014377877, 0.0026874011, 0.3783245
408, 25846448, -0.44545403122901917, 0.07318222522735596, -0.03445441648364067, 0.0048330505, 0.0054025454, 0.34329605
409, 25863115, -0.44660845398902893, 0.07309812307357788, -0.035075943917036057, 0.004054435, -0.008264689, 0.3738327
410, 25879782, -0.44767919182777405, 0.07443145662546158, -0.03590543940663338, 0.007967164, 0.0040462236, 0.3631153
411, 25896449, -0.4485618472099304, 0.07523223012685776, -0.03631669655442238, 0.006821858, -0.011920781, 0.35305882
412, 25913116, -0.44824978709220886, 0.07547769695520401, -0.035114943981170654, 0.0037859322, -0.007784827, 0.34946918
413, 25929783, -0.44779279828071594, 0.07488402724266052, -0.03522210940718651, 0.0015189447, -0.006429406, 0.367321
414, 25946450, -0.44796106219291687, 0.07656697183847427, -0.03528747335076332, 0.0050330777, -0.0044981353, 0.34229565
415, 25963117, -0.447008341550827, 0.07643846422433853, -0.03560500219464302, -0.0117999315, -0.00412343, 0.35993862
416, 25979784, -0.44597041606903076, 0.0759049504995346, -0.0378635972738266, 0.004421485, -0.008328036, 0.3518591
417, 25996451, -0.4454078674316406, 0.07684808224439621, -0.03757372125983238, -0.01107699, -0.012156741, 0.3533144
418, 26013118, -0.4452073574066162, 0.07744628936052322, -0.03838210180401802, 5.218678E-4, -0.007877546, 0.3070898
419, 26029785, -0.4441111087799072, 0.07775396853685379, -0.037544142454862595, 0.0035694344, 0.0040855375, 0.35060024
420, 26046452, -0.443276584148407, 0.07824189215898514, -0.03721274808049202, 0.0076710484, 0.0033415814, 0.37647438
421, 26063119, -0.44244682788848877, 0.07728402316570282, -0.03777986019849777, -6.269857E-4, 0.0023276848, 0.3568325
422, 26079786, -0.44206464290618896, 0.07807064056396484, -0.03782570734620094, -0.0012478353, 0.0017645265, 0.3649845
423, 26096453, -0.4433492124080658, 0.07879067957401276, -0.03618449717760086, 0.012446506, -0.0031049862, 0.33893967
424, 26113120, -0.44295984506607056, 0.079151950776577, -0.03633473068475723, 0.008273027, 0.011277236, 0.3436203
425, 26129787, -0.44317007064819336, 0.08069631457328796, -0.035226233303546906, 0.005613394, -0.012840676, 0.36863136
426, 26146454, -0.4429987967014313, 0.08043240010738373, -0.03363971784710884, 0.019154983, 0.0023474274, 0.3740282
427, 26163121, -0.4430198073387146, 0.08092384785413742, -0.03385307639837265, 0.0126822125, -0.011864783, 0.3501482
428, 26179788, -0.4437730014324188, 0.079278863966465, -0.0336255207657814, 0.01871809, 0.0037286081, 0.35991955
429, 26196455, -0.4428269565105438, 0.07787248492240906, -0.033981774002313614, -0.0018035863, -0.0036709453, 0.34061146
430, 26213122, -0.4429343640804291, 0.07738617062568665, -0.034243546426296234, -0.010067428, -0.007094469, 0.33657837
431, 26229789, -0.44320663809776306, 0.07740291208028793, -0.033960048109292984, 0.014783985, 0.014668174, 0.350914
432, 26246456, -0.4442807137966156, 0.07512222975492477, -0.034096308052539825, -0.0060612885, -0.0017887113, 0.32476616
433, 26263123, -0.44490399956703186, 0.07666828483343124, -0.033130012452602386, 0.003149045, -0.004464343, 0.35391426
434, 26279790, -0.44340357184410095, 0.07671897858381271, -0.03499102592468262, 0.005671824, -6.8669114E-4, 0.3409195
435, 26296457, -0.4423055350780487, 0.07596439123153687, -0.03524743765592575, 0.0062469086, -0.020776194, 0.3562088
436, 26313124, -0.44252797961235046, 0.07508355379104614, -0.034662388265132904, 0.003451055, -0.0077014426, 0.35479164
437, 26329791, -0.44254955649375916, 0.07470937818288803, -0.034360431134700775, -0.0025137442, -0.0037792164, 0.35231686
438, 26346458, -0.44273677468299866, 0.07475186884403229, -0.033698175102472305, 0.015609104, -0.011146347, 0.3916502
439, 26363125, -0.4434904456138611, 0.07366029918193817, -0.03389187529683113, 0.0043668915, -0.0043088514, 0.340127
440, 26379792, -0.44334545731544495, 0.07304155826568604, -0.03292232006788254, 0.0054654595, -0.00158763, 0.35894966
441, 26396459, -0.4429400861263275, 0.07329016923904419, -0.03326304629445076, 0.020953752, -0.0092571275, 0.3502369
442, 26413126, -0.4434030055999756, 0.0724717527627945, -0.0320592038333416, -0.0071009877, -0.005535145, 0.3647461
443, 26429793, -0.44312188029289246, 0.07255011796951294, -0.03180960938334465, -0.0030345542, -0.0067131314, 0.35884953
444, 26446460, -0.4437565505504608, 0.0720217227935791, -0.03127209469676018, -0.011696269, 0.009119343, 0.3351364
445, 26463127, -0.4443122148513794, 0.07155470550060272, -0.03058244287967682, -0.0040940586, 2.0331996E-4, 0.36729336
446, 26479794, -0.44379764795303345, 0.07160390168428421, -0.030598580837249756, 0.003064384, 0.0018143594, 0.34050846
447, 26496461, -0.4445875585079193, 0.07189629971981049, -0.03106909990310669, -2.1430047E-4, -2.9076592E-4, 0.35223866
448, 26513128, -0.4441930949687958, 0.07251798361539841, -0.03232252970337868, -0.00644994, -0.0016515268, 0.32384586
449, 26529795, -0.44499287009239197, 0.07230622321367264, -0.031994592398405075, 0.003656567, 5.4782676E-4, 0.35476112
450, 26546462, -0.4457715153694153, 0.07311492413282394, -0.032029762864112854, -0.003930469, -0.0022202975, 0.34746552
451, 26563129, -0.44615596532821655, 0.07367173582315445, -0.031273942440748215, 0.015531977, -0.0016467981, 0.34457302
452, 26579796, -0.44709789752960205, 0.07370411604642868, -0.03177599981427193, 0.013534372, -0.0035655485, 0.36160946
453, 26596463, -0.4458395838737488, 0.07183372229337692, -0.033000729978084564, 0.010864062, 0.005964017, 0.36505032
454, 26613130, -0.44635146856307983, 0.07213360071182251, -0.0332794189453125, 0.020599104, 0.008787415, 0.338192
455, 26629797, -0.44759702682495117, 0.07103294134140015, -0.034250251948833466, 0.010932398, -9.6241187E-4, 0.3487196
456, 26646464, -0.44865384697914124, 0.07290267199277878, -0.03377007320523262, 0.004265047, -0.00801061, 0.33242702
457, 26663131, -0.44842982292175293, 0.07358483970165253, -0.033857449889183044, 0.00950183, -0.0033119172, 0.36043262
458, 26679798, -0.44829440116882324, 0.0736801028251648, -0.03396081551909447, 0.008576105, -0.0068621933, 0.36283302
459, 26696465, -0.4493982791900635, 0.0739109218120575, -0.03343169391155243, 0.012166739, -0.008039827, 0.35598278
460, 26713132, -0.44941598176956177, 0.07522992789745331, -0.03249627351760864, -0.0065129334, 0.00934837, 0.3460722
461, 26729799, -0.4498569667339325, 0.07522589713335037, -0.03273788094520569, 0.014012034, -0.01265662, 0.34441948
462, 26746466, -0.4502950608730316, 0.07524637877941132, -0.03402140736579895, -0.010815163, 4.8794973E-4, 0.35201073
463, 26763133, -0.45020440220832825, 0.07437867671251297, -0.032488785684108734, 0.005982199, 0.0013557668, 0.33773136
464, 26779800, -0.4498577117919922, 0.0749015063047409, -0.03153124451637268, 0.0017066069, 0.005291243, 0.3510313
465, 26796467, -0.44803911447525024, 0.07488677650690079, -0.030507203191518784, 0.012878839, -0.0037582517, 0.3471384
466, 26813134, -0.4497068524360657, 0.07486983388662338, -0.030247366055846214, 0.01596748, 0.01245512, 0.3632183
467, 26829801, -0.4491012692451477, 0.07572506368160248, -0.031843628734350204, 0.0020202843, -0.0010661847, 0.34652328
468, 26846468, -0.44914481043815613, 0.07603144645690918, -0.03262421116232872, -0.012742306, 0.00552956, 0.32374
469, 26863135, -0.44893452525138855, 0.07577581703662872, -0.031836871057748795, -0.0041692685, 0.0026847888, 0.33592224
470, 26879802, -0.44871217012405396, 0.07600685954093933, -0.030793694779276848, -0.018195562, -0.003968228, 0.3377447
471, 26896469, -0.44789910316467285, 0.07748965919017792, -0.030810359865427017, 0.013819464, -0.0020571295, 0.34968662
472, 26913136, -0.44714364409446716, 0.07754084467887878, -0.03040926717221737, 0.010768273, -0.0076406263, 0.34452534
473, 26929803, -0.4485424757003784, 0.07690119743347168, -0.029073771089315414, 0.010982966, -0.0013323433, 0.36985302
474, 26946470, -0.4485943913459778, 0.07661602646112442, -0.028590591624379158, -0.0039445716, 0.0074715177, 0.3680811
475, 26963137, -0.44800859689712524, 0.07823005318641663, -0.027901694178581238, -0.006387332, -0.002502175, 0.3453617
476, 26979804, -0.4480736553668976, 0.07918456941843033, -0.027284210547804832, 0.011598559, -0.017190853, 0.33314228
477, 26996471, -0.4473763704299927, 0.08037508279085159, -0.02599586918950081, 0.016717171, -0.008988685, 0.34814453
478, 27013138, -0.447348952293396, 0.07977040857076645, -0.0257529616355896, 0.0023242366, -0.0020281635, 0.3545618
479, 27029805, -0.44813287258148193, 0.0798143595457077, -0.02560007944703102, 0.0056255376, 0.005084595, 0.3397236
480, 27046472, -0.44855841994285583, 0.07550975680351257, -0.028066357597708702, 0.008826685, -0.0075033894, 0.33289146
481, 27063139, -0.4486069977283478, 0.07517118006944656, -0.029232868924736977, -0.00542389, 0.0107976, 0.35441113
482, 27079806, -0.4487094283103943, 0.07625647634267807, -0.02866446040570736, 0.0021488457, 0.015564101, 0.34775066
483, 27096473, -0.4489568769931793, 0.0787644237279892, -0.030247559770941734, 0.0022074746, -0.005758029, 0.3358469
484, 27113140, -0.4501902163028717, 0.07848888635635376, -0.030315063893795013, -1.2809693E-4, -0.0012390057, 0.3413391
485, 27129807, -0.45055514574050903, 0.0777529776096344, -0.029860062524676323, -0.0043965215, 0.0072487593, 0.33840752
486, 27146474, -0.4511535167694092, 0.07654356211423874, -0.029336579144001007, 0.005120419, -2.426303E-4, 0.36140728
487, 27163141, -0.45197567343711853, 0.07687821239233017, -0.02987338975071907, 0.007285332, -0.006584667, 0.36743164
488, 27179808, -0.451488733291626, 0.07784198969602585, -0.02926006354391575, 0.007837467, 0.0188932, 0.33582115
489, 27196475, -0.4513293504714966, 0.07773201167583466, -0.029227426275610924, 0.007856689, -0.011410619, 0.35156345
490, 27213142, -0.45143598318099976, 0.0783340260386467, -0.030101511627435684, 1.5109825E-5, 0.0042995512, 0.3554678
491, 27229809, -0.45210954546928406, 0.07763265818357468, -0.030602209270000458, 0.009240509, 0.002674329, 0.34529305
492, 27246476, -0.45034560561180115, 0.07790693640708923, -0.03078293986618519, 0.0041339803, -0.012199871, 0.34023094
493, 27263143, -0.4506085515022278, 0.08042784780263901, -0.03011094592511654, 0.006864586, 2.3100413E-4, 0.3719387
494, 27279810, -0.45022088289260864, 0.08173692226409912, -0.029202023521065712, -3.1085982E-4, -0.014314869, 0.36539745
495, 27296477, -0.44919461011886597, 0.08177869021892548, -0.028841745108366013, -0.0015991397, 0.0012197137, 0.34891605
496, 27313144, -0.44967371225357056, 0.0820867121219635, -0.027899516746401787, 0.01327512, -0.0018210544, 0.34787655
497, 27329811, -0.4508357048034668, 0.08129935711622238, -0.027441512793302536, -8.393021E-4, 0.008134681, 0.3470068
498, 27346478, -0.4509762227535248, 0.08189218491315842, -0.02763158082962036, 0.0017778474, 2.2871662E-5, 0.3595209
499, 27363145, -0.4513988196849823, 0.08230847865343094, -0.028611183166503906, 0.0043157176, 0.012341589, 0.36583614
500, 27379812, -0.45133689045906067, 0.08184737712144852, -0.028467562049627304, 0.011306804, 0.007088909, 0.34552002
501, 27396479, -0.4518152177333832, 0.08110789209604263, -0.029229208827018738, 1.0883116E-4, 0.008666666, 0.34402466
502, 27413146, -0.4522363245487213, 0.08006467670202255, -0.02987794578075409, 0.00986835, 0.009468054, 0.33529282
503, 27429813, -0.4519192576408386, 0.08033069968223572, -0.028398456051945686, -2.316166E-4, 0.006733408, 0.35028934
504, 27446480, -0.45164626836776733, 0.07948632538318634, -0.028927041217684746, 0.01056479, 0.006035475, 0.34487534
505, 27463147, -0.4518856406211853, 0.07979608327150345, -0.02869623899459839, 0.0024713543, 0.0022955653, 0.36879444
506, 27479814, -0.45218169689178467, 0.07753147184848785, -0.02994825877249241, 0.002111481, 0.0044529056, 0.35259533
507, 27496481, -0.4522761404514313, 0.07793014496564865, -0.029349876567721367, 2.645084E-4, -0.006156916, 0.36137962
508, 27513148, -0.4521627426147461, 0.07700307667255402, -0.028916213661432266, 0.004000295, -0.009510386, 0.3623562
509, 27529815, -0.4518020749092102, 0.07637229561805725, -0.029344774782657623, -0.007151211, 0.009746807, 0.34909344
510, 27546482, -0.4511480927467346, 0.07742361724376678, -0.028545238077640533, 0.0056477212, 0.0015948069, 0.33920097
511, 27563149, -0.45097440481185913, 0.07747672498226166, -0.028899550437927246, 0.016412903, 6.947691E-4, 0.34520435
512, 27579816, -0.45192885398864746, 0.07698694616556168, -0.027854101732373238, 0.0038482584, 9.060307E-5, 0.35336208
513, 27596483, -0.45162588357925415, 0.0779770240187645, -0.027733178809285164, 0.005445965, -0.0055191773, 0.35257244
514, 27613150, -0.4508693218231201, 0.07898033410310745, -0.02701590396463871, 0.0122272475, -0.008238237, 0.33831024
515, 27629817, -0.4499831199645996, 0.07848436385393143, -0.027849452570080757, 7.579268E-4, -0.0065182527, 0.36147308
516, 27646484, -0.4496273696422577, 0.08031201362609863, -0.02765066735446453, 0.0070862575, 0.007450253, 0.3517561
517, 27663151, -0.4500952363014221, 0.08154358714818954, -0.027550043538212776, 0.01283046, 0.0047114575, 0.33879757
518, 27679818, -0.44900965690612793, 0.07996377348899841, -0.026800787076354027, 0.013606856, 0.0029474793, 0.36004162
519, 27696485, -0.4491351544857025, 0.07996520400047302, -0.027060778811573982, 0.0069071515, 0.002559192, 0.331954
520, 27713152, -0.4489329755306244, 0.08027157932519913, -0.026923123747110367, 9.144164E-4, 2.7633883E-4, 0.33591747
521, 27729819, -0.44986167550086975, 0.08131079375743866, -0.026019444689154625, 0.022609944, 0.004973383, 0.3378172
522, 27746486, -0.4499245882034302, 0.08188308775424957, -0.026621943339705467, 0.008167438, 0.0059146034, 0.35025787
523, 27763153, -0.45035049319267273, 0.08310525119304657, -0.0269638504832983, -0.0019091936, 0.005384881, 0.35278034
524, 27779820, -0.4504324793815613, 0.08424415439367294, -0.02728290855884552, 0.01915756, 0.022335066, 0.34783936
525, 27796487, -0.4496780037879944, 0.08555255830287933, -0.02672705426812172, 0.01749282, -0.0034507117, 0.3412819
526, 27813154, -0.4496151804924011, 0.0854613408446312, -0.026231562718749046, 0.0023212903, 0.009164632, 0.337142
527, 27829821, -0.45065221190452576, 0.08441182225942612, -0.026102082803845406, 0.014446457, 8.134265E-4, 0.3564911
528, 27846488, -0.45016250014305115, 0.08309116214513779, -0.026227761059999466, -4.1139044E-4, 0.0027329174, 0.3375969
529, 27863155, -0.45052850246429443, 0.08344186842441559, -0.026075145229697227, -5.4800225E-4, 0.014940493, 0.33426952
530, 27879822, -0.4515129625797272, 0.08236198127269745, -0.025708455592393875, 1.5736709E-5, 0.0050219344, 0.3577261
531, 27896489, -0.45137786865234375, 0.08201958239078522, -0.025449346750974655, -0.0035450181, -0.0016111303, 0.33502102
532, 27913156, -0.4514365494251251, 0.08234582096338272, -0.025392696261405945, 0.005648195, 0.009064459, 0.335433
533, 27929823, -0.4506654441356659, 0.0821790099143982, -0.02462916634976864, 0.016323736, -0.0073039355, 0.35788918
534, 27946490, -0.4505217969417572, 0.0822521522641182, -0.023401955142617226, 0.019589577, 0.014365565, 0.34276295
535, 27963157, -0.44985634088516235, 0.08119731396436691, -0.023221245035529137, 0.019932544, 0.011651167, 0.3519106
536, 27979824, -0.4491419792175293, 0.0819733589887619, -0.023406829684972763, 0.009152112, -0.0139728915, 0.32863235
537, 27996491, -0.44812923669815063, 0.08092636615037918, -0.02400161325931549, 0.013708506, -0.0172547, 0.3638525
538, 28013158, -0.44831013679504395, 0.08112925291061401, -0.024006502702832222, -0.005475481, -1.9560877E-4, 0.35798073
539, 28029825, -0.44738802313804626, 0.08103840798139572, -0.023200929164886475, 0.0076939017, -0.011741548, 0.32465553
540, 28046492, -0.4468912184238434, 0.08170387148857117, -0.022249480709433556, 0.011465699, -3.30876E-4, 0.35195637
541, 28063159, -0.44678717851638794, 0.08232642710208893, -0.021602561697363853, 0.00254242, 0.004598028, 0.33491707
542, 28079826, -0.4460116922855377, 0.0820830836892128, -0.02127566933631897, 0.004756188, 0.012757175, 0.3582306
543, 28096493, -0.44582775235176086, 0.08072424679994583, -0.020271331071853638, 0.008781467, -0.0032778105, 0.35421276
544, 28113160, -0.44594284892082214, 0.08113329857587814, -0.020079998299479485, 9.313606E-4, -0.010273434, 0.35156155
545, 28129827, -0.4464329779148102, 0.08110910654067993, -0.020130086690187454, 0.0051276013, 0.0046009338, 0.3381462
546, 28146494, -0.44603827595710754, 0.0818074569106102, -0.020614763721823692, 0.011948868, 0.0010725863, 0.34813118
547, 28163161, -0.4453371465206146, 0.08134130388498306, -0.021176880225539207, 0.0087568145, 0.0070997947, 0.3585291
548, 28179828, -0.4456495940685272, 0.08160620927810669, -0.021195488050580025, 0.0025596207, 0.0010215101, 0.3532896
549, 28196495, -0.4462345242500305, 0.08282607793807983, -0.021218717098236084, -0.0011464512, 0.0032198858, 0.3541336
550, 28213162, -0.44530054926872253, 0.08272335678339005, -0.021060960367321968, 0.00848324, 0.011818164, 0.33996677
551, 28229829, -0.44578638672828674, 0.0826844722032547, -0.020957965403795242, 0.005899884, -0.0073909624, 0.3417225
552, 28246496, -0.44465795159339905, 0.08306378126144409, -0.021679451689124107, -0.0055629876, 0.008820907, 0.36374092
553, 28263163, -0.4440716505050659, 0.08275331556797028, -0.02214607410132885, -0.007633473, -0.0014369474, 0.35939884
554, 28279830, -0.44457629323005676, 0.08291337639093399, -0.021919390186667442, 0.01567088, 8.963289E-4, 0.34134197
555, 28296497, -0.4439690411090851, 0.08189284801483154, -0.021889030933380127, 0.014918362, -0.002228742, 0.3363514
556, 28313164, -0.4442455768585205, 0.08193626254796982, -0.01972447708249092, -0.0033224686, 0.010772159, 0.34533024
557, 28329831, -0.44430965185165405, 0.08273656666278839, -0.018835052847862244, 0.013292975, -0.0071971207, 0.34964657
558, 28346498, -0.44432875514030457, 0.08353925496339798, -0.018276967108249664, 0.0038202014, -0.0077388915, 0.35075092
559, 28363165, -0.44467172026634216, 0.08323805034160614, -0.018924780189990997, 0.007954516, -0.009203907, 0.34925938
560, 28379832, -0.44456619024276733, 0.0814899429678917, -0.017809394747018814, -0.005251139, -0.0050905216, 0.3418932
561, 28396499, -0.4436071217060089, 0.08152461051940918, -0.01672026887536049, 0.02244996, 0.008622812, 0.35295868
562, 28413166, -0.44356241822242737, 0.08249219506978989, -0.01600288413465023, 0.015983278, -0.004907374, 0.34313774
563, 28429833, -0.44276660680770874, 0.08244774490594864, -0.015633348375558853, 0.009613468, -0.009577558, 0.34859657
564, 28446500, -0.4422993063926697, 0.08224156498908997, -0.01589592546224594, 0.009412029, -0.004772099, 0.36484337
565, 28463167, -0.4422718286514282, 0.08098495751619339, -0.016474774107336998, 0.014382828, -0.0013040269, 0.34229565
566, 28479834, -0.4418625831604004, 0.08052805066108704, -0.016188042238354683, -0.0049296664, 0.004989735, 0.341259
567, 28496501, -0.44200342893600464, 0.08084721863269806, -0.016514403745532036, -0.0064873993, 0.004039574, 0.331275
568, 28513168, -0.4424566328525543, 0.08026448637247086, -0.018038848415017128, -0.00571485, -0.0033721365, 0.3408308
569, 28529835, -0.44257599115371704, 0.07878632843494415, -0.017823029309511185, 0.0026798772, -0.005395313, 0.35729408
570, 28546502, -0.44230228662490845, 0.07870066165924072, -0.01766802743077278, -0.001977695, -0.0044382303, 0.3726902
571, 28563169, -0.441343754529953, 0.07788551598787308, -0.017611637711524963, 0.014312961, 0.010990109, 0.36018753
572, 28579836, -0.4408611059188843, 0.07918570935726166, -0.017935842275619507, 0.0011990715, -0.00910209, 0.35294056
573, 28596503, -0.4405766725540161, 0.07820979505777359, -0.01633756048977375, 0.0061597377, 0.005131756, 0.3693781
574, 28613170, -0.4408382773399353, 0.07725159078836441, -0.015327991917729378, -0.0010382788, 0.0028413, 0.35873604
575, 28629837, -0.441354900598526, 0.07805930823087692, -0.01536277960985899, 0.014565242, -0.0054879906, 0.35970497
576, 28646504, -0.44054967164993286, 0.07711393386125565, -0.015761394053697586, 0.02060403, -0.013855097, 0.36259174
577, 28663171, -0.4398765563964844, 0.0772385448217392, -0.01630520075559616, -0.0025760746, 0.0037499117, 0.3598032
578, 28679838, -0.439619779586792, 0.07715120911598206, -0.015095338225364685, 2.0582619E-4, 0.0072927144, 0.36083412
579, 28696505, -0.43941372632980347, 0.07632439583539963, -0.015566879883408546, 0.008971052, -0.02348427, 0.35459328
580, 28713172, -0.4391750991344452, 0.07587959617376328, -0.014545601792633533, 0.02190208, -0.008743676, 0.35690022
581, 28729839, -0.4391156733036041, 0.07653467357158661, -0.014018721878528595, 0.00448742, 8.4782654E-4, 0.35336208
582, 28746506, -0.4401262700557709, 0.07653475552797318, -0.01378850918263197, 0.006327228, 9.6526164E-5, 0.3426466
583, 28763173, -0.43922585248947144, 0.07654593139886856, -0.013295465148985386, 0.005453531, -0.002798253, 0.35818863
584, 28779840, -0.44012609124183655, 0.07700418680906296, -0.013453948311507702, -0.011817054, -0.007944387, 0.37575245
585, 28796507, -0.43965238332748413, 0.07862497121095657, -0.013965743593871593, 0.008818114, 0.004826333, 0.36106205
586, 28813174, -0.4400070011615753, 0.07881537824869156, -0.014400134794414043, 0.008502333, -0.008458725, 0.37169647
587, 28829841, -0.4405965805053711, 0.07696010917425156, -0.014939014799892902, 0.008824558, -0.007208415, 0.35260963
588, 28846508, -0.44204047322273254, 0.0771067887544632, -0.0147884301841259, -0.006422787, 0.01104096, 0.36634636
589, 28863175, -0.4414258599281311, 0.07622595876455307, -0.014241271652281284, 0.013441324, 0.013343327, 0.36144924
590, 28879842, -0.44144392013549805, 0.07600001245737076, -0.01471551414579153, 0.003988706, -3.7446103E-4, 0.35454273
591, 28896509, -0.4421581029891968, 0.07604140043258667, -0.014376017265021801, 0.0011375854, -0.0045304014, 0.3609724
592, 28913176, -0.44301167130470276, 0.07705434411764145, -0.014876488596200943, -0.007561728, -0.009204529, 0.3382702
593, 28929843, -0.44224005937576294, 0.07767869532108307, -0.015057702548801899, 0.018257746, 0.004267767, 0.3505497
594, 28946510, -0.4414271414279938, 0.07857521623373032, -0.015070840716362, -0.002031226, 0.0013525048, 0.32676888
595, 28963177, -0.44067245721817017, 0.07868781685829163, -0.014713714830577374, 0.0038949568, -0.013139831, 0.33669662
596, 28979844, -0.4401639997959137, 0.08062221109867096, -0.014547177590429783, 0.012292736, -0.0050339377, 0.3550558
597, 28996511, -0.4410563111305237, 0.08118925988674164, -0.01371492724865675, 0.0022334869, -0.012547197, 0.35678387
598, 29013178, -0.4414794445037842, 0.08104925602674484, -0.01420177798718214, -0.014832105, 0.013142583, 0.3697424
599, 29029845, -0.4415602684020996, 0.08139651268720627, -0.013387284241616726, 0.00933669, -0.0030308706, 0.3577509
600, 29046512, -0.4468677043914795, 0.07650847733020782, -0.01936952956020832, 0.016657494, -7.8288204E-4, 0.34942818
601, 29063179, -0.44628554582595825, 0.07695101201534271, -0.01907998137176037, 0.002843366, -0.0028809074, 0.33266258
602, 29079846, -0.4466383755207062, 0.07545317709445953, -0.017845874652266502, 0.007641744, 0.0010423736, 0.3685999
603, 29096513, -0.44629809260368347, 0.07457392662763596, -0.017568128183484077, 0.0022837017, 0.010143915, 0.3259163
604, 29113180, -0.4465031623840332, 0.07458189874887466, -0.018315769731998444, 1.2070311E-4, 0.0065406, 0.34248066
605, 29129847, -0.4457475543022156, 0.0751582458615303, -0.019258610904216766, 0.01163035, 9.465564E-4, 0.3496542
606, 29146514, -0.44499149918556213, 0.07436000555753708, -0.019295038655400276, 0.0039878474, -0.0038751245, 0.33799458
607, 29163181, -0.4443802535533905, 0.0733800083398819, -0.019650278612971306, -0.0077442103, 0.0049563334, 0.33836174
608, 29179848, -0.4453766644001007, 0.0731983408331871, -0.01931268908083439, 0.014014533, -0.0046960805, 0.33480263
609, 29196515, -0.44416242837905884, 0.07359538227319717, -0.019902428612113, 9.30236E-4, -0.0022424008, 0.33781242
610, 29213182, -0.44365283846855164, 0.07293958961963654, -0.020149489864706993, 0.0022244577, -0.0054732803, 0.3755846
611, 29229849, -0.44399458169937134, 0.07300283014774323, -0.01996683143079281, 8.401651E-4, -0.003678681, 0.3566475
612, 29246516, -0.44414836168289185, 0.07260636240243912, -0.01983218640089035, -0.0070291813, 0.0031959908, 0.33936596
613, 29263183, -0.4437224566936493, 0.07394003123044968, -0.02042359858751297, 0.0047199153, 6.9981907E-4, 0.34838963
614, 29279850, -0.44270774722099304, 0.07460268586874008, -0.019571693614125252, -0.015026116, -0.013151079, 0.36421776
615, 29296517, -0.4423796832561493, 0.07443048059940338, -0.021020231768488884, 0.002368789, 0.002139756, 0.34135628
616, 29313184, -0.44165241718292236, 0.07502827048301697, -0.02160094864666462, 0.005910337, 0.0024594737, 0.34879398
617, 29329851, -0.4421120882034302, 0.07474403828382492, -0.022990098223090172, -0.006942066, 8.05862E-4, 0.3563757
618, 29346518, -0.4417901933193207, 0.07440481334924698, -0.022349927574396133, -0.004242603, -0.0020988146, 0.3374939
619, 29363185, -0.4420253336429596, 0.07551991194486618, -0.022556772455573082, -0.0092170825, -0.005756936, 0.36327076
620, 29379852, -0.4413503408432007, 0.0746752917766571, -0.022044705227017403, 0.006712184, -0.010911871, 0.3343296
621, 29396519, -0.44064009189605713, 0.07350841164588928, -0.022610453888773918, -0.00886221, -2.775158E-4, 0.35537815
622, 29413186, -0.4405338168144226, 0.07359666377305984, -0.02169511653482914, 0.0022298566, 4.5580926E-4, 0.3425665
623, 29429853, -0.4401479959487915, 0.07455483078956604, -0.022796975448727608, 0.012916752, -0.00679347, 0.3585329
624, 29446520, -0.4404306709766388, 0.07660743594169617, -0.022411685436964035, 0.008535139, -0.005044963, 0.3807373
625, 29463187, -0.44044768810272217, 0.0747283473610878, -0.022328682243824005, -0.004709967, -4.8543172E-4, 0.35070896
626, 29479854, -0.43976956605911255, 0.07524534314870834, -0.020618563517928123, 0.010029269, 9.239816E-4, 0.34918976
627, 29496521, -0.4395543038845062, 0.07523393630981445, -0.020287107676267624, -5.4498395E-4, 0.012999669, 0.36090088
628, 29513188, -0.4395049214363098, 0.07467430830001831, -0.01937849633395672, -8.3984644E-4, 0.0057890764, 0.35225868
629, 29529855, -0.4391903877258301, 0.07560782879590988, -0.019936509430408478, -3.3603818E-4, 0.00478624, 0.35976887
630, 29546522, -0.43995511531829834, 0.07488060742616653, -0.01984316296875477, 0.0077543985, -0.015445636, 0.3407297
631, 29563189, -0.43888741731643677, 0.07494684308767319, -0.01904303766787052, -0.0040264404, 0.017112145, 0.3233595
632, 29579856, -0.43914446234703064, 0.07503797113895416, -0.018168510869145393, 0.0011272199, 0.0017149975, 0.33782005
633, 29596523, -0.4401778280735016, 0.07569332420825958, -0.01736830174922943, -0.012931178, -0.0014416516, 0.36973572
634, 29613190, -0.4411165416240692, 0.0762462243437767, -0.016290221363306046, 2.7563688E-4, -0.0037490248, 0.35234356
635, 29629857, -0.4417564570903778, 0.07653618603944778, -0.015461258590221405, 0.00273756, 0.0024566937, 0.34297943
636, 29646524, -0.4417809844017029, 0.07666940242052078, -0.01555547397583723, -2.4568963E-6, 4.8496373E-4, 0.36326218
637, 29663191, -0.44098272919654846, 0.07541552931070328, -0.016215188428759575, 4.8780435E-4, -0.0066289543, 0.3473158
638, 29679858, -0.440355509519577, 0.07626241445541382, -0.017097631469368935, 0.01103543, 0.0030349637, 0.34946918
639, 29696525, -0.4412718415260315, 0.07816838473081589, -0.017545031383633614, 0.0018800294, -0.013143537, 0.34975052
640, 29713192, -0.4413718581199646, 0.07879457622766495, -0.019286513328552246, 0.008163718, 0.008556628, 0.35990047
641, 29729859, -0.441430926322937, 0.08020523190498352, -0.019718976691365242, 0.012257256, -0.0064272303, 0.3491001
642, 29746526, -0.4406416416168213, 0.08061533421278, -0.01914084516465664, -0.0019440419, 0.0026549916, 0.3394766
643, 29763193, -0.44164812564849854, 0.08138831704854965, -0.01798064261674881, 0.0090133, -2.5109586E-4, 0.33134937
644, 29779860, -0.44195327162742615, 0.08163352310657501, -0.01871960051357746, -0.0032702612, 0.007238764, 0.3524046
645, 29796527, -0.4423833191394806, 0.080513134598732, -0.018510179594159126, 0.009562911, 4.7431196E-4, 0.3749218
646, 29813194, -0.44256457686424255, 0.08160112053155899, -0.018105965107679367, -8.4213656E-4, -0.006254193, 0.35651112
647, 29829861, -0.4426298141479492, 0.08264632523059845, -0.018429409712553024, 0.00940539, 0.001147037, 0.34326172
648, 29846528, -0.44244951009750366, 0.08119705319404602, -0.01780051924288273, 0.0063296896, 0.009549022, 0.3492031
649, 29863195, -0.44200387597084045, 0.08116436004638672, -0.01790197752416134, 0.0078856535, 0.003241776, 0.34802532
650, 29879862, -0.4420820474624634, 0.0812661349773407, -0.01709074340760708, 6.907607E-4, 0.0066167554, 0.377347
651, 29896529, -0.4420957863330841, 0.08171141147613525, -0.017986992374062538, 0.008250288, -0.0032073096, 0.3456993
652, 29913196, -0.442171573638916, 0.08257323503494263, -0.02075020782649517, 0.004032061, 0.0013442662, 0.3682642
653, 29929863, -0.44154492020606995, 0.08079323172569275, -0.019717179238796234, -0.011358928, -7.1107503E-4, 0.3650627
654, 29946530, -0.4405781924724579, 0.08075407147407532, -0.01943899318575859, 0.0060046297, -0.019343538, 0.34595776
655, 29963197, -0.44073113799095154, 0.08064885437488556, -0.019841132685542107, 0.0074294694, 7.815445E-4, 0.33215714
656, 29979864, -0.4405089318752289, 0.08220142871141434, -0.019639350473880768, 0.0033572707, -0.0012385552, 0.37179184
657, 29996531, -0.4407499432563782, 0.08199658989906311, -0.020003240555524826, 0.008641387, 0.0030841995, 0.35467815
658, 30013198, -0.4409538507461548, 0.08264767378568649, -0.019592920318245888, 0.011166067, 0.0053948797, 0.33952904
659, 30029865, -0.4410727024078369, 0.08158107846975327, -0.019271453842520714, 0.01749223, 0.0014805952, 0.3520422
660, 30046532, -0.4417182505130768, 0.0807555615901947, -0.019213877618312836, 0.011712285, -0.013078403, 0.3467722
661, 30063199, -0.4422778785228729, 0.07998082786798477, -0.01843925379216671, -0.005702021, 0.015168127, 0.35168076
662, 30079866, -0.44245219230651855, 0.07867385447025299, -0.018593624234199524, -0.0028439478, 0.0077134497, 0.3396721
663, 30096533, -0.4423670470714569, 0.07853306829929352, -0.018564552068710327, 0.007951433, -3.8766226E-4, 0.3373804
664, 30113200, -0.44261860847473145, 0.07847670465707779, -0.01758250966668129, 0.015877973, -0.0027550906, 0.3600731
665, 30129867, -0.4427088499069214, 0.07814423739910126, -0.01664397306740284, 0.0038874713, 0.01714818, 0.3367977
666, 30146534, -0.4420650899410248, 0.07941359281539917, -0.015026328153908253, 0.0023066357, -0.005772997, 0.3535738
667, 30163201, -0.442525714635849, 0.07716537266969681, -0.015031106770038605, 0.0044230446, 0.002463745, 0.36200428
668, 30179868, -0.4420051574707031, 0.07649911940097809, -0.015106233768165112, 0.0019669458, -0.0037115235, 0.32830143
669, 30196535, -0.4425155222415924, 0.07754283398389816, -0.013438615947961807, 0.008428887, 0.009536261, 0.35218334
670, 30213202, -0.4408472180366516, 0.0779673308134079, -0.01323377899825573, -5.9833983E-4, -0.0068274545, 0.34455204
671, 30229869, -0.4409330189228058, 0.07920847088098526, -0.011810356751084328, 0.005608354, -0.004472543, 0.34807873
672, 30246536, -0.44010841846466064, 0.07886127382516861, -0.011337698437273502, -0.013306789, 0.0014838187, 0.35049057
673, 30263203, -0.44057273864746094, 0.0795711949467659, -0.011543015018105507, 7.621176E-4, -2.987111E-4, 0.34874249
674, 30279870, -0.44065895676612854, 0.07982009649276733, -0.011742892675101757, -0.009168957, -0.00910312, 0.36481094
675, 30296537, -0.44136524200439453, 0.08005337417125702, -0.01303109247237444, 0.011223544, -0.001485736, 0.3479538
676, 30313204, -0.44011417031288147, 0.08005574345588684, -0.0124571043998003, -0.0058442294, -2.5565343E-4, 0.35024834
677, 30329871, -0.4389851689338684, 0.08063004910945892, -0.011866462416946888, 0.005072344, -0.015206243, 0.36622047
678, 30346538, -0.43865036964416504, 0.0798688754439354, -0.011819500476121902, 0.0062661944, -0.0053888136, 0.35279465
679, 30363205, -0.4397366940975189, 0.08077871799468994, -0.010561265051364899, 0.013211609, -0.0041130716, 0.3703699
680, 30379872, -0.4400593340396881, 0.08164560049772263, -0.011090739630162716, 0.011125672, 0.015578439, 0.3614893
681, 30396539, -0.4402099847793579, 0.0808497965335846, -0.0102723753079772, 0.014768269, -0.010799063, 0.33102703
682, 30413206, -0.4407338500022888, 0.0822458565235138, -0.01054492685943842, 0.007280576, -0.0062441872, 0.36259365
683, 30429873, -0.4393519163131714, 0.08262132108211517, -0.01055359560996294, 0.004722419, 0.014169262, 0.35322762
684, 30446540, -0.4404957890510559, 0.08123870193958282, -0.012050680816173553, -0.0020989534, 0.002683975, 0.3470354
685, 30463207, -0.44041842222213745, 0.08086730539798737, -0.012280097231268883, 0.0012207387, -0.0024027503, 0.35730362
686, 30479874, -0.44133010506629944, 0.08091790974140167, -0.011216766200959682, 0.00237207, 0.0041325483, 0.3472023
687, 30496541, -0.4414513111114502, 0.08070535957813263, -0.009762052446603775, 0.005833836, 0.0029943087, 0.3893299
688, 30513208, -0.4419107437133789, 0.08015953004360199, -0.009511156938970089, 0.0059248777, 0.0025430815, 0.34884357
689, 30529875, -0.44265609979629517, 0.08047868311405182, -0.00982715468853712, 0.013382808, -0.008245253, 0.36921024
690, 30546542, -0.4428923726081848, 0.08059940487146378, -0.008864976465702057, 0.010689006, -0.009416776, 0.35913467
691, 30563209, -0.4425041377544403, 0.07975216954946518, -0.007508575916290283, 0.007975545, 0.0038736856, 0.34774876
692, 30579876, -0.4414123594760895, 0.07911147177219391, -0.008098999038338661, 0.015179837, -0.004164605, 0.36290073
693, 30596543, -0.4423501789569855, 0.07825156301259995, -0.008316176943480968, -5.3065206E-4, -0.025821837, 0.34108734
694, 30613210, -0.44193676114082336, 0.07768800109624863, -0.009408258832991123, 0.0026502127, 0.0023929996, 0.34386826
695, 30629877, -0.4423105716705322, 0.07848607748746872, -0.009663387201726437, -0.014721337, 0.0029650845, 0.34743404
696, 30646544, -0.44158053398132324, 0.08029287308454514, -0.009398137219250202, 0.012083311, -0.004106918, 0.35262775
697, 30663211, -0.44189712405204773, 0.08050578832626343, -0.008811047300696373, -0.0024018118, -0.0063100816, 0.33199215
698, 30679878, -0.44155582785606384, 0.07942444831132889, -0.007487491704523563, 0.004094191, 0.00899764, 0.3402815
699, 30696545, -0.4429766535758972, 0.07905752956867218, -0.007961969822645187, 0.008224459, -0.009266306, 0.36677837
700, 30713212, -0.4431547522544861, 0.07801786810159683, -0.008790550753474236, -7.5205084E-4, 0.019024486, 0.34400654
701, 30729879, -0.4434320628643036, 0.07723204046487808, -0.008594285696744919, 0.008443984, -0.012631328, 0.35232544
702, 30746546, -0.4435865581035614, 0.07696796208620071, -0.00909996498376131, 0.013650533, -0.0042442423, 0.3322792
703, 30763213, -0.4430712163448334, 0.0768245980143547, -0.009755359962582588, 0.010880441, 0.005835078, 0.35380745
704, 30779880, -0.4436497688293457, 0.07613596320152283, -0.010346568189561367, -0.0021259217, 0.003445379, 0.36019707
705, 30796547, -0.4430578351020813, 0.0762573629617691, -0.01041190605610609, 0.009199668, -0.005386715, 0.3589239
706, 30813214, -0.4438246786594391, 0.07555929571390152, -0.00957280769944191, 0.001110996, 0.0064352, 0.35781193
707, 30829881, -0.4438799023628235, 0.07483076304197311, -0.00861617736518383, 0.011792453, -0.0013245064, 0.36825562
708, 30846548, -0.4438216984272003, 0.07431581616401672, -0.008303903974592686, 0.008274878, 0.010576363, 0.34924316
709, 30863215, -0.4435526430606842, 0.07437737286090851, -0.008103751577436924, -0.007726474, -0.011266547, 0.3656931
710, 30879882, -0.44309958815574646, 0.07360811531543732, -0.00813268218189478, 4.1335708E-4, -0.0107152285, 0.3521948
711, 30896549, -0.4426479637622833, 0.07352299988269806, -0.008960197679698467, -4.886644E-4, -0.0010219152, 0.35908794
712, 30913216, -0.44325077533721924, 0.07384093105792999, -0.009888961911201477, 0.009281407, -0.0077225855, 0.343894
713, 30929883, -0.44432199001312256, 0.07436809688806534, -0.010756222531199455, 0.011952349, -0.00392948, 0.37435818
714, 30946550, -0.4440755546092987, 0.07508550584316254, -0.010512673296034336, -0.0074822567, -0.0072759124, 0.34532833
715, 30963217, -0.44396570324897766, 0.07444339990615845, -0.010275200940668583, -0.0068297437, 0.0048520225, 0.3270769
716, 30979884, -0.44349995255470276, 0.0747687965631485, -0.010544794611632824, -0.012829477, 0.008417072, 0.37093258
717, 30996551, -0.44433730840682983, 0.07511550933122635, -0.010317791253328323, 0.008068463, -0.002671839, 0.3600664
718, 31013218, -0.44577354192733765, 0.07575958967208862, -0.009071392938494682, 0.005639018, 0.009187346, 0.3514681
719, 31029885, -0.44645944237709045, 0.07524093985557556, -0.008963435888290405, 0.017885713, -0.004787019, 0.36559105
720, 31046552, -0.44784724712371826, 0.07586848735809326, -0.011214773170650005, -0.0036755186, -0.0055546286, 0.33151054
721, 31063219, -0.4465515911579132, 0.07629839330911636, -0.01214692834764719, 0.0010529415, 0.015423199, 0.34844685
722, 31079886, -0.4477074444293976, 0.07675354927778244, -0.011785716749727726, -0.009992726, -0.0019515544, 0.33758926
723, 31096553, -0.44819286465644836, 0.07554584741592407, -0.010646089911460876, 0.002381626, -0.0023427126, 0.36873722
724, 31113220, -0.4506237506866455, 0.07553473114967346, -0.009866318665444851, 0.003013269, -0.0069686836, 0.35198784
725, 31129887, -0.4517293870449066, 0.07482968270778656, -0.0100651690736413, 0.008089245, -0.0127177825, 0.3552065
726, 31146554, -0.4508863091468811, 0.0760488286614418, -0.009782353416085243, -0.0012213992, -0.004401305, 0.34711075
727, 31163221, -0.45048800110816956, 0.07665658742189407, -0.009861311875283718, -0.009750852, -0.012314935, 0.3387661
728, 31179888, -0.44985276460647583, 0.0756116434931755, -0.01012935396283865, 0.0028965175, -0.008377165, 0.33120823
729, 31196555, -0.4502538740634918, 0.07436640560626984, -0.009722820483148098, -2.2045145E-4, -0.0114382375, 0.34867382
730, 31213222, -0.45149147510528564, 0.07358928769826889, -0.009394400753080845, 0.0084804995, 0.0029067965, 0.33756542
731, 31229889, -0.4516296088695526, 0.07299349457025528, -0.009788000024855137, 0.004155482, -0.005443368, 0.33059883
732, 31246556, -0.45011720061302185, 0.07350243628025055, -0.010328794829547405, 0.008550101, -8.1368146E-4, 0.35050678
733, 31263223, -0.45100298523902893, 0.07347909361124039, -0.011076631024479866, 0.0010840601, -0.0071894373, 0.340477
734, 31279890, -0.4511585533618927, 0.07264897972345352, -0.011437968350946903, 0.0011748221, 0.009830411, 0.36188698
735, 31296557, -0.4507058262825012, 0.0719701275229454, -0.01356781367212534, -0.001609873, 0.0046639997, 0.33851147
736, 31313224, -0.4501889646053314, 0.07215610146522522, -0.013378179632127285, 0.009280102, -0.0012768352, 0.34757423
737, 31329891, -0.450042724609375, 0.07153452187776566, -0.01517730113118887, 0.017315367, -0.012625597, 0.3629532
738, 31346558, -0.4495866298675537, 0.07354332506656647, -0.015613701194524765, 0.005617212, -0.014724835, 0.3454771
739, 31363225, -0.4495084583759308, 0.07340782135725021, -0.0159680787473917, 0.011466379, 0.007644171, 0.34674644
740, 31379892, -0.4493737816810608, 0.07328619062900543, -0.015043750405311584, 0.008342965, -0.0038722432, 0.32783604
741, 31396559, -0.449942409992218, 0.07229118049144745, -0.014711585827171803, 0.0032855468, 0.0039217896, 0.34496593
742, 31413226, -0.4496918022632599, 0.07328933477401733, -0.01462524477392435, -0.0030982855, 0.007986547, 0.3477049
743, 31429893, -0.45170238614082336, 0.07354319095611572, -0.01443434413522482, 0.02202998, -0.003442826, 0.33642864
744, 31446560, -0.45182037353515625, 0.07361748069524765, -0.01584349200129509, 0.011153104, -0.0022239294, 0.36978245
745, 31463227, -0.4526383876800537, 0.07284080982208252, -0.015784557908773422, -2.7545352E-4, -0.00441853, 0.33017445
746, 31479894, -0.45224300026893616, 0.07268267124891281, -0.014949451200664043, 0.007490627, 0.005104404, 0.3590765
747, 31496561, -0.45288294553756714, 0.07141782343387604, -0.01581057719886303, -0.0028594118, -9.2101305E-5, 0.3590088
748, 31513228, -0.4526200592517853, 0.07061019539833069, -0.016319239512085915, 0.011378949, -0.0061758584, 0.36405468
749, 31529895, -0.4530216455459595, 0.06993766129016876, -0.01720733568072319, 0.0052278433, -0.013345093, 0.36313343
750, 31546562, -0.45244625210762024, 0.06894426792860031, -0.017185067757964134, -0.008422522, 0.0010870204, 0.32849693
751, 31563229, -0.45232725143432617, 0.0710211917757988, -0.01769549585878849, 0.009613263, 0.0057905503, 0.3376274
752, 31579896, -0.45254844427108765, 0.0709405392408371, -0.017372893169522285, -0.007961574, 0.007936153, 0.34506416
753, 31596563, -0.45170748233795166, 0.07100097090005875, -0.01734570600092411, 0.003179771, 0.009134174, 0.32873917
754, 31613230, -0.4514100253582001, 0.07163049280643463, -0.019157277420163155, -0.0024808624, -0.0037845178, 0.35500526
755, 31629897, -0.4514963626861572, 0.07219479233026505, -0.01984892599284649, 0.006893517, 0.0061041424, 0.34166145
756, 31646564, -0.45109686255455017, 0.07098177820444107, -0.020444516092538834, 0.00420449, -0.0130525315, 0.34389782
757, 31663231, -0.45121467113494873, 0.07092303782701492, -0.021674059331417084, 0.0061365436, 0.009255441, 0.3474083
758, 31679898, -0.4524840712547302, 0.07135344296693802, -0.021125566214323044, -0.005993927, 0.003017533, 0.35180092
759, 31696565, -0.4524974822998047, 0.07110816985368729, -0.0204264298081398, 0.0062615965, 0.017946849, 0.35532284
760, 31713232, -0.4528450667858124, 0.07092857360839844, -0.021603424102067947, -0.0071754525, 7.906177E-4, 0.35934544
761, 31729899, -0.45205485820770264, 0.06961594521999359, -0.023231763392686844, 0.012903915, -0.0040654354, 0.36296463
762, 31746566, -0.4526636302471161, 0.07007818669080734, -0.023585595190525055, 0.0112394625, 0.008665936, 0.37293148
763, 31763233, -0.4526307284832001, 0.07061422616243362, -0.024270670488476753, 0.0064530256, -0.009009887, 0.3456831
764, 31779900, -0.45263567566871643, 0.07076502591371536, -0.02413938008248806, 0.01580092, 0.007294527, 0.331954
765, 31796567, -0.45172300934791565, 0.07013223320245743, -0.024201009422540665, 0.010756656, 0.005830035, 0.34493923
766, 31813234, -0.45110437273979187, 0.06993430107831955, -0.025010326877236366, 0.013165952, -0.00927636, 0.35879898
767, 31829901, -0.4465305209159851, 0.06285102665424347, -0.024039700627326965, -0.020729216, -0.0407491, 0.29627895
768, 31846568, -0.37800267338752747, -0.004257967695593834, -0.02443796955049038, 0.0343914, 0.03205055, 0.3610115
769, 31863235, -0.37026330828666687, -0.01930863969027996, -0.0262265857309103, 0.0068919268, 0.0052910475, 0.33224106
770, 31879902, -0.35322126746177673, -0.034967076033353806, -0.02519088052213192, 0.029546691, -0.0064869607, 0.33651066
771, 31896569, -0.32494989037513733, -0.069602370262146, -0.00387552659958601, 0.10144819, 0.011676581, 0.3561039
772, 31913236, -0.3544359505176544, -0.08492695540189743, 0.049310844391584396, 0.3062808, -0.01305338, 0.37905598
773, 31929903, -0.45042553544044495, -0.09951899945735931, 0.08520203083753586, 0.027978446, -0.033061344, 0.34334373
774, 31946570, -0.4959470331668854, -0.13326328992843628, 0.08621746301651001, -0.08450895, 0.021040373, 0.3459854
775, 31963237, -0.5698819160461426, -0.1911224126815796, 0.19575147330760956, 0.20683572, 0.096437134, 0.37389565
776, 31979904, -0.6242452263832092, -0.19877301156520844, 0.34853073954582214, -0.36862826, -0.00845004, 0.34631062
777, 31996571, -0.6570524573326111, -0.18443867564201355, 0.42118752002716064, 0.14072783, 0.004357647, 0.37982464
778, 32013238, -0.6929142475128174, -0.18846021592617035, 0.5331055521965027, 0.098344184, -0.0026273879, 0.34672928
779, 32029905, -0.715061604976654, -0.18846255540847778, 0.641114354133606, -0.057175424, 0.011597766, 0.3419218
780, 32046572, -0.7349853515625, -0.1808364987373352, 0.7630445957183838, 0.0025738948, 0.026703157, 0.34837055
781, 32063239, -0.7400068044662476, -0.15316152572631836, 0.8449914455413818, 0.025078977, 0.0076082307, 0.33476734
782, 32079906, -0.7409820556640625, -0.1664278209209442, 0.946945309638977, 0.088577025, -0.03892423, 0.31859207
783, 32096573, -0.7418451905250549, -0.20283137261867523, 1.0512601137161255, -0.17102668, 0.005763456, 0.36793327
784, 32113240, -0.7512079477310181, -0.22056788206100464, 1.0854041576385498, -0.26510143, -0.006432158, 0.33723927
785, 32129907, -0.7514013648033142, -0.22470609843730927, 1.1277755498886108, 0.23494938, 0.014308682, 0.35949135
786, 32146574, -0.7498785257339478, -0.224160298705101, 1.1803232431411743, -0.0123759415, 0.012228331, 0.36083984
787, 32163241, -0.7605932950973511, -0.2308819591999054, 1.2358026504516602, 0.07193891, 0.03203903, 0.33274937
788, 32179908, -0.7658295631408691, -0.2605283856391907, 1.3362574577331543, 0.0056716553, 0.012238179, 0.36199188
789, 32196575, -0.7709245681762695, -0.2733505070209503, 1.3932713270187378, -0.15482314, -0.02742446, 0.33477783
790, 32213242, -0.7777128219604492, -0.2741048038005829, 1.4306507110595703, -0.03657749, 0.011656169, 0.3464098
791, 32229909, -0.7729689478874207, -0.2774745225906372, 1.4704360961914062, 0.20176996, 0.021418583, 0.34170723
792, 32246576, -0.7595005631446838, -0.28486213088035583, 1.4924203157424927, 0.09632876, -0.067156374, 0.35602856
793, 32263243, -0.749244213104248, -0.29155802726745605, 1.5019408464431763, 0.051056065, -0.045398157, 0.36481953
794, 32279910, -0.7501295804977417, -0.295055091381073, 1.5020158290863037, -0.07970634, 0.012558631, 0.32496262
795, 32296577, -0.7537165880203247, -0.2976466417312622, 1.5075457096099854, -0.042268794, 0.03011139, 0.3434372
796, 32313244, -0.7533805966377258, -0.3098665475845337, 1.5266757011413574, 0.15805554, 0.009729662, 0.33928013
797, 32329911, -0.7643751502037048, -0.32302895188331604, 1.5542018413543701, -0.03086101, 0.055757843, 0.34028053
798, 32346578, -0.7696764469146729, -0.3335634469985962, 1.5827983617782593, -0.012222894, 0.022479417, 0.3319702
799, 32363245, -0.7680387496948242, -0.33936452865600586, 1.5855344533920288, 0.085321315, -0.017620798, 0.3344164
800, 32379912, -0.762663722038269, -0.34481707215309143, 1.5901671648025513, -0.057527553, -0.05626952, 0.34239578
801, 32396579, -0.7565892934799194, -0.3576238751411438, 1.61968994140625, 0.21841848, -0.0023153985, 0.34468842
802, 32413246, -0.7607998251914978, -0.368344247341156, 1.6261029243469238, -0.058627114, 0.0014164784, 0.39020443
803, 32429913, -0.7624706029891968, -0.3732851445674896, 1.6308691501617432, -0.10223886, 0.045491274, 0.33246326
804, 32446580, -0.7640857696533203, -0.37557998299598694, 1.610068678855896, -0.036266312, 0.0028657154, 0.34937096
805, 32463247, -0.7597332000732422, -0.38095906376838684, 1.6085911989212036, 0.115498684, -0.022891834, 0.35060215
806, 32479914, -0.7521547675132751, -0.3940630853176117, 1.6046942472457886, 0.15568128, -0.0681312, 0.35094547
807, 32496581, -0.7526320219039917, -0.40640896558761597, 1.6329988241195679, 0.016214514, -0.029088108, 0.3486309
808, 32513248, -0.7534898519515991, -0.40615013241767883, 1.6133712530136108, -0.04243622, 0.034862086, 0.343956
809, 32529915, -0.7546291351318359, -0.40176311135292053, 1.578452229499817, -0.10853374, -0.008307382, 0.34612846
810, 32546582, -0.746038019657135, -0.4053642153739929, 1.5361814498901367, 0.19171739, -0.10387616, 0.34483528
811, 32563249, -0.7383664846420288, -0.41337767243385315, 1.4849578142166138, 0.12322212, -0.19402981, 0.37553692
812, 32579916, -0.7397043704986572, -0.4228931963443756, 1.437212586402893, 0.07581552, -0.025279107, 0.3362856
813, 32596583, -0.745071291923523, -0.42671123147010803, 1.4073015451431274, -0.062105674, 0.0970225, 0.3570547
814, 32613250, -0.7523269653320312, -0.43779051303863525, 1.4026470184326172, -0.14846756, 0.1126563, 0.32992554
815, 32629917, -0.7565350532531738, -0.44509175419807434, 1.3964787721633911, -0.11537914, 0.098366626, 0.32379436
816, 32646584, -0.7607876062393188, -0.4493080973625183, 1.3831697702407837, -0.12002383, 0.022515452, 0.36040497
817, 32663251, -0.7633656859397888, -0.4487358033657074, 1.368962287902832, -0.012029922, 0.034912124, 0.34470654
818, 32679918, -0.7698104977607727, -0.44750887155532837, 1.3731135129928589, -0.19811806, 0.030514859, 0.3437109
819, 32696585, -0.7737720608711243, -0.4463013708591461, 1.363175868988037, -0.034570023, 0.037119344, 0.34836578
820, 32713252, -0.7763163447380066, -0.4489373564720154, 1.364190936088562, 0.004288945, 0.011828463, 0.36291504
821, 32729919, -0.7701163291931152, -0.45105791091918945, 1.3698208332061768, 0.087570556, -0.026746497, 0.35276413
822, 32746586, -0.7636539340019226, -0.4555129110813141, 1.3724256753921509, 0.0037422879, -0.023322362, 0.35988808
823, 32763253, -0.757950484752655, -0.46671339869499207, 1.41032075881958, 0.19455111, -0.01340315, 0.35069942
824, 32779920, -0.7504995465278625, -0.47679951786994934, 1.4130022525787354, -0.015642306, -0.06946078, 0.35064697
825, 32796587, -0.7513114809989929, -0.4822527766227722, 1.4345141649246216, -0.08185417, -0.008826813, 0.34302235
826, 32813254, -0.750747799873352, -0.4921252727508545, 1.4530028104782104, 0.21648443, -0.06369823, 0.35156345
827, 32829921, -0.7529882192611694, -0.5075448155403137, 1.518297553062439, 0.12522931, -0.014142056, 0.33770847
828, 32846588, -0.7557423710823059, -0.5203827023506165, 1.5349239110946655, 0.108811416, 0.005769121, 0.36762714
829, 32863255, -0.7513474822044373, -0.5357705354690552, 1.5533194541931152, 0.09869135, 0.002320714, 0.36115456
830, 32879922, -0.7566032409667969, -0.5388067364692688, 1.5933146476745605, -0.32738847, 0.11027234, 0.31626892
831, 32896589, -0.7652994990348816, -0.528980553150177, 1.6615045070648193, -0.12786533, 0.08221846, 0.32782364
832, 32913256, -0.7738604545593262, -0.5152532458305359, 1.7394343614578247, 0.024112364, 0.0047211526, 0.36450195
833, 32929923, -0.7742268443107605, -0.5034555792808533, 1.804229497909546, 0.19026844, -0.05409786, 0.34494781
834, 32946590, -0.7695980072021484, -0.5053771734237671, 1.840619683265686, 0.23462057, -0.0951126, 0.37370014
835, 32963257, -0.7664996981620789, -0.5162950158119202, 1.8381239175796509, 0.02562942, -0.031055938, 0.34673882
836, 32979924, -0.7716202735900879, -0.5259840488433838, 1.8321470022201538, -0.13710243, 0.10074337, 0.3589611
837, 32996591, -0.7791845202445984, -0.5244539976119995, 1.7810341119766235, -0.29767147, 0.09787089, 0.32085037
838, 33013258, -0.7868161201477051, -0.5078340172767639, 1.5689500570297241, -0.49685735, -0.029796127, 0.33314705
839, 33029925, -0.7885462641716003, -0.4911700487136841, 1.2430552244186401, 0.058690086, 0.015282947, 0.36068535
840, 33046592, -0.7840357422828674, -0.4838436245918274, 1.0084893703460693, 0.3055793, -0.0044403085, 0.36584187
841, 33063259, -0.7815458178520203, -0.4786434471607208, 0.8720897436141968, 0.10093456, -0.017029235, 0.34374046
842, 33079926, -0.7819817662239075, -0.4854760766029358, 0.795608639717102, 0.043787707, 0.032489132, 0.33875751
843, 33096593, -0.7821930050849915, -0.499784916639328, 0.7428223490715027, 0.10600195, 0.018241473, 0.32371998
844, 33113260, -0.7818759679794312, -0.5051202178001404, 0.6973313689231873, -0.053675614, 0.018152196, 0.34313965
845, 33129927, -0.7713054418563843, -0.5262070298194885, 0.6672632098197937, 0.38735113, -0.121800944, 0.335783
846, 33146594, -0.7657871246337891, -0.5453422665596008, 0.680374801158905, 0.10147721, -0.11756443, 0.35926437
847, 33163261, -0.7688851356506348, -0.5539225339889526, 0.7212347388267517, 0.009636856, 0.080951855, 0.36745453
848, 33179928, -0.7708899974822998, -0.5658321976661682, 0.769991397857666, -0.0014616385, 0.10540562, 0.3553524
849, 33196595, -0.7748885750770569, -0.578311026096344, 0.8024590611457825, -0.15606984, 0.106624745, 0.33678055
850, 33213262, -0.7767074108123779, -0.5859733819961548, 0.857888400554657, -0.059456814, 0.096590176, 0.35543346
851, 33229929, -0.7737158536911011, -0.594048023223877, 0.8953881859779358, -5.266384E-4, -0.0012470067, 0.34363747
852, 33246596, -0.7680906653404236, -0.6008052825927734, 0.9004925489425659, 0.0027794815, -0.020981204, 0.3378191
853, 33263263, -0.7686577439308167, -0.6049133539199829, 0.9223662614822388, -0.0774135, 0.043635413, 0.34882164
854, 33279930, -0.7688203454017639, -0.6088896989822388, 0.907808780670166, -0.0717702, 0.008888816, 0.3794632
855, 33296597, -0.7624607682228088, -0.6181647181510925, 0.8950028419494629, 0.06003384, -0.064256325, 0.36454868
856, 33313264, -0.7512288689613342, -0.6244170069694519, 0.9003079533576965, 0.2056313, -0.12614177, 0.32367992
857, 33329931, -0.743398129940033, -0.6346682906150818, 0.9071722626686096, 0.12858723, -0.16669276, 0.34863758
858, 33346598, -0.7459636330604553, -0.634604275226593, 0.8949244618415833, -0.2193831, 0.019927459, 0.34496975
859, 33363265, -0.7478365898132324, -0.6390645503997803, 0.8689910769462585, 0.033312377, 0.029713135, 0.35424042
860, 33379932, -0.7478617429733276, -0.6438096165657043, 0.8323056697845459, -0.056661643, -0.03802439, 0.35965824
861, 33396599, -0.7437620759010315, -0.6528427004814148, 0.8029901385307312, 0.051865008, -0.08165252, 0.34810734
862, 33413266, -0.7436274886131287, -0.6595003604888916, 0.8076159358024597, -0.058055338, 0.032595225, 0.3603897
863, 33429933, -0.748199462890625, -0.673806369304657, 0.8583812117576599, -0.07377284, 0.07360794, 0.33521366
864, 33446600, -0.7542238235473633, -0.6760768294334412, 0.891303539276123, -0.23607484, 0.09955767, 0.329957
865, 33463267, -0.7637224197387695, -0.669633150100708, 0.8928730487823486, -0.1751692, 0.061915394, 0.3441124
866, 33479934, -0.765218198299408, -0.6650896668434143, 0.8804667592048645, -0.024210166, -0.015886385, 0.33607483
867, 33496601, -0.7579666376113892, -0.6677609086036682, 0.8918409943580627, 0.17032723, -0.048849296, 0.36119747
868, 33513268, -0.7532793283462524, -0.671858549118042, 0.9513867497444153, 0.14808623, -0.02109919, 0.36028576
869, 33529935, -0.7498711943626404, -0.6787346005439758, 1.1054693460464478, 0.008473376, -0.012638575, 0.36067677
870, 33546602, -0.7524702548980713, -0.6846408843994141, 1.204093098640442, -0.10001085, 0.019505573, 0.33101082
871, 33563269, -0.757595956325531, -0.6820314526557922, 1.2510288953781128, -0.15925266, 0.01958591, 0.34701824
872, 33579936, -0.7556166052818298, -0.6820163130760193, 1.2567839622497559, 0.15957291, -0.03714531, 0.35990524
873, 33596603, -0.7508786916732788, -0.68985915184021, 1.2854105234146118, 0.058402658, -0.11626616, 0.3459797
874, 33613270, -0.7497313618659973, -0.6955898404121399, 1.3285446166992188, -0.014717926, -0.011063095, 0.33963585
875, 33629937, -0.7528938055038452, -0.6968433260917664, 1.345125675201416, 0.012073234, 0.016962022, 0.33063984
876, 33646604, -0.7538350820541382, -0.6943297982215881, 1.341106653213501, -0.064821154, 0.04517222, 0.351017
877, 33663271, -0.7580463290214539, -0.6951004862785339, 1.3169559240341187, 0.017093126, 0.029471895, 0.35843658
878, 33679938, -0.7562768459320068, -0.7024394869804382, 1.314972996711731, 0.18130723, -0.052691393, 0.357831
879, 33696605, -0.7576507329940796, -0.7088619470596313, 1.3386428356170654, -0.06767005, -0.014900428, 0.34505844
880, 33713272, -0.761152982711792, -0.7120063304901123, 1.3763372898101807, -0.061783466, 0.10025676, 0.3556013
881, 33729939, -0.7658617496490479, -0.7119902968406677, 1.4117155075073242, 0.03880022, 0.06941331, 0.35479736
882, 33746606, -0.7683185338973999, -0.715449333190918, 1.5029499530792236, 0.049760006, 0.056747112, 0.34006405
883, 33763273, -0.7692028880119324, -0.7142683863639832, 1.5221940279006958, -0.076441444, -0.0154752545, 0.36026382
884, 33779940, -0.7672119736671448, -0.722011387348175, 1.5222501754760742, 0.13577974, -0.0343955, 0.34211254
885, 33796607, -0.7680884599685669, -0.7214927673339844, 1.567674160003662, -0.14912069, 0.05195816, 0.33703232
886, 33813274, -0.7686024308204651, -0.7200304269790649, 1.5966882705688477, 0.13177656, 0.043222096, 0.34949684
887, 33829941, -0.7636991143226624, -0.7202171683311462, 1.6173721551895142, 0.010910275, -0.10183609, 0.3551035
888, 33846608, -0.7614567875862122, -0.7226620316505432, 1.5856750011444092, 0.104019456, -0.044428263, 0.3636942
889, 33863275, -0.7590275406837463, -0.7234748005867004, 1.5648831129074097, -0.02388766, 0.020646883, 0.37693214
890, 33879942, -0.7636265158653259, -0.7272742986679077, 1.5856560468673706, -0.16094787, 0.076792814, 0.3519516
891, 33896609, -0.7637572288513184, -0.730593204498291, 1.5919508934020996, 0.009192292, 0.051042516, 0.34471893
892, 33913276, -0.7648412585258484, -0.7330480217933655, 1.6142377853393555, 0.023269683, -0.022275085, 0.35777378
893, 33929943, -0.7627037167549133, -0.7345300316810608, 1.6054383516311646, -0.07197601, 0.009743614, 0.3551159
894, 33946610, -0.7638692855834961, -0.7322868704795837, 1.5890798568725586, -0.0074581313, 0.0061722402, 0.341403
895, 33963277, -0.7646471858024597, -0.7342589497566223, 1.5862526893615723, 0.09208874, 0.025811346, 0.3576975
896, 33979944, -0.7639917135238647, -0.7367985844612122, 1.5947353839874268, -0.09040734, -0.041074507, 0.34994698
897, 33996611, -0.7617406845092773, -0.7367151975631714, 1.5786447525024414, -0.03841794, -0.026837934, 0.34303284
898, 34013278, -0.7561107277870178, -0.7350847721099854, 1.5728603601455688, -0.030088574, -0.03455742, 0.36351776
899, 34029945, -0.7526907920837402, -0.732052743434906, 1.5543136596679688, 0.021743432, -0.00910202, 0.3472557
900, 34046612, -0.751037061214447, -0.7344951629638672, 1.5863016843795776, 0.023948666, -0.010700704, 0.35405445
901, 34063279, -0.7522260546684265, -0.7405252456665039, 1.5909382104873657, -0.020180766, -0.011799486, 0.33957767
902, 34079946, -0.7511822581291199, -0.7423142790794373, 1.602845549583435, -0.0672017, -0.0087346835, 0.33259964
903, 34096613, -0.7519056797027588, -0.7478399276733398, 1.6139085292816162, 0.08375491, -0.01988958, 0.33673382
904, 34113280, -0.7492511868476868, -0.7489919066429138, 1.6058156490325928, 0.083045125, -0.01727457, 0.33016777
905, 34129947, -0.7488933205604553, -0.7455602288246155, 1.5967119932174683, 0.035031065, -0.017374696, 0.36396122
906, 34146614, -0.7475154995918274, -0.7444422245025635, 1.5752285718917847, 0.033463206, 0.03392735, 0.35849094
907, 34163281, -0.7488546371459961, -0.7477507591247559, 1.5579791069030762, -0.002281236, 0.02269034, 0.34762192
908, 34179948, -0.7488914728164673, -0.7517411112785339, 1.5602701902389526, 0.018396214, 0.0038876028, 0.36648273
909, 34196615, -0.7498714327812195, -0.7539819478988647, 1.5781556367874146, -0.036718942, 0.08602087, 0.35120296
910, 34213282, -0.7521525621414185, -0.7531065940856934, 1.5843632221221924, -0.044009786, 0.07433977, 0.32864285
911, 34229949, -0.7529438734054565, -0.7474592924118042, 1.5959817171096802, -0.14415702, 0.030902842, 0.34156036
912, 34246616, -0.753760039806366, -0.7358600497245789, 1.5918607711791992, -0.09879156, 0.082445495, 0.35834217
913, 34263283, -0.7476575970649719, -0.7267016768455505, 1.5870022773742676, 0.11935142, -0.041595906, 0.34977436
914, 34279950, -0.7388915419578552, -0.7231658101081848, 1.5898784399032593, 0.1726202, -0.1209784, 0.3558035
915, 34296617, -0.7334046959877014, -0.7340196967124939, 1.6361602544784546, 0.22143012, -0.11107426, 0.34334183
916, 34313284, -0.7380505204200745, -0.7439132928848267, 1.7144416570663452, -0.092836164, 0.101728454, 0.3493538
917, 34329951, -0.7424537539482117, -0.7491764426231384, 1.80298912525177, -0.08605764, 0.12007957, 0.3236208
918, 34346618, -0.7466909885406494, -0.7509586811065674, 1.9040184020996094, -0.06208045, 0.07097323, 0.33508396
919, 34363285, -0.7449369430541992, -0.7467184066772461, 1.9452272653579712, 0.0757622, -0.045105293, 0.37503815
920, 34379952, -0.7386937737464905, -0.7405065298080444, 1.9344357252120972, 0.14202122, -0.16253863, 0.36198616
921, 34396619, -0.733454167842865, -0.7370220422744751, 1.9112675189971924, 0.027634716, -0.013399203, 0.3518219
922, 34413286, -0.7345262169837952, -0.7315285205841064, 1.887181043624878, -0.0232105, 0.055462703, 0.3314476
923, 34429953, -0.7349258065223694, -0.7318699359893799, 1.8634124994277954, -0.072199084, 0.08286284, 0.34800243
924, 34446620, -0.7369797825813293, -0.7341777086257935, 1.8401687145233154, -0.026066637, 0.047146194, 0.33590508
925, 34463287, -0.730198323726654, -0.7409434914588928, 1.8317419290542603, 0.12357942, -0.071063474, 0.35423756
926, 34479954, -0.7262598276138306, -0.7395450472831726, 1.8322876691818237, 0.043268915, -0.05845248, 0.34125996
927, 34496621, -0.7202942967414856, -0.740789532661438, 1.7960503101348877, 0.19789247, -0.14346237, 0.36879635
928, 34513288, -0.7230054140090942, -0.7403467297554016, 1.777608036994934, -0.22116506, 0.09219763, 0.3108158
929, 34529955, -0.7226463556289673, -0.7366334199905396, 1.7402973175048828, -0.07535271, 0.06907594, 0.35773468
930, 34546622, -0.7229418158531189, -0.7291496992111206, 1.735529899597168, -0.11352402, 0.08874933, 0.34417439
931, 34563289, -0.7206184267997742, -0.7247747778892517, 1.7285311222076416, 0.16448808, -0.03647014, 0.34956264
932, 34579956, -0.7201756834983826, -0.726080060005188, 1.7401440143585205, -0.12803808, -4.2642778E-4, 0.35193253
933, 34596623, -0.7166961431503296, -0.7262154817581177, 1.7358628511428833, 0.013181823, 0.037290994, 0.35237503
934, 34613290, -0.7135671973228455, -0.7194084525108337, 1.7027748823165894, -0.111090675, -0.014945543, 0.34181404
935, 34629957, -0.7087986469268799, -0.7111293077468872, 1.6650434732437134, 0.12813659, -0.079079844, 0.3669424
936, 34646624, -0.7073249816894531, -0.7085956931114197, 1.6499364376068115, 0.12045423, -0.08943962, 0.34854984
937, 34663291, -0.7059762477874756, -0.7013018727302551, 1.6286729574203491, 0.0090873735, 0.025270058, 0.36963272
938, 34679958, -0.7021535634994507, -0.6929855346679688, 1.6009832620620728, 0.10259404, 0.04681435, 0.35751534
939, 34696625, -0.6995039582252502, -0.6900989413261414, 1.565224289894104, -0.054887924, 0.009795385, 0.32298946
940, 34713292, -0.694240927696228, -0.6953226327896118, 1.548424243927002, 0.14497304, -0.1265727, 0.34821892
941, 34729959, -0.6928156018257141, -0.6991492509841919, 1.5132607221603394, 0.06580789, -0.12715806, 0.3325014
942, 34746626, -0.6912268400192261, -0.702420175075531, 1.486754059791565, 0.050583504, -0.031077724, 0.33259487
943, 34763293, -0.6915735602378845, -0.6975266337394714, 1.4610121250152588, -0.242714, 0.15385889, 0.34740067
944, 34779960, -0.6896311640739441, -0.6982964873313904, 1.4180930852890015, 0.09662921, 0.026329858, 0.33828735
945, 34796627, -0.6888076663017273, -0.700904369354248, 1.4064922332763672, -0.2732301, 0.050070502, 0.37330914
946, 34813294, -0.6871936917304993, -0.7005237936973572, 1.4151567220687866, 0.057508584, -0.04225258, 0.3271408
947, 34829961, -0.6837597489356995, -0.699863851070404, 1.4263722896575928, 0.30813366, -0.13881217, 0.36365795
948, 34846628, -0.6829875707626343, -0.7022969126701355, 1.4228260517120361, 0.042132996, -0.04942589, 0.34885025
949, 34863295, -0.6804404854774475, -0.6983031034469604, 1.4036898612976074, -0.06845603, 0.061682466, 0.36337376
950, 34879962, -0.6805039644241333, -0.6994046568870544, 1.3417794704437256, -0.030268366, -0.017408852, 0.34690952
951, 34896629, -0.6827983856201172, -0.7001160383224487, 1.3304331302642822, -0.16843228, 0.13932765, 0.32953072
952, 34913296, -0.6822785139083862, -0.7004944086074829, 1.3438565731048584, 0.047197588, 0.07422766, 0.33993816
953, 34929963, -0.6797118186950684, -0.7000095248222351, 1.339891791343689, 0.029129123, -0.0019243208, 0.34972858
954, 34946630, -0.6723366975784302, -0.701316237449646, 1.3410526514053345, -0.026241152, 0.02464758, 0.3552351
955, 34963297, -0.6688201427459717, -0.7008760571479797, 1.3388922214508057, 0.04153267, 0.038856428, 0.35709763
956, 34979964, -0.6676808595657349, -0.7026241421699524, 1.337223768234253, -0.096469305, 0.041826844, 0.3495674
957, 34996631, -0.6652185320854187, -0.7055786848068237, 1.3716825246810913, -0.053519562, 0.022187758, 0.3429594
958, 35013298, -0.6592608690261841, -0.7029935717582703, 1.3671751022338867, -0.10330457, 0.023920646, 0.335454
959, 35029965, -0.649844765663147, -0.6978043913841248, 1.3774971961975098, -0.04712288, -0.043730654, 0.35929966
960, 35046632, -0.6468576788902283, -0.6960647702217102, 1.4139422178268433, 0.05294925, -0.017466756, 0.3644867
961, 35063299, -0.6372240781784058, -0.7002476453781128, 1.42081618309021, 0.16980807, -0.16214441, 0.3861208
962, 35079966, -0.6343316435813904, -0.7048012018203735, 1.4431476593017578, 0.046712432, -0.13212718, 0.36586
963, 35096633, -0.6340473294258118, -0.7080519795417786, 1.4527873992919922, 0.02069561, 0.033516258, 0.3283491
964, 35113300, -0.6331756711006165, -0.7049179673194885, 1.4321774244308472, -0.049780075, -0.04696243, 0.36572933
965, 35129967, -0.6331178545951843, -0.7032662630081177, 1.4511401653289795, -0.064219214, 0.002403344, 0.3392973
966, 35146634, -0.6295120716094971, -0.7019725441932678, 1.4707485437393188, 0.062553935, -0.015521114, 0.35019016
967, 35163301, -0.6288118362426758, -0.7002161741256714, 1.5217502117156982, 0.13477987, 0.14007683, 0.3712139
968, 35179968, -0.6317394971847534, -0.6938778758049011, 1.5939394235610962, -0.27006894, -0.1014733, 0.35150528
969, 35196635, -0.6357189416885376, -0.6922433972358704, 1.638358473777771, -0.13520637, 0.15189889, 0.36962795
970, 35213302, -0.635947585105896, -0.6851798892021179, 1.6371333599090576, 0.0062599974, -0.0051397854, 0.34075165
971, 35229969, -0.6353005766868591, -0.6845138072967529, 1.6348189115524292, -0.11655146, -0.06522708, 0.31917763
972, 35246636, -0.6358538269996643, -0.6866299510002136, 1.6419785022735596, 0.05309035, 0.0059290514, 0.350955
973, 35263303, -0.6375406980514526, -0.686846137046814, 1.65067458152771, 0.04222898, 0.05077909, 0.35279274
974, 35279970, -0.6365154981613159, -0.6843740344047546, 1.644026279449463, -0.1072772, 0.023176424, 0.34647274
975, 35296637, -0.6338467001914978, -0.6802479028701782, 1.655613660812378, -0.02242737, -0.040178947, 0.34080315
976, 35313304, -0.6317180395126343, -0.6821486353874207, 1.6600170135498047, 0.09059514, -0.12329997, 0.335577
977, 35329971, -0.6303070783615112, -0.6889358162879944, 1.6742432117462158, 0.3224017, -0.10241422, 0.3575058
978, 35346638, -0.6310563683509827, -0.6911525130271912, 1.626619577407837, 0.0688122, -0.1384521, 0.3292551
979, 35363305, -0.6339675188064575, -0.6950317621231079, 1.6455776691436768, -0.06773556, 0.21784948, 0.34517097
980, 35379972, -0.63761305809021, -0.6932846307754517, 1.6395461559295654, -0.09724285, 0.24835002, 0.35682106
981, 35396639, -0.6435705423355103, -0.6929681301116943, 1.6227349042892456, -0.07626612, 0.14233316, 0.34662914
982, 35413306, -0.6444600224494934, -0.7010250687599182, 1.6462523937225342, 0.029781146, 0.055169564, 0.36828518
983, 35429973, -0.6427642107009888, -0.7069200873374939, 1.6759984493255615, -0.013203745, 0.006902831, 0.36216164
984, 35446640, -0.6366299986839294, -0.710787832736969, 1.6960214376449585, 0.0155945895, -0.11260562, 0.33548737
985, 35463307, -0.6338324546813965, -0.7165281176567078, 1.7277331352233887, 0.009082582, -0.046903428, 0.36770058
986, 35479974, -0.6348215341567993, -0.7204576730728149, 1.776043176651001, 0.07295751, 0.022044314, 0.31514835
987, 35496641, -0.6301255226135254, -0.7243617177009583, 1.7309412956237793, 0.16825834, -0.0065989126, 0.3466444
988, 35513308, -0.6267221570014954, -0.7246816754341125, 1.7261443138122559, -0.09199873, -0.031680714, 0.34727097
989, 35529975, -0.6269904971122742, -0.7287221550941467, 1.744158148765564, 0.041676108, -0.042127766, 0.31686687
990, 35546642, -0.6223836541175842, -0.7323412299156189, 1.6990916728973389, -0.06009624, -0.09167369, 0.3695717
991, 35563309, -0.6207990646362305, -0.7367740869522095, 1.74721360206604, -0.13354923, 0.10970609, 0.33444595
992, 35579976, -0.6274547576904297, -0.7397749423980713, 1.8607072830200195, 0.12172003, 0.20921816, 0.35604763
993, 35596643, -0.628556489944458, -0.7456839084625244, 1.8860509395599365, -0.0048715696, -0.07034478, 0.3824129
994, 35613310, -0.625514805316925, -0.7530253529548645, 1.949917197227478, -0.026249519, -0.00817989, 0.38616753
995, 35629977, -0.6217058300971985, -0.7619014382362366, 1.9772883653640747, 0.03819886, -0.099087216, 0.36096287
996, 35646644, -0.6206403970718384, -0.7706262469291687, 1.9930005073547363, -0.021255799, 0.01868847, 0.34033012
997, 35663311, -0.6222001910209656, -0.7795839309692383, 1.9969193935394287, -0.10345187, -0.059292942, 0.35590267
998, 35679978, -0.6244581937789917, -0.7919318079948425, 2.0346007347106934, -0.10616673, 0.10451812, 0.3646145
999, 35696645, -0.6265684366226196, -0.7995173335075378, 2.0917253494262695, -0.019506294, 0.14043976, 0.36523533
1000, 35713312, -0.63120037317276, -0.8084961175918579, 2.2177162170410156, 0.18951449, 0.094879985, 0.35982704
1001, 35729979, -0.6236854195594788, -0.8194830417633057, 2.292680263519287, 0.10922313, -0.21955079, 0.36589718
1002, 35746646, -0.6184726357460022, -0.8279379606246948, 2.3152005672454834, -0.011456016, -0.075966075, 0.35430622
1003, 35763313, -0.6202311515808105, -0.8336740732192993, 2.3442206382751465, -0.04886171, 0.070803456, 0.3483591
1004, 35779980, -0.6149487495422363, -0.8360801339149475, 2.292553663253784, -0.031736903, -0.026870241, 0.37228394
1005, 35796647, -0.6100755929946899, -0.8363218903541565, 2.2610836029052734, 0.0105855735, -0.07786841, 0.3167982
1006, 35813314, -0.6077411770820618, -0.8418179154396057, 2.246255397796631, 0.011323886, 0.05377752, 0.3745308
1007, 35829981, -0.608862578868866, -0.8497554063796997, 2.1814613342285156, -0.049913075, 0.047592472, 0.3703251
1008, 35846648, -0.6119434237480164, -0.8588932156562805, 2.185353994369507, -0.08845845, 0.09786596, 0.3405733
1009, 35863315, -0.6162876486778259, -0.8699531555175781, 2.20656681060791, -0.14880688, 0.22712708, 0.36750126
1010, 35879982, -0.6202908754348755, -0.8738941550254822, 2.2558703422546387, -0.10543994, 0.13472618, 0.37268734
1011, 35896649, -0.6143250465393066, -0.8735734820365906, 2.2682461738586426, -0.03368469, -0.10346863, 0.3364706
1012, 35913316, -0.6036846041679382, -0.8765206336975098, 2.27469801902771, 0.02329515, -0.16057107, 0.33302784
1013, 35929983, -0.5953063368797302, -0.8729237914085388, 2.236619472503662, 0.030326804, -0.16005936, 0.3507862
1014, 35946650, -0.5882625579833984, -0.8689387440681458, 2.1835882663726807, -0.01647319, -0.077042036, 0.3553915
1015, 35963317, -0.5877686738967896, -0.8658767342567444, 2.1386592388153076, -0.018079592, -0.012814009, 0.3102455
1016, 35979984, -0.5853617787361145, -0.8678556084632874, 2.1017210483551025, -0.11805763, 0.047218055, 0.37342834
1017, 35996651, -0.5832591652870178, -0.8637936115264893, 2.080151319503784, -0.13428095, 0.011464943, 0.367877
1018, 36013318, -0.5829710364341736, -0.8557041883468628, 2.0398941040039062, -0.16280779, 0.0118660405, 0.35654926
1019, 36029985, -0.5810661315917969, -0.8514452576637268, 2.0321948528289795, -0.02116528, 0.034262855, 0.33375072
1020, 36046652, -0.582497239112854, -0.8391388654708862, 2.028804302215576, 0.05397748, 0.026532387, 0.34519768
1021, 36063319, -0.5793263912200928, -0.8194223642349243, 1.976803183555603, -0.007527553, -0.027987555, 0.3368187
1022, 36079986, -0.5744712948799133, -0.8026908040046692, 1.974379539489746, -0.09163728, -0.059720293, 0.35170078
1023, 36096653, -0.5724779367446899, -0.7919600605964661, 1.9489097595214844, 0.11881392, -0.06320645, 0.3443098
1024, 36113320, -0.5714774131774902, -0.7812268137931824, 1.9408915042877197, -0.017844692, -0.05787603, 0.32782173
1025, 36129987, -0.5791684985160828, -0.773805558681488, 1.9352331161499023, 0.13049738, 0.051429324, 0.34147358
1026, 36146654, -0.5806136727333069, -0.7668523192405701, 1.9149690866470337, -0.17857039, 0.054557417, 0.33736706
1027, 36163321, -0.5855783224105835, -0.7541624903678894, 1.9222899675369263, -0.19206804, 0.061406225, 0.3604803
