sep=,
DeviceTag:,Movella DOT,,,,,,,,,,,,,,,,,
FirmwareVersion:,3.0.0,,,,,,,,,,,,,,,,,
AppVersion:,2023.6.1,,,,,,,,,,,,,,,,,
SyncStatus:,Un-synced,,,,,,,,,,,,,,,,,
OutputRate:,60Hz,,,,,,,,,,,,,,,,,
FilterProfile:,Dynamic,,,,,,,,,,,,,,,,,
Measurement Mode:,Sensor fusion Mode - Complete (Euler),,,,,,,,,,,,,,,,,
StartTime:,2024-11-03 20:41:54.562 +0700,,,,,,,,,,,,,,,,,
 2024,,,,,,,,,,,,,,,,,,,

PacketCounter,SampleTimeFine,Euler_X,Euler_Y,Euler_Z,FreeAcc_X,FreeAcc_Y,FreeAcc_Z
1, 2927504077, -0.4140419065952301, -0.0016272392822429538, -93.49385833740234, -0.0015407464, 0.003434617, 0.33707905
2, 2927520744, -0.41862380504608154, -0.020368359982967377, -93.45650482177734, -0.009367122, 0.013808042, 0.32831955
3, 2927537411, -0.4296637177467346, -0.02980067953467369, -93.46981811523438, -0.017408706, 0.011231187, 0.33352947
4, 2927554078, -0.4480683207511902, -0.03884512186050415, -93.47432708740234, 0.003981536, 0.008986322, 0.3397646
5, 2927570745, -0.4569900333881378, -0.04981164634227753, -93.46697235107422, -0.014255061, -0.008269892, 0.35848808
6, 2927587412, -0.4671998918056488, -0.0662248507142067, -93.45166778564453, -0.0065272627, 0.0022471817, 0.34784508
7, 2927604079, -0.47679731249809265, -0.08449254184961319, -93.43329620361328, -5.8048585E-4, 0.018140055, 0.35449314
8, 2927620746, -0.4839295744895935, -0.1005028784275055, -93.40467834472656, 0.0032425479, 0.0027150242, 0.34294224
9, 2927637413, -0.49055129289627075, -0.11715841293334961, -93.39496612548828, 0.014702896, 0.01579076, 0.33750153
10, 2927654080, -0.4953349232673645, -0.13392002880573273, -93.38289642333984, 0.011528279, 0.028523864, 0.35663223
11, 2927670747, -0.4983905851840973, -0.1474335640668869, -93.38477325439453, 0.0077233138, 0.03000711, 0.34875774
12, 2927687414, -0.5008054375648499, -0.1615700125694275, -93.37000274658203, 0.011077376, 0.020889338, 0.32888222
13, 2927704081, -0.5029397010803223, -0.17592881619930267, -93.35578155517578, 0.00578981, 0.020147419, 0.3335085
14, 2927720748, -0.5073679089546204, -0.18975132703781128, -93.34576416015625, 0.012490905, 0.02606697, 0.3373146
15, 2927737415, -0.5096619129180908, -0.20627503097057343, -93.33519744873047, 0.015587249, 0.030442227, 0.3465395
16, 2927754082, -0.5117850303649902, -0.22092145681381226, -93.32637023925781, 0.014828779, 0.038114045, 0.32988262
17, 2927770749, -0.5139018893241882, -0.23535345494747162, -93.31548309326172, 0.01252442, 0.026080627, 0.33857727
18, 2927787416, -0.516520082950592, -0.2501373589038849, -93.30488586425781, 0.0021824983, 0.029199526, 0.31730652
19, 2927804083, -0.5195310115814209, -0.26607027649879456, -93.30525970458984, 0.0013473002, 0.03575431, 0.33343792
20, 2927820750, -0.5225406289100647, -0.2809428572654724, -93.30189514160156, 0.011220434, 0.049055528, 0.34319687
21, 2927837417, -0.5253749489784241, -0.2975827157497406, -93.2920150756836, 0.018502608, 0.054799873, 0.32929897
22, 2927854084, -0.5284481644630432, -0.31310319900512695, -93.2796401977539, 0.0043967445, 0.043773007, 0.33865452
23, 2927870751, -0.5311325192451477, -0.3280603289604187, -93.2635269165039, 0.016514821, 0.042863917, 0.3226261
24, 2927887418, -0.5338129997253418, -0.34210023283958435, -93.2566909790039, 0.022204045, 0.055414237, 0.34780598
25, 2927904085, -0.538185715675354, -0.3564400374889374, -93.24854278564453, 0.016013302, 0.05937816, 0.34860325
26, 2927920752, -0.5409709215164185, -0.3716260492801666, -93.24166107177734, 0.023050237, 0.060175207, 0.34091663
27, 2927937419, -0.544318675994873, -0.38564056158065796, -93.23320007324219, 0.026444312, 0.060933564, 0.32509232
28, 2927954086, -0.5473844408988953, -0.4009278416633606, -93.22694396972656, 0.024714138, 0.07471406, 0.3480034
29, 2927970753, -0.5509361624717712, -0.4163443446159363, -93.22651672363281, 0.0158111, 0.07052046, 0.33207035
30, 2927987420, -0.5543801784515381, -0.43061563372612, -93.2162094116211, 0.016965585, 0.06527135, 0.36677647
31, 2928004087, -0.5575070977210999, -0.4467473328113556, -93.2062759399414, 0.017539248, 0.07352088, 0.33875656
32, 2928020754, -0.560509443283081, -0.4606061279773712, -93.20648956298828, 0.02165077, 0.06224382, 0.34402657
33, 2928037421, -0.5646812915802002, -0.4758196771144867, -93.2038803100586, 0.020069525, 0.0727854, 0.3407755
34, 2928054088, -0.5682549476623535, -0.49131110310554504, -93.19058227539062, 0.026342105, 0.07668011, 0.32653046
35, 2928070755, -0.5704976320266724, -0.5063722729682922, -93.19086456298828, 0.020528989, 0.082025975, 0.3551092
36, 2928087422, -0.5734051465988159, -0.5207157731056213, -93.18426513671875, 0.026647327, 0.09706983, 0.32957268
37, 2928104089, -0.5759224891662598, -0.5353520512580872, -93.18109893798828, 0.032006063, 0.0934733, 0.33456326
38, 2928120756, -0.5784300565719604, -0.5497351288795471, -93.1726303100586, 0.024506122, 0.08870183, 0.34521198
39, 2928137423, -0.5808387994766235, -0.564479649066925, -93.1673812866211, 0.017634759, 0.096261844, 0.35266972
40, 2928154090, -0.5846260190010071, -0.5786188244819641, -93.16060638427734, 0.022375192, 0.0996692, 0.34414387
41, 2928170757, -0.588701605796814, -0.5921650528907776, -93.15072631835938, 0.029717444, 0.09287067, 0.34268475
42, 2928187424, -0.5929756164550781, -0.6066970825195312, -93.14997100830078, 0.0482842, 0.0799344, 0.33202648
43, 2928204091, -0.5958850979804993, -0.6207212209701538, -93.1365966796875, 0.024951773, 0.111611016, 0.35635853
44, 2928220758, -0.598990261554718, -0.6357771754264832, -93.13421630859375, 0.031340834, 0.11026762, 0.339674
45, 2928237425, -0.6017844676971436, -0.6492146849632263, -93.1266098022461, 0.031971913, 0.11448743, 0.36081505
46, 2928254092, -0.6047896146774292, -0.6637338995933533, -93.13043212890625, 0.029017437, 0.108672544, 0.34884834
47, 2928270759, -0.607823371887207, -0.6777810454368591, -93.126708984375, 0.038752913, 0.11282321, 0.34635544
48, 2928287426, -0.6107452511787415, -0.6909540891647339, -93.12047576904297, 0.03073096, 0.118872456, 0.32308006
49, 2928304093, -0.613750159740448, -0.7066156268119812, -93.11273956298828, 0.04390668, 0.11236943, 0.34604645
50, 2928320760, -0.6155779361724854, -0.7217946648597717, -93.1042251586914, 0.032875985, 0.12077468, 0.36942863
51, 2928337427, -0.6185774803161621, -0.736833930015564, -93.09671020507812, 0.01988864, 0.118485935, 0.35376263
52, 2928354094, -0.6221559047698975, -0.7510299682617188, -93.09043884277344, 0.028032936, 0.1329602, 0.34869385
53, 2928370761, -0.6248109340667725, -0.7641898989677429, -93.0854721069336, 0.046492092, 0.13213795, 0.3562851
54, 2928387428, -0.6293660998344421, -0.7780434489250183, -93.08414459228516, 0.04203972, 0.12820941, 0.33649826
55, 2928404095, -0.6329346299171448, -0.7920095920562744, -93.077880859375, 0.04569303, 0.14317212, 0.32623768
56, 2928420762, -0.6356697678565979, -0.8060197234153748, -93.0761947631836, 0.04469204, 0.14021158, 0.36933994
57, 2928437429, -0.6388847827911377, -0.818426251411438, -93.06748962402344, 0.04297294, 0.13862777, 0.35473156
58, 2928454096, -0.6414080858230591, -0.8321638703346252, -93.0633316040039, 0.05409012, 0.15604459, 0.3571844
59, 2928470763, -0.6443737149238586, -0.8467780947685242, -93.0573501586914, 0.039434392, 0.13435541, 0.35163784
60, 2928487430, -0.6484910845756531, -0.8601632714271545, -93.05294036865234, 0.04077351, 0.1480264, 0.36054993
61, 2928504097, -0.651716947555542, -0.8737804293632507, -93.0471420288086, 0.042604763, 0.14064217, 0.3662243
62, 2928520764, -0.6552321314811707, -0.8873780965805054, -93.04044342041016, 0.049649727, 0.14951709, 0.3503809
63, 2928537431, -0.6581510901451111, -0.9019790887832642, -93.0356216430664, 0.036636706, 0.1504144, 0.34234142
64, 2928554098, -0.6603426337242126, -0.9159340262413025, -93.03446197509766, 0.040475033, 0.15315013, 0.35457802
65, 2928570765, -0.6638090014457703, -0.9289023280143738, -93.03358459472656, 0.03205777, 0.15064687, 0.3327999
66, 2928587432, -0.667605459690094, -0.9427818059921265, -93.02924346923828, 0.048090257, 0.16923417, 0.32604122
67, 2928604099, -0.6712868809700012, -0.9540502429008484, -93.02347564697266, 0.042877566, 0.15761505, 0.33759117
68, 2928620766, -0.6739372611045837, -0.9684943556785583, -93.01883697509766, 0.0457987, 0.1648042, 0.3387499
69, 2928637433, -0.6770316958427429, -0.9809347987174988, -93.01607513427734, 0.048736684, 0.15743962, 0.31742477
70, 2928654100, -0.6804520487785339, -0.9954578280448914, -93.0112533569336, 0.05349233, 0.15998861, 0.34409618
71, 2928670767, -0.6848708391189575, -1.0077422857284546, -93.00679779052734, 0.052438375, 0.17598936, 0.34372044
72, 2928687434, -0.6880174279212952, -1.0212266445159912, -93.0016098022461, 0.04869121, 0.17331912, 0.36704636
73, 2928704101, -0.6920090913772583, -1.0348604917526245, -92.99797821044922, 0.06718467, 0.18867785, 0.36022282
74, 2928720768, -0.6942646503448486, -1.0478434562683105, -92.9937744140625, 0.059549104, 0.17765723, 0.34308052
75, 2928737435, -0.6982420682907104, -1.0595494508743286, -92.99090576171875, 0.052859314, 0.17917284, 0.3347044
76, 2928754102, -0.7003118395805359, -1.0730152130126953, -92.98997497558594, 0.07733992, 0.18269795, 0.35050392
77, 2928770769, -0.7024813294410706, -1.0863443613052368, -92.98516845703125, 0.056968555, 0.18615189, 0.3447485
78, 2928787436, -0.706010103225708, -1.099513292312622, -92.98133850097656, 0.04388103, 0.17799161, 0.33657074
79, 2928804103, -0.7079902291297913, -1.1138288974761963, -92.97512817382812, 0.059103265, 0.19937775, 0.34882545
80, 2928820770, -0.7114828824996948, -1.1264493465423584, -92.96924591064453, 0.049996052, 0.19372627, 0.33720207
81, 2928837437, -0.7132253050804138, -1.1389367580413818, -92.96427917480469, 0.06244308, 0.19471018, 0.3418579
82, 2928854104, -0.7164724469184875, -1.1515992879867554, -92.96144104003906, 0.037024934, 0.20989607, 0.35185242
83, 2928870771, -0.7188087701797485, -1.1644238233566284, -92.95834350585938, 0.05427274, 0.19715482, 0.34571648
84, 2928887438, -0.7215113043785095, -1.17615807056427, -92.9536361694336, 0.055787914, 0.21231969, 0.35462856
85, 2928904105, -0.7242252826690674, -1.1882641315460205, -92.95047760009766, 0.0694602, 0.20009857, 0.3379984
86, 2928920772, -0.7276642918586731, -1.200749397277832, -92.94758605957031, 0.063791014, 0.2018581, 0.3386469
87, 2928937439, -0.730908989906311, -1.2124937772750854, -92.94383239746094, 0.051273957, 0.20455018, 0.3591175
88, 2928954106, -0.7342395782470703, -1.225582242012024, -92.93876647949219, 0.05511974, 0.20404886, 0.3376894
89, 2928970773, -0.7364940643310547, -1.2380305528640747, -92.93521118164062, 0.057836723, 0.20341532, 0.3497734
90, 2928987440, -0.7383615970611572, -1.249871015548706, -92.92882537841797, 0.057769813, 0.21137024, 0.3441372
91, 2929004107, -0.7409954071044922, -1.2624058723449707, -92.92680358886719, 0.07145432, 0.21486457, 0.36391544
92, 2929020774, -0.7444729208946228, -1.275211215019226, -92.92276000976562, 0.08722414, 0.2115519, 0.35198975
93, 2929037441, -0.7466659545898438, -1.2873367071151733, -92.91553497314453, 0.07778744, 0.21813418, 0.35067558
94, 2929054108, -0.7482189536094666, -1.3000036478042603, -92.91581726074219, 0.05705838, 0.21838109, 0.33789635
95, 2929070775, -0.7502965927124023, -1.3124226331710815, -92.91259765625, 0.070118435, 0.22182898, 0.3545313
96, 2929087442, -0.7521851062774658, -1.3246382474899292, -92.91285705566406, 0.05800177, 0.22104299, 0.35638046
97, 2929104109, -0.7544733881950378, -1.3383125066757202, -92.9100341796875, 0.071665056, 0.217825, 0.34746933
98, 2929120776, -0.756456732749939, -1.3494541645050049, -92.90975189208984, 0.079284765, 0.23731248, 0.352458
99, 2929137443, -0.7588231563568115, -1.362156629562378, -92.90741729736328, 0.06353862, 0.23263656, 0.35565186
100, 2929154110, -0.7624505162239075, -1.375433087348938, -92.90446472167969, 0.06017918, 0.2349958, 0.3448658
101, 2929170777, -0.7657960653305054, -1.3862274885177612, -92.90266418457031, 0.06342096, 0.23408477, 0.36032963
102, 2929187444, -0.768972635269165, -1.3985682725906372, -92.90110778808594, 0.06926414, 0.25323, 0.35173988
103, 2929204111, -0.7709060311317444, -1.4099524021148682, -92.8982162475586, 0.0640338, 0.24498333, 0.3357277
104, 2929220778, -0.7735933065414429, -1.4210530519485474, -92.8974838256836, 0.06504215, 0.2354747, 0.32828522
105, 2929237445, -0.7753044962882996, -1.4311203956604004, -92.89718627929688, 0.04819132, 0.2531971, 0.34733295
106, 2929254112, -0.7771505117416382, -1.442069172859192, -92.8981704711914, 0.052527815, 0.24187078, 0.34909916
107, 2929270779, -0.7784575819969177, -1.452833890914917, -92.89949035644531, 0.06720263, 0.25361115, 0.32087803
108, 2929287446, -0.7809498310089111, -1.462389588356018, -92.89830780029297, 0.07434359, 0.2612148, 0.34750557
109, 2929304113, -0.7838758826255798, -1.4732997417449951, -92.8967056274414, 0.083642915, 0.26627606, 0.3196535
110, 2929320780, -0.7862460017204285, -1.4830893278121948, -92.89647674560547, 0.07880277, 0.26168573, 0.3442583
111, 2929337447, -0.788877010345459, -1.4942042827606201, -92.8975601196289, 0.07485151, 0.26587066, 0.34428692
112, 2929354114, -0.7916437983512878, -1.5051698684692383, -92.89559173583984, 0.07170118, 0.25026673, 0.352849
113, 2929370781, -0.793737530708313, -1.515608787536621, -92.89195251464844, 0.068593904, 0.26491296, 0.34131145
114, 2929387448, -0.7971399426460266, -1.5250309705734253, -92.89305877685547, 0.08608199, 0.26003233, 0.3308668
115, 2929404115, -0.7996174097061157, -1.535366415977478, -92.89095306396484, 0.0818258, 0.26217005, 0.35694122
116, 2929420782, -0.803514301776886, -1.5464786291122437, -92.88909912109375, 0.06633957, 0.25525996, 0.34867287
117, 2929437449, -0.8072141408920288, -1.5553333759307861, -92.88458251953125, 0.07265386, 0.25900698, 0.34104443
118, 2929454116, -0.8095632195472717, -1.5646073818206787, -92.8829345703125, 0.0803, 0.26178652, 0.35158634
119, 2929470783, -0.8115726113319397, -1.5738952159881592, -92.88361358642578, 0.086148374, 0.28131792, 0.33321667
120, 2929487450, -0.4582710564136505, 0.012150667607784271, -93.35206604003906, 0.0089122215, 4.9116975E-4, 0.343915
121, 2929504117, -0.45785394310951233, 0.011969507671892643, -93.35369110107422, 0.0032876679, -0.004448498, 0.353714
122, 2929520784, -0.45677050948143005, 0.012333267368376255, -93.35466003417969, -0.0022022068, -0.011167552, 0.35107327
123, 2929537451, -0.4568168818950653, 0.011993586085736752, -93.35655975341797, -0.014120218, -0.006024813, 0.36442566
124, 2929554118, -0.4564489424228668, 0.01322172675281763, -93.3560791015625, -0.011835352, 0.0066653676, 0.32460022
125, 2929570785, -0.4565718472003937, 0.014128779992461205, -93.35563659667969, 0.010744407, -0.0074369814, 0.34793663
126, 2929587452, -0.45582202076911926, 0.013353847898542881, -93.3579330444336, -0.0014544897, -0.0047488697, 0.3195181
127, 2929604119, -0.4564022123813629, 0.011910850182175636, -93.35811614990234, 0.0027175683, -0.0012461563, 0.33412457
128, 2929620786, -0.4560674726963043, 0.012951026670634747, -93.35758972167969, 0.0073568816, -0.0071372124, 0.3568411
129, 2929637453, -0.45511892437934875, 0.011430042795836926, -93.35810089111328, -5.8110926E-4, -0.00807139, 0.33706093
130, 2929654120, -0.4551992416381836, 0.01282011903822422, -93.35861206054688, -0.0060669607, -0.0023868948, 0.3450327
131, 2929670787, -0.4542972445487976, 0.012472139671444893, -93.35910034179688, 7.579534E-5, -0.0035123122, 0.34271526
132, 2929687454, -0.45510441064834595, 0.010559246875345707, -93.36009216308594, -0.0050891996, -0.0024137653, 0.36479378
133, 2929704121, -0.45494064688682556, 0.010806760750710964, -93.35972595214844, 0.0036375406, 0.0026427717, 0.36283302
134, 2929720788, -0.45560580492019653, 0.011638069525361061, -93.36078643798828, -0.0048864125, -0.0023023074, 0.3213272
135, 2929737455, -0.4564095139503479, 0.011578598991036415, -93.36051940917969, 0.0034377584, -0.010794319, 0.34969902
136, 2929754122, -0.45568737387657166, 0.01230989582836628, -93.36114501953125, -0.004956616, -0.00869769, 0.34762573
137, 2929770789, -0.4558437764644623, 0.013164416886866093, -93.362060546875, -0.004985525, -0.005726166, 0.3305111
138, 2929787456, -0.4561114013195038, 0.013145673088729382, -93.36164093017578, 0.009371868, -0.017479053, 0.3456478
139, 2929804123, -0.4555822014808655, 0.012457531876862049, -93.36479187011719, 0.0010447031, 0.002660602, 0.3173542
140, 2929820790, -0.45556437969207764, 0.012376023456454277, -93.36471557617188, -0.0019800891, -0.014282846, 0.33491802
141, 2929837457, -0.45532041788101196, 0.013451685197651386, -93.36517333984375, -0.009389792, 0.0011724355, 0.33255577
142, 2929854124, -0.45473533868789673, 0.01405901275575161, -93.36559295654297, -0.008109696, 0.0032549545, 0.33975506
143, 2929870791, -0.4534665048122406, 0.012183096259832382, -93.36529541015625, -0.005886245, 0.0026678087, 0.33030987
144, 2929887458, -0.45358267426490784, 0.013130479492247105, -93.36673736572266, -0.0020026534, -0.021711366, 0.33568573
145, 2929904125, -0.4525536000728607, 0.011964811943471432, -93.36526489257812, 0.0012846582, -5.682153E-4, 0.34461117
146, 2929920792, -0.45203644037246704, 0.012412442825734615, -93.36427307128906, 0.0061829723, -7.599196E-4, 0.36199093
147, 2929937459, -0.45205458998680115, 0.012803522869944572, -93.36542510986328, 0.014086058, -0.0027733522, 0.36504555
148, 2929954126, -0.4513210952281952, 0.013390546664595604, -93.3661880493164, 0.007646291, -0.0028399678, 0.3481779
149, 2929970793, -0.45159438252449036, 0.012332320213317871, -93.3672866821289, -0.0061803744, -0.0010739082, 0.33140182
150, 2929987460, -0.45185062289237976, 0.011759571731090546, -93.36724090576172, -0.007223261, -0.01007232, 0.3545971
151, 2930004127, -0.4506470263004303, 0.011367944069206715, -93.36841583251953, -0.0012528861, -3.971965E-4, 0.33494282
152, 2930020794, -0.45121532678604126, 0.011499637737870216, -93.36787414550781, 0.0023286627, -0.0019973344, 0.33798218
153, 2930037461, -0.4512312114238739, 0.010894419625401497, -93.3694076538086, 0.017860336, -0.0027594664, 0.33878708
154, 2930054128, -0.45056816935539246, 0.010315227322280407, -93.37171173095703, -0.008143149, 0.0014683317, 0.3444624
155, 2930070795, -0.4508298933506012, 0.01023753359913826, -93.37261962890625, 0.0037978622, -4.4889958E-4, 0.35508156
156, 2930087462, -0.45115166902542114, 0.011305217631161213, -93.37195587158203, 0.0035876203, 0.007181198, 0.34496975
157, 2930104129, -0.4510657489299774, 0.013577363453805447, -93.3710708618164, 0.0018198792, 0.0066537387, 0.3492403
158, 2930120796, -0.45155107975006104, 0.014897631481289864, -93.37014770507812, 0.011289511, 0.009787723, 0.3456173
159, 2930137463, -0.4523932635784149, 0.015182912349700928, -93.36985778808594, 0.0053261183, -0.010171985, 0.34726048
160, 2930154130, -0.4537278115749359, 0.014605934731662273, -93.37056732177734, -0.0080990475, -0.020155028, 0.33861923
161, 2930170797, -0.4532327353954315, 0.015048108994960785, -93.3698959350586, -0.0038376825, 0.017096194, 0.34490395
162, 2930187464, -0.4528006315231323, 0.014220242388546467, -93.3714599609375, -0.0010651964, -0.009751022, 0.33799553
163, 2930204131, -0.4526991844177246, 0.015243488363921642, -93.37237548828125, 0.0040434645, -0.004380278, 0.35116673
164, 2930220798, -0.45249804854393005, 0.015264218673110008, -93.37213897705078, 0.0034851555, -0.0038162305, 0.3520193
165, 2930237465, -0.45225608348846436, 0.014824965968728065, -93.37411499023438, -0.014858151, -0.014643896, 0.3687315
166, 2930254132, -0.4523361027240753, 0.01575826108455658, -93.3751449584961, 0.0018215136, 0.008783201, 0.34340763
167, 2930270799, -0.4510861933231354, 0.01490914449095726, -93.37571716308594, -0.0049660914, -0.012805276, 0.324337
168, 2930287466, -0.45069846510887146, 0.01468747016042471, -93.37531280517578, 0.0037148045, 0.009596465, 0.33802414
169, 2930304133, -0.4506422281265259, 0.01664559729397297, -93.3742446899414, 0.0038077405, -0.010437477, 0.33344746
170, 2930320800, -0.450239896774292, 0.019020531326532364, -93.37529754638672, 0.009048923, -0.00793852, 0.35057068
171, 2930337467, -0.44985684752464294, 0.020652253180742264, -93.37708282470703, -0.013037362, -0.025401274, 0.34538174
172, 2930354134, -0.45001140236854553, 0.021633092314004898, -93.37759399414062, 0.008209635, -0.0010387381, 0.3537569
173, 2930370801, -0.44957616925239563, 0.021524956449866295, -93.37750244140625, 0.011850841, -0.0036220273, 0.33931446
174, 2930387468, -0.4496747553348541, 0.021896425634622574, -93.37813568115234, 0.004746371, -0.009418354, 0.3430376
175, 2930404135, -0.4486653804779053, 0.02013239823281765, -93.37783813476562, 0.002294495, -0.0017560854, 0.34554195
176, 2930420802, -0.4482390284538269, 0.018412364646792412, -93.3773193359375, 0.007878299, -0.0034598547, 0.34540844
177, 2930437469, -0.44751086831092834, 0.017255086451768875, -93.3775405883789, -0.005963495, -0.011203964, 0.33538723
178, 2930454136, -0.446945458650589, 0.0180391576141119, -93.37775421142578, -0.002543366, 0.0060323896, 0.33206463
179, 2930470803, -0.4464673697948456, 0.01837119646370411, -93.37687683105469, 7.0616824E-4, -0.003439103, 0.33758545
180, 2930487470, -0.4455580711364746, 0.017510391771793365, -93.37591552734375, -0.0033819869, 0.0032903412, 0.34202003
181, 2930504137, -0.4449804723262787, 0.017267785966396332, -93.37460327148438, 0.0026735868, -0.015500708, 0.35656738
182, 2930520804, -0.44521617889404297, 0.01752789504826069, -93.37358093261719, 0.012820335, -0.011874985, 0.35849
183, 2930537471, -0.445256769657135, 0.017900926992297173, -93.37349700927734, 0.0068888892, -0.005059542, 0.3624258
184, 2930554138, -0.4449905753135681, 0.017222614958882332, -93.37261962890625, 5.0783367E-4, 0.003293025, 0.3391533
185, 2930570805, -0.44482994079589844, 0.01634904369711876, -93.37285614013672, -0.011975976, -0.0059829736, 0.3664255
186, 2930587472, -0.44513481855392456, 0.01607583649456501, -93.37325286865234, -6.157782E-5, -0.007925352, 0.34911156
187, 2930604139, -0.4451179802417755, 0.01613374799489975, -93.37428283691406, -0.0012108063, -0.01077417, 0.35925674
188, 2930620806, -0.44526588916778564, 0.016918165609240532, -93.37417602539062, -0.00213513, 0.0026448567, 0.34127426
189, 2930637473, -0.4461829364299774, 0.016675787046551704, -93.37488555908203, -0.008872439, 0.0032726226, 0.3388567
190, 2930654140, -0.44576096534729004, 0.015520538203418255, -93.37464141845703, -0.016827123, 0.012678778, 0.35502434
191, 2930670807, -0.44560885429382324, 0.0159101914614439, -93.37346649169922, 0.016779918, -0.0043715644, 0.36017132
192, 2930687474, -0.4448035657405853, 0.015887808054685593, -93.3724136352539, -0.015362709, -0.005997509, 0.35295963
193, 2930704141, -0.4456881880760193, 0.015322288498282433, -93.37380981445312, 0.0059732753, -0.009530327, 0.34492874
194, 2930720808, -0.44524484872817993, 0.014121856540441513, -93.37483978271484, 0.0053457404, -0.0038847302, 0.3514452
195, 2930737475, -0.4444037675857544, 0.014653999358415604, -93.37422180175781, -0.01544347, -0.008474639, 0.33605862
196, 2930754142, -0.4446532130241394, 0.013746489770710468, -93.37552642822266, -0.0044758227, 0.005884003, 0.3525076
197, 2930770809, -0.44507986307144165, 0.013701227493584156, -93.37600708007812, -0.0017690317, 3.6070627E-4, 0.33960247
198, 2930787476, -0.44461432099342346, 0.012931136414408684, -93.37673950195312, -0.005015119, -3.0237812E-4, 0.35189342
199, 2930804143, -0.44435179233551025, 0.013914043083786964, -93.37818908691406, -0.0014368042, 1.3141864E-4, 0.32225418
200, 2930820810, -0.4439329206943512, 0.013412557542324066, -93.37911987304688, 0.009492145, -0.019766886, 0.36308384
201, 2930837477, -0.44336462020874023, 0.013216550461947918, -93.37830352783203, 0.002747388, -0.0044731367, 0.3326645
202, 2930854144, -0.44382867217063904, 0.014255139976739883, -93.37860107421875, 0.0013473693, 0.009840863, 0.35232258
203, 2930870811, -0.44422513246536255, 0.014308154582977295, -93.3783187866211, -0.004946361, -0.0062124534, 0.35495663
204, 2930887478, -0.4443211555480957, 0.014265784062445164, -93.3777084350586, -0.008653814, -0.0065752813, 0.3657341
205, 2930904145, -0.4443117678165436, 0.012440883554518223, -93.37810516357422, -0.0051866183, 0.0014981899, 0.34217358
206, 2930920812, -0.44380027055740356, 0.011350507847964764, -93.37857055664062, -0.013775713, -0.016641466, 0.3674822
207, 2930937479, -0.44320982694625854, 0.012457238510251045, -93.37784576416016, -0.0044466783, -0.019368755, 0.34543133
208, 2930954146, -0.44309544563293457, 0.012343300506472588, -93.3775863647461, 0.012389792, -0.0077491123, 0.3363533
209, 2930970813, -0.4424838721752167, 0.0121650081127882, -93.37735748291016, 0.014770398, 0.0011951133, 0.3492689
210, 2930987480, -0.4433923661708832, 0.012952174060046673, -93.3787841796875, -0.014893814, 0.0028522366, 0.3482828
211, 2931004147, -0.44209882616996765, 0.014605334028601646, -93.37899017333984, -0.0046149595, 0.008058929, 0.35112572
212, 2931020814, -0.44219401478767395, 0.015320074744522572, -93.3770980834961, 0.004903562, -0.018558415, 0.33796406
213, 2931037481, -0.4406099319458008, 0.014053954742848873, -93.37782287597656, 1.03673345E-4, 0.007879751, 0.33563995
214, 2931054148, -0.4399011731147766, 0.014037241227924824, -93.37706756591797, 0.0025690945, -0.008519633, 0.34717464
215, 2931070815, -0.43901118636131287, 0.014902474358677864, -93.37633514404297, -6.301459E-4, 0.006688608, 0.3376665
216, 2931087482, -0.4376707971096039, 0.015945063903927803, -93.37633514404297, -0.0124145625, -0.01313936, 0.3363695
217, 2931104149, -0.4381825029850006, 0.015775000676512718, -93.37776184082031, -0.0021350237, -0.0051487326, 0.34436607
218, 2931120816, -0.4374169111251831, 0.016951382160186768, -93.37848663330078, 0.0040204916, -0.007339696, 0.36584854
219, 2931137483, -0.43664225935935974, 0.016961080953478813, -93.37933349609375, -0.006595579, -0.015534994, 0.3428192
220, 2931154150, -0.4364701807498932, 0.015831004828214645, -93.38093566894531, -0.001182504, -0.020186087, 0.3531618
221, 2931170817, -0.4374552071094513, 0.015720026567578316, -93.382568359375, 0.005309601, -0.0038422453, 0.3373413
222, 2931187484, -0.4371697008609772, 0.016356566920876503, -93.38280487060547, -0.012770402, 9.882678E-4, 0.3569727
223, 2931204151, -0.4363579750061035, 0.015407666563987732, -93.38175201416016, -0.0013375313, -0.0050564934, 0.35746002
224, 2931220818, -0.43552497029304504, 0.016189388930797577, -93.38029479980469, -0.010366599, 0.0010851973, 0.3652916
225, 2931237485, -0.4350178837776184, 0.016473935917019844, -93.3807373046875, 9.951565E-4, -0.0013925014, 0.34439278
226, 2931254152, -0.43618208169937134, 0.016940804198384285, -93.38198852539062, 9.997927E-4, 0.011542791, 0.333601
227, 2931270819, -0.4355759620666504, 0.01847279630601406, -93.38353729248047, -0.0103843035, 3.075032E-4, 0.33173466
228, 2931287486, -0.4347662627696991, 0.018212541937828064, -93.38382720947266, -0.019435856, -0.0067224996, 0.33097744
229, 2931304153, -0.4346083402633667, 0.0177889633923769, -93.38402557373047, 0.0027029195, -0.01217514, 0.34914684
230, 2931320820, -0.43382561206817627, 0.01783413253724575, -93.38406372070312, -0.011294377, 0.0011118826, 0.33853722
231, 2931337487, -0.43407949805259705, 0.0175962895154953, -93.38396453857422, 0.0020789534, 0.003344983, 0.36958694
232, 2931354154, -0.4320168197154999, 0.01658395305275917, -93.38320922851562, 0.008395999, 0.0047886865, 0.3402586
233, 2931370821, -0.43217283487319946, 0.0167955681681633, -93.38355255126953, 0.010722865, -0.0025681918, 0.33179379
234, 2931387488, -0.43266230821609497, 0.016064312309026718, -93.38286590576172, 0.0068602804, -0.0060067186, 0.33414173
235, 2931404155, -0.43289637565612793, 0.015573965385556221, -93.38252258300781, -0.0039418973, 0.0061222506, 0.3438263
236, 2931420822, -0.4339003264904022, 0.015138261951506138, -93.38260650634766, 0.002963429, -0.007777603, 0.3481493
237, 2931437489, -0.43438851833343506, 0.014865388162434101, -93.38243103027344, 0.001082592, -0.0054295817, 0.3635025
238, 2931454156, -0.4340065121650696, 0.0159441027790308, -93.38248443603516, -4.813212E-5, 0.0013970764, 0.3453455
239, 2931470823, -0.43430840969085693, 0.017101526260375977, -93.38329315185547, -0.010232147, -0.003876099, 0.3256445
240, 2931487490, -0.4510401487350464, 0.015490468591451645, -93.38389587402344, -0.008037355, -0.015460851, 0.3413477
241, 2931504157, -0.45135000348091125, 0.0165158249437809, -93.38428497314453, 0.0019325961, 0.002617328, 0.36730862
242, 2931520824, -0.4518161118030548, 0.01512885745614767, -93.38514709472656, 0.003158975, 0.006252191, 0.34407425
243, 2931537491, -0.4522494673728943, 0.015145479701459408, -93.38597106933594, -0.008438807, -0.015579372, 0.3473177
244, 2931554158, -0.45218658447265625, 0.015464682132005692, -93.38542175292969, 0.0015616815, 6.575123E-5, 0.37383842
245, 2931570825, -0.4523079991340637, 0.014996441081166267, -93.38579559326172, -0.0013696734, -0.0012642451, 0.35605335
246, 2931587492, -0.45297762751579285, 0.01426141057163477, -93.3863296508789, -0.006730628, -0.012144328, 0.35528755
247, 2931604159, -0.45351624488830566, 0.01643192768096924, -93.38636016845703, -0.0067748, -0.0071077854, 0.34589005
248, 2931620826, -0.45305338501930237, 0.01708182319998741, -93.38589477539062, 0.0077365222, -0.0114965215, 0.3433113
249, 2931637493, -0.45304515957832336, 0.015926560387015343, -93.38785552978516, 6.377296E-4, -0.0019689675, 0.36283016
250, 2931654160, -0.45334339141845703, 0.015807019546628, -93.38731384277344, -0.002749143, -0.0018165386, 0.33453846
251, 2931670827, -0.45353034138679504, 0.0168240237981081, -93.38738250732422, -0.017430255, -0.0012405842, 0.34397125
252, 2931687494, -0.4523673951625824, 0.01570843532681465, -93.3873519897461, -0.0137198465, -0.008254651, 0.34539413
253, 2931704161, -0.45371362566947937, 0.01567801833152771, -93.38653564453125, 7.570803E-5, -0.01016668, 0.35984898
254, 2931720828, -0.45385032892227173, 0.015168211422860622, -93.38748931884766, -0.0070717526, -0.005832312, 0.3559761
255, 2931737495, -0.4535483121871948, 0.014119443483650684, -93.38825225830078, -0.0010388568, -0.0047421, 0.359663
256, 2931754162, -0.45380598306655884, 0.014363463036715984, -93.38956451416016, -0.0066336654, 0.0012696985, 0.35241604
257, 2931770829, -0.45386430621147156, 0.01466420479118824, -93.38897705078125, -0.016297355, -0.018741313, 0.34409428
258, 2931787496, -0.45451247692108154, 0.013911829330027103, -93.38932037353516, -0.013635506, -0.008254704, 0.34530735
259, 2931804163, -0.4538930356502533, 0.01412796787917614, -93.3882064819336, -7.232635E-4, 0.008559108, 0.33812046
260, 2931820830, -0.45339271426200867, 0.015188138000667095, -93.388671875, -0.008548836, -0.005353233, 0.3531456
261, 2931837497, -0.4526287913322449, 0.015121906995773315, -93.3885269165039, 9.898655E-4, -0.011353751, 0.34791374
262, 2931854164, -0.4523351490497589, 0.01441522128880024, -93.38929748535156, -0.019302698, -0.010969305, 0.3815441
263, 2931870831, -0.452871710062027, 0.014368850737810135, -93.38948059082031, -0.0027486575, -0.006273511, 0.36325264
264, 2931887498, -0.4526262879371643, 0.013410063460469246, -93.38922882080078, -0.005971442, -0.0139272595, 0.33670235
265, 2931904165, -0.4528864324092865, 0.013335425406694412, -93.38898468017578, 0.012596503, -0.007863856, 0.35560226
266, 2931920832, -0.4524722993373871, 0.013622666709125042, -93.38877868652344, 0.0011181183, -0.0043426226, 0.34608555
267, 2931937499, -0.45141708850860596, 0.013406367972493172, -93.38814544677734, -0.007935307, -0.0030114546, 0.34449577
268, 2931954166, -0.4524010121822357, 0.013466665521264076, -93.38784790039062, -0.004451035, -0.011016645, 0.35544205
269, 2931970833, -0.45196494460105896, 0.013281382620334625, -93.38741302490234, -0.014578751, -0.0045686294, 0.34575558
270, 2931987500, -0.4502929151058197, 0.013019968755543232, -93.38722229003906, -0.007076155, 0.0070842677, 0.36897755
271, 2932004167, -0.4495627284049988, 0.013012485578656197, -93.38642120361328, -0.005678338, 0.0068504363, 0.3376112
272, 2932020834, -0.4489624798297882, 0.013165470212697983, -93.38790893554688, -7.506229E-4, 0.0034155608, 0.35146427
273, 2932037501, -0.44865715503692627, 0.0122417276725173, -93.38745880126953, -0.013809345, 0.008051183, 0.32183075
274, 2932054168, -0.4476577937602997, 0.012526648119091988, -93.38645935058594, 0.0069078417, 0.0025868271, 0.3355875
275, 2932070835, -0.448371946811676, 0.012235844507813454, -93.38739776611328, 0.0015110663, 3.9555682E-4, 0.36182117
276, 2932087502, -0.44870203733444214, 0.011705063283443451, -93.3872299194336, -0.0012303637, -0.008830164, 0.32513142
277, 2932104169, -0.448530375957489, 0.01013574842363596, -93.38740539550781, 0.0036933334, 0.0014872308, 0.34549713
278, 2932120836, -0.4489351511001587, 0.010522986762225628, -93.38605499267578, 0.014345592, 0.0051746927, 0.33222198
279, 2932137503, -0.4492139220237732, 0.010179677978157997, -93.3868637084961, -0.010280335, 0.0055909427, 0.32279968
280, 2932154170, -0.449034720659256, 0.008820496499538422, -93.38616180419922, -0.00966887, -0.007033104, 0.33848286
281, 2932170837, -0.44904252886772156, 0.010050849989056587, -93.385986328125, -0.0144248, 0.0036379755, 0.3403225
282, 2932187504, -0.44970712065696716, 0.008622887544333935, -93.38531494140625, -0.014092131, -0.0028744377, 0.32432842
283, 2932204171, -0.4500358998775482, 0.008591017685830593, -93.38484954833984, 0.0032298774, -9.218268E-4, 0.3411436
284, 2932220838, -0.44970718026161194, 0.009147918783128262, -93.38525390625, -0.009601883, -7.6168677E-4, 0.33356953
285, 2932237505, -0.4502238631248474, 0.009474699385464191, -93.38640594482422, -9.770938E-4, 8.2510157E-4, 0.35792637
286, 2932254172, -0.4501778781414032, 0.008403227664530277, -93.385498046875, -0.0011028234, -1.8523287E-4, 0.3310423
287, 2932270839, -0.45045220851898193, 0.009116115048527718, -93.38648986816406, -0.009160106, -0.0044188406, 0.33020973
288, 2932287506, -0.45071518421173096, 0.009281200356781483, -93.386474609375, 0.009809851, -0.0013220739, 0.35264492
289, 2932304173, -0.45120036602020264, 0.008574089035391808, -93.38700866699219, -0.006349603, 0.010253798, 0.3386488
290, 2932320840, -0.4516392648220062, 0.009431357495486736, -93.38810729980469, 0.013494285, 0.005165849, 0.32500648
291, 2932337507, -0.4509628117084503, 0.008738161064684391, -93.388916015625, 0.005865701, 0.010521907, 0.313859
292, 2932354174, -0.4515495300292969, 0.008679636754095554, -93.3897476196289, -0.012504525, -0.004861, 0.35749912
293, 2932370841, -0.4526321589946747, 0.00915557611733675, -93.38902282714844, 0.005393626, -0.007299921, 0.3511715
294, 2932387508, -0.4524226784706116, 0.009161938913166523, -93.38785552978516, -0.0048378455, 0.009802749, 0.34108257
295, 2932404175, -0.4515267312526703, 0.010137735866010189, -93.38713073730469, 0.018990729, -0.0018770042, 0.34453487
296, 2932420842, -0.4518894851207733, 0.008822483010590076, -93.3873519897461, 0.008383606, -5.208201E-5, 0.35433102
297, 2932437509, -0.4518643915653229, 0.00916268676519394, -93.38771057128906, -0.0063068024, 0.0020020597, 0.34415817
298, 2932454176, -0.4518464207649231, 0.008186861872673035, -93.38850402832031, -0.0068375845, 0.008238102, 0.37228203
299, 2932470843, -0.45227566361427307, 0.008347544819116592, -93.38939666748047, -0.010086302, -0.009385016, 0.3320694
300, 2932487510, -0.4533245265483856, 0.008060784079134464, -93.3894271850586, -0.00967311, -0.011728799, 0.34557056
301, 2932504177, -0.4535047709941864, 0.007567329332232475, -93.38955688476562, 5.592137E-4, -0.012116339, 0.3259163
302, 2932520844, -0.4538921117782593, 0.007762137334793806, -93.3899154663086, 0.0062811365, -0.0025448557, 0.35528564
303, 2932537511, -0.4535633623600006, 0.008383471518754959, -93.38926696777344, 0.0012230471, 0.0061368486, 0.34372616
304, 2932554178, -0.4538775384426117, 0.007789297960698605, -93.38907623291016, 0.0021678924, 0.005166041, 0.35822868
305, 2932570845, -0.4538521468639374, 0.007414503954350948, -93.39000701904297, 0.014628637, -0.0013069466, 0.34042168
306, 2932587512, -0.4533208906650543, 0.007334142457693815, -93.38922882080078, 9.332225E-4, -0.0014937022, 0.3443222
307, 2932604179, -0.4533390402793884, 0.007422307971864939, -93.38955688476562, -0.0014597614, -0.004266967, 0.3335762
308, 2932620846, -0.4532349109649658, 0.007629801519215107, -93.38916778564453, -0.0033341357, 0.004542548, 0.34951591
309, 2932637513, -0.45293328166007996, 0.008220599964261055, -93.38773345947266, 0.014020538, 0.010340338, 0.3339281
310, 2932654180, -0.4525030851364136, 0.008047991432249546, -93.38745880126953, -0.0074622124, 0.012267387, 0.33019638
311, 2932670847, -0.4530196785926819, 0.007595797535032034, -93.3895034790039, -0.0021594896, -0.0049150726, 0.3344164
312, 2932687514, -0.45355337858200073, 0.009072866290807724, -93.39012145996094, -0.012414692, 0.0028039683, 0.34179592
313, 2932704181, -0.4537052512168884, 0.00865374319255352, -93.38993072509766, -0.0019697847, -0.0050864336, 0.37858868
314, 2932720848, -0.4541410505771637, 0.00910396222025156, -93.3902587890625, -0.0030378764, 0.0066808932, 0.34820652
315, 2932737515, -0.4535902440547943, 0.010483700782060623, -93.39024353027344, 0.010481667, -0.0018919307, 0.3512802
316, 2932754182, -0.4532316029071808, 0.010834695771336555, -93.39107513427734, -0.002263039, 0.0027124956, 0.34984493
317, 2932770849, -0.4527078866958618, 0.011570167727768421, -93.39088439941406, 0.0067698755, 8.876084E-4, 0.32330036
318, 2932787516, -0.45307281613349915, 0.01229148544371128, -93.3923568725586, -0.0021553913, -0.0070425896, 0.3576193
319, 2932804183, -0.45374414324760437, 0.012051776051521301, -93.39192962646484, 0.0030023535, 0.0055568726, 0.3395729
320, 2932820850, -0.4541972875595093, 0.010472562164068222, -93.39205169677734, -0.0064558224, 0.009198063, 0.33890152
321, 2932837517, -0.45391377806663513, 0.01045606005936861, -93.39220428466797, -0.0046830364, -0.0044853566, 0.36629295
322, 2932854184, -0.4539947807788849, 0.010183893144130707, -93.3929443359375, -0.010446473, 0.01209009, 0.33427334
323, 2932870851, -0.45361244678497314, 0.01075487956404686, -93.39109802246094, -0.005653554, -0.009282329, 0.3525114
324, 2932887518, -0.4534250497817993, 0.009588572196662426, -93.39168548583984, 0.0048885164, -0.012782074, 0.3563099
325, 2932904185, -0.454356849193573, 0.009722854010760784, -93.39241790771484, 0.009266238, 0.0033471275, 0.36148262
326, 2932920852, -0.4547746479511261, 0.009689477272331715, -93.3920669555664, 0.0135417925, 0.0022337239, 0.34776783
327, 2932937519, -0.45504167675971985, 0.010257156565785408, -93.39068603515625, 0.007075148, -0.0074088327, 0.3724842
328, 2932954186, -0.45577314496040344, 0.00975933950394392, -93.39002990722656, -0.0015327488, -0.0064614224, 0.3487568
329, 2932970853, -0.4550137519836426, 0.008908288553357124, -93.39018249511719, 4.6598085E-4, 0.012173539, 0.34674072
330, 2932987520, -0.45655888319015503, 0.008204164914786816, -93.39057159423828, -0.009226524, -0.015966898, 0.35776234
331, 2933004187, -0.4573533535003662, 0.008004395291209221, -93.39067840576172, -0.0068284953, -0.0108677745, 0.35837078
332, 2933020854, -0.4574139416217804, 0.00821298360824585, -93.39017486572266, 9.728576E-4, -0.013845269, 0.36122036
333, 2933037521, -0.4579274356365204, 0.008143427781760693, -93.38980102539062, -1.284501E-4, -0.01443908, 0.32466412
334, 2933054188, -0.45802369713783264, 0.008276908658444881, -93.38961791992188, 0.0064486507, -0.0054522613, 0.3568039
335, 2933070855, -0.4569052457809448, 0.009006991982460022, -93.38960266113281, 0.014455864, -0.009823756, 0.36018848
336, 2933087522, -0.45729830861091614, 0.008488805033266544, -93.38909149169922, 0.0034756858, 0.012045535, 0.33468246
337, 2933104189, -0.45735278725624084, 0.007921258918941021, -93.38887023925781, 0.009249509, 0.003448246, 0.3599205
338, 2933120856, -0.45691928267478943, 0.006381077691912651, -93.38725280761719, 0.009551469, -0.006441303, 0.32723522
339, 2933137523, -0.4584920406341553, 0.005980204325169325, -93.38703155517578, 2.9180315E-4, -0.011551963, 0.3529148
340, 2933154190, -0.4589332640171051, 0.006796518340706825, -93.38806915283203, 0.019454706, -0.010800033, 0.3669653
341, 2933170857, -0.45991793274879456, 0.007627667393535376, -93.388427734375, 0.0056057624, -0.008438851, 0.3413
342, 2933187524, -0.4611082673072815, 0.008434216491878033, -93.3880615234375, -0.0065128254, 0.008656564, 0.3444605
343, 2933204191, -0.46005427837371826, 0.008106688037514687, -93.38978576660156, 0.017280605, 0.0057742195, 0.33025074
344, 2933220858, -0.4599194824695587, 0.007179862819612026, -93.38919067382812, 0.00876151, -5.926743E-4, 0.33315945
345, 2933237525, -0.4597841799259186, 0.006615811958909035, -93.38959503173828, 0.005737394, -0.005154408, 0.34028053
346, 2933254192, -0.4606199562549591, 0.0035654655657708645, -93.38860321044922, -1.0882985E-4, -0.0051599084, 0.34383583
347, 2933270859, -0.46059566736221313, 0.0017837733030319214, -93.38893127441406, -0.0024374123, -0.0011170706, 0.35128212
348, 2933287526, -0.46080324053764343, 9.504635236226022E-4, -93.3880615234375, 0.011945429, -0.0075592482, 0.34920692
349, 2933304193, -0.4615408182144165, -9.609489352442324E-4, -93.38690948486328, -0.008058691, 0.009561163, 0.33678818
350, 2933320860, -0.4609760344028473, -6.957188015803695E-4, -93.3858413696289, -0.0016608689, -0.0044498495, 0.34645844
351, 2933337527, -0.4605708718299866, -9.543855558149517E-4, -93.3846206665039, 0.0035408032, -0.005539323, 0.33128643
352, 2933354194, -0.460051566362381, -6.849933415651321E-4, -93.38534545898438, -0.007025976, -0.0013789248, 0.34325027
353, 2933370861, -0.46049702167510986, -0.0021071666851639748, -93.38490295410156, -0.011702417, 0.0039443313, 0.3546009
354, 2933387528, -0.46080395579338074, -0.0011984581360593438, -93.38565826416016, 0.001184486, -0.010364163, 0.37160873
355, 2933404195, -0.4617699980735779, -6.89955850248225E-5, -93.38626861572266, 6.9039484E-4, 0.004201167, 0.33572388
356, 2933420862, -0.4619547128677368, -7.588447188027203E-4, -93.38771057128906, -0.0038180344, 0.008326612, 0.3590784
357, 2933437529, -0.4624067544937134, -9.039863361977041E-4, -93.3882064819336, -0.0029951923, -0.0024009377, 0.34429264
358, 2933454196, -0.4638465940952301, -1.4538165123667568E-4, -93.38789367675781, -0.0030932622, 0.0062071537, 0.3305397
359, 2933470863, -0.46345582604408264, 0.0018188582034781575, -93.38726043701172, 0.0027066213, 6.2770996E-4, 0.33488464
360, 2933487530, -0.45148053765296936, 0.009316124953329563, -93.39227294921875, -0.0032382435, -0.0067357603, 0.34405136
361, 2933504197, -0.451384574174881, 0.009140782058238983, -93.39339447021484, 0.004336834, 0.014273324, 0.35351753
362, 2933520864, -0.4510180950164795, 0.008367955684661865, -93.39376831054688, -1.7623298E-4, -0.011073824, 0.36644745
363, 2933537531, -0.450594961643219, 0.008081941865384579, -93.39440155029297, -0.002857751, -0.0011596271, 0.35039902
364, 2933554198, -0.4500240981578827, 0.008652969263494015, -93.39507293701172, -0.0065432196, -0.02061103, 0.34781456
365, 2933570865, -0.45053720474243164, 0.00839789118617773, -93.39490509033203, 0.0011398358, -0.003568847, 0.33218193
366, 2933587532, -0.45088741183280945, 0.009704471565783024, -93.3943862915039, 0.004159871, -0.002238313, 0.33924103
367, 2933604199, -0.45105239748954773, 0.009645108133554459, -93.3951187133789, -0.009492175, 0.005295584, 0.34801006
368, 2933620866, -0.452075719833374, 0.009695187211036682, -93.39485931396484, -0.004166767, -0.0084610535, 0.33985424
369, 2933637533, -0.45227521657943726, 0.009462214075028896, -93.39453125, -0.005390986, -0.00935484, 0.32597446
370, 2933654200, -0.45232927799224854, 0.010025718249380589, -93.39412689208984, -0.0020861162, -0.005081539, 0.34808445
371, 2933670867, -0.45226097106933594, 0.008125591091811657, -93.3954849243164, -0.0011531732, -0.012209752, 0.3543129
372, 2933687534, -0.45263203978538513, 0.008101138286292553, -93.395751953125, 0.0022772164, -0.0025353774, 0.353755
373, 2933704201, -0.4525607228279114, 0.009072973392903805, -93.39476776123047, 0.0043763155, -0.016476236, 0.34940147
374, 2933720868, -0.45258262753486633, 0.008161969482898712, -93.39635467529297, -0.011449839, -0.004189319, 0.35555935
375, 2933737535, -0.4534752666950226, 0.00795135460793972, -93.39588928222656, 0.00621058, -5.5300246E-4, 0.34656715
376, 2933754202, -0.4530111849308014, 0.008356057107448578, -93.39530181884766, 0.010463599, 0.0010044061, 0.35383224
377, 2933770869, -0.453669935464859, 0.009175639599561691, -93.39520263671875, 0.01337338, -0.0012123849, 0.3660345
378, 2933787536, -0.45344483852386475, 0.010015512816607952, -93.39490509033203, -0.0030716094, 6.404624E-4, 0.35221767
379, 2933804203, -0.45242831110954285, 0.010010442696511745, -93.39639282226562, -0.0014958185, 0.0072689103, 0.3536749
380, 2933820870, -0.4530053734779358, 0.010708857327699661, -93.39622497558594, -0.0017978632, 0.0047929944, 0.36187458
381, 2933837537, -0.4538373649120331, 0.01006928738206625, -93.3966293334961, -0.0011779884, -0.005746254, 0.33878326
382, 2933854204, -0.4533432424068451, 0.010553857311606407, -93.3963623046875, 0.008777596, -0.010348608, 0.34730053
383, 2933870871, -0.45436856150627136, 0.010840484872460365, -93.39784240722656, -0.008541089, -0.014664266, 0.35813046
384, 2933887538, -0.4539114832878113, 0.011952085420489311, -93.39708709716797, 0.002727946, -0.00734627, 0.36551952
385, 2933904205, -0.4537695050239563, 0.011950709857046604, -93.39688110351562, -0.007945861, -0.015712298, 0.3632431
386, 2933920872, -0.4535060524940491, 0.012544002383947372, -93.39800262451172, -0.007702873, -0.009790653, 0.34867382
387, 2933937539, -0.45338064432144165, 0.013067166320979595, -93.39830780029297, 0.008469415, 0.0032048265, 0.33459282
388, 2933954206, -0.4543818533420563, 0.01259173359721899, -93.39783477783203, -0.009981102, -6.3132105E-4, 0.36116123
389, 2933970873, -0.4543381631374359, 0.012156443670392036, -93.39851379394531, -0.009930244, 0.00384967, 0.36081314
390, 2933987540, -0.45393699407577515, 0.010081053711473942, -93.39886474609375, 5.0632143E-4, 0.008625692, 0.3838606
391, 2934004207, -0.4538291096687317, 0.01007533073425293, -93.398681640625, 3.614449E-5, -0.006939199, 0.35756397
392, 2934020874, -0.4549938440322876, 0.01078780461102724, -93.39825439453125, 0.0030265872, -0.008263702, 0.34717655
393, 2934037541, -0.45483601093292236, 0.010650414042174816, -93.39952850341797, 0.009262629, -0.009138732, 0.3401327
394, 2934054208, -0.4559769332408905, 0.010679121129214764, -93.40003204345703, 9.371322E-4, -0.016241355, 0.34679985
395, 2934070875, -0.45544150471687317, 0.011364862322807312, -93.40044403076172, -0.0075384583, -2.9845614E-4, 0.34741116
396, 2934087542, -0.4548984467983246, 0.01114348042756319, -93.40097045898438, -4.8798116E-4, -9.3661534E-4, 0.36724377
397, 2934104209, -0.4545445144176483, 0.012825828976929188, -93.40135955810547, 0.009342398, -0.008349756, 0.35006237
398, 2934120876, -0.4544571042060852, 0.011735293082892895, -93.40135955810547, 0.0057777977, 0.004354036, 0.34549904
399, 2934137543, -0.455204576253891, 0.011556094512343407, -93.39973449707031, -0.009360026, -0.007535011, 0.36092567
400, 2934154210, -0.4545115828514099, 0.012238619849085808, -93.40068054199219, -0.0139001105, -0.0045817047, 0.33779144
401, 2934170877, -0.45461636781692505, 0.012545671314001083, -93.40106964111328, -0.0059702056, -0.007178152, 0.34762383
402, 2934187544, -0.45356011390686035, 0.011745884083211422, -93.40116119384766, -0.010424735, -0.0028061108, 0.3683262
403, 2934204211, -0.4538269639015198, 0.011388421058654785, -93.40120697021484, -0.0012106946, -0.0109208375, 0.36649036
404, 2934220878, -0.4535372257232666, 0.011129873804748058, -93.40110778808594, 0.0019908682, -0.009683393, 0.35333633
405, 2934237545, -0.4541131258010864, 0.012755618430674076, -93.40106964111328, 0.0047300546, -0.009573987, 0.3321619
406, 2934254212, -0.4541940987110138, 0.012621923349797726, -93.4005126953125, -0.002831986, -0.0039875098, 0.37640476
407, 2934270879, -0.45453304052352905, 0.012580422684550285, -93.40056610107422, 5.146962E-4, -0.0046300134, 0.33120728
408, 2934287546, -0.4542326033115387, 0.013270231895148754, -93.40036010742188, 0.020968527, -0.022794481, 0.33914948
409, 2934304213, -0.45518767833709717, 0.014105476438999176, -93.40089416503906, 0.0036690803, -8.997793E-5, 0.33944702
410, 2934320880, -0.4558631181716919, 0.014449133537709713, -93.40013885498047, -8.942177E-4, 0.0036274528, 0.349041
411, 2934337547, -0.45618173480033875, 0.014368036761879921, -93.4007568359375, 0.0026189047, 0.0066425675, 0.3347082
412, 2934354214, -0.45574697852134705, 0.0138021195307374, -93.4005126953125, -0.0017253733, -0.005876863, 0.35953045
413, 2934370881, -0.455554723739624, 0.013776479288935661, -93.39969635009766, 7.600628E-4, 0.013126726, 0.34791756
414, 2934387548, -0.4558589458465576, 0.013195939362049103, -93.3988037109375, -0.005912417, -0.007677209, 0.33265686
415, 2934404215, -0.45581501722335815, 0.01357582863420248, -93.39895629882812, 0.0108938655, 0.0066428226, 0.347723
416, 2934420882, -0.45469892024993896, 0.01452091708779335, -93.39772033691406, -0.0076414067, -0.018352758, 0.35488033
417, 2934437549, -0.4554423689842224, 0.013412543572485447, -93.3980941772461, 0.0010748791, -0.0055111414, 0.3424511
418, 2934454216, -0.45514562726020813, 0.014258153736591339, -93.39848327636719, -0.0033057777, -0.008043935, 0.35162163
419, 2934470883, -0.45432811975479126, 0.014212945476174355, -93.39918518066406, 0.0044784346, 0.014933875, 0.35096455
420, 2934487550, -0.4536932408809662, 0.013773596845567226, -93.40137481689453, -0.009641542, -4.5033844E-4, 0.33176422
421, 2934504217, -0.45305049419403076, 0.013006535358726978, -93.40231323242188, 0.003207865, -0.0031414328, 0.3456049
422, 2934520884, -0.4532843828201294, 0.012616494670510292, -93.40232849121094, 0.0048767715, -0.0057575437, 0.32214546
423, 2934537551, -0.45273369550704956, 0.012661624699831009, -93.40251922607422, -2.2706646E-4, 2.165666E-4, 0.36177826
424, 2934554218, -0.4523718059062958, 0.013009389862418175, -93.40177154541016, 0.0038030013, 0.005557236, 0.34396172
425, 2934570885, -0.45196834206581116, 0.013718875125050545, -93.40249633789062, 0.0034503608, 0.0037677875, 0.334095
426, 2934587552, -0.4530336558818817, 0.013933787122368813, -93.40264892578125, -0.0074668205, -0.0056529865, 0.35769653
427, 2934604219, -0.4537646472454071, 0.014070992358028889, -93.40290069580078, -0.0080501, -0.001364585, 0.34238434
428, 2934620886, -0.4538592994213104, 0.013740913942456245, -93.40165710449219, -0.0023526694, 0.004337578, 0.34258175
429, 2934637553, -0.4538060426712036, 0.013561274856328964, -93.40113067626953, -0.0071132267, -0.014549929, 0.34975433
430, 2934654220, -0.4536899924278259, 0.013800318352878094, -93.40174865722656, -1.2851995E-6, -0.013438226, 0.32775116
431, 2934670887, -0.4544900357723236, 0.013241776265203953, -93.40191650390625, 0.0015285003, -0.017141499, 0.33642578
432, 2934687554, -0.4533732235431671, 0.012832111679017544, -93.40267944335938, -0.011364541, -0.017735375, 0.356925
433, 2934704221, -0.453016996383667, 0.01222896110266447, -93.40390014648438, 0.0011739512, 0.0053444495, 0.35614395
434, 2934720888, -0.4537336826324463, 0.012302679009735584, -93.40380096435547, 0.006521522, -0.0109980665, 0.35054684
435, 2934737555, -0.4545266330242157, 0.01233560312539339, -93.40576934814453, 0.0036428247, -0.022050973, 0.34305668
436, 2934754222, -0.45491263270378113, 0.01267302967607975, -93.40501403808594, -0.011656501, -0.008192901, 0.34725857
437, 2934770889, -0.45440196990966797, 0.013038791716098785, -93.40637969970703, -0.005802449, -0.0017100435, 0.35499763
438, 2934787556, -0.45403438806533813, 0.014507017098367214, -93.40560913085938, 0.002228281, 6.901172E-4, 0.34734535
439, 2934804223, -0.4540552496910095, 0.015490562655031681, -93.40560150146484, -0.0061677126, 0.0042055114, 0.35245228
440, 2934820890, -0.4548117220401764, 0.01464872807264328, -93.40526580810547, 0.007573424, -0.0066131335, 0.36379528
441, 2934837557, -0.4558924436569214, 0.01307202223688364, -93.40645599365234, 0.004814691, -0.006008065, 0.32927227
442, 2934854224, -0.4563056230545044, 0.01379635650664568, -93.40711975097656, -0.016368499, -0.010213302, 0.3300209
443, 2934870891, -0.45778554677963257, 0.012255574576556683, -93.40723419189453, -0.009135273, -0.01628679, 0.36344147
444, 2934887558, -0.45855382084846497, 0.011804209090769291, -93.40745544433594, 0.0016004139, 0.01628979, 0.36289787
445, 2934904225, -0.4594137370586395, 0.011857503093779087, -93.4088134765625, 0.006609809, -0.0039017557, 0.34887695
446, 2934920892, -0.4593876004219055, 0.012650951743125916, -93.40824890136719, -0.004314881, 5.491696E-4, 0.34042263
447, 2934937559, -0.45920631289482117, 0.013525350019335747, -93.408203125, -0.013284641, -0.009160827, 0.3605194
448, 2934954226, -0.45936667919158936, 0.012812929227948189, -93.40821838378906, -0.00188361, -0.013329606, 0.33980465
449, 2934970893, -0.45906102657318115, 0.013330661691725254, -93.40858459472656, -0.0010649222, 7.975099E-4, 0.33119202
450, 2934987560, -0.4591650664806366, 0.014812813140451908, -93.40895080566406, 0.013829917, -0.008383465, 0.35139084
451, 2935004227, -0.45906367897987366, 0.01487870141863823, -93.4084701538086, -0.012972614, -0.005234677, 0.3519907
452, 2935020894, -0.45915791392326355, 0.014627864584326744, -93.40867614746094, -0.0025704515, -0.007941099, 0.34327888
453, 2935037561, -0.45919913053512573, 0.014987598173320293, -93.41020965576172, 0.0063440558, -0.003979524, 0.36411476
454, 2935054228, -0.45927029848098755, 0.01502997800707817, -93.4097900390625, -0.002496397, -0.013213138, 0.3574438
455, 2935070895, -0.4588106572628021, 0.01477598212659359, -93.4095687866211, -0.0075776796, 0.0026596556, 0.35483265
456, 2935087562, -0.4597148001194, 0.015602179802954197, -93.4093017578125, 0.0014335911, -0.013153324, 0.33563614
457, 2935104229, -0.4593493342399597, 0.015237364917993546, -93.4104995727539, 0.005210347, -0.0026112408, 0.35928917
458, 2935120896, -0.459340363740921, 0.01329332310706377, -93.41029357910156, -0.015162279, -0.018150177, 0.3344097
459, 2935137563, -0.45925188064575195, 0.01324669923633337, -93.41009521484375, 7.6384156E-4, -0.011909895, 0.32946682
460, 2935154230, -0.45862752199172974, 0.013014833442866802, -93.40985870361328, -0.0041925358, 0.0045320517, 0.37963963
461, 2935170897, -0.45898348093032837, 0.012711569666862488, -93.40975952148438, 0.013316516, -0.009144881, 0.3281374
462, 2935187564, -0.4599277675151825, 0.012985484674572945, -93.41048431396484, -0.0034314722, -0.01638872, 0.35674858
463, 2935204231, -0.4605632424354553, 0.013409622944891453, -93.41065979003906, 0.006223856, -0.0034427263, 0.34244347
464, 2935220898, -0.4602431356906891, 0.011951657943427563, -93.41072082519531, 0.0022266745, -0.005516317, 0.33145428
465, 2935237565, -0.4602643549442291, 0.010912214405834675, -93.41163635253906, -0.012427161, -0.004338933, 0.35642147
466, 2935254232, -0.4600072205066681, 0.01139958668500185, -93.4123764038086, -0.020782683, 0.0027535993, 0.33315182
467, 2935270899, -0.4603787660598755, 0.011273081414401531, -93.41136932373047, -0.0024706686, -0.0020189926, 0.36004353
468, 2935287566, -0.46008870005607605, 0.011741163209080696, -93.41160583496094, -0.0057406053, 0.0067022527, 0.34524727
469, 2935304233, -0.46004152297973633, 0.011110276915133, -93.4122085571289, -0.005861271, -0.008765799, 0.35284328
470, 2935320900, -0.4610399007797241, 0.013004200533032417, -93.41146087646484, 0.0060034236, -0.005492071, 0.3366127
471, 2935337567, -0.46081510186195374, 0.013742808252573013, -93.41162109375, 0.0042370777, -0.0042821346, 0.3341112
472, 2935354234, -0.4603884220123291, 0.012902441434562206, -93.41149139404297, -0.0037631968, -0.008235813, 0.34961987
473, 2935370901, -0.4592692255973816, 0.013579911552369595, -93.41077423095703, 0.012712785, -0.0055692983, 0.37080765
474, 2935387568, -0.4590429961681366, 0.011610588990151882, -93.41232299804688, -0.0010737685, -0.0090676565, 0.3274088
475, 2935404235, -0.4602055549621582, 0.011953352019190788, -93.41183471679688, -0.00491008, -0.018190328, 0.3418026
476, 2935420902, -0.4598185420036316, 0.011519154533743858, -93.41217803955078, -0.0010554858, 0.007688488, 0.36701965
477, 2935437569, -0.45959702134132385, 0.011234501376748085, -93.41207885742188, 0.0016138072, -0.0024110954, 0.3475666
478, 2935454236, -0.46020469069480896, 0.011523677036166191, -93.41340637207031, 0.007947092, 0.001288664, 0.35075188
479, 2935470903, -0.4603058099746704, 0.010603789240121841, -93.41352081298828, -0.017571792, -0.004954486, 0.35251236
480, 2935487570, -0.4513630270957947, 0.0073465621098876, -93.40555572509766, 0.0016906991, -2.5266045E-4, 0.33977604
481, 2935504237, -0.4510749280452728, 0.0071203261613845825, -93.4060287475586, -0.010472301, 0.005922758, 0.3330059
482, 2935520904, -0.45083487033843994, 0.007241414859890938, -93.40673065185547, 8.528137E-4, 0.0058922833, 0.35020256
483, 2935537571, -0.45112109184265137, 0.005655383225530386, -93.40699005126953, 4.5223482E-4, 0.0014388437, 0.34251595
484, 2935554238, -0.45032212138175964, 0.004665819462388754, -93.4052963256836, -0.0043899165, -0.014915989, 0.34342194
485, 2935570905, -0.44873926043510437, 0.0030140345916152, -93.4050064086914, 0.007412683, -0.0042654043, 0.35706997
486, 2935587572, -0.4484836757183075, 0.0027700020000338554, -93.40503692626953, 0.005184093, -0.0045681545, 0.38518143
487, 2935604239, -0.44803565740585327, 0.0023375921882689, -93.4047622680664, -0.017885571, -0.0052294647, 0.35707378
488, 2935620906, -0.4475899040699005, 0.0028525511734187603, -93.40422058105469, 0.0018669496, 9.958654E-4, 0.34800148
489, 2935637573, -0.44755080342292786, 0.0025689515750855207, -93.4045181274414, -0.0030067451, -0.016414475, 0.36485195
490, 2935654240, -0.44855886697769165, 0.002379574114456773, -93.40467834472656, -0.008143003, -0.009895579, 0.34017372
491, 2935670907, -0.44926396012306213, 0.003105641808360815, -93.40396881103516, -0.008505998, -0.0102448, 0.3417759
492, 2935687574, -0.4490319490432739, 0.0029181984718889, -93.40516662597656, -0.0057534277, 0.005414715, 0.35698414
493, 2935704241, -0.44822779297828674, 0.0025256893131881952, -93.40533447265625, -0.0056803916, -1.376054E-4, 0.3456211
494, 2935720908, -0.4482215642929077, 0.0034287949092686176, -93.4052963256836, 0.0012094758, -0.0035662593, 0.35792542
495, 2935737575, -0.4479995369911194, 0.0042090509086847305, -93.40497589111328, -0.010479029, -0.0010361152, 0.361022
496, 2935754242, -0.44627612829208374, 0.004111787304282188, -93.40487670898438, 0.011489446, -0.0020692132, 0.35328102
497, 2935770909, -0.4463948905467987, 0.004253687337040901, -93.40563201904297, -0.006698535, -0.0027548147, 0.35566998
498, 2935787576, -0.44758233428001404, 0.003632113104686141, -93.40420532226562, 0.018417358, 0.0015164603, 0.33942413
499, 2935804243, -0.44811445474624634, 0.002708890475332737, -93.40477752685547, -9.277691E-4, -0.010649692, 0.35246277
500, 2935820910, -0.4490273594856262, 0.0015989179955795407, -93.40567016601562, -0.0052204034, 0.0077219307, 0.34030342
501, 2935837577, -0.44898658990859985, 0.00295723183080554, -93.40521240234375, 0.008114627, 0.0056494037, 0.35228348
502, 2935854244, -0.44913244247436523, 0.003466681344434619, -93.40556335449219, -9.7329065E-4, 0.0031583377, 0.34214687
503, 2935870911, -0.4489959478378296, 0.0039307475090026855, -93.40563201904297, -0.014857013, -0.006381059, 0.34395313
504, 2935887578, -0.44911321997642517, 0.003496976802125573, -93.40587615966797, -0.0028074048, 0.005470677, 0.325346
505, 2935904245, -0.4492183327674866, 0.0020131049677729607, -93.40662384033203, -0.0071239043, -0.007233482, 0.348773
506, 2935920912, -0.4491385221481323, 0.0023775461595505476, -93.40672302246094, 0.001445474, 0.009472364, 0.35660553
507, 2935937579, -0.4500965476036072, 0.0017956327646970749, -93.40677642822266, 0.0010420907, -0.0063995686, 0.35210133
508, 2935954246, -0.4491628408432007, 0.002267262665554881, -93.40643310546875, 0.0074289073, -0.01393073, 0.33629417
509, 2935970913, -0.44947052001953125, 0.001932783517986536, -93.4055404663086, 0.007501283, 0.0022284626, 0.33034706
510, 2935987580, -0.4501696527004242, 0.0033933233935385942, -93.405517578125, -0.027505279, -0.012305899, 0.34950352
511, 2936004247, -0.45095422863960266, 0.0018319581868126988, -93.40658569335938, -0.01139252, -0.0036155945, 0.34379768
512, 2936020914, -0.45139172673225403, 0.00282254908233881, -93.40730285644531, 0.00605292, -0.006801499, 0.3440132
513, 2936037581, -0.45120370388031006, 0.002364419400691986, -93.40579986572266, -0.014164363, 0.002384162, 0.33974266
514, 2936054248, -0.4510475695133209, 0.0018502342281863093, -93.40715789794922, -0.01504472, -0.007645203, 0.32075405
515, 2936070915, -0.45192575454711914, 0.0012575018918141723, -93.4076919555664, -0.002526917, -0.0077519477, 0.34868622
516, 2936087582, -0.45157358050346375, 0.0012533131521195173, -93.40791320800781, -0.003651243, -0.006780774, 0.345294
517, 2936104249, -0.45220452547073364, 0.0012934404658153653, -93.40815734863281, 0.007930739, 0.010395395, 0.37740135
518, 2936120916, -0.4524509310722351, 7.916349568404257E-4, -93.4090347290039, 0.008032772, -0.005828488, 0.35332394
519, 2936137583, -0.4536747634410858, 0.0015510666416957974, -93.41022491455078, -0.002531209, -0.012539882, 0.33600044
520, 2936154250, -0.45359259843826294, 3.7099135806784034E-4, -93.41173553466797, -0.019900875, -0.013724452, 0.33956623
521, 2936170917, -0.45368343591690063, 0.0011241798056289554, -93.41217803955078, -0.0013557546, -0.005892699, 0.3577156
522, 2936187584, -0.45362919569015503, 0.0020468956790864468, -93.41380310058594, 0.004793789, -0.0148991365, 0.37300968
523, 2936204251, -0.45515719056129456, 0.002521833870559931, -93.41287994384766, 0.008017209, 0.016827004, 0.34697437
524, 2936220918, -0.45508474111557007, 0.0030651541892439127, -93.41275024414062, 0.0054521533, 0.004840601, 0.34509563
525, 2936237585, -0.45555275678634644, 0.0033799298107624054, -93.41470336914062, 0.012957247, -0.015344587, 0.36736298
526, 2936254252, -0.4553912281990051, 0.0028019517194479704, -93.4150619506836, -0.00758761, 0.002025829, 0.3651657
527, 2936270919, -0.45615243911743164, 0.0036671713460236788, -93.41485595703125, -0.009137325, -0.0020027128, 0.3487587
528, 2936287586, -0.45683038234710693, 0.00304050138220191, -93.41484069824219, -0.004366664, -0.002794965, 0.33978844
529, 2936304253, -0.456184059381485, 0.0020924126729369164, -93.41294860839844, 0.0016237396, 0.0049117967, 0.3546133
530, 2936320920, -0.45537665486335754, 0.0013893566792830825, -93.41368103027344, 0.005319835, 0.0028540562, 0.33218384
531, 2936337587, -0.4564014673233032, 8.253590203821659E-4, -93.41431427001953, 0.008302275, 0.0019052401, 0.33766747
532, 2936354254, -0.4564354121685028, 3.612796717789024E-4, -93.41259002685547, 0.0022012482, 0.0021574483, 0.3588276
533, 2936370921, -0.45641806721687317, -4.914000746794045E-4, -93.41282653808594, 0.0057409084, 0.00604498, 0.3416195
534, 2936387588, -0.4564727544784546, 7.680228445678949E-4, -93.41333770751953, -0.0086505525, 0.00217571, 0.35207367
535, 2936404255, -0.4565686881542206, 3.5388919059187174E-4, -93.41300201416016, 0.009038817, -0.005910215, 0.34012222
536, 2936420922, -0.45578861236572266, -2.822522656060755E-4, -93.41254425048828, -0.0012889014, -4.236653E-4, 0.34874249
537, 2936437589, -0.456130713224411, -0.0017235556151717901, -93.41348266601562, 0.01248735, -0.017317718, 0.35060406
538, 2936454256, -0.4570384919643402, -0.0012784460559487343, -93.41328430175781, 0.0059484113, -0.005203778, 0.35342693
539, 2936470923, -0.4566916823387146, -7.375536952167749E-4, -93.41304016113281, -0.008605825, 0.012039841, 0.355443
540, 2936487590, -0.45587608218193054, -0.001092670252546668, -93.41187286376953, 0.0051215617, -0.009199283, 0.3529234
541, 2936504257, -0.45556971430778503, -5.186407943256199E-4, -93.41162872314453, -0.003512597, -0.007998009, 0.33920574
542, 2936520924, -0.45691341161727905, -8.192491950467229E-4, -93.41204833984375, 0.0021915499, 0.0017236655, 0.36596966
543, 2936537591, -0.45668715238571167, -0.0014012560714036226, -93.41180419921875, -0.005681296, -0.0027089422, 0.3222723
544, 2936554258, -0.45709487795829773, -0.0018471928779035807, -93.41234588623047, 0.016300904, 6.2032876E-4, 0.34445667
545, 2936570925, -0.4576631784439087, -0.0027881579007953405, -93.412353515625, 0.003089852, -0.005953664, 0.35690975
546, 2936587592, -0.4577198028564453, -0.0027983766049146652, -93.41326141357422, -0.010402091, 7.2727626E-4, 0.3290329
547, 2936604259, -0.45861706137657166, -0.0032990346662700176, -93.41313171386719, 0.008611313, -0.0021338556, 0.34775257
548, 2936620926, -0.4589683413505554, -0.003120302688330412, -93.41272735595703, 0.0018392585, 0.004570821, 0.34718037
549, 2936637593, -0.4584953486919403, -0.003007844788953662, -93.412841796875, -0.0042967186, 0.005965444, 0.35060978
550, 2936654260, -0.45970624685287476, -0.0025675108190625906, -93.41192626953125, 0.0025212925, -0.007896297, 0.34447002
551, 2936670927, -0.4594712555408478, -0.0023800276685506105, -93.41181182861328, 0.0058372156, -0.0016631652, 0.32563972
552, 2936687594, -0.459175169467926, -7.522813393734396E-4, -93.41230773925781, 0.010220616, -0.014890459, 0.32975674
553, 2936704261, -0.45896923542022705, -8.992371149361134E-4, -93.41194915771484, -0.0010434318, -0.010419895, 0.34460163
554, 2936720928, -0.45847272872924805, -0.0013120366493239999, -93.41104888916016, 8.9405185E-5, -0.010880539, 0.35087872
555, 2936737595, -0.4595671594142914, -0.0012690278235822916, -93.41060638427734, 0.002209801, 0.0062411996, 0.34399605
556, 2936754262, -0.4592511057853699, -9.737021755427122E-4, -93.41158294677734, -0.00435969, -0.0055339066, 0.3528862
557, 2936770929, -0.45934319496154785, -0.0013115564361214638, -93.41045379638672, 0.008115681, -0.008562236, 0.33201218
558, 2936787596, -0.4591611325740814, -0.0013568864669650793, -93.41046905517578, -0.007754955, 0.0015261342, 0.34574127
559, 2936804263, -0.4597800076007843, -0.0020361701026558876, -93.40972900390625, 0.0017219508, 0.0050310916, 0.325181
560, 2936820930, -0.46091797947883606, -0.00253653503023088, -93.40951538085938, -0.0053682015, -0.0034782195, 0.3487501
561, 2936837597, -0.4611669182777405, -0.0021846999879926443, -93.40924835205078, 0.002367271, -0.007489851, 0.35828304
562, 2936854264, -0.4615115225315094, -0.0024647912941873074, -93.40908813476562, 0.013076429, -0.010240341, 0.34342194
563, 2936870931, -0.46273645758628845, -0.0013751626247540116, -93.40943908691406, -0.005846631, 0.0028241246, 0.34378433
564, 2936887598, -0.4627684950828552, -0.0017216879641637206, -93.40973663330078, 0.018183418, 0.0024784966, 0.34527397
565, 2936904265, -0.46200376749038696, -5.742428475059569E-4, -93.40943145751953, 0.0019171806, 0.0041930173, 0.3535223
566, 2936920932, -0.46282702684402466, 0.001400162116624415, -93.40939331054688, 0.0019473496, -0.002361507, 0.34127426
567, 2936937599, -0.462988018989563, 0.0019236854277551174, -93.4080581665039, 0.013274461, -0.002076659, 0.36655426
568, 2936954266, -0.4632605314254761, 5.9185188729316E-4, -93.40787506103516, 9.3364855E-4, 0.0041477126, 0.35547733
569, 2936970933, -0.4631609618663788, 9.285855921916664E-4, -93.4079360961914, 0.0071371137, 0.009894242, 0.3579092
570, 2936987600, -0.4623925983905792, 4.0474205889040604E-5, -93.40868377685547, 3.5797694E-4, -0.0067575388, 0.3466282
571, 2937004267, -0.46270403265953064, 1.474360324209556E-4, -93.40811157226562, 0.0032060838, -0.0034483054, 0.3475504
572, 2937020934, -0.46431830525398254, 3.9236238808371127E-4, -93.40870666503906, -0.012254344, -0.00291917, 0.3574686
573, 2937037601, -0.465349018573761, 1.5941556193865836E-4, -93.4077377319336, 0.009980943, 8.535453E-4, 0.3435812
574, 2937054268, -0.46605437994003296, 0.002045801840722561, -93.40576934814453, 0.003245499, 0.0025508783, 0.3297968
575, 2937070935, -0.4660795331001282, 0.0015247063711285591, -93.40585327148438, -0.0014261366, -0.008583764, 0.34302807
576, 2937087602, -0.46611350774765015, 0.0018735264893621206, -93.40571594238281, 0.0036728855, -0.015716076, 0.3516159
577, 2937104269, -0.46602803468704224, 0.002376238815486431, -93.40717315673828, 0.008672136, -0.015656166, 0.3471012
578, 2937120936, -0.4653921127319336, 0.0022629539016634226, -93.40696716308594, -0.016001387, 0.0015501147, 0.3653345
579, 2937137603, -0.46616101264953613, 0.00197339104488492, -93.40859985351562, 0.0038544948, 0.00545842, 0.34017277
580, 2937154270, -0.4663628041744232, 0.0013676920207217336, -93.40880584716797, -0.0063282666, -0.00779807, 0.3327074
581, 2937170937, -0.46556100249290466, 7.00361211784184E-4, -93.40816497802734, -0.01592116, -0.0017459593, 0.34183693
582, 2937187604, -0.4659813940525055, 0.0018329989397898316, -93.40812683105469, 0.00853923, -0.006770115, 0.34609985
583, 2937204271, -0.4658036530017853, 0.0012501646997407079, -93.40985107421875, 0.009580092, -0.010257999, 0.34024048
584, 2937220938, -0.4653000831604004, 6.663970416411757E-4, -93.41123962402344, 0.0030954292, -0.01835243, 0.35806656
585, 2937237605, -0.4655844271183014, 6.144502549432218E-4, -93.41184997558594, 0.012083435, -0.0027348853, 0.35763645
586, 2937254272, -0.4667971730232239, 0.0014947708696126938, -93.41215515136719, 0.008169405, 0.00525315, 0.3512392
587, 2937270939, -0.4674348831176758, 0.001420145737938583, -93.4120864868164, -0.0028193959, 0.00162825, 0.3573799
588, 2937287606, -0.4678785800933838, -6.555914296768606E-4, -93.4133529663086, 0.0043838383, -0.0049498673, 0.3536024
589, 2937304273, -0.46817323565483093, -0.001844017650000751, -93.41439056396484, 0.011464086, -0.0073891915, 0.33777714
590, 2937320940, -0.4686449468135834, -0.002872761571779847, -93.4155044555664, -0.0013950107, -0.0035131678, 0.3393898
591, 2937337607, -0.46896862983703613, -0.0038785336073487997, -93.41566467285156, -0.0035597163, -0.008607192, 0.34868813
592, 2937354274, -0.47035250067710876, -0.003782830899581313, -93.41576385498047, 0.006729301, 0.0076681, 0.32059097
593, 2937370941, -0.47023990750312805, -0.004889294970780611, -93.41470336914062, 0.0045425775, 0.0020613675, 0.33348846
594, 2937387608, -0.4703579545021057, -0.003968633245676756, -93.41415405273438, 0.009840555, 6.318519E-4, 0.35186863
595, 2937404275, -0.471348375082016, -0.005536241922527552, -93.41301727294922, 0.0036821489, -0.01331735, 0.36820698
596, 2937420942, -0.4714752733707428, -0.005450090859085321, -93.41258239746094, 0.0073774797, 0.0031550704, 0.36080647
597, 2937437609, -0.4719811677932739, -0.005844027269631624, -93.41156005859375, 0.004062891, -0.0034544223, 0.3640976
598, 2937454276, -0.4706017076969147, -0.005465645343065262, -93.41155242919922, -0.003558726, 0.009141213, 0.34713173
599, 2937470943, -0.47137418389320374, -0.004587405826896429, -93.41154479980469, 0.019168418, 0.015797837, 0.34418392
600, 2937487610, -0.4605010151863098, 0.0017052794573828578, -93.40970611572266, -0.0057016234, -0.0017121581, 0.3739872
601, 2937504277, -0.46026811003685, 5.816866760142148E-4, -93.40977478027344, 0.014528744, 0.0023053563, 0.36372948
602, 2937520944, -0.4605867564678192, -2.58133135503158E-4, -93.41100311279297, 0.003986221, 0.0013989501, 0.35570145
603, 2937537611, -0.46085283160209656, -0.0017781705828383565, -93.41016387939453, -0.006043406, -0.006161456, 0.33101273
604, 2937554278, -0.46091631054878235, -0.002444433979690075, -93.41092681884766, -0.007917433, 0.0032497246, 0.36929417
605, 2937570945, -0.46094125509262085, -0.0023068429436534643, -93.41179656982422, 0.002423242, -0.01000112, 0.32913113
606, 2937587612, -0.46040022373199463, -0.002044708002358675, -93.41082000732422, 1.0355635E-4, 0.0041890605, 0.319417
607, 2937604279, -0.4596138894557953, -0.002574741141870618, -93.4105453491211, 0.014526784, 0.0074571734, 0.3262005
608, 2937620946, -0.45998871326446533, -0.0018848921172320843, -93.4110336303711, -0.00655564, 0.003373303, 0.3463936
609, 2937637613, -0.46025362610816956, -0.0015730514423921704, -93.41055297851562, -6.9536455E-4, -1.4861866E-5, 0.34485912
610, 2937654280, -0.4595339596271515, -0.0017366824904456735, -93.41036224365234, -9.261032E-4, 0.0036695292, 0.35295582
611, 2937670947, -0.45940396189689636, -0.001478069112636149, -93.409912109375, -3.9791243E-4, -0.00838901, 0.3242798
612, 2937687614, -0.4594391882419586, -5.45774819329381E-4, -93.40940856933594, -0.011540783, -0.0026678594, 0.36443138
613, 2937704281, -0.45908573269844055, -8.230111561715603E-4, -93.40847778320312, 0.005147065, -0.011098019, 0.33830452
614, 2937720948, -0.45938587188720703, -3.23019950883463E-4, -93.40897369384766, 0.0031414588, -0.006381618, 0.38170338
615, 2937737615, -0.45977866649627686, -0.0018319848459213972, -93.40959930419922, 0.002403634, -8.2439434E-4, 0.34191418
616, 2937754282, -0.4596119225025177, -0.002157726092264056, -93.40965270996094, 0.0063742036, 6.155407E-4, 0.36411476
617, 2937770949, -0.4602333605289459, -0.0021425450686365366, -93.41036987304688, 0.0043552252, -0.0119865425, 0.34377193
618, 2937787616, -0.45957711338996887, -0.002862116089090705, -93.41007232666016, 1.1935068E-4, -0.005563325, 0.34290123
619, 2937804283, -0.4597078561782837, -0.003325261641293764, -93.41065979003906, 0.0042105108, -0.001627913, 0.32952118
620, 2937820950, -0.45984387397766113, -0.003517600940540433, -93.4101333618164, 7.369449E-4, -0.024732322, 0.3416891
621, 2937837617, -0.46010327339172363, -0.004996470175683498, -93.41033935546875, -0.009605052, 0.0066594463, 0.34321117
622, 2937854284, -0.4602011740207672, -0.004738256800919771, -93.4104232788086, 0.0042652944, -0.014174806, 0.3433056
623, 2937870951, -0.461131751537323, -0.0042235651053488255, -93.41105651855469, 0.0014943902, -0.0056678383, 0.34742165
624, 2937887618, -0.4607495069503784, -0.005673806183040142, -93.41194152832031, -0.0082158875, -0.003776646, 0.34211636
625, 2937904285, -0.4611697494983673, -0.004843671340495348, -93.41029357910156, 0.0020308893, -0.014095418, 0.3509016
626, 2937920952, -0.46161678433418274, -0.006660474929958582, -93.40983581542969, 0.0055620866, -0.00739171, 0.36165714
627, 2937937619, -0.4625491797924042, -0.006145222578197718, -93.41000366210938, -0.0058485237, 0.005053499, 0.3500538
628, 2937954286, -0.46086275577545166, -0.0057230847887694836, -93.4095687866211, -0.0028664244, 0.0034588035, 0.35698223
629, 2937970953, -0.4609227180480957, -0.00765250762924552, -93.409423828125, 0.0025912137, 0.0063377116, 0.36907196
630, 2937987620, -0.4598449468612671, -0.0071272230707108974, -93.41033172607422, 7.1814015E-5, 0.020105124, 0.34411907
631, 2938004287, -0.45970427989959717, -0.007769500371068716, -93.40924835205078, 0.0026936997, -0.0019608617, 0.35399628
632, 2938020954, -0.4597354531288147, -0.007822247222065926, -93.41114044189453, -7.8302E-4, 0.0041090236, 0.34491825
633, 2938037621, -0.46024367213249207, -0.00867185927927494, -93.41114807128906, 0.0011957943, -0.0013957389, 0.36199474
634, 2938054288, -0.4611946940422058, -0.008672499097883701, -93.41158294677734, -4.3511164E-4, 0.007097666, 0.35142612
635, 2938070955, -0.46141141653060913, -0.009053203277289867, -93.41165924072266, -0.008619789, -0.010974043, 0.36031437
636, 2938087622, -0.461788147687912, -0.009565893560647964, -93.4112319946289, 0.0024039499, -0.00816222, 0.3498249
637, 2938104289, -0.4619143307209015, -0.009422379545867443, -93.4115219116211, 0.0031547176, -5.565123E-4, 0.34819412
638, 2938120956, -0.46135491132736206, -0.010542583651840687, -93.41072845458984, 0.010575911, -0.006473026, 0.35334778
639, 2938137623, -0.46129822731018066, -0.010616675950586796, -93.41089630126953, 2.5759867E-4, 0.0065271757, 0.35974598
640, 2938154290, -0.460547536611557, -0.011903312988579273, -93.41114044189453, 0.0102551645, 0.003347824, 0.34654713
641, 2938170957, -0.4610793888568878, -0.012189753353595734, -93.4100570678711, 0.0011897682, 0.0012168481, 0.33865643
642, 2938187624, -0.4623086750507355, -0.013063990511000156, -93.41161346435547, -0.0010911414, -0.0011144391, 0.35678673
643, 2938204291, -0.4634435474872589, -0.012402530759572983, -93.41204071044922, 0.005845899, 9.305892E-4, 0.34183693
644, 2938220958, -0.46353259682655334, -0.013056600466370583, -93.41149139404297, 0.011314153, -9.98972E-4, 0.32599354
645, 2938237625, -0.4623238742351532, -0.014346654526889324, -93.41242980957031, 0.0041575944, -0.013656067, 0.34881878
646, 2938254292, -0.4615809917449951, -0.014344039373099804, -93.41202545166016, 0.011889887, -0.0052722325, 0.34870815
647, 2938270959, -0.4608963131904602, -0.015098600648343563, -93.41252899169922, 7.2804803E-4, -0.0042391415, 0.3576517
648, 2938287626, -0.4600909948348999, -0.014173564501106739, -93.41307830810547, -0.008150988, 5.2693003E-4, 0.34624672
649, 2938304293, -0.4594082832336426, -0.013143273070454597, -93.41419982910156, 0.0047747344, -0.0017728925, 0.3484888
650, 2938320960, -0.45898428559303284, -0.012280000373721123, -93.41476440429688, 0.007805909, -0.0026926221, 0.34727192
651, 2938337627, -0.45889660716056824, -0.011951003223657608, -93.41526794433594, 0.009527505, -0.0030665558, 0.36279488
652, 2938354294, -0.4593069553375244, -0.011643151752650738, -93.41500854492188, -0.003130753, -0.0051223966, 0.3241501
653, 2938370961, -0.4587016999721527, -0.01151975430548191, -93.4141616821289, -1.3499834E-5, 0.012513528, 0.3567114
654, 2938387628, -0.4593266546726227, -0.011733158491551876, -93.41419982910156, -0.0039987657, 0.0078098606, 0.35362148
655, 2938404295, -0.45829880237579346, -0.012305266223847866, -93.41364288330078, 5.143313E-4, -4.485608E-4, 0.33052063
656, 2938420962, -0.4586745798587799, -0.013427779078483582, -93.41424560546875, 0.0051042554, -0.0050310586, 0.34317112
657, 2938437629, -0.4584401249885559, -0.013361998833715916, -93.41322326660156, 8.2971674E-4, 0.01045883, 0.3737011
658, 2938454296, -0.4590846598148346, -0.011926565319299698, -93.41287994384766, 0.0026463394, 0.0017266882, 0.35991192
659, 2938470963, -0.46021565794944763, -0.01254368294030428, -93.41329956054688, 0.0014176082, 0.006945178, 0.33365822
660, 2938487630, -0.4595947861671448, -0.013285906054079533, -93.41504669189453, 0.0025845694, -0.0011504666, 0.351676
661, 2938504297, -0.4593642055988312, -0.013092673383653164, -93.41389465332031, 0.013147279, 0.0034277597, 0.3658657
662, 2938520964, -0.46072033047676086, -0.012256854213774204, -93.41445922851562, 0.011553261, 0.0039779213, 0.3615942
663, 2938537631, -0.4605070948600769, -0.012756339274346828, -93.41395568847656, 0.007594901, -0.0042208345, 0.34662628
664, 2938554298, -0.46045368909835815, -0.01320243626832962, -93.414306640625, 0.017307624, -0.0061451187, 0.34200954
665, 2938570965, -0.4607667624950409, -0.013577762991189957, -93.41463470458984, -0.009220376, -0.0031885242, 0.34908962
666, 2938587632, -0.4596134126186371, -0.012515588663518429, -93.41474914550781, 0.0038617956, 0.0012265187, 0.35773373
667, 2938604299, -0.45926719903945923, -0.011752674356102943, -93.41442108154297, -0.0047410186, 0.0052644145, 0.38439274
668, 2938620966, -0.45926332473754883, -0.011951284483075142, -93.41473388671875, 0.002754874, -0.020840243, 0.3546133
669, 2938637633, -0.4583829641342163, -0.011138798668980598, -93.41487884521484, -0.0031601642, 0.0038791983, 0.36152267
670, 2938654300, -0.4577651619911194, -0.010547653771936893, -93.41468048095703, 0.010716395, 0.001891234, 0.3365078
671, 2938670967, -0.4579959511756897, -0.010837522335350513, -93.41486358642578, -0.0053509404, 0.007826076, 0.3405571
672, 2938687634, -0.45801809430122375, -0.011263329535722733, -93.41572570800781, 0.0065278267, 0.0012511242, 0.3426485
673, 2938704301, -0.4578954577445984, -0.012749148532748222, -93.41514587402344, 0.0026755077, -0.009574489, 0.34488392
674, 2938720968, -0.45716944336891174, -0.012541001662611961, -93.41473388671875, 0.016109359, -0.010639782, 0.32717323
675, 2938737635, -0.4573478102684021, -0.011154180392622948, -93.41545104980469, -0.008350219, 0.005339868, 0.36062336
676, 2938754302, -0.4567272961139679, -0.011137037537992, -93.41572570800781, -0.0046989773, -0.0018054974, 0.34865856
677, 2938770969, -0.4568733870983124, -0.0114127267152071, -93.4173583984375, 0.0071982103, -0.0017643519, 0.35531616
678, 2938787636, -0.457766592502594, -0.010776398703455925, -93.41704559326172, 0.0065437593, -0.002485726, 0.34012604
679, 2938804303, -0.4589400589466095, -0.011863065883517265, -93.41683197021484, -0.008976064, -0.015831389, 0.3532505
680, 2938820970, -0.4590381979942322, -0.013151582330465317, -93.4166488647461, 0.01953441, -0.008140291, 0.35834122
681, 2938837637, -0.45959532260894775, -0.013081707991659641, -93.41754913330078, 0.010369663, -0.0022744904, 0.35089016
682, 2938854304, -0.4599679410457611, -0.012676484882831573, -93.41732025146484, 0.011540901, 0.0118132215, 0.3533249
683, 2938870971, -0.46089187264442444, -0.012246476486325264, -93.41706848144531, 0.0065222513, 0.0060535017, 0.35098553
684, 2938887638, -0.46087732911109924, -0.012956683523952961, -93.41778564453125, 0.0017635993, -0.007638363, 0.3386097
685, 2938904305, -0.4599083960056305, -0.013435330241918564, -93.41923522949219, -0.002647502, 0.0068892264, 0.35830593
686, 2938920972, -0.46018117666244507, -0.016021087765693665, -93.41840362548828, -0.011120288, 8.727343E-4, 0.335804
687, 2938937639, -0.45994728803634644, -0.01727820374071598, -93.41886138916016, 0.0016372289, 0.0052890675, 0.3548231
688, 2938954306, -0.45925173163414, -0.018007822334766388, -93.41996002197266, 0.008545849, -0.006420848, 0.346447
689, 2938970973, -0.4594074487686157, -0.018354615196585655, -93.42023468017578, -0.021849507, 0.0092381975, 0.3426113
690, 2938987640, -0.4582342505455017, -0.01895865984261036, -93.42012786865234, 0.010070741, 0.005771502, 0.34956837
691, 2939004307, -0.45835399627685547, -0.019487585872411728, -93.41976928710938, -0.008684109, -8.5582235E-4, 0.34193802
692, 2939020974, -0.4596900939941406, -0.019060898572206497, -93.42047119140625, -0.00656357, -0.0011422036, 0.34628487
693, 2939037641, -0.46077224612236023, -0.01875930279493332, -93.42105865478516, 0.0044468567, -0.0028406924, 0.35489178
694, 2939054308, -0.45788201689720154, -0.020664658397436142, -93.42003631591797, -0.019914813, -0.015744936, 0.23742199
695, 2939070975, -0.08519744127988815, -0.16116879880428314, -94.11676025390625, 1.1321435, -0.058073107, 0.39086342
696, 2939087642, -0.0010531937004998326, -0.1666097193956375, -95.28067779541016, 0.08913577, -0.34219688, 0.3751335
697, 2939104309, 0.018235649913549423, -0.1734069287776947, -95.81111907958984, -0.068974584, 0.10617416, 0.3560257
698, 2939120976, 0.0355612114071846, -0.17823198437690735, -96.11051177978516, 0.32216096, -0.21153435, 0.35711384
699, 2939137643, 0.04097715765237808, -0.18844687938690186, -96.23477172851562, 0.1474117, -0.030064605, 0.38787937
700, 2939154310, 0.042696911841630936, -0.2030637264251709, -96.20623779296875, 0.114974864, 0.13419583, 0.35078335
701, 2939170977, 0.05126487463712692, -0.21484073996543884, -96.1870346069336, 0.24814856, 0.18619639, 0.38228226
702, 2939187644, 0.06535010039806366, -0.2260662168264389, -96.1256332397461, 0.401433, 0.24845041, 0.29526234
703, 2939204311, 0.08336161077022552, -0.21995100378990173, -96.00109100341797, 0.447506, 0.09596057, 0.32349205
704, 2939220978, 0.09869043529033661, -0.21470755338668823, -95.84092712402344, 0.19177578, -0.070977844, 0.36742687
705, 2939237645, 0.12035758048295975, -0.21190066635608673, -95.74603271484375, 0.26235858, -0.0083778, 0.3347664
706, 2939254312, 0.1420591175556183, -0.21350562572479248, -95.60428619384766, 0.44504088, 0.15295586, 0.38519573
707, 2939270979, 0.16625331342220306, -0.20850706100463867, -95.37339782714844, 0.25188515, -0.06921305, 0.31319427
708, 2939287646, 0.18221141397953033, -0.19834712147712708, -95.098388671875, 0.26775673, -0.45790768, 0.37398148
709, 2939304313, 0.19669075310230255, -0.19655334949493408, -94.83625030517578, 0.03281056, -0.3124914, 0.3529358
710, 2939320980, 0.21669195592403412, -0.2022874802350998, -94.88214111328125, 0.011429607, 0.10855276, 0.36455536
711, 2939337647, 0.24219194054603577, -0.21393659710884094, -94.97156524658203, 0.2799971, 0.24714409, 0.33761692
712, 2939354314, 0.25878965854644775, -0.22244621813297272, -94.95873260498047, 0.092329666, 0.036752496, 0.3638544
713, 2939370981, 0.2733089327812195, -0.22696715593338013, -94.95365142822266, 0.036130354, -0.21206488, 0.31216717
714, 2939387648, 0.27973249554634094, -0.23319858312606812, -95.0809555053711, 0.14606208, -0.27627003, 0.39181042
715, 2939404315, 0.285433828830719, -0.23965074121952057, -95.31560516357422, 0.25481367, 0.009031971, 0.34178543
716, 2939420982, 0.29158905148506165, -0.24890972673892975, -95.39659881591797, 0.27989945, 0.062966146, 0.34857655
717, 2939437649, 0.28607267141342163, -0.2553926408290863, -95.28559875488281, 0.16001299, -0.08808881, 0.350811
718, 2939454316, 0.27776530385017395, -0.25479692220687866, -95.03117370605469, 0.19165802, -0.17114693, 0.35985947
719, 2939470983, 0.2648329734802246, -0.2545497417449951, -94.75135803222656, 0.07374127, 0.14073561, 0.38370037
720, 2939487650, 0.24760515987873077, -0.2528977394104004, -94.48110961914062, 0.23987478, 0.23593433, 0.33500576
721, 2939504317, 0.2419138252735138, -0.2500387132167816, -94.2017822265625, 0.4170961, 0.0963256, 0.34405327
722, 2939520984, 0.2466341108083725, -0.24685876071453094, -93.90106201171875, 0.109358504, -0.19934262, 0.36435032
723, 2939537651, 0.25733545422554016, -0.2407422661781311, -93.6387710571289, 0.07859284, -0.15171377, 0.3340664
724, 2939554318, 0.2646061182022095, -0.23786614835262299, -93.53113555908203, -0.28807074, -0.3320392, 0.3508196
725, 2939570985, 0.261526882648468, -0.23606175184249878, -93.48063659667969, -0.062801525, -0.021522319, 0.31772518
726, 2939587652, 0.25367531180381775, -0.2356075644493103, -93.41000366210938, 0.040650316, 0.20166574, 0.3560028
727, 2939604319, 0.24395237863063812, -0.21997852623462677, -93.35477447509766, 0.15847898, 0.25064597, 0.3524437
728, 2939620986, 0.2249556928873062, -0.2000872790813446, -93.45568084716797, -0.13023439, -0.22172326, 0.33876038
729, 2939637653, 0.2052672803401947, -0.1827886402606964, -93.68614959716797, 0.044124447, -0.17591912, 0.3322668
730, 2939654320, 0.20965994894504547, -0.15849849581718445, -94.01020050048828, 0.07419008, -0.5518514, 0.32738304
731, 2939670987, 0.22903329133987427, -0.1499975323677063, -94.22335815429688, 0.4844655, -0.31083587, 0.35087967
732, 2939687654, 0.25911179184913635, -0.14212068915367126, -94.03433990478516, 0.5701739, 0.37983382, 0.34093857
733, 2939704321, 0.28413107991218567, -0.1392967849969864, -93.62882995605469, 0.30647284, 0.45337006, 0.32487583
734, 2939720988, 0.29964157938957214, -0.13693442940711975, -93.31008911132812, -0.50252813, 0.09789961, 0.35680008
735, 2939737655, 0.29442983865737915, -0.1400027722120285, -93.24893188476562, -0.25854233, 0.12448114, 0.3500862
736, 2939754322, 0.2943253815174103, -0.14973418414592743, -93.22268676757812, 0.0723798, -0.040524334, 0.36746407
737, 2939770989, 0.289368212223053, -0.1591051071882248, -93.19416809082031, -0.07749869, 0.06337065, 0.33818054
738, 2939787656, 0.2873878479003906, -0.17073430120944977, -93.28633880615234, -0.4395998, 0.13249105, 0.3070593
739, 2939804323, 0.2902008295059204, -0.18606582283973694, -93.6633071899414, -0.32144675, 0.052344803, 0.34403133
740, 2939820990, 0.29669106006622314, -0.18783065676689148, -93.98418426513672, 0.017649075, 0.2048314, 0.30807972
741, 2939837657, 0.30061328411102295, -0.18993453681468964, -94.00972747802734, 0.14818308, 0.5284979, 0.35686874
742, 2939854324, 0.3021346628665924, -0.18104225397109985, -93.8318099975586, 0.010631008, 0.25106767, 0.3447609
743, 2939870991, 0.2922309637069702, -0.1678144484758377, -93.74730682373047, -0.69541216, -0.03965617, 0.32911682
744, 2939887658, 0.2747632563114166, -0.14901943504810333, -94.03816986083984, -0.40726656, -0.29386705, 0.36463737
745, 2939904325, 0.258708655834198, -0.1317369043827057, -94.3283920288086, 0.34516022, -0.010577033, 0.3450098
746, 2939920992, 0.2498040795326233, -0.11480788886547089, -94.50047302246094, 0.38975132, 0.10414964, 0.3630457
747, 2939937659, 0.23615549504756927, -0.09658307582139969, -94.62079620361328, 0.2800638, 0.048247702, 0.33122635
748, 2939954326, 0.2187412530183792, -0.07697957009077072, -94.85819244384766, -0.19362679, -0.22716074, 0.3214121
749, 2939970993, 0.21381361782550812, -0.06819779425859451, -95.17726135253906, 0.1355391, -0.08752485, 0.33993435
750, 2939987660, 0.2063281238079071, -0.0715675801038742, -95.36763763427734, 0.11930412, 0.07448536, 0.3347063
751, 2940004327, 0.19731511175632477, -0.0827636867761612, -95.46019744873047, 0.21889296, 0.21779956, 0.3173418
752, 2940020994, 0.18672820925712585, -0.09305012226104736, -95.43479919433594, 0.33441997, 0.32853115, 0.3503933
753, 2940037661, 0.18839029967784882, -0.10296976566314697, -95.38031768798828, 0.0686267, 0.24336968, 0.32276917
754, 2940054328, 0.2019449770450592, -0.1110355481505394, -95.38619995117188, -0.04831895, -0.02575491, 0.35468292
755, 2940070995, 0.215570867061615, -0.12485339492559433, -95.38059997558594, 0.049613982, -0.21584083, 0.34700394
756, 2940087662, 0.21976493299007416, -0.13319627940654755, -95.33189392089844, 0.09407654, -0.06980827, 0.3326397
757, 2940104329, 0.21086828410625458, -0.13883545994758606, -95.28694915771484, -0.0186797, -0.064582095, 0.3561821
758, 2940120996, 0.19908438622951508, -0.14587250351905823, -95.38524627685547, -0.31083465, -0.15614241, 0.33038807
759, 2940137663, 0.1992500126361847, -0.15797625482082367, -95.49449920654297, -0.04312843, 0.1973064, 0.3520136
760, 2940154330, 0.21040935814380646, -0.17767970263957977, -95.45127868652344, 0.015963025, 0.3606761, 0.35384083
761, 2940170997, 0.2247263789176941, -0.19237270951271057, -95.3530502319336, -0.11158499, 0.1653923, 0.34451485
762, 2940187664, 0.23720142245292664, -0.20396606624126434, -95.27935791015625, -0.0055812714, -0.005408785, 0.32013893
763, 2940204331, 0.25483155250549316, -0.20757760107517242, -95.26685333251953, -0.09660603, 0.04143672, 0.36133862
764, 2940220998, 0.2692371606826782, -0.21103844046592712, -95.30998229980469, -0.017456356, -0.19580808, 0.34363747
765, 2940237665, 0.26973187923431396, -0.21480518579483032, -95.3394546508789, 0.07854715, -0.43779084, 0.39317703
766, 2940254332, 0.255369633436203, -0.21946948766708374, -95.34635925292969, 0.31784967, -0.52538145, 0.364604
767, 2940270999, 0.22705835103988647, -0.22101318836212158, -95.42439270019531, -0.04772019, -0.14932238, 0.37226772
768, 2940287666, 0.19008766114711761, -0.2163357436656952, -95.6732177734375, -0.036748394, -0.011621594, 0.322546
769, 2940304333, 0.14554814994335175, -0.20636865496635437, -95.87016296386719, 0.08539929, 0.145305, 0.3342142
770, 2940321000, 0.11616399139165878, -0.19502538442611694, -95.95223999023438, 0.04834196, 0.03918177, 0.37242603
771, 2940337667, 0.09417763352394104, -0.1853879690170288, -95.91417694091797, -0.07601881, -0.2522548, 0.3429966
772, 2940354334, 0.08722445368766785, -0.18341918289661407, -95.92691040039062, -0.056912906, -0.27567387, 0.33350468
773, 2940371001, 0.08569098263978958, -0.18910977244377136, -96.00494384765625, 0.058860976, -0.066335306, 0.36566544
774, 2940387668, 0.07843971997499466, -0.19541901350021362, -96.10269927978516, 0.15651423, -0.17782764, 0.35806656
775, 2940404335, 0.08463028818368912, -0.20072604715824127, -96.16099548339844, 0.15031336, -0.40117633, 0.36093426
776, 2940421002, 0.10512502491474152, -0.20774389803409576, -96.21295166015625, 0.0077342284, -0.08605228, 0.32899666
777, 2940437669, 0.1353159248828888, -0.21936605870723724, -96.12052154541016, 0.27549532, 0.35954592, 0.3614397
778, 2940454336, 0.18296180665493011, -0.2208751142024994, -95.77477264404297, 0.0484557, 0.59309715, 0.3617277
779, 2940471003, 0.2104862928390503, -0.2146938592195511, -95.4922103881836, -0.3028465, 0.17129433, 0.33697605
780, 2940487670, 0.22887340188026428, -0.2001088708639145, -95.34354400634766, -0.3104109, -0.11287894, 0.35573483
781, 2940504337, 0.2576117217540741, -0.18723471462726593, -95.29125213623047, -0.27726734, -0.16344659, 0.36163712
782, 2940521004, 0.2924783229827881, -0.17616692185401917, -95.37049865722656, -0.22241606, -0.0066770357, 0.36148167
783, 2940537671, 0.3238765001296997, -0.16483885049819946, -95.51342010498047, -0.069872916, 0.042923193, 0.3361225
784, 2940554338, 0.3410259187221527, -0.14948731660842896, -95.6886978149414, 0.050023213, -0.061209526, 0.3640356
785, 2940571005, 0.3514580726623535, -0.1387813538312912, -95.77608489990234, 0.18329671, 0.026101677, 0.35062027
786, 2940587672, 0.34183475375175476, -0.11968225985765457, -95.8461685180664, -0.046926085, 0.11435731, 0.32719803
787, 2940604339, 0.33385130763053894, -0.09371380507946014, -95.92725372314453, -0.04347652, -0.06360828, 0.3477726
788, 2940621006, 0.3093950152397156, -0.06052260845899582, -96.07093811035156, -0.27701458, -0.14246032, 0.36338615
789, 2940637673, 0.2595679759979248, -0.028502779081463814, -96.2081298828125, -0.088008374, -0.1116967, 0.36430454
790, 2940654340, 0.22595717012882233, -0.012587519362568855, -96.31613159179688, 0.024085525, 0.045632698, 0.3256817
791, 2940671007, 0.19662243127822876, -0.001366211217828095, -96.3686752319336, -0.02331508, 0.41316864, 0.32211113
792, 2940687674, 0.17432047426700592, 0.014119897037744522, -96.41403198242188, -0.022302315, 0.43716612, 0.31795025
793, 2940704341, 0.1638798713684082, 0.021926062181591988, -96.49788665771484, -0.052836373, 0.066041976, 0.36296177
794, 2940721008, 0.1520131230354309, 0.020275766029953957, -96.57266998291016, -0.037907522, -0.15822965, 0.3535509
795, 2940737675, 0.14958779513835907, 0.013200595043599606, -96.69917297363281, -0.08628839, -0.08356881, 0.34402275
796, 2940754342, 0.1514282524585724, 4.2215106077492237E-4, -96.78038787841797, -0.10035096, 0.18151465, 0.35813904
797, 2940771009, 0.157680481672287, -0.011633440852165222, -96.93359375, -0.18613435, 0.061462577, 0.33456898
798, 2940787676, 0.17255479097366333, -0.023633457720279694, -97.06443786621094, 0.024425572, -0.023437517, 0.34764004
799, 2940804343, 0.19933442771434784, -0.03849449381232262, -97.1171646118164, 0.13592169, 0.27950573, 0.33063126
800, 2940821010, 0.22474415600299835, -0.05631963908672333, -97.12874603271484, 0.117667876, 0.31972104, 0.35918427
801, 2940837677, 0.2489461749792099, -0.07034926116466522, -97.08838653564453, -0.025396297, 0.2719984, 0.33671665
802, 2940854344, 0.27278637886047363, -0.08093573898077011, -97.07344818115234, -0.0544591, 0.025993075, 0.36987877
803, 2940871011, 0.28349819779396057, -0.08719880133867264, -97.06217956542969, -0.15986201, 0.008627221, 0.35173798
804, 2940887678, 0.29525646567344666, -0.09169792383909225, -97.11027526855469, -0.18246938, -0.24889693, 0.38345242
805, 2940904345, 0.3099404275417328, -0.09489452093839645, -97.16240692138672, 0.0065389657, -0.045003902, 0.33152008
806, 2940921012, 0.32238468527793884, -0.10110799968242645, -97.19330596923828, 0.072855085, 0.085080795, 0.3675251
807, 2940937679, 0.331094354391098, -0.11021971702575684, -97.15116119384766, 0.01955524, 0.21594219, 0.34867668
808, 2940954346, 0.3366145193576813, -0.11214554309844971, -97.08425903320312, -0.14580053, 0.03298909, 0.32577324
809, 2940971013, 0.3414974808692932, -0.11117558181285858, -97.04267120361328, -0.2032246, -0.17911214, 0.34180546
810, 2940987680, 0.34847572445869446, -0.11036986112594604, -97.07803344726562, -0.10372407, -0.18471186, 0.3338251
811, 2941004347, 0.36264568567276, -0.11087819188833237, -97.10515594482422, -0.030868791, 0.03127685, 0.36109638
812, 2941021014, 0.3665933310985565, -0.1154235303401947, -97.1029281616211, -0.13033803, 0.06466517, 0.3267994
813, 2941037681, 0.36799225211143494, -0.11602789163589478, -97.07982635498047, -0.20415859, 0.005691417, 0.33603287
814, 2941054348, 0.3708355128765106, -0.11512046307325363, -97.12110900878906, -0.27742562, -0.1057746, 0.32457733
815, 2941071015, 0.3634067475795746, -0.12407984584569931, -97.13668823242188, -0.08626829, 0.08514785, 0.362216
816, 2941087682, 0.35325726866722107, -0.138946071267128, -97.10677337646484, -0.050426457, 0.28468674, 0.35610676
817, 2941104349, 0.33833053708076477, -0.15206454694271088, -97.04247283935547, -0.15246707, 0.19252339, 0.34627628
818, 2941121016, 0.31789740920066833, -0.16231763362884521, -96.98796844482422, -0.14466757, 0.13934529, 0.33555508
819, 2941137683, 0.3007098138332367, -0.16728755831718445, -96.91199493408203, -0.12017546, 0.09139824, 0.38059807
820, 2941154350, 0.27916058897972107, -0.17276924848556519, -96.81842041015625, -0.28486958, 0.026417319, 0.32455444
821, 2941171017, 0.25808730721473694, -0.17531482875347137, -96.7572021484375, -0.22760032, -0.0419623, 0.35711765
822, 2941187684, 0.23701085150241852, -0.1778995245695114, -96.7272720336914, -0.12761874, -0.021995328, 0.33931255
823, 2941204351, 0.21793650090694427, -0.17418666183948517, -96.70790100097656, -0.22744517, -0.11242451, 0.35375404
824, 2941221018, 0.20201349258422852, -0.15421217679977417, -96.7723159790039, -0.37565547, -0.2955025, 0.35568428
825, 2941237685, 0.18873420357704163, -0.13840912282466888, -96.87921142578125, 0.014093853, -0.24133258, 0.35080814
826, 2941254352, 0.17867569625377655, -0.1358274221420288, -96.9005126953125, -0.106981, -0.057688434, 0.3490219
827, 2941271019, 0.17417024075984955, -0.13611890375614166, -96.89346313476562, -0.07886337, -0.008099381, 0.33922482
828, 2941287686, 0.16742490231990814, -0.1390754133462906, -96.913818359375, -0.1494432, -0.012007383, 0.37484264
829, 2941304353, 0.16407747566699982, -0.1428152322769165, -96.96784210205078, -0.16471179, 0.045431066, 0.33149052
830, 2941321020, 0.16042070090770721, -0.15070012211799622, -97.03691101074219, -0.16470242, -0.005507116, 0.36467743
831, 2941337687, 0.1593628227710724, -0.16101431846618652, -97.10779571533203, -0.21346703, 0.024405835, 0.33041382
832, 2941354354, 0.15973718464374542, -0.16825807094573975, -97.14177703857422, -0.25722998, 0.039769955, 0.36673355
833, 2941371021, 0.16013801097869873, -0.1750483512878418, -97.1866455078125, -0.3012282, 0.07494931, 0.3453827
834, 2941387688, 0.15748097002506256, -0.17792168259620667, -97.21804809570312, -0.30504155, 0.03471281, 0.36858368
835, 2941404355, 0.15625011920928955, -0.17531540989875793, -97.26333618164062, -0.27747446, 0.032378804, 0.35060883
836, 2941421022, 0.15275529026985168, -0.17603236436843872, -97.3191146850586, -0.19119571, 0.026478434, 0.3582077
837, 2941437689, 0.14787690341472626, -0.1808810979127884, -97.36791229248047, 0.12604564, 0.055154067, 0.34026146
838, 2941454356, 0.1534176468849182, -0.19237567484378815, -97.3479995727539, -0.033451125, -0.01785417, 0.34664536
839, 2941471023, 0.14278195798397064, -0.2005089968442917, -97.32730865478516, -0.39648476, 0.033789724, 0.361022
840, 2941487690, 0.14166326820850372, -0.19993847608566284, -97.32804107666016, -0.003414576, 0.008623818, 0.3696785
841, 2941504357, 0.1432989537715912, -0.19613710045814514, -97.32978820800781, -0.008745157, 0.0117696505, 0.35539532
842, 2941521024, 0.1472339928150177, -0.19200782477855682, -97.32999420166016, -0.010391378, 0.008113904, 0.37291336
843, 2941537691, 0.15347634255886078, -0.18611951172351837, -97.32843017578125, -0.011298651, 0.012190045, 0.3467989
844, 2941554358, 0.16825494170188904, -0.16869792342185974, -97.32589721679688, -0.0150498245, 0.014834192, 0.36964607
845, 2941571025, 0.1946333795785904, -0.12934182584285736, -97.31757354736328, -0.013333718, -0.015335163, 0.36558533
846, 2941587692, 0.18546465039253235, -0.07101956754922867, -97.30807495117188, 0.06747473, 0.019746995, 0.4102316
847, 2941604359, 0.09537672251462936, 0.014111743308603764, -97.64413452148438, 0.48340717, 0.6675533, 0.4853258
848, 2941621026, -0.08305186778306961, 0.08072426915168762, -98.44337463378906, -0.58632886, -0.53725845, -0.6161566
849, 2941637693, 0.08840623497962952, 0.14157763123512268, -98.44376373291016, 0.03777807, -0.11150857, 1.0591822
850, 2941654360, 0.11237172782421112, 0.15129221975803375, -98.44327545166016, 0.031131849, 0.022568278, 0.38106537
851, 2941671027, 0.11073087900876999, 0.15228502452373505, -98.44184112548828, 0.013027983, 0.01688432, 0.38438034
852, 2941687694, 0.11123930662870407, 0.15277813374996185, -98.44127655029297, 0.00973441, 3.5391355E-4, 0.34254074
853, 2941704361, 0.11044866591691971, 0.15345384180545807, -98.44099426269531, 0.018354625, 0.00938866, 0.33733845
854, 2941721028, 0.11144448816776276, 0.15406513214111328, -98.43917083740234, 0.013355847, 0.020844368, 0.34792614
855, 2941737695, 0.11130423843860626, 0.155378058552742, -98.43848419189453, 0.00894704, 0.021823706, 0.32772827
856, 2941754362, 0.11172329634428024, 0.1564309448003769, -98.43917083740234, 0.0020824566, 0.011981584, 0.35920715
857, 2941771029, 0.11043959856033325, 0.15707029402256012, -98.4389419555664, -0.012207253, 0.015066649, 0.35042667
858, 2941787696, 0.11052002757787704, 0.15684255957603455, -98.43791961669922, 0.009425412, 0.014974809, 0.33425236
859, 2941804363, 0.11049305647611618, 0.15781737864017487, -98.43810272216797, 0.013232757, 0.014156801, 0.32555294
860, 2941821030, 0.11014280468225479, 0.15735140442848206, -98.4375991821289, 0.0045965817, 0.011405211, 0.34101868
861, 2941837697, 0.1090412512421608, 0.15731225907802582, -98.4375991821289, 0.009275949, 0.0086456435, 0.331316
862, 2941854364, 0.109080471098423, 0.15884651243686676, -98.43677520751953, -0.0012462446, 0.014936856, 0.3369255
863, 2941871031, 0.10795660316944122, 0.15794318914413452, -98.43705749511719, 0.0034865146, 0.03199322, 0.3484707
864, 2941887698, 0.10731060057878494, 0.1588943600654602, -98.43780517578125, 1.7361183E-4, 0.0095292125, 0.33726215
865, 2941904365, 0.10760007798671722, 0.15866754949092865, -98.43733978271484, 3.8950515E-4, -0.0027970367, 0.32765484
866, 2941921032, 0.10724690556526184, 0.15859568119049072, -98.4367446899414, 0.013358546, 0.010173003, 0.35085297
867, 2941937699, 0.10651201754808426, 0.15875881910324097, -98.4366226196289, -0.0010798344, 3.1523796E-4, 0.33550262
868, 2941954366, 0.10643928498029709, 0.15810516476631165, -98.43621063232422, -0.016282396, 0.018754274, 0.33256054
869, 2941971033, 0.10710234940052032, 0.15748901665210724, -98.43603515625, -0.00832885, 0.0042381105, 0.35665512
870, 2941987700, 0.10646812617778778, 0.15843503177165985, -98.43448638916016, 0.012727668, 0.021316784, 0.36395454
871, 2942004367, 0.10785583406686783, 0.15823820233345032, -98.43476104736328, 0.005570828, 0.027203675, 0.3508892
872, 2942021034, 0.10761398822069168, 0.1583462655544281, -98.43462371826172, 0.0024352162, 0.006884309, 0.338912
873, 2942037701, 0.10770681500434875, 0.15844953060150146, -98.43614196777344, 0.0040038377, 0.022985652, 0.33716393
874, 2942054368, 0.107394278049469, 0.157187357544899, -98.43584442138672, 0.006757866, 0.020900542, 0.35869408
875, 2942071035, 0.10739926248788834, 0.15572306513786316, -98.43724060058594, -8.531232E-5, 0.021078894, 0.35978317
876, 2942087702, 0.10705023258924484, 0.1552940011024475, -98.4373779296875, 0.0081726955, 0.0025191463, 0.34788895
877, 2942104369, 0.10751640796661377, 0.15447381138801575, -98.43701934814453, -0.004134453, 0.018365169, 0.37125492
878, 2942121036, 0.1073141098022461, 0.15467460453510284, -98.43650817871094, 0.011956283, 0.004799388, 0.3346691
879, 2942137703, 0.10723298788070679, 0.15423430502414703, -98.43557739257812, 0.008090753, 0.010257769, 0.35397053
880, 2942154370, 0.10762429982423782, 0.15378810465335846, -98.43635559082031, -0.0033505536, 0.026643729, 0.35072136
881, 2942171037, 0.1062869131565094, 0.15383869409561157, -98.43606567382812, 0.009285531, 0.015867157, 0.3425598
882, 2942187704, 0.10560587048530579, 0.15400120615959167, -98.43617248535156, -0.0038871884, 0.0043904185, 0.34532738
883, 2942204371, 0.1059228777885437, 0.15377897024154663, -98.43583679199219, 0.011195148, 0.012009077, 0.32447815
884, 2942221038, 0.10535159707069397, 0.1532246321439743, -98.4349594116211, 0.008720266, 0.006136142, 0.3325014
885, 2942237705, 0.10550887137651443, 0.15417689085006714, -98.43600463867188, -9.268459E-4, 0.014124564, 0.3579607
886, 2942254372, 0.10461300611495972, 0.15458936989307404, -98.43681335449219, -0.008699463, 0.0060170917, 0.35946655
887, 2942271039, 0.10436349362134933, 0.15396198630332947, -98.43716430664062, 0.0019522372, 0.0115131745, 0.3350315
888, 2942287706, 0.10464730858802795, 0.15390628576278687, -98.43653106689453, 0.010428032, 0.013604028, 0.35804272
889, 2942304373, 0.10413745790719986, 0.15453682839870453, -98.43626403808594, 0.005044745, 0.0037963728, 0.3223381
890, 2942321040, 0.10471977293491364, 0.15371675789356232, -98.43700408935547, 0.0073693846, 0.0043870853, 0.3331709
891, 2942337707, 0.10561872273683548, 0.15357889235019684, -98.43648529052734, -0.0057769706, 0.022092586, 0.3612995
892, 2942354374, 0.10507204383611679, 0.15327991545200348, -98.43634796142578, 3.4006557E-4, 0.029673727, 0.37493134
893, 2942371041, 0.10442044585943222, 0.152989000082016, -98.43592834472656, 0.0119712055, 0.009515806, 0.3506155
894, 2942387708, 0.10490772873163223, 0.15438328683376312, -98.4356689453125, 0.0049095135, 0.02571667, 0.34630585
895, 2942404375, 0.10498737543821335, 0.15444736182689667, -98.43596649169922, 0.0049621025, 0.013525423, 0.35508442
896, 2942421042, 0.1053909957408905, 0.15457189083099365, -98.43666076660156, -0.0016455427, 0.012787014, 0.3403902
897, 2942437709, 0.10478142648935318, 0.1548018753528595, -98.43629455566406, -0.007295061, 0.018119397, 0.33722973
898, 2942454376, 0.10386377573013306, 0.154012069106102, -98.43666076660156, -0.0027894392, 0.015660366, 0.34525776
899, 2942471043, 0.10337138175964355, 0.15324780344963074, -98.43795013427734, 0.0044256086, 0.011773704, 0.32045937
900, 2942487710, 0.10401184111833572, 0.15406613051891327, -98.43856048583984, 0.006709337, -0.003961382, 0.33956814
901, 2942504377, 0.10393891483545303, 0.1528901308774948, -98.43889617919922, -0.008524598, 0.008393761, 0.34463024
902, 2942521044, 0.1045832559466362, 0.153829425573349, -98.43795776367188, -0.011777037, 0.0053088902, 0.35005188
903, 2942537711, 0.10446873307228088, 0.15731295943260193, -98.43795013427734, -0.016062524, 0.018206429, 0.33089828
904, 2942554378, 0.10232941806316376, 0.15313662588596344, -98.43724060058594, 0.032460235, 0.014856432, 0.45022678
905, 2942571045, 0.10536710172891617, 0.1546725034713745, -98.43700408935547, 0.006583843, 0.004392108, 0.25444221
906, 2942587712, 0.10462118685245514, 0.15364466607570648, -98.43721771240234, -0.008864415, 0.018123925, 0.35421658
907, 2942604379, 0.10237378627061844, 0.15404298901557922, -98.43633270263672, 0.0011304083, 0.01868325, 0.31909084
908, 2942621046, 0.10406040400266647, 0.15354318916797638, -98.4364242553711, -0.0035813795, 0.012692369, 0.37279892
909, 2942637713, 0.10342694818973541, 0.1534045934677124, -98.43560028076172, 0.013775791, 0.022792656, 0.37089634
910, 2942654380, 0.10308822989463806, 0.15446719527244568, -98.43650817871094, -0.0048646117, -8.3757815E-4, 0.33274364
911, 2942671047, 0.10178234428167343, 0.1540868580341339, -98.43714904785156, 0.010175551, 0.008005223, 0.34315872
912, 2942687714, 0.10107804834842682, 0.15318357944488525, -98.43804168701172, 0.008050852, 0.010387162, 0.32314968
913, 2942704381, 0.10195489227771759, 0.15284767746925354, -98.4374008178711, 0.013451193, 0.02397351, 0.35408878
914, 2942721048, 0.10160019248723984, 0.15307803452014923, -98.43746948242188, 0.0054603596, 0.028561942, 0.36365223
915, 2942737715, 0.10213421285152435, 0.15345804393291473, -98.43887329101562, 0.0031432237, 0.01724485, 0.32632732
916, 2942754382, 0.1024055927991867, 0.15359945595264435, -98.4385986328125, 0.00922025, 0.016377944, 0.36714268
917, 2942771049, 0.10109933465719223, 0.15254582464694977, -98.4374008178711, 0.008093975, 0.012936951, 0.3487463
918, 2942787716, 0.10164936631917953, 0.15169139206409454, -98.43708038330078, 0.010744674, 0.013643008, 0.32744884
919, 2942804383, 0.10069631040096283, 0.1503164917230606, -98.43778228759766, 0.0018358615, 0.026465572, 0.37323475
920, 2942821050, 0.10203134268522263, 0.15062694251537323, -98.43727111816406, 0.006294914, 0.01538, 0.33750534
921, 2942837717, 0.10201601684093475, 0.15161927044391632, -98.43695831298828, -0.013015837, 0.01988325, 0.36954212
922, 2942854384, 0.10227186232805252, 0.15156136453151703, -98.43743133544922, -0.002261787, 0.011190949, 0.34277058
923, 2942871051, 0.10253509879112244, 0.15387190878391266, -98.43746185302734, -8.0587564E-4, 0.021500418, 0.33958817
924, 2942887718, 0.1019432544708252, 0.1550537645816803, -98.437744140625, 0.017641306, 0.011226566, 0.35392666
925, 2942904385, 0.10131371021270752, 0.1544419378042221, -98.4385757446289, -0.0068976884, 0.018983139, 0.31957626
926, 2942921052, 0.10258935391902924, 0.1532314270734787, -98.43964385986328, 0.0018712042, 0.009349038, 0.3453846
927, 2942937719, 0.10242782533168793, 0.1530841588973999, -98.43982696533203, -0.008946913, 0.009258023, 0.3360262
928, 2942954386, 0.10259861499071121, 0.15273863077163696, -98.43880462646484, 0.008013224, 0.018927932, 0.3508749
929, 2942971053, 0.10086935013532639, 0.15369988977909088, -98.43830871582031, 0.0010498638, 0.021888329, 0.35860443
930, 2942987720, 0.10042573511600494, 0.15437428653240204, -98.43758392333984, -0.0015757929, 0.018132618, 0.3383131
931, 2943004387, 0.10040583461523056, 0.15559740364551544, -98.43693542480469, 1.3044153E-4, 0.017407773, 0.34504128
932, 2943021054, 0.10020675510168076, 0.1543712317943573, -98.43675231933594, 0.0075959605, 0.0051229894, 0.35581493
933, 2943037721, 0.10024930536746979, 0.1547672003507614, -98.43777465820312, -0.0068960036, 0.013623747, 0.32490444
934, 2943054388, 0.10030511766672134, 0.15489381551742554, -98.43757629394531, 0.0047832173, 0.035674185, 0.36502743
935, 2943071055, 0.10034380108118057, 0.1547204703092575, -98.43782043457031, 0.0061033475, 0.014957965, 0.3661852
936, 2943087722, 0.10074597597122192, 0.1548004448413849, -98.43685913085938, 0.0061167832, 0.009736667, 0.35452366
937, 2943104389, 0.09996313601732254, 0.1546739935874939, -98.43635559082031, 0.004747854, 0.009380976, 0.34859085
938, 2943121056, 0.10079434514045715, 0.1546623855829239, -98.43621063232422, 0.008589747, 0.012102476, 0.34589863
939, 2943137723, 0.09995236247777939, 0.15459273755550385, -98.43610382080078, -0.006211934, 0.0032238339, 0.33575058
940, 2943154390, 0.10016848891973495, 0.1546371877193451, -98.43640899658203, 0.010559103, 0.0029919618, 0.36503315
941, 2943171057, 0.1004166379570961, 0.1555175930261612, -98.436279296875, -0.011114106, 0.003716136, 0.36252785
942, 2943187724, 0.10129338502883911, 0.15614280104637146, -98.43596649169922, 2.528225E-4, 0.02451797, 0.33258724
943, 2943204391, 0.10147213190793991, 0.15682290494441986, -98.43630981445312, 0.015389964, 0.007981038, 0.3623371
944, 2943221058, 0.10179003328084946, 0.15787054598331451, -98.4373550415039, 0.009036173, 0.014333017, 0.35011673
945, 2943237725, 0.10169526934623718, 0.15558090806007385, -98.4375991821289, -0.011729037, 0.016797082, 0.3382063
946, 2943254392, 0.10201236605644226, 0.15545667707920074, -98.43812561035156, -0.008013121, 0.01792352, 0.35452557
947, 2943271059, 0.10121002048254013, 0.15635526180267334, -98.43909454345703, -0.0137132965, 0.010725571, 0.3481121
948, 2943287726, 0.1007956713438034, 0.15693914890289307, -98.438720703125, -0.003283521, 0.015811574, 0.33498383
949, 2943304393, 0.10015860199928284, 0.15677303075790405, -98.43772888183594, 0.004998318, 0.017903084, 0.35842705
950, 2943321060, 0.09933272004127502, 0.1569877713918686, -98.43762969970703, 0.007379582, 0.012232158, 0.34264374
951, 2943337727, 0.09951690584421158, 0.15579143166542053, -98.43830108642578, 0.00315516, 0.009376951, 0.35372162
952, 2943354394, 0.0994798094034195, 0.1550430804491043, -98.4380874633789, 0.0109962905, 0.014858817, 0.36769676
953, 2943371061, 0.09948752075433731, 0.1541370302438736, -98.43873596191406, -0.0042092153, 0.01591713, 0.34104538
954, 2943387728, 0.09966632723808289, 0.15307091176509857, -98.43855285644531, -0.005680868, 0.012475501, 0.36914635
955, 2943404395, 0.09985338896512985, 0.15278558433055878, -98.4383544921875, -0.0014371636, 0.014702658, 0.32504463
956, 2943421062, 0.09966179728507996, 0.15129314363002777, -98.4378662109375, -0.0045299986, 0.02499089, 0.3705969
957, 2943437729, 0.09888254106044769, 0.1519032120704651, -98.43778228759766, 0.011272469, 0.013394825, 0.33125305
958, 2943454396, 0.09723668545484543, 0.15110796689987183, -98.43834686279297, 8.6296006E-4, 0.0014795108, 0.3424797
959, 2943471063, 0.09693235903978348, 0.1503881812095642, -98.4378433227539, 0.0123877125, 0.0040200874, 0.35078716
960, 2943487730, 0.09624580293893814, 0.15051144361495972, -98.43804931640625, -0.006658039, 0.023868743, 0.37192822
961, 2943504397, 0.09602251648902893, 0.15003691613674164, -98.43716430664062, 0.0059927665, 0.025349798, 0.37534714
962, 2943521064, 0.09594683349132538, 0.14978209137916565, -98.43746185302734, 0.006712598, 0.01822621, 0.35144615
963, 2943537731, 0.09544658660888672, 0.15220916271209717, -98.43720245361328, -0.01312613, 0.0066550896, 0.35752487
964, 2943554398, 0.09585389494895935, 0.15299272537231445, -98.43824768066406, 0.0019570794, 0.028565308, 0.34905434
965, 2943571065, 0.0950060784816742, 0.15282219648361206, -98.4376449584961, -0.0018448883, 0.009126355, 0.35445118
966, 2943587732, 0.09435596317052841, 0.15336546301841736, -98.43939208984375, -0.0018675937, 0.020328986, 0.35796452
967, 2943604399, 0.09415248781442642, 0.1519484519958496, -98.4400863647461, -0.011747241, 0.018676192, 0.35447598
968, 2943621066, 0.09346450865268707, 0.15284784138202667, -98.43916320800781, 0.0028590297, 0.01146597, 0.35955715
969, 2943637733, 0.092805415391922, 0.15293172001838684, -98.43891143798828, 0.0010306012, 0.025689993, 0.33798409
970, 2943654400, 0.09324225038290024, 0.15289601683616638, -98.43798065185547, -0.013937175, 0.022949765, 0.3587227
971, 2943671067, 0.0931505635380745, 0.15392261743545532, -98.43740844726562, 0.0063329046, 0.018422507, 0.34510422
972, 2943687734, 0.09296875447034836, 0.15327325463294983, -98.4368667602539, 0.004665186, 0.022612005, 0.3419447
973, 2943704401, 0.09386822581291199, 0.1537153124809265, -98.43596649169922, 0.006386823, 0.017875746, 0.35643005
974, 2943721068, 0.09290635585784912, 0.15361036360263824, -98.43537139892578, 0.006292074, 0.016037773, 0.3501215
975, 2943737735, 0.09320644289255142, 0.15387047827243805, -98.43572235107422, 0.008725591, 0.01917798, 0.3418932
976, 2943754402, 0.09230455011129379, 0.15431427955627441, -98.43659210205078, 0.004032905, 0.009353684, 0.3473072
977, 2943771069, 0.09148422628641129, 0.1538097858428955, -98.43717956542969, -0.0025649692, 0.010615927, 0.34617615
978, 2943787736, 0.0911485105752945, 0.15505899488925934, -98.43670654296875, 0.0073512397, 0.008725983, 0.3492298
979, 2943804403, 0.09054727852344513, 0.1545935869216919, -98.43603515625, -0.007606001, 0.02279463, 0.37534237
980, 2943821070, 0.09080032259225845, 0.154522106051445, -98.43647003173828, 0.0126297595, 0.015809443, 0.3552618
981, 2943837737, 0.09094124287366867, 0.15461300313472748, -98.43521881103516, 0.01754996, 0.022917338, 0.3483715
982, 2943854404, 0.09108658134937286, 0.15325242280960083, -98.43682098388672, 0.004007608, 0.012845418, 0.33689213
983, 2943871071, 0.09094496071338654, 0.1536237895488739, -98.43702697753906, 0.02155863, 0.01148954, 0.34739208
984, 2943887738, 0.09104210883378983, 0.15244244039058685, -98.43721008300781, -0.0045040296, 0.02908982, 0.34875774
985, 2943904405, 0.09068082273006439, 0.1526654064655304, -98.4366455078125, 0.013964225, 0.018110095, 0.35474586
986, 2943921072, 0.09085474908351898, 0.15199631452560425, -98.43551635742188, -0.0042383806, 0.004213159, 0.34126377
987, 2943937739, 0.09200527518987656, 0.15217182040214539, -98.43595123291016, -0.008424115, 0.013151463, 0.35383606
988, 2943954406, 0.09172210097312927, 0.15275698900222778, -98.4345932006836, 5.395397E-4, 0.016147884, 0.33904457
989, 2943971073, 0.09197305887937546, 0.15176381170749664, -98.43404388427734, -0.0012130035, 0.019889973, 0.34149742
990, 2943987740, 0.09144289791584015, 0.15307511389255524, -98.4328842163086, 3.6644665E-4, 0.01486412, 0.35183144
991, 2944004407, 0.09147489070892334, 0.15165872871875763, -98.43345642089844, 0.0046642274, 0.018400716, 0.37275314
992, 2944021074, 0.09270989894866943, 0.15028004348278046, -98.43489074707031, -0.004161585, 0.011724723, 0.3505602
993, 2944037741, 0.09343826770782471, 0.15093880891799927, -98.43545532226562, -0.002264078, 0.018579392, 0.3460617
994, 2944054408, 0.09385067224502563, 0.15100322663784027, -98.43437194824219, -0.0076986314, 0.008616165, 0.34993935
995, 2944071075, 0.0932808592915535, 0.15045249462127686, -98.43448638916016, 0.0061214664, 0.030899696, 0.31957245
996, 2944087742, 0.09311660379171371, 0.15176087617874146, -98.43553161621094, -0.008370336, 0.01555602, 0.33911896
997, 2944104409, 0.09413857758045197, 0.15076394379138947, -98.43557739257812, 0.009470907, 0.012825734, 0.34193516
998, 2944121076, 0.09340928494930267, 0.15037603676319122, -98.43566131591797, 0.0011622574, 0.021894252, 0.34256077
999, 2944137743, 0.09359350055456161, 0.15095661580562592, -98.43592834472656, 0.007850173, 0.018097386, 0.33947563
1000, 2944154410, 0.09357372671365738, 0.1500663012266159, -98.43671417236328, -0.006149009, 0.014112211, 0.35430813
1001, 2944171077, 0.09439084678888321, 0.1492726057767868, -98.43793487548828, -0.009352234, 0.018401738, 0.3343277
1002, 2944187744, 0.09528909623622894, 0.1488676518201828, -98.43753814697266, 0.008144918, 0.023545746, 0.3383255
1003, 2944204411, 0.09506850689649582, 0.14956872165203094, -98.43669891357422, -0.009078479, 0.02548518, 0.3490696
1004, 2944221078, 0.09562280774116516, 0.14864669740200043, -98.43788146972656, 0.0116612315, 0.021857873, 0.3414011
1005, 2944237745, 0.09615236520767212, 0.14721617102622986, -98.43812561035156, 0.013496495, 0.022056922, 0.3611021
1006, 2944254412, 0.09544108062982559, 0.14813290536403656, -98.43838500976562, 6.8295083E-4, 0.004279882, 0.31852436
1007, 2944271079, 0.09550981223583221, 0.14846158027648926, -98.43733978271484, 0.011412961, 0.016380016, 0.34317112
1008, 2944287746, 0.09622577577829361, 0.1486636996269226, -98.43759155273438, -0.005280318, 0.024365604, 0.3630476
1009, 2944304413, 0.09650213271379471, 0.14902855455875397, -98.4369888305664, 0.0125266155, 0.014277325, 0.32762718
1010, 2944321080, 0.09669270366430283, 0.14868423342704773, -98.43721771240234, 0.01796368, 0.0151515575, 0.36641502
1011, 2944337747, 0.09702648967504501, 0.14868733286857605, -98.436767578125, 0.010111081, 0.019481383, 0.34105682
1012, 2944354414, 0.09681550413370132, 0.1483798772096634, -98.43696594238281, 0.0027224289, 0.013210045, 0.35388756
1013, 2944371081, 0.09645738452672958, 0.14806059002876282, -98.43888854980469, 0.0064407666, 0.024293005, 0.33343887
1014, 2944387748, 0.09663989394903183, 0.1468803733587265, -98.43858337402344, 0.0012604912, 0.019617738, 0.3380165
1015, 2944404415, 0.09658409655094147, 0.14735747873783112, -98.438720703125, 0.015311861, 0.0082509145, 0.35534
1016, 2944421082, 0.09630440175533295, 0.14682120084762573, -98.43868255615234, 0.016356042, 0.016601933, 0.35610676
1017, 2944437749, 0.09695277363061905, 0.14738133549690247, -98.43878173828125, 0.0119216945, 0.003979117, 0.34504032
1018, 2944454416, 0.09531807154417038, 0.1472262293100357, -98.44001007080078, 0.003391386, 0.0062437365, 0.3265028
1019, 2944471083, 0.09520155936479568, 0.14734667539596558, -98.44003295898438, 0.017102957, 0.017476184, 0.33937645
1020, 2944487750, 0.094527468085289, 0.14755141735076904, -98.43942260742188, 4.155801E-4, 0.03017654, 0.3595581
