sep=,
DeviceTag:,Movella DOT,,,,,,,,,,,,,,,,,
FirmwareVersion:,3.0.0,,,,,,,,,,,,,,,,,
AppVersion:,2023.6.1,,,,,,,,,,,,,,,,,
SyncStatus:,Un-synced,,,,,,,,,,,,,,,,,
OutputRate:,60Hz,,,,,,,,,,,,,,,,,
FilterProfile:,Dynamic,,,,,,,,,,,,,,,,,
Measurement Mode:,Sensor fusion Mode - Complete (Euler),,,,,,,,,,,,,,,,,
StartTime:,2024-10-22 13:52:53.685 +0700,,,,,,,,,,,,,,,,,
 2024,,,,,,,,,,,,,,,,,,,

PacketCounter,SampleTimeFine,Euler_X,Euler_Y,Euler_Z,FreeAcc_X,FreeAcc_Y,FreeAcc_Z
1, 31014378, -0.6447762250900269, -0.7774466276168823, -3.6821067333221436, -0.015178632, -0.0041966583, 0.334033
2, 31031045, -0.6539361476898193, -0.7832232713699341, -3.58654522895813, -0.0034009102, 0.0024055722, 0.32744217
3, 31047712, -0.6576582789421082, -0.7954660654067993, -3.6879312992095947, 0.0043655643, -0.007921628, 0.31583118
4, 31064379, -0.6676082015037537, -0.816260039806366, -3.6674892902374268, -0.009373896, 0.012854199, 0.30460453
5, 31081046, -0.6686465740203857, -0.830122709274292, -3.5553271770477295, -0.005650666, 0.008256746, 0.3343563
6, 31097713, -0.6679996252059937, -0.8449681401252747, -3.5207979679107666, -0.017828664, 0.002619205, 0.31102085
7, 31114380, -0.6691850423812866, -0.8567745685577393, -3.5061256885528564, -0.010469347, 0.004152015, 0.35782814
8, 31131047, -0.6720672845840454, -0.8691975474357605, -3.5205326080322266, -0.011705143, 0.005847333, 0.3500042
9, 31147714, -0.6743916273117065, -0.8828454613685608, -3.5464048385620117, -0.02453017, 0.0034640178, 0.2953081
10, 31164381, -0.6775877475738525, -0.8951359987258911, -3.5167205333709717, -0.021530993, -8.6636416E-4, 0.3363142
11, 31181048, -0.6822637915611267, -0.9086000919342041, -3.4818782806396484, -0.011507153, -0.0017746999, 0.32149315
12, 31197715, -0.6857491731643677, -0.923883318901062, -3.4771997928619385, -0.02565607, 0.0069746203, 0.33736134
13, 31214382, -0.6889048218727112, -0.9378732442855835, -3.491746187210083, -0.023913141, 0.010568849, 0.31785583
14, 31231049, -0.6937946081161499, -0.9518279433250427, -3.5017261505126953, -0.04426035, 5.3462904E-4, 0.32719612
15, 31247716, -0.6980606913566589, -0.9642675518989563, -3.5025088787078857, -0.04631168, 0.010419821, 0.32289028
16, 31264383, -0.7019927501678467, -0.9771857857704163, -3.5150833129882812, -0.037313078, 0.0077612638, 0.35158157
17, 31281050, -0.7070017457008362, -0.9901778697967529, -3.493476390838623, -0.03529438, 0.0012273376, 0.351758
18, 31297717, -0.7120278477668762, -1.0033857822418213, -3.4843552112579346, -0.033674184, -0.0077271014, 0.3290224
19, 31314384, -0.7166211009025574, -1.017480731010437, -3.4831652641296387, -0.054782413, 0.009484909, 0.33222866
20, 31331051, -0.7203169465065002, -1.0316641330718994, -3.4736127853393555, -0.05113018, 0.01689342, 0.34089565
21, 31347718, -0.7254500389099121, -1.045250654220581, -3.475262403488159, -0.034860708, 0.016633308, 0.34377098
22, 31364385, -0.7291225790977478, -1.0580689907073975, -3.4715023040771484, -0.04715942, 0.015013638, 0.33940506
23, 31381052, -0.7333774566650391, -1.0711090564727783, -3.465256452560425, -0.053175826, 0.012638704, 0.35333633
24, 31397719, -0.7372182607650757, -1.0863072872161865, -3.4571056365966797, -0.05660762, 0.019386044, 0.3386078
25, 31414386, -0.7409220337867737, -1.1012942790985107, -3.4590015411376953, -0.056613803, -2.505161E-4, 0.33308506
26, 31431053, -0.7448127865791321, -1.1137580871582031, -3.4613585472106934, -0.056789566, 0.010004684, 0.337389
27, 31447720, -0.7491342425346375, -1.1254711151123047, -3.434461832046509, -0.06744426, 0.014704167, 0.3321724
28, 31464387, -0.7530065178871155, -1.1387314796447754, -3.429475784301758, -0.0687471, 0.0120547945, 0.34614944
29, 31481054, -0.757138729095459, -1.1524949073791504, -3.4532930850982666, -0.06273876, 0.012239758, 0.3215599
30, 31497721, -0.7607851624488831, -1.166412115097046, -3.463131904602051, -0.06256889, 0.018414343, 0.3409109
31, 31514388, -0.7648352980613708, -1.1796265840530396, -3.459590435028076, -0.0665948, 0.01680176, 0.33477974
32, 31531055, -0.7686120867729187, -1.1943968534469604, -3.4526174068450928, -0.07356647, 0.024664916, 0.32126522
33, 31547722, -0.771900475025177, -1.2075167894363403, -3.4409143924713135, -0.0806171, 0.026849434, 0.3317337
34, 31564389, -0.7760012149810791, -1.2210873365402222, -3.4325544834136963, -0.066228695, 0.011280657, 0.33474922
35, 31581056, -0.7804046869277954, -1.236635446548462, -3.441481113433838, -0.07879864, 0.013111228, 0.32696152
36, 31597723, -0.7848100066184998, -1.2501128911972046, -3.4405570030212402, -0.09425026, 0.032511853, 0.34963894
37, 31614390, -0.7887471318244934, -1.2646708488464355, -3.432368278503418, -0.09477464, 0.020906165, 0.34009933
38, 31631057, -0.7914136052131653, -1.2792397737503052, -3.4108195304870605, -0.06772001, 0.023147868, 0.34130764
39, 31647724, -0.7952260971069336, -1.291824460029602, -3.3954315185546875, -0.09049072, 0.029659327, 0.344532
40, 31664391, -0.7994459867477417, -1.3059108257293701, -3.409003496170044, -0.10344043, 0.051222652, 0.34083652
41, 31681058, -0.8028242588043213, -1.3198957443237305, -3.4123404026031494, -0.10327084, 0.022455432, 0.32965374
42, 31697725, -0.8061527013778687, -1.3357489109039307, -3.408802032470703, -0.07944128, 0.02813533, 0.32601643
43, 31714392, -0.8099557757377625, -1.349971890449524, -3.403257369995117, -0.09511392, 0.011913625, 0.34177494
44, 31731059, -0.8151465058326721, -1.3638900518417358, -3.398582696914673, -0.11062915, 0.027054459, 0.33211136
45, 31747726, -0.8187722563743591, -1.377769112586975, -3.4039597511291504, -0.11629444, 0.046915095, 0.31273937
46, 31764393, -0.821707546710968, -1.3907216787338257, -3.402280569076538, -0.10322522, 0.02248696, 0.31865692
47, 31781060, -0.8250420093536377, -1.4033538103103638, -3.400322437286377, -0.11750464, 0.03269336, 0.32643795
48, 31797727, -0.8297340869903564, -1.4173119068145752, -3.4073073863983154, -0.12725712, 0.017819418, 0.33635807
49, 31814394, -0.833681583404541, -1.4306917190551758, -3.412196159362793, -0.11567613, 0.038969938, 0.32644367
50, 31831061, -0.8372771143913269, -1.4433976411819458, -3.4245736598968506, -0.11701563, 0.027197765, 0.32692242
51, 31847728, -0.8425469398498535, -1.455472707748413, -3.4270803928375244, -0.11371635, 0.033460673, 0.33242512
52, 31864395, -0.8462827801704407, -1.4691301584243774, -3.4389984607696533, -0.12979934, 0.04812171, 0.32364178
53, 31881062, -0.8490899801254272, -1.482483983039856, -3.43306303024292, -0.12422791, 0.04154687, 0.32329655
54, 31897729, -0.8532469272613525, -1.4959416389465332, -3.434687614440918, -0.13721032, 0.033779737, 0.32365894
55, 31914396, -0.8566178679466248, -1.5089201927185059, -3.436640501022339, -0.12306984, 0.036604553, 0.32227325
56, 31931063, -0.8605566620826721, -1.5217853784561157, -3.4377098083496094, -0.13485962, 0.03848188, 0.34682465
57, 31947730, -0.8647821545600891, -1.5341992378234863, -3.4468424320220947, -0.13448738, 0.041235454, 0.3439579
58, 31964397, -0.8685778975486755, -1.546597957611084, -3.4503488540649414, -0.12901029, 0.037564773, 0.32107353
59, 31981064, -0.8719778656959534, -1.559855580329895, -3.4570376873016357, -0.14253157, 0.050422806, 0.3491602
60, 31997731, -0.8753495812416077, -1.572688102722168, -3.451627254486084, -0.15156884, 0.02710425, 0.33668613
61, 32014398, -0.877882719039917, -1.5847548246383667, -3.458223342895508, -0.14156169, 0.049558066, 0.33621502
62, 32031065, -0.880997896194458, -1.5971052646636963, -3.4629831314086914, -0.15651552, 0.052997727, 0.3218851
63, 32047732, -0.8845991492271423, -1.6101547479629517, -3.4773921966552734, -0.15158756, 0.047315426, 0.32905388
64, 32064399, -0.8867965340614319, -1.6231759786605835, -3.4855308532714844, -0.15232833, 0.043340605, 0.33131123
65, 32081066, -0.8909108638763428, -1.635306477546692, -3.5059850215911865, -0.1533001, 0.04402913, 0.34706783
66, 32097733, -0.8948652148246765, -1.6477428674697876, -3.520059585571289, -0.15163046, 0.05575656, 0.3221817
67, 32114400, -0.8983157873153687, -1.660971760749817, -3.5160319805145264, -0.14587903, 0.038047057, 0.3214178
68, 32131067, -0.9011797308921814, -1.6724727153778076, -3.5358827114105225, -0.15846135, 0.04624293, 0.3410883
69, 32147734, -0.9043413996696472, -1.6838659048080444, -3.533083915710449, -0.15598358, 0.04791454, 0.321352
70, 32164401, -0.9083077311515808, -1.6961557865142822, -3.533111333847046, -0.15645012, 0.04711615, 0.33892822
71, 32181068, -0.9114370942115784, -1.7067698240280151, -3.545457363128662, -0.17098002, 0.05553602, 0.35916805
72, 32197735, -0.9149448275566101, -1.7198079824447632, -3.542769432067871, -0.17088749, 0.051488157, 0.32907963
73, 32214402, -0.9176002740859985, -1.7309561967849731, -3.5439116954803467, -0.1610447, 0.04823049, 0.34467793
74, 32231069, -0.9211099147796631, -1.7430968284606934, -3.543304443359375, -0.17389123, 0.044793487, 0.3390522
75, 32247736, -0.9254962801933289, -1.7542387247085571, -3.542872428894043, -0.16667052, 0.044616714, 0.34208584
76, 32264403, -0.9297429919242859, -1.7642576694488525, -3.5550761222839355, -0.17103648, 0.052744616, 0.34000778
77, 32281070, -0.9336748123168945, -1.7761921882629395, -3.554769992828369, -0.18228713, 0.068099044, 0.34695244
78, 32297737, -0.9360244870185852, -1.7873449325561523, -3.5582826137542725, -0.18450816, 0.052494653, 0.3148241
79, 32314404, -0.9392083287239075, -1.7991719245910645, -3.569995164871216, -0.17524014, 0.05581007, 0.33554173
80, 32331071, -0.9425947070121765, -1.8110419511795044, -3.590390920639038, -0.17532332, 0.06340338, 0.3512287
81, 32347738, -0.9458444118499756, -1.8220176696777344, -3.6069397926330566, -0.18394682, 0.056458026, 0.31904507
82, 32364405, -0.9494324922561646, -1.833177924156189, -3.6052334308624268, -0.20350002, 0.05167869, 0.32639027
83, 32381072, -0.9518775939941406, -1.8447492122650146, -3.605569839477539, -0.17921472, 0.055956874, 0.32796383
84, 32397739, -0.955986499786377, -1.8566398620605469, -3.614008903503418, -0.19282557, 0.05769806, 0.325634
85, 32414406, -0.9601858854293823, -1.8678934574127197, -3.6315207481384277, -0.1879075, 0.05833555, 0.323905
86, 32431073, -0.962804913520813, -1.8790138959884644, -3.629957914352417, -0.19623937, 0.06738139, 0.33443737
87, 32447740, -0.9654766917228699, -1.8888297080993652, -3.631984233856201, -0.19820975, 0.055146456, 0.3057356
88, 32464407, -0.9689409136772156, -1.8988888263702393, -3.638821840286255, -0.19250059, 0.06335274, 0.36096954
89, 32481074, -0.972769021987915, -1.9088555574417114, -3.665128231048584, -0.19019146, 0.06440884, 0.33409786
90, 32497741, -0.9756647944450378, -1.9184913635253906, -3.6746203899383545, -0.20573424, 0.056108322, 0.33614445
91, 32514408, -0.9782353639602661, -1.9291421175003052, -3.6844637393951416, -0.18993232, 0.06895606, 0.34953022
92, 32531075, -0.9806356430053711, -1.9384196996688843, -3.696259021759033, -0.21095964, 0.06097263, 0.34941578
93, 32547742, -0.9839349985122681, -1.947757363319397, -3.7046420574188232, -0.19672756, 0.072192915, 0.33124924
94, 32564409, -0.9866675734519958, -1.9575269222259521, -3.719454288482666, -0.21880054, 0.06249404, 0.3290968
95, 32581076, -0.990731954574585, -1.9677391052246094, -3.7183024883270264, -0.21419893, 0.055117615, 0.3290434
96, 32597743, -0.9938902854919434, -1.976712703704834, -3.7193470001220703, -0.21811713, 0.056305118, 0.34083557
97, 32614410, -0.9972368478775024, -1.9858453273773193, -3.730052947998047, -0.22024983, 0.067830436, 0.33853817
98, 32631077, -1.0002655982971191, -1.9952828884124756, -3.7274527549743652, -0.21833259, 0.07625992, 0.34691334
99, 32647744, -1.0029571056365967, -2.0049898624420166, -3.7375824451446533, -0.21668437, 0.070269875, 0.32099724
100, 32664411, -1.006829023361206, -2.0137996673583984, -3.748682737350464, -0.22142836, 0.07539292, 0.3303814
101, 32681078, -1.0089625120162964, -2.021831512451172, -3.7743895053863525, -0.21664217, 0.074719235, 0.33490276
102, 32697745, -1.011204481124878, -2.030627489089966, -3.7872486114501953, -0.22310741, 0.081184246, 0.36115456
103, 32714412, -1.014570713043213, -2.03922700881958, -3.7999112606048584, -0.21878396, 0.072694905, 0.33496284
104, 32731079, -1.0172264575958252, -2.0473215579986572, -3.819930076599121, -0.22086224, 0.0707267, 0.32505703
105, 32747746, -1.020413875579834, -2.0558295249938965, -3.8344194889068604, -0.22870864, 0.07374226, 0.33537388
106, 32764413, -1.0230307579040527, -2.0635292530059814, -3.8356668949127197, -0.2246105, 0.0691022, 0.33392715
107, 32781080, -1.024269700050354, -2.07197642326355, -3.842048406600952, -0.22355945, 0.080298625, 0.3368454
108, 32797747, -1.0275202989578247, -2.080491542816162, -3.8455147743225098, -0.22820576, 0.07290984, 0.3351164
109, 32814414, -1.0304685831069946, -2.0880045890808105, -3.8492112159729004, -0.23482813, 0.08852612, 0.32728195
110, 32831081, -1.0326731204986572, -2.0959200859069824, -3.8597826957702637, -0.23141088, 0.06873629, 0.33939362
111, 32847748, -1.034200668334961, -2.102522611618042, -3.872807741165161, -0.22885007, 0.08506163, 0.31980705
112, 32864415, -1.0370858907699585, -2.110294818878174, -3.8770430088043213, -0.23594175, 0.0722325, 0.35390186
113, 32881082, -1.0388965606689453, -2.116398811340332, -3.8796515464782715, -0.23894309, 0.07788039, 0.33390427
114, 32897749, -1.0414623022079468, -2.123319387435913, -3.885157585144043, -0.22613361, 0.08157251, 0.33804417
115, 32914416, -1.0422070026397705, -2.1300389766693115, -3.8962788581848145, -0.22621016, 0.083869636, 0.3221283
116, 32931083, -1.0449130535125732, -2.1368680000305176, -3.9075210094451904, -0.2262932, 0.08444522, 0.33221722
117, 32947750, -1.0482369661331177, -2.142021417617798, -3.919356346130371, -0.2384095, 0.08416704, 0.3505926
118, 32964417, -1.0501667261123657, -2.148782253265381, -3.922724485397339, -0.23904979, 0.07630252, 0.3222971
119, 32981084, -1.0519952774047852, -2.1547420024871826, -3.9253673553466797, -0.22760525, 0.09599143, 0.335433
120, 32997751, -0.6817616820335388, -0.7341936230659485, -3.9005775451660156, 5.5243325E-4, 0.0021826879, 0.32375908
121, 33014418, -0.6817254424095154, -0.7351309061050415, -3.9044833183288574, -0.004056823, -0.0016886403, 0.34752083
122, 33031085, -0.6815463900566101, -0.7354205250740051, -3.9054458141326904, 0.0071863746, 0.005709722, 0.34306145
123, 33047752, -0.6813727617263794, -0.7363120913505554, -3.908759355545044, 0.0027517867, 0.0061774757, 0.3409357
124, 33064419, -0.6814686059951782, -0.735936164855957, -3.912968873977661, -0.0048345225, 0.003524981, 0.3279543
125, 33081086, -0.6808221936225891, -0.7352912425994873, -3.9124720096588135, 0.010187497, 0.0058907745, 0.349761
126, 33097753, -0.6802775859832764, -0.7350373864173889, -3.91469144821167, 0.0154050505, 0.006399239, 0.33859634
127, 33114420, -0.6802341938018799, -0.7352223992347717, -3.9158124923706055, 0.0023673584, 0.0132389795, 0.3460369
128, 33131087, -0.6799097657203674, -0.7345738410949707, -3.919368267059326, 0.010201201, -0.005369452, 0.33600235
129, 33147754, -0.6797681450843811, -0.7340840101242065, -3.9228789806365967, 0.0051478804, -0.017860228, 0.34894943
130, 33164421, -0.6791499853134155, -0.7349436283111572, -3.927772045135498, 0.014093526, -0.008814869, 0.314188
131, 33181088, -0.6789595484733582, -0.7335935831069946, -3.930255651473999, -0.0032332197, -0.0024412854, 0.3352108
132, 33197755, -0.6783369779586792, -0.7331793904304504, -3.9316012859344482, 0.00622332, 4.435475E-4, 0.34449768
133, 33214422, -0.6791684627532959, -0.7332970499992371, -3.9320452213287354, -0.0019017949, -0.008411819, 0.34224987
134, 33231089, -0.6810521483421326, -0.734553873538971, -3.935309648513794, 0.0057750996, -0.004429398, 0.33443642
135, 33247756, -0.6816942095756531, -0.7360314130783081, -3.9372823238372803, 0.005828296, 0.010106205, 0.34718513
136, 33264423, -0.6827691197395325, -0.7360578775405884, -3.9410793781280518, 0.009957397, 2.573123E-4, 0.32819748
137, 33281090, -0.6827105283737183, -0.7361103296279907, -3.9445106983184814, -0.0067076935, -0.006024659, 0.34661484
138, 33297757, -0.6825854778289795, -0.7356716990470886, -3.94718337059021, -0.0055289073, -0.0010257009, 0.3309698
139, 33314424, -0.6822107434272766, -0.73526930809021, -3.949493646621704, 0.0050487597, -0.00324508, 0.3436308
140, 33331091, -0.6816443204879761, -0.7359976768493652, -3.9538304805755615, 0.008364462, 0.0051125726, 0.34363174
141, 33347758, -0.6815450191497803, -0.7338883876800537, -3.9557206630706787, 0.012831516, -0.0018103572, 0.34229088
142, 33364425, -0.6831614375114441, -0.7329449653625488, -3.958719253540039, 0.0010809785, 0.014200162, 0.34368706
143, 33381092, -0.6837764382362366, -0.7319707870483398, -3.964705467224121, 0.0040676985, 0.00823083, 0.32956886
144, 33397759, -0.6825790405273438, -0.7325143814086914, -3.967217206954956, 0.014505516, 0.0058162436, 0.3528328
145, 33414426, -0.6833831071853638, -0.7323276400566101, -3.9706873893737793, -0.0011866791, 0.0060052657, 0.35132504
146, 33431093, -0.6838944554328918, -0.7323729395866394, -3.9721486568450928, -0.006041255, -7.795224E-4, 0.33257008
147, 33447760, -0.6848012804985046, -0.7341509461402893, -3.9732158184051514, 0.005222953, -0.005322179, 0.30958366
148, 33464427, -0.6847161650657654, -0.7343499660491943, -3.9740073680877686, 0.0117074065, -0.0068709417, 0.34343338
149, 33481094, -0.6853662133216858, -0.7342686653137207, -3.9765400886535645, 0.008173177, -0.008524057, 0.32770348
150, 33497761, -0.6867031455039978, -0.7337099313735962, -3.9734723567962646, 8.080203E-4, 0.0068914806, 0.34278107
151, 33514428, -0.687629759311676, -0.7340127825737, -3.9788148403167725, 0.01306077, -0.0023262321, 0.34902096
152, 33531095, -0.6877323985099792, -0.7341310977935791, -3.9806907176971436, 0.006571665, -0.0048809713, 0.33901405
153, 33547762, -0.6882764101028442, -0.7335260510444641, -3.98459792137146, 0.005338928, 0.006741095, 0.32968712
154, 33564429, -0.688640832901001, -0.733208417892456, -3.984299659729004, -0.001093565, -0.0049340483, 0.32891178
155, 33581096, -0.6886453032493591, -0.7318872213363647, -3.988036870956421, -0.0039344775, -0.015261583, 0.33959484
156, 33597763, -0.689500629901886, -0.7316130995750427, -3.989544630050659, 0.015275818, -0.009504972, 0.35558128
157, 33614430, -0.6903243064880371, -0.7308162450790405, -3.990025758743286, 0.015764732, 0.005405563, 0.31695557
158, 33631097, -0.6912291049957275, -0.7321990132331848, -3.9912846088409424, 0.0075998455, 0.010207962, 0.3343706
159, 33647764, -0.6909947395324707, -0.7319672703742981, -3.9930002689361572, 0.011168314, 0.013814826, 0.33586597
160, 33664431, -0.6897456049919128, -0.7325896620750427, -3.9961280822753906, 0.018658658, -0.0064667887, 0.34066582
161, 33681098, -0.6892720460891724, -0.7330872416496277, -4.000021934509277, 0.003050358, 0.0061716745, 0.35262966
162, 33697765, -0.6891674995422363, -0.7339890003204346, -4.002115249633789, 0.005127066, -0.0016372463, 0.33215714
163, 33714432, -0.6897327303886414, -0.7354214787483215, -4.007671356201172, 0.014350789, 0.0016362126, 0.34822178
164, 33731099, -0.6902352571487427, -0.7359262108802795, -4.00911283493042, 0.001000416, 0.012328325, 0.31575966
165, 33747766, -0.6901768445968628, -0.7352807521820068, -4.011124610900879, 0.01112931, 0.0017088543, 0.3359108
166, 33764433, -0.690319299697876, -0.7352546453475952, -4.012073040008545, -0.005191972, 7.509057E-4, 0.32960987
167, 33781100, -0.6899039149284363, -0.736100435256958, -4.013819694519043, 0.003067855, 0.0026220444, 0.34024715
168, 33797767, -0.6897097826004028, -0.7350285649299622, -4.015724182128906, 0.01463836, 0.008657945, 0.33971024
169, 33814434, -0.690085768699646, -0.7343928217887878, -4.019706726074219, 0.010035047, 0.0044402736, 0.34065342
170, 33831101, -0.6891890168190002, -0.7339913845062256, -4.022475719451904, 0.004060888, -0.013683456, 0.33626366
171, 33847768, -0.6892151236534119, -0.7339901924133301, -4.024021148681641, 0.011423182, 0.01231474, 0.33248425
172, 33864435, -0.6888899803161621, -0.7334463000297546, -4.025852203369141, 0.0038309214, 0.014381972, 0.32836437
173, 33881102, -0.6893333792686462, -0.7358408570289612, -4.0265398025512695, 0.0098416805, 0.012458067, 0.34559536
174, 33897769, -0.6894099712371826, -0.7366082668304443, -4.028995513916016, 0.011457204, 0.018875526, 0.34945583
175, 33914436, -0.6896480917930603, -0.7373833656311035, -4.033047676086426, 0.006211984, -6.40637E-4, 0.35569
176, 33931103, -0.6901761889457703, -0.7371228337287903, -4.0358171463012695, 9.0853823E-4, -0.0060758227, 0.32976532
177, 33947770, -0.6910575032234192, -0.7364455461502075, -4.035847187042236, 4.1056535E-4, 0.005646122, 0.35658073
178, 33964437, -0.6908861398696899, -0.7367238402366638, -4.036550998687744, 0.005025794, 2.7028305E-4, 0.34589958
179, 33981104, -0.6906218528747559, -0.736302375793457, -4.038679122924805, -0.006888907, 0.008199391, 0.33517456
180, 33997771, -0.6908688545227051, -0.7362976670265198, -4.039351463317871, 0.0049314643, 0.011065592, 0.33870697
181, 34014438, -0.6906120777130127, -0.7361891269683838, -4.04128360748291, 0.007154447, 0.011613936, 0.34010792
182, 34031105, -0.6905670166015625, -0.7361714243888855, -4.041072845458984, 0.0014093539, 0.010952693, 0.36145687
183, 34047772, -0.6920239329338074, -0.7357125878334045, -4.041810989379883, 0.008382727, -0.0024846399, 0.33394527
184, 34064439, -0.6916512846946716, -0.7355948686599731, -4.041225433349609, 0.0087080505, 0.006229002, 0.32018852
185, 34081106, -0.6923976540565491, -0.7365050911903381, -4.04484224319458, 0.015759284, -9.4580906E-4, 0.3195591
186, 34097773, -0.6919135451316833, -0.7372636198997498, -4.047672271728516, 0.004264627, 0.011209768, 0.35897636
187, 34114440, -0.692131757736206, -0.7358410954475403, -4.047588348388672, 0.006429748, 0.018555805, 0.32635498
188, 34131107, -0.6922415494918823, -0.7356078028678894, -4.048631191253662, 5.426196E-4, -0.0021670628, 0.3406086
189, 34147774, -0.6914767026901245, -0.7364219427108765, -4.050705432891846, -0.004614673, 0.0070734518, 0.3351717
190, 34164441, -0.6911274790763855, -0.7364374399185181, -4.052879810333252, -0.0054558115, 0.002592904, 0.34096622
191, 34181108, -0.690107524394989, -0.7366447448730469, -4.054418563842773, -0.002084887, -0.002513054, 0.33740807
192, 34197775, -0.6907731294631958, -0.7378673553466797, -4.054638385772705, -0.0029542686, 0.0012651322, 0.32404518
193, 34214442, -0.6905957460403442, -0.7374383211135864, -4.055089950561523, -3.5655903E-4, 0.0019287771, 0.335207
194, 34231109, -0.6909452676773071, -0.737177312374115, -4.054471969604492, 0.0049768444, 1.1633151E-4, 0.33074665
195, 34247776, -0.6910549998283386, -0.7369727492332458, -4.053548812866211, 0.013956121, 0.0049692797, 0.3236456
196, 34264443, -0.6919317245483398, -0.7357478141784668, -4.056064605712891, -0.0010941727, 0.0029055986, 0.3280468
197, 34281110, -0.6916442513465881, -0.7361209988594055, -4.0593719482421875, 0.02389461, 0.009152646, 0.33415508
198, 34297777, -0.6920740008354187, -0.7370059490203857, -4.0603227615356445, -0.0015876964, 0.009519759, 0.3413105
199, 34314444, -0.694064736366272, -0.7372825145721436, -4.061609268188477, 0.004539478, 0.0010484923, 0.34508514
200, 34331111, -0.6934565901756287, -0.7380334138870239, -4.063847541809082, 0.00819812, 0.0070049413, 0.33423233
201, 34347778, -0.6932067275047302, -0.7389305233955383, -4.065590858459473, 0.0055388818, 0.004490948, 0.3133278
202, 34364445, -0.6929561495780945, -0.7376644015312195, -4.067196846008301, 0.0077701556, 0.0010380151, 0.34518528
203, 34381112, -0.6928933262825012, -0.7386091947555542, -4.06947135925293, 0.0029746362, 0.0026138374, 0.33086205
204, 34397779, -0.6937126517295837, -0.7393620610237122, -4.073241233825684, 0.005902237, 0.019996248, 0.31587029
205, 34414446, -0.6939877867698669, -0.7387630343437195, -4.075641632080078, 0.011135506, 0.004358768, 0.33853912
206, 34431113, -0.6943687200546265, -0.7393174171447754, -4.078114986419678, 0.008217608, 0.009059291, 0.3368683
207, 34447780, -0.6947594285011292, -0.7387969493865967, -4.079076766967773, -0.004842244, 0.0010295984, 0.32193947
208, 34464447, -0.69429612159729, -0.738582968711853, -4.081118106842041, 0.004243121, 0.017157644, 0.34075737
209, 34481114, -0.6936555504798889, -0.7392951846122742, -4.081092834472656, 0.008131478, 0.010175403, 0.33583164
210, 34497781, -0.6942697167396545, -0.7384392023086548, -4.083184719085693, -1.5853356E-4, -0.00526315, 0.32571125
211, 34514448, -0.6934995651245117, -0.7376135587692261, -4.084501266479492, -0.007361853, 0.008780685, 0.33292866
212, 34531115, -0.693703293800354, -0.737302839756012, -4.088220596313477, -9.702837E-4, 0.010059815, 0.33986664
213, 34547782, -0.694640040397644, -0.7392371892929077, -4.08926248550415, 0.009101706, -0.00868396, 0.3398018
214, 34564449, -0.6947847604751587, -0.7396380305290222, -4.088176727294922, 0.00594008, 8.112403E-4, 0.32988548
215, 34581116, -0.693737804889679, -0.739335834980011, -4.087717533111572, 0.015398652, 0.0058995234, 0.33366203
216, 34597783, -0.6936867833137512, -0.7386221885681152, -4.087719917297363, -0.011000787, -0.0045940015, 0.31711388
217, 34614450, -0.6944244503974915, -0.7405831217765808, -4.088700771331787, 0.0041030482, -0.0027779588, 0.3244028
218, 34631117, -0.6948448419570923, -0.7395370006561279, -4.090904712677002, 0.004921476, 0.0031337983, 0.32872105
219, 34647784, -0.6944316029548645, -0.7386727929115295, -4.091551780700684, -3.1681565E-4, 0.0042832764, 0.33167267
220, 34664451, -0.6954159736633301, -0.7377629280090332, -4.092072486877441, -1.4143481E-4, 0.011051294, 0.34716702
221, 34681118, -0.6948943734169006, -0.73652184009552, -4.0910820960998535, 0.0043182424, -0.0047334526, 0.33897305
222, 34697785, -0.6944805979728699, -0.7375053763389587, -4.09307336807251, 0.009285776, 7.9257693E-4, 0.3440733
223, 34714452, -0.6944984197616577, -0.7367735505104065, -4.093343734741211, -0.015621195, 0.01095804, 0.33473682
224, 34731119, -0.6944579482078552, -0.7374409437179565, -4.096001625061035, 0.0039185593, -8.3565904E-4, 0.3282156
225, 34747786, -0.6951404809951782, -0.737596869468689, -4.095931529998779, 0.010184159, 0.014975836, 0.3297243
226, 34764453, -0.6949341893196106, -0.7379491925239563, -4.097373962402344, 0.012213174, -0.0054558394, 0.32227516
227, 34781120, -0.6969835162162781, -0.7394787669181824, -4.09851598739624, 0.0078054913, 0.005971533, 0.34674358
228, 34797787, -0.6968844532966614, -0.7388227581977844, -4.0996599197387695, 9.214531E-4, -0.0031511555, 0.34331608
229, 34814454, -0.6974679231643677, -0.7377555966377258, -4.100391864776611, -0.0021122603, -0.010785219, 0.3333273
230, 34831121, -0.6966535449028015, -0.7385921478271484, -4.100572109222412, -9.0876175E-4, 0.009276815, 0.35453033
231, 34847788, -0.6963714361190796, -0.7381067276000977, -4.0999555587768555, 0.012316842, 0.005873194, 0.3195858
232, 34864455, -0.6968024969100952, -0.7377051711082458, -4.101633548736572, -5.220704E-4, -3.5475696E-5, 0.35162735
233, 34881122, -0.6971597671508789, -0.7378295660018921, -4.102180480957031, 2.0437466E-5, 0.014056817, 0.32650948
234, 34897789, -0.695999264717102, -0.737750768661499, -4.103846073150635, 0.0040707085, 0.0092096105, 0.3193903
235, 34914456, -0.6943901181221008, -0.737855076789856, -4.102973461151123, 0.003931963, -0.016301185, 0.33413315
236, 34931123, -0.6937128901481628, -0.7387389540672302, -4.103310585021973, 0.005034818, 0.0010205392, 0.35520935
237, 34947790, -0.6928645372390747, -0.7380388975143433, -4.103238105773926, 0.014334571, 4.357385E-4, 0.33187485
238, 34964457, -0.6930164694786072, -0.73912513256073, -4.105422496795654, 0.005007605, -0.00834946, 0.32268047
239, 34981124, -0.6922348141670227, -0.7394595742225647, -4.109755039215088, -0.0015310707, 5.850521E-4, 0.32620335
240, 34997791, -0.687375009059906, -0.7369248867034912, -4.1243696212768555, 0.012371498, -0.009998146, 0.32631302
241, 35014458, -0.6878032684326172, -0.73533034324646, -4.125449180603027, 0.0023439385, 3.7872174E-4, 0.34201336
242, 35031125, -0.6886001825332642, -0.7357242107391357, -4.127872467041016, 0.0028556783, -0.0011647679, 0.33594894
243, 35047792, -0.6880863904953003, -0.7350738644599915, -4.130166053771973, 0.0038978355, 5.91534E-4, 0.32653904
244, 35064459, -0.6880495548248291, -0.7345163822174072, -4.130827903747559, -0.00745027, 0.0069987806, 0.30813408
245, 35081126, -0.6878919005393982, -0.7346229553222656, -4.129766941070557, -0.0012801564, -0.006444228, 0.3288164
246, 35097793, -0.6866500973701477, -0.7333433032035828, -4.128231048583984, 0.00126757, 0.0065929512, 0.3192644
247, 35114460, -0.6864713430404663, -0.7337872385978699, -4.127281188964844, 0.016412172, 0.005932547, 0.34033775
248, 35131127, -0.6858065724372864, -0.7329690456390381, -4.127860069274902, -0.0015883669, 0.013541305, 0.3674469
249, 35147794, -0.6857261061668396, -0.7327433824539185, -4.129078388214111, 0.008450766, 0.008072691, 0.3347435
250, 35164461, -0.6854280829429626, -0.7327600121498108, -4.132662773132324, 0.014433741, -0.017907398, 0.329257
251, 35181128, -0.685615599155426, -0.7334589958190918, -4.132674217224121, 0.0016948987, 0.008609611, 0.32252216
252, 35197795, -0.6857661604881287, -0.7326699495315552, -4.133316516876221, 0.014540328, -0.0012540125, 0.32206726
253, 35214462, -0.6846656203269958, -0.7316082119941711, -4.134048938751221, 0.008040424, 0.014546904, 0.32827377
254, 35231129, -0.6839159727096558, -0.7303611040115356, -4.134827136993408, 0.02225886, 0.007123075, 0.32905197
255, 35247796, -0.6840330362319946, -0.7306670546531677, -4.13768196105957, -6.141926E-4, 0.0011872659, 0.32530403
256, 35264463, -0.68455570936203, -0.7321103811264038, -4.136642932891846, 0.0119060185, -8.279339E-4, 0.32240963
257, 35281130, -0.6844898462295532, -0.7324106097221375, -4.134303092956543, 5.502749E-4, -0.0045837685, 0.30719376
258, 35297797, -0.6844481229782104, -0.7330690026283264, -4.134942054748535, 0.017655045, -0.015147117, 0.3505907
259, 35314464, -0.6848406195640564, -0.7332209944725037, -4.135153293609619, 0.0036361436, 0.016215146, 0.35145855
260, 35331131, -0.6844618320465088, -0.7336036562919617, -4.135465621948242, -0.009700847, -0.00990652, 0.3291464
261, 35347798, -0.6847198605537415, -0.7334801554679871, -4.135134696960449, -0.011376191, -0.010294406, 0.3203621
262, 35364465, -0.6846790909767151, -0.7325635552406311, -4.1364288330078125, -0.0044521615, 0.008032176, 0.336792
263, 35381132, -0.6834603548049927, -0.7339901924133301, -4.136725902557373, 0.0026825257, -0.006546331, 0.3411827
264, 35397799, -0.6831734776496887, -0.7348119616508484, -4.138001441955566, 0.008799789, 0.0046198904, 0.35587788
265, 35414466, -0.6833862066268921, -0.7347061038017273, -4.138663291931152, 0.0010697121, -0.014699162, 0.322999
266, 35431133, -0.6824817657470703, -0.7350642085075378, -4.140766143798828, 0.010216777, -0.0025488439, 0.3376398
267, 35447800, -0.6829333901405334, -0.7347807884216309, -4.139589309692383, 0.0024458324, 0.002875075, 0.3325901
268, 35464467, -0.6838083863258362, -0.7335033416748047, -4.137588977813721, 0.004950959, -0.00585868, 0.3225994
269, 35481134, -0.6839389801025391, -0.7331867814064026, -4.137805461883545, -0.00298475, 0.0054912525, 0.35088634
270, 35497801, -0.6836085319519043, -0.7333076000213623, -4.140147686004639, -9.873895E-4, -0.0035291088, 0.32732582
271, 35514468, -0.6838480830192566, -0.7332041263580322, -4.140417575836182, 0.015675647, -0.001613547, 0.33202362
272, 35531135, -0.6838469505310059, -0.7324275374412537, -4.141984462738037, 0.015021238, 0.00149102, 0.3343401
273, 35547802, -0.6837851405143738, -0.7335323095321655, -4.143217086791992, 0.0029254702, 0.0076633827, 0.32881927
274, 35564469, -0.6832070350646973, -0.7331128716468811, -4.144352436065674, 0.007481621, 0.001068825, 0.32982254
275, 35581136, -0.6819987297058105, -0.7339547276496887, -4.146021842956543, 0.0068216994, 0.0048134737, 0.34169292
276, 35597803, -0.6815894246101379, -0.7342393398284912, -4.148563861846924, 3.206014E-6, -0.001034907, 0.32871628
277, 35614470, -0.6814246773719788, -0.7337802648544312, -4.148317337036133, 0.012770203, -0.0020904539, 0.34245014
278, 35631137, -0.6812699437141418, -0.7341530323028564, -4.14930534362793, -0.012133072, 0.0033889732, 0.3151827
279, 35647804, -0.6792985200881958, -0.7323384881019592, -4.148412704467773, 0.010542806, 0.0027302178, 0.34245586
280, 35664471, -0.6790083646774292, -0.7314844727516174, -4.150473117828369, 0.004362512, -0.00622851, 0.3310175
281, 35681138, -0.6781213283538818, -0.7332332730293274, -4.151219367980957, -0.001005934, -0.0047661066, 0.34498787
282, 35697805, -0.6777796745300293, -0.7328701019287109, -4.151220798492432, 0.008836117, 8.421619E-4, 0.33610916
283, 35714472, -0.6782316565513611, -0.7331179976463318, -4.151883602142334, 8.634655E-4, 0.0075750113, 0.3133545
284, 35731139, -0.6773269176483154, -0.7329445481300354, -4.152678489685059, 0.015874205, 3.5523192E-4, 0.33476543
285, 35747806, -0.677587628364563, -0.7346525192260742, -4.152052402496338, 9.1115054E-4, -5.9216964E-4, 0.34232903
286, 35764473, -0.6785144209861755, -0.7342977523803711, -4.153611660003662, 0.004896198, 0.001672289, 0.3333931
287, 35781140, -0.6788310408592224, -0.7338628768920898, -4.153644561767578, -0.0012008164, 0.0048734066, 0.3430767
288, 35797807, -0.6786247491836548, -0.7338261008262634, -4.153310775756836, -4.379527E-4, -0.010446514, 0.33540058
289, 35814474, -0.6778373122215271, -0.7332102060317993, -4.153344631195068, 0.007920412, -0.0070431237, 0.34290695
290, 35831141, -0.6776893734931946, -0.7324255704879761, -4.153562068939209, -0.0013745418, -0.006822712, 0.34013748
291, 35847808, -0.6774976849555969, -0.7345789670944214, -4.154126167297363, -0.009198546, -3.1492976E-4, 0.3374977
292, 35864475, -0.6780641078948975, -0.7339890599250793, -4.154648303985596, 0.0018643006, -0.004814127, 0.3294449
293, 35881142, -0.6780604124069214, -0.7347784638404846, -4.15622615814209, 0.012621071, -0.0028838061, 0.33295727
294, 35897809, -0.678813099861145, -0.7341710329055786, -4.1561360359191895, 0.014146037, 0.0046485947, 0.32412815
295, 35914476, -0.6793443560600281, -0.7347254157066345, -4.156188488006592, -0.0014356307, -0.0042195125, 0.3248291
296, 35931143, -0.6788185238838196, -0.7339233756065369, -4.157104969024658, -0.012391502, 0.0014391231, 0.33724403
297, 35947810, -0.6781603097915649, -0.734591543674469, -4.155701637268066, 0.011823381, -0.0013168335, 0.34761524
298, 35964477, -0.6786507964134216, -0.7352814674377441, -4.15649938583374, 0.015020525, -4.8653182E-4, 0.36214638
299, 35981144, -0.6772371530532837, -0.7345556020736694, -4.157503604888916, 0.005879648, 0.007289868, 0.3541746
300, 35997811, -0.6764857172966003, -0.736247718334198, -4.15824556350708, -0.007630949, -0.0028001843, 0.34809303
301, 36014478, -0.6778530478477478, -0.7351977825164795, -4.1588263511657715, 0.00291361, -0.0021589955, 0.35242176
302, 36031145, -0.6781438589096069, -0.7352477312088013, -4.1602253913879395, 0.011338379, -0.010248697, 0.34619904
303, 36047812, -0.6800023913383484, -0.7342104911804199, -4.162784576416016, 8.922288E-4, -0.0030087498, 0.34295368
304, 36064479, -0.6810287833213806, -0.7353147268295288, -4.162973403930664, 0.00537541, -0.004545904, 0.34127998
305, 36081146, -0.6807872653007507, -0.7359638214111328, -4.164137363433838, -0.0031254166, 0.0070375116, 0.31731796
306, 36097813, -0.6798252463340759, -0.7369990348815918, -4.165264129638672, -0.0035255817, -0.020174168, 0.3379221
307, 36114480, -0.6800904273986816, -0.7375911474227905, -4.165938377380371, 0.0046356237, 8.0978044E-4, 0.35099316
308, 36131147, -0.6807258129119873, -0.7370283603668213, -4.1669511795043945, 0.0030036857, -0.01743987, 0.34209538
309, 36147814, -0.679692268371582, -0.7367165088653564, -4.167305946350098, 0.0050107553, 0.0029083996, 0.3414135
310, 36164481, -0.6799449920654297, -0.7365530133247375, -4.170737266540527, 0.0023482481, 0.0030937756, 0.33077145
311, 36181148, -0.6807251572608948, -0.73625648021698, -4.171677589416504, 0.012374963, -0.002693876, 0.32864857
312, 36197815, -0.6808251142501831, -0.7349136471748352, -4.1719441413879395, 0.008881224, -0.0026739484, 0.3420992
313, 36214482, -0.6809895634651184, -0.7342328429222107, -4.17380952835083, -8.644783E-4, 0.005040392, 0.3477068
314, 36231149, -0.6816116571426392, -0.7346250414848328, -4.175841808319092, -0.0022704166, -0.0076194797, 0.32989883
315, 36247816, -0.6809476613998413, -0.7349004745483398, -4.1767425537109375, 0.0069918204, 0.00519427, 0.33454037
316, 36264483, -0.6819054484367371, -0.7358470559120178, -4.178037643432617, 0.003707598, -0.007850152, 0.3391466
317, 36281150, -0.6819759607315063, -0.7343651056289673, -4.177913665771484, -0.01139292, 0.0060073785, 0.3264122
318, 36297817, -0.6827850341796875, -0.7341629266738892, -4.178324222564697, -0.0036267072, 2.8176603E-4, 0.3604803
319, 36314484, -0.6833495497703552, -0.7341246604919434, -4.178390026092529, 0.005616552, -0.0103774415, 0.3335123
320, 36331151, -0.6822806596755981, -0.7331876158714294, -4.179080963134766, -0.0067895097, -0.011482077, 0.3544016
321, 36347818, -0.6819697618484497, -0.7313230633735657, -4.179737091064453, -0.006025728, -0.0018036239, 0.3356228
322, 36364485, -0.6822353005409241, -0.7308385968208313, -4.181351184844971, 0.014306638, -0.005310116, 0.31937027
323, 36381152, -0.6824809908866882, -0.7294101715087891, -4.180474758148193, 0.011268657, 0.0016399705, 0.30190468
324, 36397819, -0.682518482208252, -0.7290002703666687, -4.1814799308776855, -0.009997081, -3.970568E-4, 0.34015465
325, 36414486, -0.6826671957969666, -0.7293214201927185, -4.181858062744141, -0.0038248585, -0.008333135, 0.33660984
326, 36431153, -0.6835627555847168, -0.7292267680168152, -4.181441307067871, 0.010440863, -0.003222107, 0.31390572
327, 36447820, -0.6835981011390686, -0.729737401008606, -4.183102607727051, 0.015342174, 0.003791569, 0.3818531
328, 36464487, -0.6828479766845703, -0.7301017045974731, -4.1852312088012695, 0.003454323, -0.011170444, 0.32583714
329, 36481154, -0.6823428869247437, -0.7317937016487122, -4.1852946281433105, -0.017921, -0.001693907, 0.34406567
330, 36497821, -0.6823229789733887, -0.7325404286384583, -4.18633508682251, 0.0038066492, 0.0066569983, 0.33894253
331, 36514488, -0.6812363266944885, -0.7325436472892761, -4.186295986175537, 0.010141482, -0.009415986, 0.34270477
332, 36531155, -0.6806821227073669, -0.7327183485031128, -4.186033725738525, 0.010098651, -0.007896747, 0.34318638
333, 36547822, -0.6818071007728577, -0.7331072092056274, -4.186479091644287, 0.016517181, -0.0020414765, 0.35296535
334, 36564489, -0.6818816661834717, -0.7332766056060791, -4.1860737800598145, -0.0031126274, -0.005534132, 0.335454
335, 36581156, -0.6826954483985901, -0.7319244742393494, -4.1872639656066895, -0.00412387, 0.0021953373, 0.33696175
336, 36597823, -0.6834157109260559, -0.7322618961334229, -4.189179420471191, 0.018271493, 0.0028128547, 0.32199478
337, 36614490, -0.6844364404678345, -0.7319007515907288, -4.189733505249023, 0.009313289, -0.0014615023, 0.31276512
338, 36631157, -0.684168815612793, -0.7319499850273132, -4.188643455505371, -0.012187442, -4.7356807E-5, 0.3324566
339, 36647824, -0.6834197640419006, -0.7319506406784058, -4.190324783325195, 0.0021561945, -0.0014346947, 0.34713364
340, 36664491, -0.6834381818771362, -0.731451153755188, -4.193370342254639, 0.0142468205, -0.00629453, 0.3245058
341, 36681158, -0.6831809878349304, -0.7304739952087402, -4.1945013999938965, 0.0042631743, 8.985919E-5, 0.3461094
342, 36697825, -0.6833881139755249, -0.7311293482780457, -4.195972919464111, -0.0020271507, -0.011547455, 0.33671856
343, 36714492, -0.6838492751121521, -0.7308095693588257, -4.199140548706055, 0.015870718, 0.0029039222, 0.3398714
344, 36731159, -0.6835342049598694, -0.73011314868927, -4.199438571929932, 0.0014250977, -0.0030538505, 0.32867813
345, 36747826, -0.6835327744483948, -0.7304878830909729, -4.201296806335449, 0.012032331, -0.020648168, 0.35177994
346, 36764493, -0.6838609576225281, -0.7302135825157166, -4.202060699462891, 0.001180365, -2.7499077E-4, 0.32701874
347, 36781160, -0.6837684512138367, -0.7302402257919312, -4.202569961547852, -0.010905784, 0.004289713, 0.33525372
348, 36797827, -0.683979868888855, -0.7302972078323364, -4.202645778656006, -0.002187605, 0.011480705, 0.33159924
349, 36814494, -0.682902991771698, -0.7304704189300537, -4.203762531280518, 0.0011911355, -0.019827282, 0.34827995
350, 36831161, -0.6821084022521973, -0.7308763861656189, -4.203283786773682, 0.012041509, 0.0070487326, 0.3181467
351, 36847828, -0.6820584535598755, -0.7300422787666321, -4.202225685119629, 0.0172536, 0.0012551859, 0.3351965
352, 36864495, -0.6814680099487305, -0.7293047904968262, -4.202545642852783, -0.0020578, 0.0015414152, 0.3495388
353, 36881162, -0.6814404726028442, -0.7288182377815247, -4.203795433044434, 0.014121325, -0.002996701, 0.3236971
354, 36897829, -0.680941104888916, -0.7287479639053345, -4.201840400695801, 0.025665218, 0.001653458, 0.3384323
355, 36914496, -0.6816353797912598, -0.7284561991691589, -4.203684329986572, 0.0021071334, 0.011825222, 0.33196354
356, 36931163, -0.6812626719474792, -0.7295884490013123, -4.203807830810547, -0.00884841, -0.004517441, 0.3540516
357, 36947830, -0.6803374290466309, -0.7310925126075745, -4.203487873077393, -1.5234503E-4, -7.7430473E-4, 0.3359747
358, 36964497, -0.6806893944740295, -0.7295992374420166, -4.201950550079346, 0.012306184, 0.009150547, 0.31433678
359, 36981164, -0.6808906197547913, -0.7293633818626404, -4.202983856201172, 0.00943386, -0.00509509, 0.33003807
360, 36997831, -0.6840899586677551, -0.7377684712409973, -4.2025580406188965, 0.014423898, 0.015741872, 0.36358738
361, 37014498, -0.6841468811035156, -0.7380582690238953, -4.202541828155518, 0.004340901, -0.005220697, 0.3226757
362, 37031165, -0.684477686882019, -0.738899827003479, -4.202847003936768, 0.0049062353, -0.0022888705, 0.32966995
363, 37047832, -0.6841945648193359, -0.7392167448997498, -4.203332424163818, 0.0031442964, -0.005000355, 0.34743786
364, 37064499, -0.6850789785385132, -0.7396590113639832, -4.2024946212768555, -0.008279961, -0.0035011559, 0.33320236
365, 37081166, -0.6841381192207336, -0.74025958776474, -4.202908039093018, -0.0013371034, -0.0022359258, 0.33875942
366, 37097833, -0.684352695941925, -0.7407397031784058, -4.203567028045654, 0.0055159647, 0.0071743224, 0.32300758
367, 37114500, -0.6833004355430603, -0.7401716113090515, -4.205453872680664, 0.010336126, 0.0018186271, 0.31702328
368, 37131167, -0.6830697059631348, -0.7399858236312866, -4.206267833709717, -0.0057110493, 0.006816492, 0.33651066
369, 37147834, -0.6830170154571533, -0.7400367856025696, -4.207549095153809, 0.012841147, 0.0019835518, 0.33203506
370, 37164501, -0.6832848191261292, -0.7405329346656799, -4.204807281494141, 0.012291257, -0.007629161, 0.35325718
371, 37181168, -0.6829457879066467, -0.7404107451438904, -4.204835414886475, 0.009334704, -0.0041581653, 0.34331322
372, 37197835, -0.6839785575866699, -0.7397938370704651, -4.206928253173828, -0.0029143714, -0.0031620518, 0.34386253
373, 37214502, -0.6842403411865234, -0.7403216361999512, -4.206676006317139, -0.0029184506, 0.013155881, 0.34983158
374, 37231169, -0.6836442351341248, -0.7404462695121765, -4.208341121673584, 0.0050349645, -9.817318E-4, 0.31578255
375, 37247836, -0.6841425895690918, -0.7409999370574951, -4.209239482879639, 0.0011760134, -0.012851772, 0.34881687
376, 37264503, -0.6841736435890198, -0.7411495447158813, -4.208566665649414, -0.0018244873, -0.015298435, 0.32583618
377, 37281170, -0.6833993792533875, -0.7407441735267639, -4.208095550537109, -0.009860638, 0.0069963993, 0.3474245
378, 37297837, -0.6840507984161377, -0.7415995001792908, -4.2084269523620605, -0.0016945145, 0.002155056, 0.33073425
379, 37314504, -0.6840141415596008, -0.7417528629302979, -4.208059787750244, 0.002555305, -0.0038816656, 0.31270313
380, 37331171, -0.6838445663452148, -0.7404789328575134, -4.206683158874512, 0.007982604, 0.00698778, 0.3295679
381, 37347838, -0.6851845979690552, -0.7403392195701599, -4.207228183746338, 0.01996341, 0.004240292, 0.3632717
382, 37364505, -0.6861040592193604, -0.7407664656639099, -4.206303596496582, -0.0013751565, -0.011950071, 0.31429958
383, 37381172, -0.6869456171989441, -0.7405010461807251, -4.20691442489624, -0.008644783, -0.0013651333, 0.33452034
384, 37397839, -0.6866716742515564, -0.7408222556114197, -4.206950664520264, 0.0016446991, 0.002262454, 0.33850765
385, 37414506, -0.687903642654419, -0.7410489320755005, -4.207645416259766, 0.0023935444, -0.0011779063, 0.3351059
386, 37431173, -0.6881797313690186, -0.7408700585365295, -4.207729339599609, 0.002895331, -0.0043327287, 0.33708858
387, 37447840, -0.6883513927459717, -0.7403683662414551, -4.207306385040283, 0.018803125, 0.0047807675, 0.3420391
388, 37464507, -0.6871436238288879, -0.7410981059074402, -4.208808898925781, 0.014030718, -0.004650746, 0.31746006
389, 37481174, -0.6876713037490845, -0.7404370903968811, -4.2088236808776855, 0.0065647434, 0.007523317, 0.33502483
390, 37497841, -0.6880925297737122, -0.7403753995895386, -4.207045555114746, 0.012504509, 0.013605666, 0.35112095
391, 37514508, -0.6879076957702637, -0.7413382530212402, -4.208366870880127, 0.0061708433, 0.0039768056, 0.34216976
392, 37531175, -0.6886631846427917, -0.7411923408508301, -4.211028099060059, 0.025424844, -0.0059473724, 0.3221922
393, 37547842, -0.6877037882804871, -0.7405682802200317, -4.21024751663208, 0.0039175884, -0.0034505092, 0.32651138
394, 37564509, -0.6887998580932617, -0.7401472330093384, -4.211585998535156, -2.1713585E-4, -7.903488E-4, 0.31970596
395, 37581176, -0.6893627047538757, -0.7412299513816833, -4.212007522583008, 0.00823048, -0.015498766, 0.33554363
396, 37597843, -0.6893556118011475, -0.7419509887695312, -4.212472915649414, 0.009348115, 0.0037417256, 0.3493166
397, 37614510, -0.6897578835487366, -0.7435596585273743, -4.213626861572266, 0.008441421, -0.0047086636, 0.32682705
398, 37631177, -0.6897363662719727, -0.7424356937408447, -4.213779926300049, -0.0065447246, 0.015344018, 0.3456068
399, 37647844, -0.6887375116348267, -0.7423433661460876, -4.215473651885986, -0.0057018786, -0.0018249274, 0.34587193
400, 37664511, -0.6884158253669739, -0.7410239577293396, -4.216968059539795, 0.0023222438, 0.0016353396, 0.32910442
401, 37681178, -0.6886133551597595, -0.7422510981559753, -4.217965602874756, 0.0012918, -0.0010439452, 0.3367262
402, 37697845, -0.6886367797851562, -0.7426932454109192, -4.219249248504639, 0.013321414, 0.0031028138, 0.3314991
403, 37714512, -0.6893406510353088, -0.7438560128211975, -4.2201080322265625, 0.0070189284, 0.004292678, 0.34007645
404, 37731179, -0.6888018250465393, -0.7449060678482056, -4.220906734466553, -0.0027059456, 0.0028104659, 0.3264866
405, 37747846, -0.6896490454673767, -0.7461841702461243, -4.222074031829834, 0.0056468453, -0.010509893, 0.3412609
406, 37764513, -0.6885063648223877, -0.7471591234207153, -4.2208356857299805, 0.010480474, 0.011166299, 0.34483624
407, 37781180, -0.6895062327384949, -0.7467938661575317, -4.221125602722168, 0.005182085, 0.0057604876, 0.33351994
408, 37797847, -0.6892523169517517, -0.7465824484825134, -4.219882011413574, 0.011321168, -0.010633587, 0.34858418
409, 37814514, -0.6898730397224426, -0.7462660670280457, -4.220671653747559, 0.0048730923, 0.002404741, 0.3290367
410, 37831181, -0.689303994178772, -0.7458090782165527, -4.219597339630127, 0.009803536, 0.006420256, 0.32477665
411, 37847848, -0.6886495351791382, -0.7467546463012695, -4.217370986938477, -0.001396034, 0.0058490476, 0.35300732
412, 37864515, -0.6889211535453796, -0.7464694380760193, -4.217268466949463, -7.87045E-4, -0.0021502087, 0.34005642
413, 37881182, -0.6883276104927063, -0.7467619180679321, -4.216352462768555, -2.423579E-4, -0.0070905504, 0.34516335
414, 37897849, -0.6880555748939514, -0.7472416758537292, -4.216033458709717, 0.012259797, -0.0042360104, 0.32102585
415, 37914516, -0.6888188123703003, -0.7464367747306824, -4.217079162597656, -0.0047179814, -0.0017058857, 0.3288393
416, 37931183, -0.6890958547592163, -0.7468134760856628, -4.217296600341797, 0.015957616, -0.0050325827, 0.33078384
417, 37947850, -0.6892228126525879, -0.7465358376502991, -4.215137004852295, 0.0023768786, 0.0015834146, 0.3344469
418, 37964517, -0.6899879574775696, -0.7470484972000122, -4.214005947113037, 0.018471802, 5.615763E-6, 0.34934998
419, 37981184, -0.6905399560928345, -0.7462936639785767, -4.214796543121338, 0.009041875, -0.0024280632, 0.33042145
420, 37997851, -0.6905837059020996, -0.7464829087257385, -4.214489936828613, 0.0038454914, 0.0071788975, 0.32020378
421, 38014518, -0.690865159034729, -0.7460765838623047, -4.214365482330322, 0.0027274657, 0.0038560873, 0.35648155
422, 38031185, -0.690940797328949, -0.7457048296928406, -4.213561058044434, 0.0070707556, 0.0051094606, 0.33718967
423, 38047852, -0.6919786930084229, -0.7463648319244385, -4.213907718658447, 0.0017151686, 0.01124471, 0.35610008
424, 38064519, -0.6928818225860596, -0.7455958724021912, -4.212887287139893, 0.004368526, 0.011875596, 0.3383541
425, 38081186, -0.6924221515655518, -0.7451412677764893, -4.212864875793457, 0.012721351, 0.00867157, 0.33148384
426, 38097853, -0.6925181746482849, -0.7451167106628418, -4.214428424835205, 0.012906022, -0.008550062, 0.3387003
427, 38114520, -0.6924961805343628, -0.7455871105194092, -4.213809490203857, 0.007429661, -0.0026771962, 0.33045006
428, 38131187, -0.6922968626022339, -0.7453560829162598, -4.21147346496582, 0.0060684327, -0.008289544, 0.3266182
429, 38147854, -0.6921722292900085, -0.7468145489692688, -4.211123466491699, -5.2554184E-4, 6.9008925E-4, 0.35150146
430, 38164521, -0.6926490068435669, -0.7482973337173462, -4.212052345275879, -0.005020513, -0.006423162, 0.33972073
431, 38181188, -0.6921495199203491, -0.7490668296813965, -4.211164474487305, 0.010810644, 0.0042166067, 0.33765602
432, 38197855, -0.6928115487098694, -0.7485093474388123, -4.2114644050598145, -0.0040897913, -0.009665133, 0.3362484
433, 38214522, -0.6938011646270752, -0.7475889921188354, -4.211666107177734, 0.017664263, 0.0022977272, 0.33082485
434, 38231189, -0.6935754418373108, -0.7477648854255676, -4.2098612785339355, 0.008288656, 0.0029501405, 0.34706497
435, 38247856, -0.6932459473609924, -0.7478688359260559, -4.209428787231445, 0.004783317, 0.0029450345, 0.32833862
436, 38264523, -0.6949097514152527, -0.7483716011047363, -4.2099289894104, 0.008193238, 0.0032049313, 0.31088924
437, 38281190, -0.6956337690353394, -0.7482972145080566, -4.21043062210083, 0.0015225773, 0.001641961, 0.3470869
438, 38297857, -0.6966307163238525, -0.7489301562309265, -4.208794593811035, 0.011294452, 8.621034E-4, 0.33195782
439, 38314524, -0.6968062520027161, -0.7494131922721863, -4.2083282470703125, -0.0053645414, -5.5815377E-5, 0.3558035
440, 38331191, -0.6978228092193604, -0.7496477961540222, -4.2075514793396, 9.978387E-4, 0.006127192, 0.34263802
441, 38347858, -0.6975481510162354, -0.7500530481338501, -4.206142425537109, 0.008771612, -0.002089448, 0.3300829
442, 38364525, -0.6971061825752258, -0.7491133213043213, -4.207367420196533, 0.0013879805, 0.015792556, 0.3201418
443, 38381192, -0.6969194412231445, -0.7491586804389954, -4.20782995223999, -0.0021616637, -0.014435375, 0.33333588
444, 38397859, -0.697460412979126, -0.7481127381324768, -4.206316947937012, -0.009934208, 0.012507879, 0.33083916
445, 38414526, -0.6988244652748108, -0.7481307983398438, -4.2054123878479, 0.005950313, 0.003708066, 0.3267069
446, 38431193, -0.6988606452941895, -0.7480582594871521, -4.205784320831299, 0.010823475, -9.939203E-4, 0.35648155
447, 38447860, -0.6984847784042358, -0.7482978105545044, -4.206398963928223, 0.0054200636, 0.0074359584, 0.35848045
448, 38464527, -0.6996460556983948, -0.7473021149635315, -4.207693099975586, -0.003980186, 0.0031849828, 0.3136158
449, 38481194, -0.6991337537765503, -0.7475409507751465, -4.207003116607666, 0.0015391312, 0.0034569283, 0.34288216
450, 38497861, -0.6991288661956787, -0.7465207576751709, -4.2085113525390625, 0.010822972, -2.8734686E-4, 0.35728264
451, 38514528, -0.6993088722229004, -0.7461151480674744, -4.208948612213135, 0.0011716689, 0.0053058276, 0.32782936
452, 38531195, -0.699917733669281, -0.7452143430709839, -4.21059513092041, -0.009621276, 0.006021973, 0.33010578
453, 38547862, -0.7004753947257996, -0.7443360686302185, -4.211520195007324, -0.006969441, 0.0036386652, 0.3367777
454, 38564529, -0.7012976408004761, -0.7433527708053589, -4.211100101470947, -0.0073585915, 0.006816394, 0.32667828
455, 38581196, -0.700249433517456, -0.7430031299591064, -4.211727142333984, 0.0036528234, 0.0075525865, 0.3369589
456, 38597863, -0.7011273503303528, -0.7432418465614319, -4.211153030395508, -0.0023127166, 0.0054416745, 0.34149265
457, 38614530, -0.7010955810546875, -0.7426395416259766, -4.21181058883667, 0.006134341, -0.001488757, 0.3396988
458, 38631197, -0.7015629410743713, -0.7430116534233093, -4.211677074432373, 9.772615E-4, 0.008867447, 0.33158493
459, 38647864, -0.7017303109169006, -0.7430248260498047, -4.211066722869873, 1.20047414E-4, -0.0049721505, 0.34242344
460, 38664531, -0.7014846205711365, -0.7433570027351379, -4.210719108581543, -0.009839812, -0.005317506, 0.30839062
461, 38681198, -0.7013472318649292, -0.7438856959342957, -4.211854934692383, -0.0038541178, 0.002881131, 0.34971046
462, 38697865, -0.7018527388572693, -0.7444450855255127, -4.211534023284912, 0.011640219, -0.0057923663, 0.31614208
463, 38714532, -0.7022212147712708, -0.7458531260490417, -4.211195945739746, -0.0017481088, 0.007233581, 0.31781292
464, 38731199, -0.7035871744155884, -0.7458265423774719, -4.209841251373291, 0.012689641, 0.0013606072, 0.33041763
465, 38747866, -0.7034347653388977, -0.7466602921485901, -4.208946228027344, 0.0028814313, -0.007263361, 0.3184185
466, 38764533, -0.7024633288383484, -0.7465707063674927, -4.209543228149414, 0.011639919, -0.006489098, 0.33607388
467, 38781200, -0.7028331160545349, -0.7480154037475586, -4.209573268890381, 0.004403659, 0.005643318, 0.3312111
468, 38797867, -0.7035431265830994, -0.748399555683136, -4.209445476531982, -0.004340838, -0.0018391764, 0.32607937
469, 38814534, -0.7035506367683411, -0.7485585808753967, -4.208836078643799, -0.0017779268, 0.008696934, 0.33118916
470, 38831201, -0.7029719948768616, -0.7483137249946594, -4.208596229553223, -0.0031914157, 0.004503304, 0.33561325
471, 38847868, -0.7028321623802185, -0.7481546998023987, -4.2096428871154785, 0.0038988972, 0.011976474, 0.32696533
472, 38864535, -0.7027296423912048, -0.748029351234436, -4.209355354309082, 0.0021143279, 0.0032999034, 0.3342018
473, 38881202, -0.7035655975341797, -0.748916745185852, -4.20815372467041, 0.0056879297, -0.005695089, 0.33778858
474, 38897869, -0.7033350467681885, -0.7474831342697144, -4.208516597747803, 0.006964042, 0.010635407, 0.34581375
475, 38914536, -0.7041850090026855, -0.7469565868377686, -4.210163593292236, 0.019700376, 0.016387686, 0.34217548
476, 38931203, -0.7042967677116394, -0.7470785975456238, -4.208848476409912, 0.0066687255, 0.0029149372, 0.3299389
477, 38947870, -0.705628514289856, -0.747593343257904, -4.211022853851318, -4.509863E-4, -0.002308854, 0.32801056
478, 38964537, -0.7057268619537354, -0.7465782761573792, -4.210928440093994, 0.007552831, 0.0023970925, 0.35416508
479, 38981204, -0.7048344612121582, -0.7464078664779663, -4.209628582000732, 0.003596135, -0.0059997025, 0.33885288
480, 38997871, -0.6848200559616089, -0.7440577149391174, -4.21252965927124, 0.01752199, -0.0041989423, 0.33821487
481, 39014538, -0.6851570010185242, -0.7437299489974976, -4.211174964904785, -9.1198174E-4, 0.011737577, 0.34575653
482, 39031205, -0.6846365332603455, -0.7431501746177673, -4.211964130401611, 0.0040419945, 8.2189206E-4, 0.3393135
483, 39047872, -0.6854202747344971, -0.7432670593261719, -4.211704254150391, 0.0046333955, -0.0030192898, 0.33956432
484, 39064539, -0.6860470771789551, -0.7434585690498352, -4.212368488311768, 0.007285803, 0.0024677017, 0.320076
485, 39081206, -0.6858673691749573, -0.7431435585021973, -4.213335037231445, 0.016852899, -0.008517024, 0.33916187
486, 39097873, -0.6867648363113403, -0.7417705059051514, -4.211996555328369, 0.0012101969, 0.004441, 0.32638264
487, 39114540, -0.6868413090705872, -0.7407914996147156, -4.212923049926758, -0.0027003577, -0.0015860759, 0.34144878
488, 39131207, -0.6860113143920898, -0.7416766881942749, -4.212586879730225, 5.1043375E-4, 0.0012402734, 0.3257475
489, 39147874, -0.6860438585281372, -0.7422453761100769, -4.211783409118652, 0.0017570773, -0.0051308516, 0.3278942
490, 39164541, -0.6858580708503723, -0.7409191131591797, -4.2128729820251465, -0.0038788577, 0.010331404, 0.3311758
491, 39181208, -0.6856443881988525, -0.7405714988708496, -4.2130279541015625, 0.014013299, -0.0016841142, 0.34163284
492, 39197875, -0.6845988631248474, -0.7404295206069946, -4.213737964630127, 0.006316867, 0.01167676, 0.3412733
493, 39214542, -0.6844892501831055, -0.7412458062171936, -4.213720798492432, 0.018164877, -0.004587652, 0.33333015
494, 39231209, -0.6848779320716858, -0.7410127520561218, -4.213692665100098, 0.00505777, -0.003656651, 0.3633356
495, 39247876, -0.6852726936340332, -0.7416031360626221, -4.214073181152344, 0.010541954, 0.011550524, 0.3220682
496, 39264543, -0.6837677359580994, -0.7430885434150696, -4.21450662612915, 0.0046228347, 0.020089833, 0.33665752
497, 39281210, -0.6834321022033691, -0.7414571642875671, -4.215002536773682, 0.015315136, -0.0076447017, 0.3192911
498, 39297877, -0.6840448379516602, -0.7414939403533936, -4.214619159698486, 0.002107825, -1.381799E-4, 0.33302116
499, 39314544, -0.6843246221542358, -0.7409763336181641, -4.217905044555664, 0.0036737777, -0.0075990213, 0.32808495
500, 39331211, -0.684489369392395, -0.7417711019515991, -4.219079494476318, -0.0019622552, 0.0015554127, 0.32709217
501, 39347878, -0.6833920478820801, -0.7431409358978271, -4.218972206115723, 0.0073300307, -0.0024611012, 0.32872772
502, 39364545, -0.6837477684020996, -0.74338698387146, -4.2190260887146, 5.7491724E-4, -0.0026024033, 0.33011436
503, 39381212, -0.6839221119880676, -0.7436702847480774, -4.217569351196289, 5.6923163E-4, 0.013143651, 0.34450245
504, 39397879, -0.6849817633628845, -0.7442273497581482, -4.218667984008789, 0.0108126905, 0.0022839042, 0.3310871
505, 39414546, -0.6856545805931091, -0.7438066005706787, -4.218942165374756, 0.0030255902, 0.0010097477, 0.31638336
506, 39431213, -0.6863658428192139, -0.7444509267807007, -4.218383312225342, 0.015771996, -0.009375307, 0.31001282
507, 39447880, -0.6864669322967529, -0.7443274855613708, -4.218209266662598, 0.008854096, 8.41191E-4, 0.33600044
508, 39464547, -0.6864780783653259, -0.744304358959198, -4.217519760131836, -0.0031450856, -0.0068101324, 0.33753777
509, 39481214, -0.6870888471603394, -0.7443491816520691, -4.2171430587768555, -0.00316106, -0.0014259218, 0.35470486
510, 39497881, -0.6878323554992676, -0.7433856725692749, -4.216362953186035, 7.595738E-4, 7.7959924E-4, 0.34560013
511, 39514548, -0.6878657937049866, -0.7437154650688171, -4.215256214141846, -0.006325399, -0.008958238, 0.29877663
512, 39531215, -0.6877641081809998, -0.7427188158035278, -4.2156982421875, -0.010242816, 0.015124609, 0.33960915
513, 39547882, -0.6871076226234436, -0.7430641055107117, -4.216928005218506, 0.0063827476, -0.0066141253, 0.34251785
514, 39564549, -0.6870719194412231, -0.7432757019996643, -4.216109752655029, -0.0014767222, -0.0127131725, 0.3401022
515, 39581216, -0.687332808971405, -0.7435624003410339, -4.214998245239258, 0.001443705, -0.0012433537, 0.33480644
516, 39597883, -0.6876993775367737, -0.7421108484268188, -4.214386940002441, 0.014447919, -0.0012220081, 0.34282207
517, 39614550, -0.6871906518936157, -0.7416677474975586, -4.214494228363037, 0.008960816, 0.008959018, 0.34094715
518, 39631217, -0.6882389187812805, -0.7412518262863159, -4.212179183959961, -5.900812E-4, 0.015666865, 0.32186127
519, 39647884, -0.6873614192008972, -0.7397688627243042, -4.212235927581787, -0.0050243023, 0.0010800426, 0.3368883
520, 39664551, -0.6868353486061096, -0.7395946383476257, -4.211661338806152, -0.003951765, 0.005724373, 0.34152508
521, 39681218, -0.688698410987854, -0.7394527196884155, -4.211629867553711, 0.016421253, -0.0013156252, 0.3374071
522, 39697885, -0.6975891590118408, -0.7126718163490295, -4.212079048156738, 0.019704994, -0.011724812, 0.34866047
523, 39714552, -0.6917153000831604, -0.69898921251297, -4.203420162200928, -0.011523424, -0.009916152, 0.30123806
524, 39731219, -0.6848703026771545, -0.7212006449699402, -4.195765495300293, -0.020841671, -0.0041657225, 0.3484707
525, 39747886, -0.6781384944915771, -0.754025936126709, -4.19199800491333, 4.7059255E-4, -0.0018619258, 0.33908367
526, 39764553, -0.6796846985816956, -0.763217031955719, -4.191236972808838, 0.013641443, -0.006034172, 0.34693527
527, 39781220, -0.6976258754730225, -0.7199239134788513, -4.195722579956055, 0.0127105955, -0.010187811, 0.31953716
528, 39797887, -0.6721717119216919, -0.7436774373054504, -4.182745456695557, -0.033550754, 0.02233384, 0.389822
529, 39814554, -0.6887499094009399, -0.7329330444335938, -4.188492774963379, 0.010504347, -0.007529418, 0.33993626
530, 39831221, -0.6882241368293762, -0.7335633635520935, -4.186387538909912, -0.013036624, 0.009389025, 0.35869026
531, 39847888, -0.6873254179954529, -0.7334538698196411, -4.186744689941406, 0.015379291, -0.0040056594, 0.32748604
532, 39864555, -0.687431275844574, -0.7335091829299927, -4.187403202056885, -0.007497505, 0.005734955, 0.34024143
533, 39881222, -0.6892203092575073, -0.7342362403869629, -4.188704967498779, 0.004578153, -0.0015077904, 0.3128519
534, 39897889, -0.6900954246520996, -0.7343271374702454, -4.189541339874268, 0.0032347424, -7.123428E-4, 0.34466362
535, 39914556, -0.6909511089324951, -0.734247624874115, -4.190551280975342, 0.004427547, -6.786272E-4, 0.34064293
536, 39931223, -0.6908313632011414, -0.7352738380432129, -4.190004825592041, -0.011382058, -0.0019648466, 0.3454485
537, 39947890, -0.6887677311897278, -0.7353251576423645, -4.190338134765625, 0.017522318, 0.0053527476, 0.3508911
538, 39964557, -0.6888721585273743, -0.7351185083389282, -4.190502643585205, -0.006573757, 0.0050307107, 0.32892513
539, 39981224, -0.6889421939849854, -0.735476553440094, -4.19144344329834, 0.017548373, -0.010860516, 0.34035873
540, 39997891, -0.688906192779541, -0.7359529137611389, -4.19091796875, 0.011381908, -0.0014172817, 0.336648
541, 40014558, -0.6891569495201111, -0.7359588742256165, -4.191934585571289, -0.0077733686, -0.003820388, 0.33410168
542, 40031225, -0.689182698726654, -0.7366295456886292, -4.190344333648682, -0.0014852505, -0.0060139373, 0.32865238
543, 40047892, -0.6893691420555115, -0.737696647644043, -4.190333366394043, 0.0099068135, -0.0027359591, 0.3673191
544, 40064559, -0.6888689398765564, -0.7375016212463379, -4.189459323883057, 0.016645156, -0.0024268618, 0.3143692
545, 40081226, -0.6887106895446777, -0.737533688545227, -4.189167499542236, 0.009018629, 0.009653039, 0.3432684
546, 40097893, -0.6885314583778381, -0.7374274730682373, -4.187437057495117, 0.015809659, 0.0038941335, 0.3566208
547, 40114560, -0.6887252330780029, -0.7364193201065063, -4.186557292938232, 0.010637918, 0.0069153723, 0.3588581
548, 40131227, -0.6889247298240662, -0.7366229891777039, -4.187485694885254, 0.006200473, 0.0040809973, 0.33926392
549, 40147894, -0.6882265210151672, -0.7368440628051758, -4.188176155090332, 0.0017325747, 0.0063310466, 0.32445717
550, 40164561, -0.6884585022926331, -0.7363645434379578, -4.189680576324463, -0.008716404, 0.013827534, 0.33192635
551, 40181228, -0.6877985000610352, -0.7357052564620972, -4.1904520988464355, -1.2688551E-4, 0.010925275, 0.32477856
552, 40197895, -0.6889151334762573, -0.7356585264205933, -4.189924716949463, 0.0015170872, 0.0012665013, 0.33338833
553, 40214562, -0.6894800662994385, -0.7365379929542542, -4.190386772155762, -0.008203442, -3.9225127E-4, 0.3504038
554, 40231229, -0.689532458782196, -0.7370343804359436, -4.191453456878662, 0.0054366803, -0.019115897, 0.3337841
555, 40247896, -0.689399778842926, -0.737500011920929, -4.190059185028076, 0.013811333, -0.0058742627, 0.35678482
556, 40264563, -0.6886641979217529, -0.738246738910675, -4.1881794929504395, 2.8138884E-4, -0.0018584194, 0.31199265
557, 40281230, -0.6895352602005005, -0.7390744686126709, -4.188430309295654, -4.7180091E-4, 0.007876401, 0.3341875
558, 40297897, -0.6890219449996948, -0.7387862205505371, -4.189205169677734, 0.010432027, 0.010946938, 0.35417938
559, 40314564, -0.6893310546875, -0.7390857338905334, -4.189737319946289, 0.0063148136, 0.0036205468, 0.32748508
560, 40331231, -0.6884402632713318, -0.7425099611282349, -4.189447402954102, -0.003550664, 0.0049872934, 0.34914303
561, 40347898, -0.6872197985649109, -0.7496264576911926, -4.188683032989502, -8.0063735E-4, 0.013066145, 0.3459711
562, 40364565, -0.6863784193992615, -0.7604151964187622, -4.187135696411133, -0.0037684005, 0.009323605, 0.34275436
563, 40381232, -0.6861845850944519, -0.7679286599159241, -4.182365417480469, 0.012954378, -0.0024334623, 0.34706783
564, 40397899, -0.6847145557403564, -0.7708651423454285, -4.180352210998535, 0.018481022, 0.0032080535, 0.32424068
565, 40414566, -0.6835784316062927, -0.7750148177146912, -4.1801018714904785, 0.013101946, -0.0063704196, 0.35465145
566, 40431233, -0.6818127632141113, -0.7807715535163879, -4.179050922393799, 0.0020319633, -0.0068251006, 0.3331871
567, 40447900, -0.6844903826713562, -0.7742264270782471, -4.1744465827941895, 0.011980085, 0.014712646, 0.35381413
568, 40464567, -0.6883372664451599, -0.7604721188545227, -4.163524627685547, 0.0068109287, 0.0018864493, 0.3315649
569, 40481234, -0.6842541098594666, -0.7514244914054871, -4.156805515289307, 0.0018199892, -0.027835423, 0.33401966
570, 40497901, -0.6769099235534668, -0.7449311017990112, -4.141448020935059, 0.0033485384, 0.008975627, 0.33532238
571, 40514568, -0.6691226363182068, -0.7276222109794617, -4.092742919921875, 0.02741742, 7.4533885E-4, 0.3296938
572, 40531235, -0.6723181009292603, -0.676084578037262, -4.023202419281006, 0.11380043, -0.005095816, 0.36123753
573, 40547902, -0.7087802886962891, -0.5574724078178406, -3.8324055671691895, 0.7123223, -0.23872697, 0.3774233
574, 40564569, -0.7101483941078186, -0.5380136370658875, -3.796145439147949, 0.24488267, -0.42121774, 0.3122759
575, 40581236, -0.7135536074638367, -0.5347620844841003, -3.7517247200012207, 0.035260953, 0.13335948, 0.34208488
576, 40597903, -0.7345083355903625, -0.5115945935249329, -3.6169891357421875, -0.22976874, 0.3002399, 0.30306816
577, 40614570, -0.7517775893211365, -0.48787957429885864, -3.567147731781006, 0.04333737, 0.16107526, 0.44065475
578, 40631237, -0.7779918909072876, -0.45468366146087646, -3.448131561279297, 0.21345703, 0.06957903, 0.2691803
579, 40647904, -0.7836201786994934, -0.4902386963367462, -3.4163529872894287, -0.36437592, 0.13480604, 0.30161476
580, 40664571, -0.7765408754348755, -0.5255880355834961, -3.471280336380005, -0.063256174, 0.030033145, 0.31241798
581, 40681238, -0.7751668691635132, -0.513988196849823, -3.51444411277771, 0.6648781, 0.02994081, 0.35797787
582, 40697905, -0.7765514850616455, -0.5008716583251953, -3.4887807369232178, 0.07129324, -0.052386567, 0.37005997
583, 40714572, -0.7848801612854004, -0.49482443928718567, -3.438772439956665, 0.01505402, 0.0462548, 0.335433
584, 40731239, -0.7936429381370544, -0.49999547004699707, -3.43142032623291, -0.22393061, 0.08634234, 0.27820873
585, 40747906, -0.7681268453598022, -0.514082670211792, -3.5273361206054688, 0.07051431, -0.1390865, 0.29601192
586, 40764573, -0.7335126996040344, -0.5454403162002563, -3.6257359981536865, 0.043570537, -0.10975396, 0.40530205
587, 40781240, -0.7010623812675476, -0.5393856763839722, -3.623828172683716, 0.30372277, -0.046601914, 0.3250637
588, 40797907, -0.6678059697151184, -0.5192452073097229, -3.588679075241089, 0.30467138, -0.086770736, 0.40857887
589, 40814574, -0.6657546162605286, -0.496029257774353, -3.611806631088257, -0.026913425, -0.0028938642, 0.29286957
590, 40831241, -0.6703159213066101, -0.5022746324539185, -3.7555932998657227, 0.02781426, 0.031072592, 0.38641262
591, 40847908, -0.6577418446540833, -0.5298868417739868, -3.869480609893799, -0.013131219, 0.007206767, 0.30827713
592, 40864575, -0.668690025806427, -0.5424640774726868, -3.9327008724212646, 0.14919788, 0.025165234, 0.3206396
593, 40881242, -0.6461349725723267, -0.562250018119812, -3.950984477996826, -0.003955666, -0.08797276, 0.36528683
594, 40897909, -0.6262819170951843, -0.5571048855781555, -4.02227258682251, 0.023164188, -0.019084122, 0.35741138
595, 40914576, -0.6413072347640991, -0.5559964776039124, -4.099491596221924, 0.020351036, 0.01521335, 0.30299377
596, 40931243, -0.6516086459159851, -0.5684452652931213, -4.122170925140381, -0.050316706, 0.026155323, 0.33198357
597, 40947910, -0.6418223977088928, -0.5608770251274109, -4.062821865081787, 0.3375891, -0.007532142, 0.36103725
598, 40964577, -0.6521239876747131, -0.5532092452049255, -3.9761204719543457, 0.14841649, -0.05111576, 0.29536724
599, 40981244, -0.6488193273544312, -0.5734218955039978, -4.004058361053467, -0.19531064, -0.04074371, 0.39856625
600, 40997911, -0.6599017381668091, -0.5874877572059631, -4.085686683654785, -0.15719329, 0.09095261, 0.29982567
601, 41014578, -0.6289448142051697, -0.597632884979248, -4.136787414550781, -0.09623642, 0.02894579, 0.34175777
602, 41031245, -0.6343690752983093, -0.5989922285079956, -4.193641185760498, 0.0050564916, -0.08771872, 0.27871704
603, 41047912, -0.6081410050392151, -0.5988330245018005, -4.280514240264893, 0.09255336, 0.12718785, 0.3233757
604, 41064579, -0.6068868041038513, -0.5964659452438354, -4.309658527374268, 0.14477004, -0.08481233, 0.32352257
605, 41081246, -0.6145905256271362, -0.6244720816612244, -4.394958972930908, -0.3701694, 0.042487025, 0.36775303
606, 41097913, -0.6027538180351257, -0.623724639415741, -4.499882221221924, 0.13586429, 0.025022712, 0.3314705
607, 41114580, -0.6051689982414246, -0.6335093975067139, -4.5238189697265625, 0.1846641, -0.08788332, 0.33258533
608, 41131247, -0.6023623943328857, -0.6416304707527161, -4.457406997680664, 0.03768045, 0.056937248, 0.35707283
609, 41147914, -0.588966429233551, -0.6505072116851807, -4.432712078094482, -0.32389587, -0.030481953, 0.28200245
610, 41164581, -0.5710594058036804, -0.6574914455413818, -4.549492835998535, -0.023289826, 0.055754732, 0.36445904
611, 41181248, -0.5566896796226501, -0.6579482555389404, -4.678110599517822, 0.20971179, -0.016755935, 0.36628628
612, 41197915, -0.5282114744186401, -0.661015510559082, -4.678723335266113, 0.30382624, -0.0049221637, 0.29955292
613, 41214582, -0.5122079849243164, -0.6676860451698303, -4.581502437591553, 0.086445495, 0.0017469213, 0.383317
614, 41231249, -0.5176827907562256, -0.6800767183303833, -4.493267059326172, -0.18008754, 0.020078162, 0.3157034
615, 41247916, -0.5172070264816284, -0.6927328705787659, -4.521113872528076, -0.025849784, 0.02111641, 0.31650162
616, 41264583, -0.5226590037345886, -0.6919069290161133, -4.532995223999023, 0.3193646, -0.07268877, 0.33662224
617, 41281250, -0.5234431028366089, -0.7003601789474487, -4.525330543518066, 0.27079007, -0.045937996, 0.37518406
618, 41297917, -0.5185647010803223, -0.6979237794876099, -4.442112445831299, 0.07806019, 0.04117363, 0.33584595
619, 41314584, -0.5167292356491089, -0.69712895154953, -4.3998823165893555, -0.37678894, 0.048652906, 0.2784624
620, 41331251, -0.5087721943855286, -0.7206737995147705, -4.416562557220459, -0.33607396, 0.036994, 0.35100937
621, 41347918, -0.43300414085388184, -0.735985517501831, -4.553927421569824, 0.06947488, 0.1581636, 0.32164192
622, 41364585, -0.28764110803604126, -0.7454320192337036, -4.615323066711426, 0.6630521, -0.162693, 0.40273762
623, 41381252, -0.22774583101272583, -0.7415660619735718, -4.579147815704346, 0.358658, -0.02471931, 0.33832073
624, 41397919, -0.23852090537548065, -0.7425929307937622, -4.578590393066406, -0.21869136, 0.10963362, 0.3376217
625, 41414586, -0.19698700308799744, -0.7706363797187805, -4.64324426651001, -0.47207204, -0.022659387, 0.3351555
626, 41431253, -0.05847078934311867, -0.7950994968414307, -4.6380295753479, 0.048908826, 0.0054846937, 0.35223675
627, 41447920, 0.15857310593128204, -0.8181860446929932, -4.514519214630127, 0.35417342, 0.36335996, 0.3247347
628, 41464587, 0.3849518597126007, -0.8144333958625793, -4.4208879470825195, 0.26958358, -0.124093585, 0.3850565
629, 41481254, 0.5500040054321289, -0.8258616328239441, -4.3843464851379395, -0.030869585, -0.25891888, 0.34169865
630, 41497921, 0.6038276553153992, -0.8407295942306519, -4.4369354248046875, -0.100193046, 0.03695741, 0.30876255
631, 41514588, 0.6216257810592651, -0.8556978702545166, -4.34984827041626, 0.12442611, -0.049709518, 0.34924603
632, 41531255, 0.6699183583259583, -0.857985258102417, -4.221736431121826, -0.0061978954, -0.08479263, 0.34526443
633, 41547922, 0.6663801670074463, -0.8593466877937317, -4.213033676147461, 0.038629368, -0.06711054, 0.30735207
634, 41564589, 0.6711753606796265, -0.8676718473434448, -4.283246994018555, -0.059698433, -0.06883392, 0.3769083
635, 41581256, 0.6802544593811035, -0.8596802949905396, -4.300920009613037, 0.29774603, -0.027101463, 0.28325176
636, 41597923, 0.670553982257843, -0.8610092401504517, -4.261205673217773, -0.2276249, 0.044579543, 0.35045433
637, 41614590, 0.6388257145881653, -0.8623599410057068, -4.3350749015808105, -0.31565768, -0.13373722, 0.32068348
638, 41631257, 0.6118631958961487, -0.8745118379592896, -4.518470764160156, -0.32501766, 0.07525987, 0.32718658
639, 41647924, 0.5127777457237244, -0.8664912581443787, -4.744142532348633, 0.07799625, -0.049694147, 0.35655594
640, 41664591, 0.42852360010147095, -0.8543909788131714, -4.8834075927734375, 0.07470975, -0.10761686, 0.28340054
641, 41681258, 0.3495282828807831, -0.8331051468849182, -4.946479320526123, -0.0876405, -0.051191323, 0.4248743
642, 41697925, 0.21480241417884827, -0.8171922564506531, -5.102633953094482, -0.44354913, 0.17197862, 0.3245039
643, 41714592, 0.1748552918434143, -0.808750569820404, -5.261507511138916, -0.15972246, 0.011314071, 0.36361504
644, 41731259, 0.041633643209934235, -0.7907695174217224, -5.416783809661865, 0.036960006, -0.11391197, 0.34157753
645, 41747926, -0.14719517529010773, -0.7496098279953003, -5.494929790496826, 0.28420493, -0.12871622, 0.3742361
646, 41764593, -0.3677583932876587, -0.7310994267463684, -5.540384769439697, -0.04673024, 0.052678168, 0.3783617
647, 41781260, -0.4903114438056946, -0.7332351803779602, -5.573310375213623, -0.32312033, 0.15896021, 0.3166771
648, 41797927, -0.5156562924385071, -0.7567348480224609, -5.682673454284668, -0.2779935, 0.17459248, 0.28498936
649, 41814594, -0.5244576930999756, -0.7731360197067261, -5.723687171936035, 0.21168318, 0.011363898, 0.36064053
650, 41831261, -0.542012095451355, -0.7845461368560791, -5.661778926849365, -0.2170638, 0.0025910565, 0.35741043
651, 41847928, -0.5560420155525208, -0.7742546200752258, -5.610301971435547, 0.3977765, -0.08691905, 0.37439156
652, 41864595, -0.5739018321037292, -0.768513023853302, -5.6004157066345215, -0.032611456, -0.13738519, 0.33988094
653, 41881262, -0.5726466774940491, -0.7675960659980774, -5.689422607421875, -0.09735695, -0.04197098, 0.33994675
654, 41897929, -0.5856187343597412, -0.8060622811317444, -5.759426116943359, -0.44849497, 0.25731653, 0.34898853
655, 41914596, -0.5949745774269104, -0.7877475619316101, -5.7706074714660645, 0.34774366, 0.085297406, 0.33202362
656, 41931263, -0.5944228768348694, -0.7788230776786804, -5.7327141761779785, 0.058754943, -0.014054188, 0.32839775
657, 41947930, -0.5968508124351501, -0.7744642496109009, -5.784142017364502, -0.15754409, -0.02136134, 0.3065033
658, 41964597, -0.5976095795631409, -0.8096789121627808, -5.879936695098877, -0.27933693, 0.15010197, 0.34897995
659, 41981264, -0.6003928780555725, -0.8022249341011047, -6.012551784515381, 0.5770907, -0.0555486, 0.3484478
660, 41997931, -0.5936877131462097, -0.8002391457557678, -6.094213008880615, -0.021978196, -0.11986575, 0.29262733
661, 42014598, -0.5906347036361694, -0.7934544682502747, -6.146214962005615, -0.008485432, 0.0018876996, 0.375659
662, 42031265, -0.5989769101142883, -0.7985661029815674, -6.149449825286865, -0.23783857, 0.08185656, 0.3404894
663, 42047932, -0.5990631580352783, -0.8062903881072998, -6.188296318054199, -0.111016884, 0.07285405, 0.3366375
664, 42064599, -0.5975611209869385, -0.7888472676277161, -6.20860481262207, 0.19196573, -0.008561807, 0.30902386
665, 42081266, -0.5990819931030273, -0.762070894241333, -6.222469806671143, 0.4102217, -0.07381875, 0.3471756
666, 42097933, -0.6011891961097717, -0.7522588968276978, -6.191582679748535, 0.3410933, -0.24919322, 0.35072136
667, 42114600, -0.6077263355255127, -0.7517699599266052, -6.193500518798828, -0.023891814, 0.0019844633, 0.32664108
668, 42131267, -0.6154807209968567, -0.7595468759536743, -6.250268936157227, -0.16924329, 0.13727291, 0.35922623
669, 42147934, -0.6146847605705261, -0.7694334983825684, -6.291338920593262, 0.11140091, -0.010978869, 0.31466675
670, 42164601, -0.6185317635536194, -0.7686764597892761, -6.304740905761719, 0.08816618, -0.05937977, 0.34446812
671, 42181268, -0.6266669034957886, -0.7523804306983948, -6.282814025878906, 0.35099643, -0.040403485, 0.32364845
672, 42197935, -0.6264034509658813, -0.7494704127311707, -6.261036396026611, 0.0067369738, -0.1104222, 0.33795834
673, 42214602, -0.629615843296051, -0.7561824321746826, -6.32733678817749, -0.052999977, -0.027811885, 0.34825993
674, 42231269, -0.6266120672225952, -0.754089891910553, -6.368563175201416, 0.15849733, -0.12223876, 0.34797955
675, 42247936, -0.6288666725158691, -0.7651305198669434, -6.3212480545043945, -0.11025686, -0.0029603173, 0.31820583
676, 42264603, -0.636426568031311, -0.7570255994796753, -6.310497760772705, 0.08718112, 0.057788618, 0.3382206
677, 42281270, -0.6347615122795105, -0.7694178819656372, -6.261145114898682, -0.11828655, 0.05527326, 0.35890102
678, 42297937, -0.640316903591156, -0.7805958986282349, -6.314088821411133, -0.13600375, 0.16948129, 0.362772
679, 42314604, -0.6410869359970093, -0.7749831676483154, -6.370087146759033, 0.032759182, 0.050797474, 0.37334538
680, 42331271, -0.6424117684364319, -0.7691531777381897, -6.409296035766602, -0.12814833, -0.011848911, 0.3073578
681, 42347938, -0.6445502638816833, -0.7640873193740845, -6.4586405754089355, 0.09893026, -0.0706555, 0.35133362
682, 42364605, -0.6498957872390747, -0.7596372365951538, -6.46612024307251, 0.1632164, -0.068107575, 0.2960043
683, 42381272, -0.644080638885498, -0.7661224007606506, -6.437697887420654, -0.10787681, -0.04522909, 0.34396076
684, 42397939, -0.6427838802337646, -0.7757309675216675, -6.442032814025879, -0.19645604, 0.08259851, 0.35266018
685, 42414606, -0.6475600600242615, -0.7866805195808411, -6.489502429962158, -0.066324905, 0.12350141, 0.31801033
686, 42431273, -0.649532675743103, -0.7910977005958557, -6.573722839355469, 0.0022092161, 0.012091429, 0.35954094
687, 42447940, -0.6461468935012817, -0.7790544033050537, -6.612186431884766, 0.23179589, -0.13583757, 0.3210745
688, 42464607, -0.6445814967155457, -0.7699543833732605, -6.611406326293945, 0.12428387, -0.08642207, 0.34641457
689, 42481274, -0.6371665000915527, -0.7839406728744507, -6.643741607666016, -0.16374956, 0.061399527, 0.3492174
690, 42497941, -0.6345499753952026, -0.7968659996986389, -6.739360809326172, -0.16675527, 0.100631624, 0.30816746
691, 42514608, -0.638473629951477, -0.8070518970489502, -6.797728538513184, -0.07112907, 0.069108285, 0.36412525
692, 42531275, -0.6387017965316772, -0.8220596313476562, -6.838473320007324, -0.20014898, 0.109763354, 0.3450365
693, 42547942, -0.6402901411056519, -0.8103089928627014, -6.877622127532959, 0.041406237, 0.09345234, 0.37304497
694, 42564609, -0.6381860971450806, -0.8041142225265503, -6.935215473175049, -0.26174307, 0.10623176, 0.30089092
695, 42581276, -0.6387044787406921, -0.8194980025291443, -7.049964427947998, -0.19277342, 0.10151614, 0.31921577
696, 42597943, -0.636448323726654, -0.824445903301239, -7.067793369293213, 0.32562804, 0.09789087, 0.31458092
697, 42614610, -0.640204131603241, -0.8267123699188232, -7.002291202545166, -0.18824019, 0.0048941653, 0.39290428
698, 42631277, -0.6372600793838501, -0.8320944905281067, -6.9808878898620605, -0.19522718, 0.042141672, 0.28698826
699, 42647944, -0.6449577212333679, -0.8212995529174805, -6.987492561340332, -0.13933599, 0.15516122, 0.37226677
700, 42664611, -0.6372072100639343, -0.8249778747558594, -7.040223121643066, -0.08004443, 0.015478615, 0.36566067
701, 42681278, -0.6415847539901733, -0.8147297501564026, -7.098848819732666, 0.21836305, 0.08451094, 0.33801842
702, 42697945, -0.6375316381454468, -0.815699577331543, -7.064280986785889, -0.06952066, -0.042914733, 0.31830597
703, 42714612, -0.6439385414123535, -0.8266314268112183, -6.9743428230285645, -0.1787455, 0.006958727, 0.33735752
704, 42731279, -0.6377281546592712, -0.8409130573272705, -6.913522243499756, -0.34868973, -0.15226273, 0.30109024
705, 42747946, -0.6475126147270203, -0.8271109461784363, -6.824131965637207, 0.39750314, 0.25031877, 0.38347435
706, 42764613, -0.6489695310592651, -0.8140512108802795, -6.759471416473389, -0.06771049, -0.016117707, 0.3079319
707, 42781280, -0.6488904356956482, -0.8094699382781982, -6.780045032501221, -0.18407966, -0.005130635, 0.34685993
708, 42797947, -0.6157874464988708, -0.8191201090812683, -6.850210666656494, -0.32026696, -0.29586712, 0.29248714
709, 42814614, -0.5540871620178223, -0.8047789931297302, -6.820569038391113, 0.60876286, 0.02892763, 0.32077217
710, 42831281, -0.5059217214584351, -0.7845244407653809, -6.793135166168213, -0.030983742, -0.19808945, 0.3682804
711, 42847948, -0.4782046973705292, -0.7696488499641418, -6.722672462463379, 0.17153776, 0.080785714, 0.3303299
712, 42864615, -0.4464825987815857, -0.7549994587898254, -6.633256435394287, -0.24292727, 0.0243856, 0.28147316
713, 42881282, -0.41445285081863403, -0.7657122015953064, -6.661479949951172, -0.59867305, -0.07518597, 0.3552847
714, 42897949, -0.3631875813007355, -0.7474249005317688, -6.696753025054932, 0.119065545, 0.054648284, 0.33311462
715, 42914616, -0.25144070386886597, -0.7396089434623718, -6.653939247131348, 0.46110928, 0.09287342, 0.3357668
716, 42931283, -0.1288936287164688, -0.7287557721138, -6.583281517028809, -0.28150594, -1.6758408E-4, 0.32922554
717, 42947950, -0.02040446177124977, -0.728606641292572, -6.485462665557861, -0.2005255, -0.023904346, 0.34154034
718, 42964617, 0.04668254777789116, -0.7615827918052673, -6.508824348449707, -0.48385984, -0.10999527, 0.3475008
719, 42981284, 0.0971299558877945, -0.7953646779060364, -6.579381942749023, -0.045450106, 0.08945438, 0.3572235
720, 42997951, 0.16823112964630127, -0.8369144201278687, -6.605942249298096, -0.07485755, -0.03164379, 0.32652664
721, 43014618, 0.2335096001625061, -0.6949726343154907, -6.477314472198486, 1.6084535, 0.105129145, 0.4102087
722, 43031285, 0.27080538868904114, -0.7143821716308594, -6.325007438659668, -1.4237012, -0.31340665, 0.27711582
723, 43047952, 0.26207080483436584, -0.7462648153305054, -6.349996566772461, -0.19652642, 0.080797955, 0.34695625
724, 43064619, 0.28409457206726074, -0.7859029769897461, -6.367702484130859, -0.04924535, 0.050836015, 0.31271076
725, 43081286, 0.3225395381450653, -0.8149126768112183, -6.383183479309082, 0.06216649, 0.041154154, 0.3480692
726, 43097953, 0.33855682611465454, -0.8365597128868103, -6.409683704376221, -0.27015874, -0.051102262, 0.3192854
727, 43114620, 0.3571135401725769, -0.7172741293907166, -6.499180793762207, 1.361824, -0.11178701, 0.3783903
728, 43131287, 0.35643306374549866, -0.7320215702056885, -6.549929618835449, -1.0456274, 0.064912654, 0.33809948
729, 43147954, 0.35376396775245667, -0.7607077360153198, -6.5872392654418945, -0.15476422, 0.009372816, 0.36342525
730, 43164621, 0.3586273789405823, -0.7735112905502319, -6.623201847076416, -0.021395229, 0.001990224, 0.3445692
731, 43181288, 0.3632867932319641, -0.8017771244049072, -6.65672492980957, -0.112152986, 0.028201083, 0.34537506
732, 43197955, 0.36610516905784607, -0.8104860782623291, -6.677854537963867, -0.09196074, 0.02085239, 0.32043076
733, 43214622, 0.3700519800186157, -0.816798985004425, -6.705751895904541, 0.06967774, -0.011994231, 0.34049988
734, 43231289, 0.40277960896492004, -0.8342339992523193, -6.727951526641846, 0.083524704, -0.0111219315, 0.33821964
735, 43247956, 0.343280166387558, -0.7028041481971741, -6.789280891418457, 1.4158576, -0.28205153, 0.35166264
736, 43264623, 0.26555755734443665, -0.7073978781700134, -6.665420055389404, -1.5202732, 0.21119663, 0.307374
737, 43281290, 0.2215559035539627, -0.721610426902771, -6.659870147705078, 0.18806164, -0.07695414, 0.31913185
738, 43297957, 0.2136548012495041, -0.743711531162262, -6.683952331542969, -0.13108264, 0.10685728, 0.35093307
739, 43314624, 0.19341599941253662, -0.7590565085411072, -6.703347682952881, -0.02756301, -0.039419465, 0.3543396
740, 43331291, 0.16744458675384521, -0.776434600353241, -6.712712287902832, -0.06895276, 0.040903747, 0.3140316
741, 43347958, 0.16081760823726654, -0.7941874265670776, -6.724790096282959, -0.0133766355, -0.015318595, 0.3598261
742, 43364625, 0.17713911831378937, -0.8066054582595825, -6.776151657104492, 0.33280346, 0.028246736, 0.3571148
743, 43381292, 0.10775810480117798, -0.6538243889808655, -6.798207759857178, 1.6179533, -0.13803932, 0.38138294
744, 43397959, -0.032532744109630585, -0.6620041131973267, -6.61215877532959, -1.5315086, -0.088881865, 0.27502632
745, 43414626, -0.0648108571767807, -0.7003242373466492, -6.614920616149902, -0.15205933, 0.1640627, 0.34425545
746, 43431293, -0.07476253062486649, -0.7198349237442017, -6.643871307373047, -0.008076421, 0.016906772, 0.34901142
747, 43447960, -0.07158324122428894, -0.7416068315505981, -6.682914733886719, 0.00793786, 0.027286831, 0.32794094
748, 43464627, -0.058772772550582886, -0.7709805965423584, -6.70277738571167, 0.030057652, 0.007237344, 0.333436
749, 43481294, -0.09681648761034012, -0.6732313632965088, -6.673215866088867, 1.244531, -0.07805269, 0.39293385
750, 43497961, -0.17670822143554688, -0.6725852489471436, -6.548267841339111, -0.8630473, -0.08495033, 0.33393383
751, 43514628, -0.22773760557174683, -0.6859835386276245, -6.553068161010742, -0.1416048, 0.12579398, 0.35083866
752, 43531295, -0.23390620946884155, -0.6812785863876343, -6.572597026824951, 0.4084653, -0.02176531, 0.34684372
753, 43547962, -0.2605969309806824, -0.6622399091720581, -6.570571422576904, 0.0695837, -0.059497718, 0.38872528
754, 43564629, -0.24263741075992584, -0.7069236040115356, -6.566848278045654, -0.5237431, 0.11335755, 0.29597664
755, 43581296, -0.21320855617523193, -0.7579522132873535, -6.632019996643066, 0.08308735, -0.0031194638, 0.3553915
756, 43597963, -0.20439592003822327, -0.71976637840271, -6.651474952697754, 0.94680816, 0.12909052, 0.33643436
757, 43614630, -0.1854398250579834, -0.6951620578765869, -6.492257595062256, -0.37228626, -0.18282814, 0.33713531
758, 43631297, -0.22778785228729248, -0.6847801804542542, -6.38892936706543, -0.22998482, 0.04818775, 0.34718037
759, 43647964, -0.22963792085647583, -0.6910712122917175, -6.339572429656982, -0.13392596, 9.826712E-5, 0.3468399
760, 43664631, -0.1918293535709381, -0.7149034142494202, -6.40540885925293, -0.23383278, -0.023783527, 0.2961321
761, 43681298, -0.1366697996854782, -0.7601360082626343, -6.504822731018066, -0.13248199, 0.07300059, 0.33425236
762, 43697965, -0.08450811356306076, -0.8178204894065857, -6.5527424812316895, -0.08274671, 0.0015332884, 0.3802433
763, 43714632, -0.05315819010138512, -0.8215699791908264, -6.576679229736328, 0.4338939, -0.066746995, 0.31621456
764, 43731299, -0.07736562192440033, -0.753337562084198, -6.5057854652404785, 0.14042178, -0.0521717, 0.33448315
765, 43747966, -0.10788948833942413, -0.7601702213287354, -6.4927568435668945, -0.3387536, -0.026929582, 0.3667097
766, 43764633, -0.16219207644462585, -0.7628836035728455, -6.5222907066345215, 0.16826367, -0.020247804, 0.27684593
767, 43781300, -0.20095914602279663, -0.7671442031860352, -6.579094886779785, 0.03421258, 0.06615863, 0.39439487
768, 43797967, -0.20335187017917633, -0.8108490705490112, -6.6007513999938965, -0.25522906, 0.02586442, 0.34294796
769, 43814634, -0.20863200724124908, -0.8501268029212952, -6.6218647956848145, -0.138005, -0.041456025, 0.32202148
770, 43831301, -0.28760191798210144, -0.8172323703765869, -6.654208660125732, 0.3031001, -0.073348165, 0.35554886
771, 43847968, -0.29674720764160156, -0.8480481505393982, -6.65494966506958, -0.76874834, 0.17861065, 0.300519
772, 43864635, -0.30180713534355164, -0.8668680787086487, -6.654101848602295, -0.017469773, 0.01428103, 0.33656406
773, 43881302, -0.30292272567749023, -0.8742653727531433, -6.665546894073486, -0.041997988, 0.0028845866, 0.324378
774, 43897969, -0.3018173277378082, -0.8815932273864746, -6.678610801696777, -0.06659746, 0.019969855, 0.3484497
775, 43914636, -0.3042392134666443, -0.8792740702629089, -6.678516864776611, -0.022635715, -1.0486599E-4, 0.34769344
776, 43931303, -0.30492064356803894, -0.879534125328064, -6.6791558265686035, -0.010870671, 8.070459E-4, 0.3706646
777, 43947970, -0.30390629172325134, -0.8765116333961487, -6.679009914398193, -0.009910034, 0.0039286804, 0.35943604
778, 43964637, -0.30339786410331726, -0.8657911419868469, -6.678731441497803, 0.0070597054, 0.0060077137, 0.3351946
779, 43981304, -0.30396556854248047, -0.84564608335495, -6.679523468017578, -0.0031730458, 0.0052128094, 0.34620285
780, 43997971, -0.30917826294898987, -0.8135014772415161, -6.679652214050293, 1.3967464E-4, -0.008067466, 0.34377003
781, 44014638, -0.32360410690307617, -0.7669410705566406, -6.6798200607299805, -0.010553975, 0.001605525, 0.36750126
782, 44031305, -0.3413618505001068, -0.7152811884880066, -6.679137229919434, -0.034812585, 0.018279368, 0.33736897
783, 44047972, -0.3727972209453583, -0.6514182090759277, -6.6575517654418945, -0.050965816, 0.027351245, 0.35962772
784, 44064639, -0.40768101811408997, -0.5795000791549683, -6.643099784851074, -0.14642769, 0.04168697, 0.34197044
785, 44081306, -0.43386122584342957, -0.5440393686294556, -6.51257848739624, 0.29933852, -0.12349991, 0.23202705
786, 44097973, -0.4353501498699188, -0.5665470361709595, -6.45815896987915, -0.15931304, -0.0042734, 0.49435616
787, 44114640, -0.39928051829338074, -0.8729022741317749, -6.251766681671143, -0.23677354, -0.060072307, 0.30749702
788, 44131307, -0.4245443642139435, -0.8717762231826782, -6.231943130493164, 0.28849682, 0.1494652, 0.3189211
789, 44147974, -0.4241836667060852, -0.8752100467681885, -6.232553005218506, -0.021930609, 0.005865448, 0.3636427
790, 44164641, -0.42254307866096497, -0.877597451210022, -6.2330827713012695, 0.0062617436, 0.011342714, 0.35494137
791, 44181308, -0.4212370216846466, -0.8799185156822205, -6.233175754547119, -0.002356504, -0.0065788245, 0.34231377
792, 44197975, -0.42060133814811707, -0.8823371529579163, -6.233262062072754, 0.005245961, 0.0056744525, 0.33930302
793, 44214642, -0.4200081527233124, -0.8833295106887817, -6.234273433685303, -0.011424306, 0.0043562325, 0.32197
794, 44231309, -0.4195649325847626, -0.8847425580024719, -6.234063148498535, 0.010329868, 0.007881664, 0.3348961
795, 44247976, -0.4191177487373352, -0.8842935562133789, -6.233847141265869, -0.0070773214, -0.0053337873, 0.33507538
796, 44264643, -0.4195106327533722, -0.8841744661331177, -6.2336859703063965, -0.0079010995, 0.016016785, 0.33889294
797, 44281310, -0.4194321632385254, -0.8844131827354431, -6.234135627746582, -0.0017171942, 4.8486944E-4, 0.34391212
798, 44297977, -0.41999387741088867, -0.8845734596252441, -6.234733581542969, 0.001702589, 0.009587236, 0.33555222
799, 44314644, -0.4207017719745636, -0.8854166865348816, -6.234243392944336, 0.018682953, -0.0165006, 0.3335886
800, 44331311, -0.4209013283252716, -0.8856315016746521, -6.235714435577393, 0.01427587, 0.010526566, 0.323596
801, 44347978, -0.42004120349884033, -0.8861443996429443, -6.2358527183532715, -0.0010469556, -2.4045803E-4, 0.33799744
802, 44364645, -0.42004504799842834, -0.8863263130187988, -6.233834266662598, -0.014048941, -0.011883363, 0.33703423
803, 44381312, -0.4196058213710785, -0.8862761855125427, -6.233476638793945, 5.864631E-4, 0.005823651, 0.35342026
804, 44397979, -0.4209895431995392, -0.8867563605308533, -6.233384609222412, -0.0047727698, 0.009420865, 0.33865833
805, 44414646, -0.42177021503448486, -0.8853856325149536, -6.233776092529297, -0.009206094, 6.15876E-4, 0.34120655
806, 44431313, -0.420503169298172, -0.886093020439148, -6.234541893005371, 1.4377471E-4, 0.01563374, 0.32902527
807, 44447980, -0.4203665256500244, -0.8866282105445862, -6.234645366668701, 0.007650108, 0.0093194, 0.33087254
808, 44464647, -0.42152056097984314, -0.8867995142936707, -6.233318328857422, -0.014430444, 0.019798053, 0.33681583
809, 44481314, -0.42132946848869324, -0.8873379230499268, -6.233456134796143, 0.0013552569, -0.0014461253, 0.34489822
810, 44497981, -0.4208526015281677, -0.8874793648719788, -6.234076023101807, 0.008247007, 0.01635797, 0.35306263
811, 44514648, -0.4210403263568878, -0.8880141973495483, -6.234105110168457, 0.0018935039, -0.0032401206, 0.32971668
812, 44531315, -0.4218403995037079, -0.8895580172538757, -6.2325873374938965, 1.19369884E-4, -0.014799747, 0.37531757
813, 44547982, -0.42252251505851746, -0.8895684480667114, -6.233400821685791, -0.0029284947, 0.0040579825, 0.34532738
814, 44564649, -0.42247918248176575, -0.8909974694252014, -6.233424186706543, -0.0056556324, 0.008536211, 0.35604572
815, 44581316, -0.4217546582221985, -0.8902873396873474, -6.232693672180176, -0.0026022915, 0.008459274, 0.32479858
816, 44597983, -0.4213687777519226, -0.8909762501716614, -6.23273229598999, -0.0057632257, 0.018525345, 0.35384464
817, 44614650, -0.4219904839992523, -0.8908926248550415, -6.232056617736816, -0.0059328093, 0.0033084562, 0.35591125
818, 44631317, -0.42193689942359924, -0.8904722929000854, -6.232483386993408, -0.0078072376, 0.0108585, 0.34956455
819, 44647984, -0.4218168258666992, -0.8897383213043213, -6.233368396759033, -0.0061617424, 0.0050743204, 0.3246994
820, 44664651, -0.421930730342865, -0.8903601169586182, -6.233863830566406, -0.0040386626, 0.011013583, 0.32829
821, 44681318, -0.4211774170398712, -0.889572262763977, -6.234349250793457, -0.011448851, 0.017125892, 0.32928753
822, 44697985, -0.4204421639442444, -0.8893505334854126, -6.234396457672119, -0.010376526, 0.0025686808, 0.32467365
823, 44714652, -0.4204316735267639, -0.890588104724884, -6.233346939086914, -0.010361362, 7.059203E-4, 0.35881996
824, 44731319, -0.4208003282546997, -0.8910202980041504, -6.2329254150390625, -9.065336E-4, 0.011733833, 0.33017445
825, 44747986, -0.42046239972114563, -0.8917322158813477, -6.232093334197998, -0.008959168, 0.002483407, 0.32325363
826, 44764653, -0.42041322588920593, -0.8930605053901672, -6.232312202453613, 0.00966498, 0.003520762, 0.33057594
827, 44781320, -0.42024877667427063, -0.891913115978241, -6.231997013092041, -8.5639686E-4, -0.0039278874, 0.32976246
828, 44797987, -0.42013970017433167, -0.8921306133270264, -6.232274532318115, -0.011721934, 0.009146999, 0.33427525
829, 44814654, -0.42010819911956787, -0.8921195864677429, -6.232390403747559, 0.004161141, 0.01090101, 0.3296728
830, 44831321, -0.4193111062049866, -0.8921838402748108, -6.232377529144287, -0.011270843, 0.013000684, 0.34883308
831, 44847988, -0.41993606090545654, -0.8916064500808716, -6.232053756713867, 2.6223657E-4, 0.0083282115, 0.32941532
832, 44864655, -0.41969072818756104, -0.8928956389427185, -6.231163501739502, -3.8088704E-4, 0.0023835562, 0.33632278
833, 44881322, -0.4197515845298767, -0.8923917412757874, -6.230229377746582, -0.0075362003, 0.0022341202, 0.3280964
834, 44897989, -0.4198165535926819, -0.8926483988761902, -6.229867458343506, -0.0016654509, -9.147058E-4, 0.3222971
835, 44914656, -0.420503705739975, -0.8929378986358643, -6.2300028800964355, 0.0070071802, 0.0011572838, 0.3428812
836, 44931323, -0.42057153582572937, -0.8920024037361145, -6.229498863220215, -2.7010843E-4, 0.0071127727, 0.34449768
837, 44947990, -0.41963523626327515, -0.8920055627822876, -6.229005336761475, -0.007685793, 0.023122044, 0.31399822
838, 44964657, -0.41773521900177, -0.8911744356155396, -6.228526592254639, -0.00927546, -0.0020721431, 0.33104706
839, 44981324, -0.4178512990474701, -0.8927795886993408, -6.228429794311523, 0.010338934, -0.013150766, 0.34149837
840, 44997991, -0.41778162121772766, -0.892566978931427, -6.229145050048828, 0.009150278, -0.007646532, 0.32929993
841, 45014658, -0.4168616235256195, -0.8923519253730774, -6.229156970977783, 8.2598516E-4, 0.0035364884, 0.3479824
842, 45031325, -0.4169761538505554, -0.8931124210357666, -6.228419303894043, -0.011915147, 0.005052849, 0.33973026
843, 45047992, -0.4169253706932068, -0.8937068581581116, -6.228055477142334, -0.01402425, 0.007869092, 0.331892
844, 45064659, -0.41645583510398865, -0.8941301107406616, -6.229580402374268, 0.0016478143, 0.0016389122, 0.3465042
845, 45081326, -0.41644802689552307, -0.8946048617362976, -6.229585647583008, -0.00899458, 0.0061384584, 0.34982872
846, 45097993, -0.4156963527202606, -0.8955718278884888, -6.2303080558776855, -0.011113378, 0.014440629, 0.34872532
847, 45114660, -0.41623297333717346, -0.894601047039032, -6.229170799255371, 9.2567195E-4, -0.003925303, 0.33289433
848, 45131327, -0.4159795939922333, -0.8947151303291321, -6.228923320770264, 8.366579E-4, 0.003007269, 0.32535362
849, 45147994, -0.41601240634918213, -0.8939217925071716, -6.229020595550537, 0.001370323, -0.0033905238, 0.34525585
850, 45164661, -0.41690149903297424, -0.8937969207763672, -6.2297749519348145, 0.0061905896, -0.004151603, 0.34880352
851, 45181328, -0.4175640046596527, -0.8941706418991089, -6.230180263519287, 0.0016794484, -8.0913084E-4, 0.33995438
852, 45197995, -0.4175943434238434, -0.8928895592689514, -6.229279518127441, 0.014381005, -6.798321E-4, 0.3060646
853, 45214662, -0.4173053801059723, -0.8930732607841492, -6.229681968688965, 0.009833913, -0.009339681, 0.34836578
854, 45231329, -0.41687625646591187, -0.8913301825523376, -6.228542804718018, 9.99068E-4, 0.0023428174, 0.34951782
855, 45247996, -0.41620156168937683, -0.8923236727714539, -6.228400707244873, -0.0016892131, 0.0017608106, 0.32878208
856, 45264663, -0.4146590232849121, -0.8913355469703674, -6.229212760925293, 0.009160099, 0.004722944, 0.30725384
857, 45281330, -0.4153563976287842, -0.8917340040206909, -6.2297563552856445, 0.0054392437, -0.0029378124, 0.323946
858, 45297997, -0.4151011109352112, -0.8911341428756714, -6.2299485206604, 0.009221355, 0.0031463185, 0.35284042
859, 45314664, -0.41443920135498047, -0.8903378844261169, -6.23032808303833, -0.0120471595, -0.016626766, 0.34069157
860, 45331331, -0.4145372211933136, -0.8913770318031311, -6.230152606964111, -0.0050374093, -0.0029171305, 0.34784412
861, 45347998, -0.4151517152786255, -0.8918391466140747, -6.230776309967041, 0.014866098, 6.207758E-4, 0.3296194
862, 45364665, -0.4146447479724884, -0.8929334282875061, -6.23170280456543, 0.0049333917, 0.008460521, 0.34543228
863, 45381332, -0.41521239280700684, -0.8927209377288818, -6.231501579284668, -0.0036105374, -0.0061869747, 0.34448814
864, 45397999, -0.4161631464958191, -0.8926272988319397, -6.231752872467041, -0.0056697135, 0.0072240364, 0.33022022
865, 45414666, -0.41804665327072144, -0.89278644323349, -6.232205390930176, 0.011718449, 0.006359038, 0.32666874
866, 45431333, -0.4192908704280853, -0.8924933075904846, -6.232549667358398, 0.008361543, 6.813059E-4, 0.35738754
867, 45448000, -0.41916024684906006, -0.8916982412338257, -6.231405258178711, 0.0062722065, 0.0052829245, 0.33925915
868, 45464667, -0.4185849726200104, -0.8915516138076782, -6.231489181518555, 0.006085203, -0.0029865138, 0.32806015
869, 45481334, -0.420118510723114, -0.8917569518089294, -6.2303786277771, -0.0075403494, 0.0068310276, 0.32631016
870, 45498001, -0.41983288526535034, -0.8913252353668213, -6.230770587921143, -0.0030194784, 0.011902211, 0.3376007
871, 45514668, -0.41958385705947876, -0.8916280269622803, -6.231053352355957, -0.0010776677, 0.015500882, 0.32998085
872, 45531335, -0.41924867033958435, -0.8918936848640442, -6.231186866760254, -0.010838479, 0.012812588, 0.3507719
873, 45548002, -0.41934290528297424, -0.8917402625083923, -6.231155872344971, -0.0028009317, 0.015195097, 0.35470772
874, 45564669, -0.41960033774375916, -0.890862226486206, -6.2314605712890625, -0.0068381205, -0.0056654806, 0.33233738
875, 45581336, -0.4199356734752655, -0.8918740153312683, -6.231454849243164, 0.01229338, 0.015713628, 0.33481026
876, 45598003, -0.4183860421180725, -0.8925643563270569, -6.230690002441406, 0.002689245, 0.008374136, 0.36481953
877, 45614670, -0.4189611077308655, -0.8925715088844299, -6.230461597442627, -0.0018439749, 0.00588474, 0.34097862
878, 45631337, -0.4186296761035919, -0.8919864892959595, -6.230349063873291, 0.007818916, 0.005515923, 0.33980083
879, 45648004, -0.4193393290042877, -0.8910706639289856, -6.230963230133057, -0.0048021968, -0.0034521506, 0.32614708
880, 45664671, -0.42014193534851074, -0.8910406231880188, -6.230768203735352, -3.216072E-4, 0.009680168, 0.33707428
881, 45681338, -0.42105576395988464, -0.8911303281784058, -6.23132848739624, 0.0028980551, 0.0048958873, 0.34153938
882, 45698005, -0.4201500117778778, -0.8918734192848206, -6.231960296630859, -0.0051070196, 9.872288E-4, 0.35718536
883, 45714672, -0.420098215341568, -0.8920438885688782, -6.231687545776367, -0.013251363, 0.007315418, 0.3447218
884, 45731339, -0.42010703682899475, -0.8919767141342163, -6.2315993309021, -0.0069499467, -8.488114E-4, 0.33676147
885, 45748006, -0.4204130470752716, -0.8922123312950134, -6.23261022567749, -0.0071441797, -0.0048961667, 0.32146072
886, 45764673, -0.42055585980415344, -0.8928298354148865, -6.232633590698242, -0.008609698, 0.010929504, 0.33570576
887, 45781340, -0.4200953543186188, -0.8927878141403198, -6.231670379638672, -0.007896915, 0.012036183, 0.33386612
888, 45798007, -0.41974273324012756, -0.8945855498313904, -6.230964660644531, -0.011180726, 0.007215749, 0.31489658
889, 45814674, -0.42009109258651733, -0.8941516876220703, -6.231431484222412, -0.010195592, 0.005460781, 0.31424236
890, 45831341, -0.4204965829849243, -0.8941367864608765, -6.23166561126709, -0.002055006, -0.0033455559, 0.32954407
891, 45848008, -0.4215622544288635, -0.8943663835525513, -6.232010841369629, -0.0077371523, -0.0091250455, 0.35717106
892, 45864675, -0.42114385962486267, -0.8957214951515198, -6.232468605041504, -0.02278086, -0.0059321946, 0.34767628
893, 45881342, -0.4211355447769165, -0.8944769501686096, -6.232456684112549, 0.009498637, -0.0017900978, 0.34720707
894, 45898009, -0.42125457525253296, -0.8947224020957947, -6.231976509094238, 0.0058218, 0.012091111, 0.3263359
895, 45914676, -0.42194950580596924, -0.8955330848693848, -6.231139183044434, -0.004206423, -0.0026485762, 0.34692097
896, 45931343, -0.4218587279319763, -0.8951613903045654, -6.231425762176514, -0.0021352263, 0.0037442925, 0.32720852
897, 45948010, -0.4229464530944824, -0.8950058221817017, -6.231769561767578, -0.0060519557, -7.0252566E-4, 0.35267735
898, 45964677, -0.4226377308368683, -0.8951128721237183, -6.230218410491943, 0.0027891833, 0.0037934969, 0.34025574
899, 45981344, -0.4228373169898987, -0.8951094746589661, -6.229781150817871, 0.0067230253, 0.014608979, 0.34563732
900, 45998011, -0.4224127233028412, -0.8952324986457825, -6.229039669036865, -0.0026256696, 0.009648517, 0.3555231
901, 46014678, -0.422565758228302, -0.894806444644928, -6.230261325836182, -0.006522576, 0.012000948, 0.32675934
902, 46031345, -0.42201104760169983, -0.895794153213501, -6.230633735656738, -0.0032641762, -0.0046909186, 0.33913136
903, 46048012, -0.4230782091617584, -0.895247757434845, -6.231410503387451, -0.002903049, 0.0056298026, 0.3480034
904, 46064679, -0.42256227135658264, -0.8951475024223328, -6.232544898986816, -0.011043992, -0.006741598, 0.36202812
905, 46081346, -0.42275819182395935, -0.8951136469841003, -6.231637001037598, -7.8266556E-4, 0.009925868, 0.33498383
906, 46098013, -0.4229182302951813, -0.8967119455337524, -6.231734275817871, -0.002698507, 0.008784695, 0.30924702
907, 46114680, -0.4226484000682831, -0.8971827030181885, -6.231513023376465, 0.0057450375, 0.0039791977, 0.34749794
908, 46131347, -0.42243844270706177, -0.8979703187942505, -6.232516765594482, -0.0065641217, 0.013809671, 0.34502125
909, 46148014, -0.4225713014602661, -0.8973009586334229, -6.233229637145996, -0.0018380169, 3.0735825E-4, 0.32942677
910, 46164681, -0.4237983822822571, -0.8969265818595886, -6.234016418457031, -0.0010145043, 0.0059330957, 0.3479252
911, 46181348, -0.42385444045066833, -0.8969152569770813, -6.234061241149902, 0.011760239, 4.404602E-5, 0.33564472
912, 46198015, -0.4239189922809601, -0.8978813290596008, -6.233245849609375, -0.0045181117, 0.0045640334, 0.3335886
913, 46214682, -0.42390039563179016, -0.897314190864563, -6.233816146850586, 0.0031971713, 0.01398578, 0.35593605
914, 46231349, -0.4236902594566345, -0.8955965042114258, -6.235237121582031, 0.0034544207, -0.0074438266, 0.32649612
915, 46248016, -0.4239045977592468, -0.8960004448890686, -6.234449863433838, -0.0026897758, 0.009179212, 0.34833908
916, 46264683, -0.42300501465797424, -0.896795928478241, -6.234922409057617, 0.004081598, 0.0054881303, 0.34075737
917, 46281350, -0.424434632062912, -0.896888792514801, -6.236069679260254, -0.010588312, -5.5841566E-4, 0.3504219
918, 46298017, -0.4243863821029663, -0.8974297642707825, -6.236661911010742, 0.001501134, -0.005481861, 0.33205223
919, 46314684, -0.42467695474624634, -0.8992599248886108, -6.235945701599121, -0.0014470369, 0.012269387, 0.34071732
920, 46331351, -0.4254269003868103, -0.8985859155654907, -6.236069202423096, -0.0011933286, -0.002922355, 0.3492174
921, 46348018, -0.42592108249664307, -0.8983684182167053, -6.2354655265808105, -0.019087054, 0.02274441, 0.33625793
922, 46364685, -0.4256223738193512, -0.8979264497756958, -6.236482620239258, -0.007828066, 0.01290378, 0.32162476
923, 46381352, -0.4263264834880829, -0.8972538113594055, -6.235776424407959, -0.0058409525, -0.0019744681, 0.34458256
924, 46398019, -0.4267394244670868, -0.8972283005714417, -6.235306262969971, -0.009033681, -3.0531173E-4, 0.32343102
925, 46414686, -0.42782118916511536, -0.8975672125816345, -6.235650062561035, -0.013043084, 0.0015278088, 0.3225975
926, 46431353, -0.42895129323005676, -0.8975673317909241, -6.234620571136475, -0.0072507183, 0.004366249, 0.33003902
927, 46448020, -0.42789968848228455, -0.897539496421814, -6.233551502227783, 0.0030743089, 6.19323E-4, 0.32832432
928, 46464687, -0.4277573525905609, -0.8975846171379089, -6.232841491699219, -0.008291011, -1.80815E-4, 0.3600254
929, 46481354, -0.4262559711933136, -0.8969491124153137, -6.233311176300049, -0.003909332, -0.0015128161, 0.32795525
930, 46498021, -0.42574140429496765, -0.8966519832611084, -6.233019828796387, 0.0065030046, 0.014221999, 0.33437252
931, 46514688, -0.42620769143104553, -0.8952588438987732, -6.232405185699463, 0.005111085, 0.0014137265, 0.34209347
932, 46531355, -0.42662811279296875, -0.8948614001274109, -6.233607292175293, -0.0063274493, -7.706098E-4, 0.32194424
933, 46548022, -0.42706620693206787, -0.8945450782775879, -6.232369899749756, -0.014813119, 0.009374608, 0.35470867
934, 46564689, -0.4271964728832245, -0.893782913684845, -6.232291221618652, -0.009786389, 0.013346374, 0.36916924
935, 46581356, -0.4260636866092682, -0.8922203779220581, -6.232244968414307, -0.008450452, 0.009983671, 0.32662964
936, 46598023, -0.4255158305168152, -0.892371654510498, -6.2322773933410645, 9.2088734E-4, 0.008509397, 0.3406229
937, 46614690, -0.42481815814971924, -0.8918865323066711, -6.233543872833252, -0.0011609053, -5.2391086E-4, 0.35555935
938, 46631357, -0.42460569739341736, -0.8914324641227722, -6.233815670013428, 0.0016173817, 0.018572006, 0.33912563
939, 46648024, -0.42574402689933777, -0.8906116485595703, -6.233757019042969, -0.0138197085, 0.008492189, 0.34421062
940, 46664691, -0.4258868992328644, -0.8894514441490173, -6.232645511627197, -0.004011897, 0.020408241, 0.31674004
941, 46681358, -0.4268682897090912, -0.8889912962913513, -6.232288837432861, -0.004738768, 0.0011285623, 0.31807232
942, 46698025, -0.4277123212814331, -0.8896040916442871, -6.231390476226807, -0.0010325321, -0.0015019826, 0.34733105
943, 46714692, -0.4280953109264374, -0.8892771005630493, -6.230607986450195, -0.016589928, 0.003448955, 0.29636002
944, 46731359, -0.42808443307876587, -0.890621542930603, -6.23165225982666, -0.018840482, 0.020989524, 0.32818604
945, 46748026, -0.427401065826416, -0.8912535309791565, -6.2311553955078125, 0.0052703796, -0.023640567, 0.36723137
946, 46764693, -0.42826148867607117, -0.8907284736633301, -6.230302810668945, 0.015377838, -0.015351505, 0.34327507
947, 46781360, -0.4282967746257782, -0.8916630148887634, -6.230106353759766, -0.011386071, 0.007432581, 0.34633732
948, 46798027, -0.42978060245513916, -0.8930494785308838, -6.22899866104126, -0.017168561, 0.016396483, 0.32492924
949, 46814694, -0.4299306273460388, -0.8948908448219299, -6.228785037994385, 0.020225456, 0.002242254, 0.328269
950, 46831361, -0.4306570589542389, -0.8937302231788635, -6.227884769439697, -0.007715276, -0.008028893, 0.31729984
951, 46848028, -0.4306890070438385, -0.8960197567939758, -6.227006912231445, -0.013609166, 0.013333012, 0.33396053
952, 46864695, -0.42902883887290955, -0.8946415185928345, -6.226667881011963, -0.004954584, 0.0038892652, 0.34645367
953, 46881362, -0.4303981065750122, -0.8950506448745728, -6.226799488067627, -0.009924946, -0.0079223085, 0.33606052
954, 46898029, -0.4303429126739502, -0.8969688415527344, -6.227455139160156, -0.0046762195, -0.0039820895, 0.3359375
955, 46914696, -0.4296247363090515, -0.8966910243034363, -6.226953506469727, -0.013401222, 0.0021384289, 0.32692242
956, 46931363, -0.4292794167995453, -0.8978910446166992, -6.22694206237793, -0.016412556, 0.010521642, 0.3394966
957, 46948030, -0.4295896887779236, -0.8993505239486694, -6.226940155029297, 0.0026755899, -9.147931E-4, 0.35417938
958, 46964697, -0.42933422327041626, -0.8996947407722473, -6.227160453796387, -0.0014751646, -0.00452261, 0.34023476
959, 46981364, -0.4288109540939331, -0.9007671475410461, -6.227265357971191, -0.014012335, 0.01895872, 0.33446598
960, 46998031, -0.414932519197464, -0.8946579694747925, -6.229628086090088, -0.016526548, 0.008577317, 0.3344183
961, 47014698, -0.4153050184249878, -0.8950488567352295, -6.230136871337891, 0.0026205217, 0.0038165362, 0.34523392
962, 47031365, -0.4152059853076935, -0.8955750465393066, -6.230950355529785, 0.0034142092, 0.0064515653, 0.33147335
963, 47048032, -0.41505032777786255, -0.8953903317451477, -6.2300896644592285, -0.004107323, -0.005661178, 0.3188839
964, 47064699, -0.4139561653137207, -0.8958300352096558, -6.229419231414795, -0.0013570309, 0.008745472, 0.33557987
965, 47081366, -0.4136676490306854, -0.8957473039627075, -6.229372978210449, -0.0011088687, -0.0075411526, 0.31706905
966, 47098033, -0.414217084646225, -0.8965950012207031, -6.228984832763672, -0.007948261, -3.323882E-4, 0.35935783
967, 47114700, -0.41407182812690735, -0.8966055512428284, -6.228578567504883, -0.013970566, 0.012630263, 0.35935116
968, 47131367, -0.414676308631897, -0.8958659768104553, -6.2278947830200195, -0.010747956, 0.01513379, 0.340065
969, 47148034, -0.41511622071266174, -0.8945947885513306, -6.2279534339904785, -0.0066986624, 5.9252937E-4, 0.3371191
970, 47164701, -0.41449686884880066, -0.8947059512138367, -6.228130340576172, -0.0067922445, -0.0015128056, 0.31401157
971, 47181368, -0.4138675928115845, -0.8932835459709167, -6.2272138595581055, -0.007559271, -0.0055317814, 0.3313799
972, 47198035, -0.41392311453819275, -0.8941067457199097, -6.228177547454834, -0.017447086, 0.0041334494, 0.33063793
973, 47214702, -0.41295406222343445, -0.894527018070221, -6.22808313369751, -0.0153366, -0.002697295, 0.3255129
974, 47231369, -0.41194596886634827, -0.8947193026542664, -6.227689266204834, -0.005915298, -0.013344362, 0.33620262
975, 47248036, -0.41178929805755615, -0.8953842520713806, -6.228043079376221, -0.011573354, -0.005893729, 0.31586838
976, 47264703, -0.41201719641685486, -0.8946683406829834, -6.227026462554932, -0.0042377845, 0.013040104, 0.32600784
977, 47281370, -0.41201168298721313, -0.8946549892425537, -6.227449417114258, -0.013898015, 0.002233729, 0.32684612
978, 47298037, -0.4130209982395172, -0.8938258290290833, -6.226279258728027, -0.00845159, 0.0015014169, 0.3403225
979, 47314704, -0.41282811760902405, -0.8935757279396057, -6.226536750793457, -0.008776005, -0.020109335, 0.3478136
980, 47331371, -0.4132474660873413, -0.893040657043457, -6.227438449859619, -0.009432387, -0.0011257894, 0.32914543
981, 47348038, -0.41295042634010315, -0.8944619297981262, -6.227051258087158, -0.0052764704, -0.0068411203, 0.3369665
982, 47364705, -0.4119374454021454, -0.8935068249702454, -6.227052688598633, -0.0069791432, 0.014701168, 0.36175823
983, 47381372, -0.4123477041721344, -0.8925791382789612, -6.2270965576171875, -0.008156917, 0.0032222432, 0.35272503
984, 47398039, -0.41265642642974854, -0.8921103477478027, -6.226977348327637, 0.0013206194, -0.004079335, 0.31882763
985, 47414706, -0.41367897391319275, -0.8903742432594299, -6.226024627685547, -4.6495584E-4, 0.007873433, 0.3218069
986, 47431373, -0.4141717851161957, -0.8920756578445435, -6.225964546203613, 0.01536201, 0.0025029923, 0.34409904
987, 47448040, -0.41514289379119873, -0.8914503455162048, -6.2254462242126465, 0.0062090294, -0.0072352784, 0.3559246
988, 47464707, -0.41552042961120605, -0.8927092552185059, -6.224793910980225, 0.010859139, -0.010306434, 0.338789
989, 47481374, -0.41703560948371887, -0.891472339630127, -6.224808692932129, -0.010601464, 0.016744535, 0.32703686
990, 47498041, -0.4164603054523468, -0.892055869102478, -6.224920272827148, -0.0021171006, 1.1455039E-6, 0.34245872
991, 47514708, -0.4152414798736572, -0.891474723815918, -6.224773406982422, 0.0015447958, -0.010646666, 0.33109283
992, 47531375, -0.41471806168556213, -0.8911135196685791, -6.224354267120361, -0.0013383466, -0.009030625, 0.34149456
993, 47548042, -0.41540825366973877, -0.8898832201957703, -6.22365140914917, -0.012894072, 1.9766927E-5, 0.34889603
994, 47564709, -0.415297269821167, -0.8890302777290344, -6.2231316566467285, 0.004328028, -0.001400623, 0.34223175
995, 47581376, -0.4162566363811493, -0.8890045881271362, -6.222921371459961, -0.013530902, 0.023208927, 0.35373688
996, 47598043, -0.4176429510116577, -0.8887096047401428, -6.222038269042969, -0.004310468, -0.0012458647, 0.33629704
997, 47614710, -0.41879966855049133, -0.8879948258399963, -6.221989631652832, 0.004722396, -0.011640027, 0.33541393
998, 47631377, -0.4190756380558014, -0.8880584836006165, -6.220822334289551, 0.0019312148, -5.6810357E-4, 0.33717823
999, 47648044, -0.419572651386261, -0.8884354829788208, -6.222610950469971, -0.018972576, 0.005902673, 0.33273983
1000, 47664711, -0.420110285282135, -0.8873914480209351, -6.224182605743408, -0.014469656, -4.9528026E-4, 0.3456478
1001, 47681378, -0.41893360018730164, -0.8869279623031616, -6.225037097930908, 0.009341836, 0.015357771, 0.3419819
1002, 47698045, -0.42266494035720825, -0.8811920881271362, -6.223913669586182, 0.018259402, 0.018171754, 0.3225603
1003, 47714712, -0.4317256212234497, -0.8632771968841553, -6.223970413208008, -0.04146728, -0.004637691, 0.33831692
1004, 47731379, -0.4294033348560333, -0.8665274977684021, -6.224545955657959, -0.0097638145, -0.0055863396, 0.3333292
1005, 47748046, -0.42392051219940186, -0.8802079558372498, -6.225701808929443, 0.0057746526, 0.012108025, 0.32090855
1006, 47764713, -0.4187162220478058, -0.890313446521759, -6.225319862365723, 0.010366468, 0.0023362797, 0.32785702
1007, 47781380, -0.4148281216621399, -0.8904110789299011, -6.224070072174072, 0.015370322, 0.014448388, 0.3357954
1008, 47798047, -0.41779300570487976, -0.8762403726577759, -6.222752571105957, -0.02732513, 0.01290129, 0.3446102
1009, 47814714, -0.4187540113925934, -0.8868581056594849, -6.225499153137207, 0.018598024, -0.0012407763, 0.348711
1010, 47831381, -0.4182806611061096, -0.8872291445732117, -6.224462985992432, -0.0032923669, -0.0039685215, 0.3487177
1011, 47848048, -0.4186352491378784, -0.8876832723617554, -6.222298622131348, -4.1277954E-4, 0.011252487, 0.3412342
1012, 47864715, -0.41956907510757446, -0.888184666633606, -6.223023891448975, -0.009553949, 0.0048782364, 0.33453083
1013, 47881382, -0.4198080599308014, -0.8876912593841553, -6.222546100616455, 0.0020808987, -0.005751938, 0.33985043
1014, 47898049, -0.42026951909065247, -0.8878452181816101, -6.221842288970947, -2.3069332E-4, 6.6706043E-4, 0.3273487
1015, 47914716, -0.41997912526130676, -0.8890872001647949, -6.222935199737549, 0.0120217, -0.003689745, 0.33648205
1016, 47931383, -0.42013978958129883, -0.8893942832946777, -6.221391677856445, -0.011687318, -0.0011235507, 0.33816338
1017, 47948050, -0.41961994767189026, -0.8890944719314575, -6.2210187911987305, -0.0077651055, 0.0015900153, 0.36320686
1018, 47964717, -0.41858789324760437, -0.8847112059593201, -6.220696926116943, 0.010034104, 0.012408318, 0.32069016
1019, 47981384, -0.4174819588661194, -0.8821303248405457, -6.220180988311768, -1.9366E-4, -0.004903256, 0.34942627
1020, 47998051, -0.4175034761428833, -0.8815673589706421, -6.219166278839111, -0.004973876, -0.0124183, 0.3370905
1021, 48014718, -0.41613492369651794, -0.880436897277832, -6.2195892333984375, -0.017481364, -0.004393898, 0.3328209
1022, 48031385, -0.4172195494174957, -0.8795310854911804, -6.219879150390625, 6.317035E-5, -0.0075557614, 0.34109306
1023, 48048052, -0.41747236251831055, -0.8797040581703186, -6.220320701599121, -0.005280815, 0.0152685195, 0.33401585
1024, 48064719, -0.4178200662136078, -0.8800297379493713, -6.221889972686768, -7.797669E-4, 0.016066091, 0.34860992
1025, 48081386, -0.41849765181541443, -0.8798902630805969, -6.222933769226074, 0.004759513, 0.012050689, 0.35089588
1026, 48098053, -0.4185102880001068, -0.8807861804962158, -6.222923278808594, -0.0010164741, 0.018625708, 0.34589767
1027, 48114720, -0.4196293354034424, -0.8817556500434875, -6.223202228546143, -0.0092257345, -4.5200606E-4, 0.3475027
1028, 48131387, -0.419563353061676, -0.8819195628166199, -6.223484992980957, 0.0045013484, 0.005459381, 0.3398199
1029, 48148054, -0.4188400208950043, -0.8831545114517212, -6.224102020263672, 0.0030652147, -0.012963905, 0.34253693
1030, 48164721, -0.419461727142334, -0.8834524750709534, -6.224005222320557, 0.01132098, -0.008801776, 0.34465122
1031, 48181388, -0.4180201292037964, -0.8837374448776245, -6.223430156707764, 0.008767205, -0.0013836919, 0.34740067
1032, 48198055, -0.41846734285354614, -0.8864237666130066, -6.222574710845947, -0.025379326, 0.0026998897, 0.3584175
1033, 48214722, -0.4190223813056946, -0.943405270576477, -6.191596508026123, -0.31083772, 0.020563947, 0.31767273
1034, 48231389, -0.5353047847747803, -1.0250757932662964, -5.997744083404541, -1.2261885, -0.11220709, 0.32971478
1035, 48248056, -0.6004601120948792, -0.9714253544807434, -6.014046669006348, 1.4723645, 0.07779885, 0.41881752
1036, 48264723, -0.6000125408172607, -0.9511844515800476, -6.041398525238037, -0.032637663, 0.027759561, 0.33413887
1037, 48281390, -0.6101046800613403, -0.9305523633956909, -6.045782089233398, -0.07278212, 0.0038167213, 0.33471012
1038, 48298057, -0.6176801919937134, -0.9207286238670349, -6.038912773132324, -0.045561794, -0.0030273048, 0.33555222
1039, 48314724, -0.6369362473487854, -0.9082158207893372, -6.030440330505371, -0.04441296, 0.028794179, 0.33297157
1040, 48331391, -0.6495056748390198, -0.8940628170967102, -5.984374046325684, -0.21654515, 0.06679004, 0.35734558
1041, 48348058, -0.6541668176651001, -0.871493935585022, -5.948031902313232, 0.28448665, -0.085428044, 0.3465042
1042, 48364725, -0.6390804052352905, -0.8481435179710388, -5.965672969818115, -0.45860088, -0.17514099, 0.28670883
1043, 48381392, -0.637999415397644, -0.800808846950531, -6.056422710418701, 0.16350788, -0.05496989, 0.41527843
