PacketCounter,SampleTimeFine,Euler_X,Euler_Y,Euler_Z,FreeAcc_X,FreeAcc_Y,FreeAcc_Z
1,1542945767,-0.859052836894989,-0.5529287457466125,5.216230869293213,-0.032875255,0.0044559473,0.33818626
2,1542962434,-0.8576472997665405,-0.5419729948043823,5.070754051208496,-0.020792484,0.019694014,0.3457737
3,1542979101,-0.8358622193336487,-0.5337971448898315,4.967123031616211,-0.0064439974,0.017795278,0.34174824
4,1542995768,-0.8158537745475769,-0.5370169878005981,5.020274639129639,-0.00955441,0.006283131,0.34172058
5,1543012435,-0.8050501346588135,-0.5457776188850403,5.016387939453125,0.0008867283,-0.00089167,0.3261137
6,1543029102,-0.8030532002449036,-0.5585517883300781,5.017721652984619,-0.02129402,0.01150951,0.34916973
7,1543045769,-0.8000792860984802,-0.569841742515564,5.044429779052734,-0.011596872,0.012001347,0.34732723
8,1543062436,-0.7967925667762756,-0.5833445191383362,5.050085067749023,-0.0094498275,0.008588891,0.33699036
9,1543079103,-0.7971410155296326,-0.5988839864730835,5.076143264770508,-0.023054328,-0.0047269077,0.3580799
10,1543095770,-0.7969285845756531,-0.6113208532333374,5.090535640716553,-0.017881295,-0.0053526605,0.34049702
11,1543112437,-0.7993361353874207,-0.626802921295166,5.102043151855469,-0.017058628,0.0036681269,0.34364796
12,1543129104,-0.8028448224067688,-0.6416740417480469,5.107301235198975,-0.008673053,0.010356204,0.33761692
13,1543145771,-0.8059930205345154,-0.6559164524078369,5.11952543258667,-0.023509827,-0.0030890887,0.33397007
14,1543162438,-0.8077195286750793,-0.6721329092979431,5.130899906158447,-0.048902377,0.00946921,0.3400364
15,1543179105,-0.810486376285553,-0.6860455274581909,5.13528299331665,-0.040539816,0.0066546723,0.34449768
16,1543195772,-0.8137757182121277,-0.699415922164917,5.135863304138184,-0.04630026,0.0104342485,0.3344307
17,1543212439,-0.8183363080024719,-0.7118294835090637,5.1289496421813965,-0.034377806,0.021446219,0.32039452
18,1543229106,-0.8206331133842468,-0.7231951355934143,5.125812530517578,-0.047050994,0.02131349,0.36458492
19,1543245773,-0.823194682598114,-0.7369022369384766,5.140658378601074,-0.033166207,0.0091556,0.3496685
20,1543262440,-0.8259851932525635,-0.7526283264160156,5.152161121368408,-0.044512138,0.016786147,0.3262186
21,1543279107,-0.8278358578681946,-0.7656136155128479,5.14564847946167,-0.046398025,0.0032805416,0.34521008
22,1543295774,-0.8307597637176514,-0.780643105506897,5.149695873260498,-0.050853737,0.0059708133,0.3421049
23,1543312441,-0.8341124057769775,-0.7936921119689941,5.147916316986084,-0.048372112,0.002415735,0.34555817
24,1543329108,-0.8374454379081726,-0.8073901534080505,5.147793292999268,-0.053584337,0.021383101,0.34178925
25,1543345775,-0.8400048017501831,-0.8214467167854309,5.148385524749756,-0.060546815,0.016857294,0.34304047
26,1543362442,-0.8424410223960876,-0.8362769484519958,5.152418613433838,-0.059885588,0.020940093,0.31005192
27,1543379109,-0.8448292016983032,-0.8504071235656738,5.168615818023682,-0.069417275,-0.0052829594,0.32944298
28,1543395776,-0.8479708433151245,-0.8661245107650757,5.17132043838501,-0.060746085,0.014622169,0.3369894
29,1543412443,-0.8507073521614075,-0.8813149333000183,5.174215793609619,-0.07889695,0.007776442,0.3701849
30,1543429110,-0.8538594841957092,-0.8932902216911316,5.1824798583984375,-0.06690588,0.013550015,0.33498478
31,1543445777,-0.8561326265335083,-0.9077544808387756,5.1829514503479,-0.06663104,0.012560814,0.32885742
32,1543462444,-0.8595763444900513,-0.9211620092391968,5.190746784210205,-0.07666706,0.01173758,0.3248787
33,1543479111,-0.862862229347229,-0.933961808681488,5.190461158752441,-0.08027572,0.014694098,0.3354683
34,1543495778,-0.8659155964851379,-0.9492371678352356,5.189157962799072,-0.10267019,0.0060693827,0.35428905
35,1543512445,-0.8696756362915039,-0.9641995429992676,5.198254585266113,-0.093554504,0.011134982,0.346591
36,1543529112,-0.872318685054779,-0.9781908988952636,5.194328308105469,-0.08126953,0.011418243,0.34669876
37,1543545779,-0.8768118023872375,-0.9923123121261596,5.19403076171875,-0.07652833,0.0055072894,0.33432007
38,1543562446,-0.88142991065979,-1.007620930671692,5.194311618804932,-0.098722324,0.008071137,0.34812737
39,1543579113,-0.8840823173522949,-1.0213778018951416,5.199653148651123,-0.08524269,0.023505956,0.33796024
40,1543595780,-0.8878424167633057,-1.0360397100448608,5.198596954345703,-0.10091156,0.016320232,0.33966637
41,1543612447,-0.8909739255905151,-1.0515056848526,5.197709083557129,-0.102006,0.011197426,0.3207903
42,1543629114,-0.8942978382110596,-1.066258430480957,5.196460723876953,-0.097589254,0.012333962,0.33174515
43,1543645781,-0.8981269598007202,-1.079999923706055,5.1887688636779785,-0.095561706,0.023834793,0.35671043
44,1543662448,-0.90158873796463,-1.0937470197677612,5.189901828765869,-0.10850327,0.029382084,0.3562212
45,1543679115,-0.904442548751831,-1.1073259115219116,5.188526630401611,-0.10482666,0.029358622,0.34202576
46,1543695782,-0.9078845381736756,-1.120775580406189,5.194375514984131,-0.10774951,0.017687248,0.3638239
47,1543712449,-0.9108462929725648,-1.1359626054763794,5.190354347229004,-0.12671685,0.03059949,0.33090973
48,1543729116,-0.9148876070976256,-1.1504908800125122,5.195085048675537,-0.105141476,0.012768373,0.3422203
49,1543745783,-0.9172664284706116,-1.1644350290298462,5.203094482421875,-0.12924784,0.01314574,0.35766888
50,1543762450,-0.9208049178123474,-1.1779179573059082,5.203489303588867,-0.12146736,0.017125381,0.35832596
51,1543779117,-0.9228509068489076,-1.1908416748046875,5.213893890380859,-0.13278778,0.013390647,0.35129166
52,1543795784,-0.9269887804985046,-1.20452082157135,5.201509475708008,-0.12523599,0.014311367,0.35090637
53,1543812451,-0.9309081435203552,-1.2182782888412476,5.203592300415039,-0.11626272,0.0252235,0.32980633
54,1543829118,-0.9346992373466492,-1.2318464517593384,5.202081203460693,-0.124737255,0.031933278,0.35851288
55,1543845785,-0.9375885128974916,-1.244943618774414,5.197309970855713,-0.13418955,0.024368305,0.34776878
56,1543862452,-0.9411303997039796,-1.25819194316864,5.197092056274414,-0.13785224,0.01918425,0.34477234
57,1543879119,-0.9447487592697144,-1.270416259765625,5.191273212432861,-0.14280947,0.007907595,0.32495308
58,1543895786,-0.9477992057800292,-1.282712697982788,5.188352584838867,-0.1313295,0.03570575,0.34568405
59,1543912453,-0.9505029320716858,-1.2954975366592407,5.197404861450195,-0.14741151,0.03212141,0.33850002
60,1543929120,-0.95221608877182,-1.3094207048416138,5.193699836730957,-0.14874041,0.029409468,0.3379488
61,1543945787,-0.9548905491828918,-1.323675274848938,5.190212726593018,-0.15514214,0.01527227,0.34679127
62,1543962454,-0.95888352394104,-1.3378779888153076,5.193859100341797,-0.16210884,0.030453095,0.34962177
63,1543979121,-0.9629616737365724,-1.3502962589263916,5.193329811096191,-0.14321254,0.022439856,0.3375559
64,1543995788,-0.9659786224365234,-1.362404704093933,5.207281112670898,-0.16325884,0.02622351,0.35965443
65,1544012455,-0.9689494371414183,-1.375308394432068,5.211731910705566,-0.17493303,0.029735465,0.34651566
66,1544029122,-0.9716402888298036,-1.3889447450637815,5.21424674987793,-0.1744597,0.018370677,0.33156204
67,1544045789,-0.9741230010986328,-1.4019181728363037,5.224228858947754,-0.16668549,0.01250057,0.33356953
68,1544062456,-0.9778481125831604,-1.4145053625106812,5.224272727966309,-0.16425864,0.021072704,0.33830357
69,1544079123,-0.9820860028266908,-1.4270427227020264,5.22342586517334,-0.16530502,0.020109069,0.3235426
70,1544095790,-0.98551744222641,-1.439584255218506,5.215695381164551,-0.1583573,0.025532614,0.3483305
71,1544112457,-0.9884750247001648,-1.4515093564987185,5.206305503845215,-0.1801905,0.021977045,0.32583523
72,1544129124,-0.9907492399215698,-1.4647092819213867,5.205124378204346,-0.17529252,0.024230635,0.34540558
73,1544145791,-0.9948933720588684,-1.476763367652893,5.203695774078369,-0.18596183,0.038169038,0.3343382
74,1544162458,-0.9996912479400636,-1.4879724979400637,5.203590393066406,-0.17378853,0.03125658,0.336442
75,1544179125,-1.0031406879425049,-1.5010418891906738,5.195583343505859,-0.17571211,0.03169594,0.35774422
76,1544195792,-1.0062141418457031,-1.5135319232940674,5.197914123535156,-0.17695004,0.04096576,0.37477493
77,1544212459,-1.008515238761902,-1.5259650945663452,5.20321798324585,-0.1924772,0.037380364,0.36497307
78,1544229126,-1.0115126371383667,-1.538905143737793,5.205124855041504,-0.20254742,0.026366564,0.3359127
79,1544245793,-1.014946460723877,-1.5505722761154177,5.221275329589844,-0.20305635,0.032378864,0.32024097
80,1544262460,-1.0177931785583496,-1.563204050064087,5.215291500091553,-0.18827666,0.022879422,0.35925674
81,1544279127,-1.0212159156799316,-1.573838472366333,5.210282325744629,-0.18251543,0.023816667,0.3373747
82,1544295794,-1.0246546268463137,-1.5858492851257324,5.20174503326416,-0.18717134,0.02151871,0.34217834
83,1544312461,-1.0271774530410769,-1.597770094871521,5.207432270050049,-0.21071506,0.028801268,0.34551716
84,1544329128,-1.029813289642334,-1.6083229780197144,5.19799280166626,-0.21544962,0.033003524,0.3505249
85,1544345795,-1.0322880744934082,-1.6210086345672607,5.193617820739746,-0.20167702,0.02690927,0.33572006
86,1544362462,-1.0355112552642822,-1.6310263872146606,5.184913635253906,-0.2104735,0.02065025,0.340909
87,1544379129,-1.0372958183288574,-1.6415293216705322,5.180393695831299,-0.21042554,0.030076958,0.3455267
88,1544395796,-1.0389498472213743,-1.6518317461013794,5.180220127105713,-0.21293633,0.051730976,0.352396
89,1544412463,-1.0406190156936646,-1.662580966949463,5.18574333190918,-0.21266781,0.033767812,0.33841038
90,1544429130,-1.041981816291809,-1.6739903688430786,5.180392265319824,-0.20894273,0.035281476,0.3347721
91,1544445797,-1.0443905591964722,-1.6831969022750854,5.170844078063965,-0.21701768,0.0428073,0.34295082
92,1544462464,-1.0464533567428589,-1.6931830644607544,5.167065620422363,-0.23002252,0.026897458,0.35825253
93,1544479131,-1.0480871200561523,-1.7029343843460083,5.165085315704346,-0.21257694,0.030776246,0.3472519
94,1544495798,-1.0515496730804443,-1.714803695678711,5.159911632537842,-0.23834446,0.034240402,0.3411188
95,1544512465,-1.052297830581665,-1.7249391078948977,5.156162738800049,-0.22144248,0.023969963,0.356081
96,1544529132,-1.0543928146362305,-1.7336798906326294,5.145031929016113,-0.22322723,0.02970328,0.3376112
97,1544545799,-1.0563232898712158,-1.742948055267334,5.135672092437744,-0.2209667,0.030082602,0.35237408
98,1544562466,-1.0593751668930054,-1.751503586769104,5.140499114990234,-0.23094659,0.0369913,0.35261345
99,1544579133,-1.062238693237305,-1.7600884437561035,5.13713264465332,-0.23841557,0.0485112,0.3567114
100,1544595800,-1.0648584365844729,-1.7685478925704956,5.1315741539001465,-0.24412046,0.04101713,0.32544518
101,1544612467,-1.066995620727539,-1.7770308256149292,5.125916957855225,-0.23584601,0.0316074,0.35733604
102,1544629134,-1.0685172080993652,-1.787020564079285,5.123125076293945,-0.23589906,0.046679128,0.3677492
103,1544645801,-1.0701154470443726,-1.7943421602249146,5.111908435821533,-0.24473791,0.034817513,0.3393364
104,1544662468,-1.0717674493789673,-1.8027821779251096,5.113490581512451,-0.2564064,0.040610954,0.34136677
105,1544679135,-1.0724093914031982,-1.811205506324768,5.112825393676758,-0.24163382,0.04760361,0.3141365
106,1544695802,-1.0745229721069336,-1.8209025859832764,5.119430541992188,-0.23938277,0.025757354,0.32923794
107,1544712469,-1.076351761817932,-1.8296115398406985,5.117528915405273,-0.2506672,0.054438334,0.33879185
108,1544729136,-1.0764648914337158,-1.8366754055023196,5.112164974212647,-0.23142765,0.047373146,0.34813023
109,1544745803,-1.0783367156982422,-1.8450803756713867,5.111097812652588,-0.2568184,0.035621893,0.31240654
110,1544762470,-1.080020785331726,-1.8506749868392944,5.10973072052002,-0.24181934,0.040344723,0.3583889
111,1544779137,-1.0807905197143557,-1.8581809997558596,5.116815090179443,-0.24015827,0.032848828,0.34587097
112,1544795804,-1.082742691040039,-1.865621566772461,5.122236728668213,-0.25132743,0.038169753,0.34756374
113,1544812471,-1.0846964120864868,-1.8704853057861328,5.122707366943359,-0.25726944,0.031332504,0.35125542
114,1544829138,-1.0862778425216677,-1.8764570951461792,5.122337818145752,-0.26048112,0.042736314,0.3457632
115,1544845805,-1.0873229503631592,-1.88363516330719,5.123148441314697,-0.25288543,0.028214585,0.3509264
116,1544862472,-1.0889347791671753,-1.890271067619324,5.121783256530762,-0.2715339,0.030791543,0.31875515
117,1544879139,-1.0897681713104248,-1.8971242904663088,5.125633716583252,-0.2524784,0.0456288,0.33188534
118,1544895806,-1.0902602672576904,-1.9029831886291504,5.124889850616455,-0.25061336,0.04236858,0.3321867
119,1544912473,-1.0927948951721191,-1.908586025238037,5.126168251037598,-0.25705925,0.038191695,0.34452343
120,1544929140,-0.7432188391685486,-0.4629336893558502,4.959667682647705,0.0043612965,-0.0067774085,0.34815693
121,1544945807,-0.7423040866851807,-0.4628595113754272,4.960262298583984,0.004806311,-0.0005996014,0.3549137
122,1544962474,-0.7417595982551575,-0.4628581702709198,4.961177825927734,0.0028809423,-0.016479617,0.33261967
123,1544979141,-0.7411654591560364,-0.4627344906330108,4.962461471557617,0.004936881,0.0030366052,0.3495264
124,1544995808,-0.7400723695755005,-0.4615772664546966,4.9633378982543945,0.0012171537,-0.0034791538,0.3493204
125,1545012475,-0.7395902276039124,-0.4617774486541748,4.965819835662842,-0.0034000825,0.005908062,0.36718464
126,1545029142,-0.7382757663726807,-0.462627649307251,4.964729309082031,-0.008358634,-0.0034626068,0.35294247
127,1545045809,-0.7384355664253235,-0.461617648601532,4.966037750244141,-0.006866493,-0.011204397,0.34252167
128,1545062476,-0.7378592491149902,-0.4608944058418274,4.9661545753479,-0.0015960571,0.0032094156,0.35985565
129,1545079143,-0.7382837533950806,-0.4602956175804138,4.965604782104492,-0.00081256736,0.008209188,0.35606766
130,1545095810,-0.7378333806991577,-0.4619635939598083,4.966798782348633,0.0019252219,0.004970516,0.35348988
131,1545112477,-0.7382370829582214,-0.4616782069206238,4.9672932624816895,0.010163749,-0.010228819,0.33081722
132,1545129144,-0.7386965751647949,-0.4623327851295471,4.967944145202637,0.006800556,0.0036515242,0.33732414
133,1545145811,-0.7387296557426453,-0.4619536697864532,4.968154430389404,0.007353248,-0.0021877796,0.33851528
134,1545162478,-0.7382627129554749,-0.4618221223354339,4.967980861663818,-0.0049543357,-0.009616554,0.3309059
135,1545179145,-0.738452672958374,-0.4624470472335815,4.967766761779785,0.010932748,-0.004504834,0.353549
136,1545195812,-0.7375165224075317,-0.4619230329990387,4.969493389129639,-0.004325954,-0.0008049889,0.34940434
137,1545212479,-0.7380348443984985,-0.4633143544197082,4.970539569854736,-0.00037046574,-0.0001468969,0.35079002
138,1545229146,-0.7389426231384277,-0.4630689620971679,4.968809604644775,0.003408157,0.0024334902,0.36040497
139,1545245813,-0.7405555248260498,-0.4641041457653045,4.968993186950684,0.024075747,0.0015425257,0.34150124
140,1545262480,-0.7405309677124023,-0.4646031856536865,4.97045373916626,-0.017300006,-0.00847939,0.33742714
141,1545279147,-0.7395421862602234,-0.4649469256401062,4.971006393432617,0.01127325,0.010347546,0.32942486
142,1545295814,-0.739507794380188,-0.4641459286212921,4.96912956237793,-0.02455044,0.01213316,0.33500195
143,1545312481,-0.7390112280845642,-0.4623314440250397,4.972023010253906,-0.010756299,-0.0014476166,0.33869362
144,1545329148,-0.7387592196464539,-0.4603409767150879,4.974356174468994,0.0011694093,-0.0047403537,0.34388447
145,1545345815,-0.7381057143211365,-0.4614554941654205,4.974213600158691,-0.005600194,0.0033944913,0.35504818
146,1545362482,-0.7378403544425964,-0.4623529016971588,4.97639274597168,-0.0067833876,0.0105234785,0.35031605
147,1545379149,-0.7368373870849609,-0.4627705514431,4.97674036026001,-0.0038907807,0.01201605,0.36559105
148,1545395816,-0.7353174090385437,-0.4625706076622009,4.976848602294922,0.017028093,0.010562143,0.33866405
149,1545412483,-0.7353001832962036,-0.4636375606060028,4.976648807525635,-0.0017120568,0.0017059835,0.34159946
150,1545429150,-0.734795331954956,-0.4645290672779083,4.975437164306641,-0.0029425097,0.0017101396,0.35296726
151,1545445817,-0.73382169008255,-0.4635805189609527,4.975002765655518,0.017583806,0.018438205,0.3433447
152,1545462484,-0.7334102392196655,-0.4640059769153595,4.976752281188965,-0.0014338985,-0.0024778927,0.3678856
153,1545479151,-0.7335941195487976,-0.4636238515377044,4.977564811706543,0.005673824,-0.013826596,0.34719658
154,1545495818,-0.7325500249862671,-0.4626332521438598,4.974441051483154,-0.0028971506,-0.001663125,0.34199905
155,1545512485,-0.7333689332008362,-0.4624157249927521,4.974523544311523,0.0050817803,-0.003598307,0.35721493
156,1545529152,-0.7345149517059326,-0.4607867002487182,4.974981784820557,0.0010022705,-0.007338384,0.37125778
157,1545545819,-0.7342864871025085,-0.4607608914375305,4.976799964904785,-0.00708608,-0.0074829063,0.35774708
158,1545562486,-0.7335755228996277,-0.460887610912323,4.978158950805664,0.023178276,-0.0013195996,0.3334093
159,1545579153,-0.7349474430084229,-0.4598708748817444,4.9799981117248535,0.007861118,0.006539738,0.34915257
160,1545595820,-0.734600305557251,-0.461365669965744,4.977536678314209,0.0024153509,0.0019813795,0.356205
161,1545612487,-0.7338663935661316,-0.4622302949428558,4.977502346038818,0.0022206712,0.0027670695,0.34638882
162,1545629154,-0.7341439723968506,-0.4628799557685852,4.976393699645996,0.0010369918,-0.006167868,0.3355627
163,1545645821,-0.7349985241889954,-0.4627493321895599,4.97676944732666,-0.00061547087,-0.0065112957,0.34017277
164,1545662488,-0.7351438403129578,-0.4616954028606415,4.977341651916504,0.009065179,-0.014270185,0.34679127
165,1545679155,-0.7346193194389343,-0.4616855680942535,4.976444244384766,-0.006900987,-0.0028800063,0.34516716
166,1545695822,-0.7347646951675415,-0.4632726907730102,4.974745750427246,-0.013867529,-0.004695337,0.33902073
167,1545712489,-0.7342689037322998,-0.4636533558368683,4.974113464355469,-0.009538653,-0.010335176,0.34317398
168,1545729156,-0.733971118927002,-0.4640003740787506,4.9710798263549805,0.018219607,-0.007164743,0.3589697
169,1545745823,-0.7334750890731812,-0.4642575085163116,4.9719109535217285,-0.0039651934,-0.013914143,0.36162376
170,1545762490,-0.7330396175384521,-0.4648900032043457,4.972547054290772,-0.01842187,0.01107771,0.32528687
171,1545779157,-0.732255756855011,-0.4634764194488525,4.973364353179932,-0.016282586,0.0016405642,0.3784666
172,1545795824,-0.7330623269081116,-0.4623718559741974,4.973733425140381,-0.00241621,-0.0045306706,0.34413242
173,1545812491,-0.7328169345855713,-0.460614949464798,4.972612380981445,0.015918432,-0.004552959,0.3622551
174,1545829158,-0.7319462299346924,-0.4609466195106506,4.974941730499268,0.0066330405,0.0044777608,0.34475803
175,1545845825,-0.7327019572257996,-0.460797369480133,4.974729061126709,-0.0013922447,0.012128012,0.35609627
176,1545862492,-0.7321706414222717,-0.4609514474868774,4.973568439483643,-0.0026370443,0.010530254,0.32665157
177,1545879159,-0.7311241626739502,-0.4628190100193023,4.9727091789245605,0.0055784294,-0.013251098,0.34459496
178,1545895826,-0.7316119074821472,-0.4627809524536133,4.972864151000977,0.0042086584,-0.0031901235,0.35479736
179,1545912493,-0.7305409908294678,-0.4618716835975647,4.973154544830322,-0.008269672,0.007085567,0.32990456
180,1545929160,-0.7310642004013062,-0.4615523219108581,4.974268436431885,0.00049700204,0.01101987,0.3514433
181,1545945827,-0.7311795353889465,-0.4610911905765533,4.9739203453063965,-0.0033137018,0.00086660165,0.34141064
182,1545962494,-0.7314597964286804,-0.4615221917629242,4.97385311126709,0.019440211,-0.015667887,0.34774208
183,1545979161,-0.7316545248031616,-0.4607116281986236,4.974142551422119,0.017658858,-0.009689705,0.32987595
184,1545995828,-0.7315733432769775,-0.4620195031166076,4.974514961242676,-0.0009551232,0.019698389,0.34923458
185,1546012495,-0.7309192419052124,-0.4618602395057678,4.9737067222595215,-0.008995471,0.0034595544,0.35526657
186,1546029162,-0.7300688028335571,-0.4611998796463012,4.973660469055176,0.0008272703,-0.008642582,0.3335619
187,1546045829,-0.7303502559661865,-0.4612718224525451,4.973099231719971,0.006035695,-0.002959493,0.35712242
188,1546062496,-0.7302887439727783,-0.4614361226558685,4.9772114753723145,0.014916612,-0.005477506,0.35918236
189,1546079163,-0.7299432158470154,-0.4624343812465668,4.978232383728027,-0.00082734367,0.0054027727,0.35444736
190,1546095830,-0.730495035648346,-0.4620958268642425,4.978316307067871,-0.010903671,0.004397303,0.3419056
191,1546112497,-0.7309309244155884,-0.4626412093639374,4.978611469268799,0.00240479,-0.001434597,0.35527706
192,1546129164,-0.7310358881950378,-0.4633589088916778,4.978468418121338,0.017844358,-0.004719518,0.3365469
193,1546145831,-0.7314491868019104,-0.4639743864536285,4.979735374450684,0.007059503,0.00244058,0.3501444
194,1546162498,-0.7312167882919312,-0.465028315782547,4.980349063873291,0.0007005909,-0.0021892884,0.334733
195,1546179165,-0.7310008406639099,-0.4639976918697357,4.981133460998535,0.003741757,-0.00698105,0.33473492
196,1546195832,-0.7310811877250671,-0.4639261364936828,4.980738639831543,-0.0008815561,0.009449237,0.36652088
197,1546212499,-0.7307869791984558,-0.4629072248935699,4.97991418838501,0.00080054306,-0.0036100624,0.32633018
198,1546229166,-0.7308162450790405,-0.4634828269481659,4.981856346130371,0.010553695,-0.004405685,0.34353638
199,1546245833,-0.7316926121711731,-0.4641900658607483,4.981691360473633,-0.0044021644,0.005039819,0.35818386
200,1546262500,-0.7311310768127441,-0.464473694562912,4.98189640045166,0.0043724864,-0.0036510911,0.35450935
201,1546279167,-0.7319363951683044,-0.464263916015625,4.982313632965088,-0.00887615,0.0019955027,0.34582424
202,1546295834,-0.7315612435340881,-0.4640469551086426,4.9822540283203125,0.0019903723,0.00034844273,0.3429575
203,1546312501,-0.7319583296775818,-0.4632301032543182,4.982339382171631,0.0010668448,-0.0054880115,0.3503132
204,1546329168,-0.7323614954948425,-0.4648455381393432,4.982476234436035,-0.009520695,0.016883766,0.32222366
205,1546345835,-0.7330575585365295,-0.4656667113304138,4.983686447143555,-0.0016349589,0.013341303,0.34270287
206,1546362502,-0.7327978610992432,-0.4646342396736145,4.985570430755615,-0.005352982,-0.01132126,0.3695774
207,1546379169,-0.7327642440795898,-0.46427783370018,4.985371112823486,-0.0022180763,-0.004142079,0.35796833
208,1546395836,-0.7331718802452087,-0.4654684960842132,4.986294746398926,-0.0067954506,0.010025729,0.36388397
209,1546412503,-0.7333464026451111,-0.4672404825687408,4.986631393432617,-0.0034034003,-0.0034419599,0.32925415
210,1546429170,-0.733228862285614,-0.4686124622821808,4.986738681793213,0.0023853232,0.01077096,0.34652138
211,1546445837,-0.7339036464691162,-0.4699270129203796,4.988336563110352,0.017631132,0.009167852,0.35439396
212,1546462504,-0.7331627011299133,-0.4698415100574493,4.986942291259766,0.00033864658,0.002064687,0.34710503
213,1546479171,-0.7331891059875488,-0.4704795479774475,4.986782550811768,-0.014419687,0.009416695,0.35826015
214,1546495838,-0.7322381138801575,-0.4713304936885834,4.985818386077881,-0.009288975,0.012039986,0.34146595
215,1546512505,-0.7335474491119385,-0.4716245234012604,4.984370231628418,-0.0041960366,-0.00754139,0.34627724
216,1546529172,-0.7341276407241821,-0.472623735666275,4.984145164489746,0.019895583,0.0015761435,0.35496807
217,1546545839,-0.734521210193634,-0.4728145599365234,4.98362398147583,0.008825228,-0.01611087,0.35222244
218,1546562506,-0.734120786190033,-0.4729553461074829,4.983658790588379,-0.004219216,0.0029800562,0.3445673
219,1546579173,-0.7329099774360657,-0.4735647737979889,4.983932018280029,-0.0031315421,-0.0072085513,0.34609032
220,1546595840,-0.7334423661231995,-0.4745453894138336,4.988143444061279,-0.012316853,-0.0043093017,0.33619022
221,1546612507,-0.7336872220039368,-0.4732778370380401,4.987938404083252,-0.013522212,0.0051398724,0.34764385
222,1546629174,-0.7329984903335571,-0.4702363312244415,4.9902825355529785,-0.012891396,0.0034063864,0.3330698
223,1546645841,-0.7320401072502136,-0.4695058763027191,4.991755962371826,-0.0046294457,-0.0013165472,0.33443737
224,1546662508,-0.7311117649078369,-0.4709961414337158,4.993849277496338,0.00090133696,0.0069047515,0.36300278
225,1546679175,-0.7308499813079834,-0.4709671139717102,4.994050979614258,-0.011245719,-0.00033362102,0.3507328
226,1546695842,-0.730891227722168,-0.4704605042934418,4.9947686195373535,-0.0055700336,-0.0057761683,0.35550976
227,1546712509,-0.7296496033668518,-0.4700058698654175,4.993875980377197,0.022719419,-0.009796161,0.3222952
228,1546729176,-0.7285386919975281,-0.4711747467517853,4.995121955871582,0.0061529693,-0.010199385,0.3457861
229,1546745843,-0.7282174229621887,-0.4716479480266571,4.995574474334717,-0.016276153,-0.0033049395,0.3448782
230,1546762510,-0.7281518578529358,-0.4713456928730011,4.995166778564453,-0.0010848725,-0.0069744634,0.33766747
231,1546779177,-0.7286145687103271,-0.4699338972568512,4.99564790725708,-0.0076653836,0.013230162,0.34726334
232,1546795844,-0.7294614315032959,-0.4709169566631317,4.997403144836426,0.010497761,-0.008447595,0.33831596
233,1546812511,-0.7291465401649475,-0.4705199003219604,4.997580051422119,0.0037280808,-0.007616993,0.32905483
234,1546829178,-0.7288407683372498,-0.4699488282203674,4.998356819152832,0.0044831145,0.008080028,0.36430264
235,1546845845,-0.7281513810157776,-0.4699313640594482,4.9988298416137695,0.011571423,-0.002562995,0.33428097
236,1546862512,-0.728560209274292,-0.4691989421844482,4.998380661010742,0.0037473904,0.0074197114,0.33993244
237,1546879179,-0.7276724576950073,-0.4680604338645935,4.999181747436523,-0.0035471122,-0.004427198,0.33329296
238,1546895846,-0.7274655103683472,-0.4686398804187774,4.999278545379639,-0.00089601456,-0.0014315097,0.31663227
239,1546912513,-0.7270084619522095,-0.4685299694538116,5.000118732452393,0.0034348771,-0.0130709885,0.34838963
240,1546929180,-0.7370043396949768,-0.4576846957206726,4.989830017089844,-0.01019189,-0.015989788,0.37893867
241,1546945847,-0.7363772988319397,-0.4584466814994812,4.990402221679688,-0.0057770903,0.016932923,0.34529686
242,1546962514,-0.7367962598800659,-0.4586045742034912,4.988810062408447,-0.0020730966,0.0017376945,0.35381126
243,1546979181,-0.7362962365150452,-0.4585251212120056,4.989091873168945,-0.005439642,-0.0050552064,0.34181404
244,1546995848,-0.7366549968719482,-0.4587650895118713,4.98969316482544,0.0031635151,-0.009437863,0.3306837
245,1547012515,-0.7362815141677856,-0.4573014378547668,4.991247653961182,0.006063753,-0.007971757,0.33765507
246,1547029182,-0.7353572845458984,-0.4571009278297424,4.993703842163086,-0.0030605665,0.0027339826,0.34021473
247,1547045849,-0.735525906085968,-0.4571948945522308,4.994184494018555,-0.0070731095,-0.011473102,0.33772278
248,1547062516,-0.7355839014053345,-0.4578371345996856,4.994282245635986,-0.01731255,0.0019030033,0.33058262
249,1547079183,-0.735656201839447,-0.456855446100235,4.993268489837647,-0.0008748786,-0.005696025,0.33164597
250,1547095850,-0.7355542778968811,-0.4561531841754913,4.993266105651856,0.002993757,-0.0086262245,0.35063744
251,1547112517,-0.7352793216705322,-0.4545941352844238,4.993866443634033,0.005302024,-0.01596164,0.3530445
252,1547129184,-0.7352941632270813,-0.4547664225101471,4.994565010070801,-0.00036343207,0.008998254,0.31923294
253,1547145851,-0.7348801493644714,-0.4547961056232452,4.993497848510742,-0.007172126,0.012104453,0.33568382
254,1547162518,-0.7346004843711853,-0.4560122489929199,4.993472576141357,-0.009475363,-0.009847506,0.35660076
255,1547179185,-0.7348395586013794,-0.4565615355968475,4.992822647094727,0.005254779,-0.0018528944,0.33500767
256,1547195852,-0.7350425720214844,-0.4553104937076568,4.992320537567139,-0.0046056067,-0.012434109,0.35604286
257,1547212519,-0.7344746589660645,-0.4561472535133362,4.993382453918457,-0.0002541587,-0.002387251,0.38103008
258,1547229186,-0.7345041632652283,-0.4564903080463409,4.994662284851074,-0.0054095304,-0.008537279,0.33931446
259,1547245853,-0.7340336441993713,-0.4565449357032776,4.993566036224365,-0.010414562,0.0010939771,0.34012222
260,1547262520,-0.7334316372871399,-0.4561854600906372,4.992722988128662,-0.0128963515,-0.00092955545,0.36386108
261,1547279187,-0.7321345806121826,-0.4581952393054962,4.989715099334717,-0.0089522945,-0.0004311076,0.3392086
262,1547295854,-0.7320343852043152,-0.4584134221076965,4.989349365234375,-0.008328306,-0.008396083,0.3684225
263,1547312521,-0.7314649820327759,-0.4575106203556061,4.989246845245361,0.0039799483,-0.015035619,0.3403082
264,1547329188,-0.7322354316711426,-0.4576629102230072,4.987039089202881,-0.0033636221,-0.0029172702,0.3585205
265,1547345855,-0.7319537401199341,-0.4588994979858398,4.988020420074463,-0.006551769,0.005339082,0.34589767
266,1547362522,-0.731224000453949,-0.4577108323574066,4.987608909606934,-0.020367239,0.00010088816,0.32556438
267,1547379189,-0.7327718734741211,-0.4580051302909851,4.989487171173096,-0.0049838186,-0.00512643,0.33133316
268,1547395856,-0.7332485914230347,-0.4574445188045501,4.989439487457275,-0.0037793072,0.0035661422,0.3431902
269,1547412523,-0.7337989211082458,-0.4588802456855774,4.989462852478027,0.005235344,0.013703561,0.3535719
270,1547429190,-0.7342811226844788,-0.4579228460788727,4.990259647369385,-0.000688846,-0.0059524574,0.3562355
271,1547445857,-0.7346109747886658,-0.4580932259559631,4.990623474121094,0.01189617,0.002619418,0.3492403
272,1547462524,-0.7349995374679565,-0.4568671286106109,4.991825103759766,0.015361759,-0.00019076132,0.35305882
273,1547479191,-0.7340625524520874,-0.4563078284263611,4.991927146911621,0.0062584956,-0.0044282386,0.33536816
274,1547495858,-0.7344803214073181,-0.4555352628231048,4.993988990783691,0.000806302,0.008001355,0.34570217
275,1547512525,-0.7343845963478088,-0.4559166133403778,4.99431848526001,-0.009790877,-0.004493113,0.35482025
276,1547529192,-0.7347013354301453,-0.4568541347980499,4.994395732879639,9.101168e-06,-0.008770579,0.3486948
277,1547545859,-0.7352551817893982,-0.4570772349834442,4.993407726287842,0.001538974,-0.0037183824,0.34348488
278,1547562526,-0.7356416583061218,-0.4582379162311554,4.992753982543945,-0.0021929415,-0.0006194243,0.35336494
279,1547579193,-0.7351254820823669,-0.4585544168949127,4.991993427276611,-0.0013991981,-0.002152297,0.33485603
280,1547595860,-0.7348852157592773,-0.4587351977825165,4.992520332336426,0.0008046222,-0.00053695496,0.34654236
281,1547612527,-0.735231339931488,-0.4592047333717346,4.991374969482422,0.009530372,-0.002283562,0.3661623
282,1547629194,-0.7343671917915344,-0.4603905081748962,4.99095344543457,0.009025408,0.01919554,0.36337948
283,1547645861,-0.7338159680366516,-0.4598066806793213,4.9910197257995605,0.010768351,0.0030293548,0.33480835
284,1547662528,-0.7334375381469727,-0.4606019854545593,4.990755081176758,-0.0037841408,-0.00043791777,0.343215
285,1547679195,-0.7326578497886658,-0.4622150659561157,4.991960525512695,0.0071859346,-0.019232213,0.3499527
286,1547695862,-0.7323402762413025,-0.4629952013492584,4.99256706237793,0.003921549,0.0043480885,0.35417938
287,1547712529,-0.7318235039710999,-0.463127851486206,4.992999076843262,-0.008120805,-0.0026746818,0.35313797
288,1547729196,-0.7314134240150452,-0.462362140417099,4.992685794830322,-0.0021958193,-0.005670405,0.3548689
289,1547745863,-0.7317454814910889,-0.4631849527359009,4.993255615234375,0.0069136363,-0.0026269339,0.3306799
290,1547762530,-0.7318381071090698,-0.4618830680847168,4.9933695793151855,0.0016597967,-0.019589772,0.3526144
291,1547779197,-0.732333779335022,-0.4622555673122406,4.992810726165772,0.0006315079,-0.005543135,0.3455963
292,1547795864,-0.7321210503578186,-0.4618531167507171,4.993254661560059,-0.010396031,-0.0047270195,0.34356117
293,1547812531,-0.7321456074714661,-0.4613054990768432,4.993424892425537,0.00019207445,-0.0012790529,0.3829155
294,1547829198,-0.732787549495697,-0.4611293971538543,4.993145942687988,-0.009060094,-0.0069327503,0.33586216
295,1547845865,-0.7322215437889099,-0.4603176712989807,4.992727279663086,0.0049052257,-0.0026869331,0.32311058
296,1547862532,-0.7333102226257324,-0.4587862193584442,4.991941928863525,-0.007610798,-0.0021019438,0.35531712
297,1547879199,-0.7332420349121094,-0.4588460326194763,4.992803573608398,-0.0031075357,0.007668698,0.33605957
298,1547895866,-0.7335374355316162,-0.4559920132160187,4.993617057800293,-0.0051641096,0.0021337315,0.3331709
299,1547912533,-0.7336431741714478,-0.4565575420856476,4.9936604499816895,-0.0069050975,0.0017982526,0.33967686
300,1547929200,-0.7344173192977905,-0.4559566974639892,4.993091106414795,-0.008641129,0.0068094796,0.33906364
301,1547945867,-0.7334428429603577,-0.456023246049881,4.992955207824707,0.014564534,0.0015499436,0.3367014
302,1547962534,-0.7353677749633789,-0.4556378126144409,4.9937262535095215,0.008775737,0.007992058,0.3552618
303,1547979201,-0.7350994944572449,-0.4535692930221557,4.992706298828125,0.011289175,0.00042929855,0.34853458
304,1547995868,-0.7367150187492371,-0.4540555477142334,4.993562698364258,-0.0006775516,0.018223979,0.346241
305,1548012535,-0.7367002367973328,-0.4543695449829101,4.990954399108887,-0.0025325136,-0.0012657609,0.34437943
306,1548029202,-0.7360156178474426,-0.4539729654788971,4.991621494293213,0.000615869,-0.008529667,0.34129047
307,1548045869,-0.7350594997406006,-0.4554269909858703,4.990646362304688,0.013902764,-0.012981409,0.34211826
308,1548062536,-0.7341451644897461,-0.4552671611309051,4.991515159606934,-0.008937267,0.0016422824,0.3467636
309,1548079203,-0.7345204949378967,-0.4555422067642212,4.991409778594971,0.0090506505,0.0031645943,0.33068085
310,1548095870,-0.7339985370635986,-0.4552825391292572,4.990102291107178,0.0031199125,2.7994998e-05,0.33369446
311,1548112537,-0.7336394786834717,-0.4538011252880096,4.989645957946777,0.007922483,-0.004089868,0.34323883
312,1548129204,-0.7329967021942139,-0.4525829553604126,4.988590717315674,-0.0016885949,-0.007278357,0.35276604
313,1548145871,-0.7329695820808411,-0.4541727900505066,4.987637042999268,-0.00079280394,-0.0030335877,0.35400486
314,1548162538,-0.7332086563110352,-0.4536505937576294,4.986895561218262,-0.00070458616,-0.0012500382,0.3193407
315,1548179205,-0.7328444123268127,-0.4538227915763855,4.9862961769104,0.0065774135,-0.0001443265,0.34711552
316,1548195872,-0.7320879101753235,-0.45295050740242,4.986527919769287,0.0019580782,0.0008402481,0.35534763
317,1548212539,-0.7329251766204834,-0.4542585909366607,4.986196994781494,0.014169737,-0.0118251415,0.3523445
318,1548229206,-0.733016312122345,-0.4535585641860962,4.985829830169678,0.020399332,-0.00866492,0.3284464
319,1548245873,-0.732122540473938,-0.4524596035480499,4.986409664154053,0.01682743,0.0022033767,0.35847092
320,1548262540,-0.7331384420394897,-0.4517571628093719,4.987600803375244,-0.0090579465,0.012923565,0.32566643
321,1548279207,-0.7331002950668335,-0.4520465135574341,4.9866719245910645,-0.005406024,0.0040378594,0.33854008
322,1548295874,-0.7330331206321716,-0.4524262845516205,4.984581470489502,0.008845927,0.0024284055,0.33984375
323,1548312541,-0.733849287033081,-0.4533220529556274,4.985006809234619,-0.0018832678,0.00074524805,0.34790897
324,1548329208,-0.7331222295761108,-0.4545421004295349,4.986255645751953,0.0074439873,0.014614454,0.35529232
325,1548345875,-0.7332648038864136,-0.4533174633979797,4.986666679382324,-0.006168399,0.021563876,0.34278584
326,1548362542,-0.7332648038864136,-0.4538006484508514,4.986904144287109,-0.01174233,0.0055114627,0.32404423
327,1548379209,-0.7329755425453186,-0.4540265798568725,4.987229347229004,0.008312503,0.005663902,0.34797096
328,1548395876,-0.7339506149291992,-0.4522126913070678,4.986606121063232,0.009050728,-0.0040941774,0.3435974
329,1548412543,-0.7344631552696228,-0.4530071318149566,4.986141681671143,0.00752705,-0.0058148853,0.36855888
330,1548429210,-0.73375004529953,-0.4523937404155731,4.98724365234375,-0.0010078374,-0.0015668328,0.3359022
331,1548445877,-0.7335354089736938,-0.4543499946594238,4.986551761627197,0.0057474016,-8.728879e-05,0.34662724
332,1548462544,-0.732948362827301,-0.4547398090362549,4.986603736877441,0.0083059715,-0.0057367883,0.3189373
333,1548479211,-0.7330334782600403,-0.4548850953578949,4.986332893371582,0.008450596,0.008799258,0.33250237
334,1548495878,-0.7337903380393982,-0.4549709260463714,4.985183238983154,-0.0052530644,0.011687366,0.35904026
335,1548512545,-0.7345077991485596,-0.4550092220306396,4.986208915710449,0.0053794435,-0.002757661,0.36622524
336,1548529212,-0.734618067741394,-0.4550803601741791,4.987424373626709,-0.0045275236,-0.0034986204,0.33371258
337,1548545879,-0.7335675358772278,-0.4553869664669037,4.987563610076904,0.0071631502,-0.0021292192,0.33402634
338,1548562546,-0.734276533126831,-0.4561668336391449,4.986610412597656,0.0032466934,0.00033384454,0.33353043
339,1548579213,-0.7341621518135071,-0.4550529420375824,4.987081050872803,-0.0053997864,0.0020331158,0.3486309
340,1548595880,-0.7342066764831543,-0.4559840857982635,4.988565444946289,-0.0078104334,-0.004544193,0.35564613
341,1548612547,-0.7341403365135193,-0.4572933316230774,4.987118244171143,-0.008778709,-0.000950405,0.3395567
342,1548629214,-0.7348014116287231,-0.4566278755664825,4.987026691436768,0.011946799,-0.0056536067,0.33787918
343,1548645881,-0.7346537709236145,-0.4550559222698211,4.988911151885986,0.0032257005,-0.0038806458,0.3487177
344,1548662548,-0.7348037958145142,-0.4538715183734894,4.988383293151856,-0.005043458,0.012435995,0.34677696
345,1548679215,-0.734710156917572,-0.4556653499603271,4.986813068389893,-0.008317762,0.017511098,0.37180233
346,1548695882,-0.7354550361633301,-0.4587005078792572,4.986475944519043,0.004948088,0.01171005,0.33072758
347,1548712549,-0.7356988191604614,-0.4594524204730987,4.986180782318115,0.017378617,0.015290088,0.33702755
348,1548729216,-0.7346792817115784,-0.4588461816310882,4.984910488128662,0.0012328346,0.0005437023,0.3168106
349,1548745883,-0.7343369722366333,-0.4587135910987854,4.983659267425537,0.005241323,-0.01720206,0.3313322
350,1548762550,-0.7338339686393738,-0.4589645564556122,4.9838972091674805,0.0015791854,-0.00031346994,0.3645525
351,1548779217,-0.7324497699737549,-0.4604401886463165,4.982348918914795,0.007042991,0.00059520104,0.34599972
352,1548795884,-0.732820987701416,-0.4614297747611999,4.983036518096924,0.0065485314,0.003654353,0.3229952
353,1548812551,-0.7326532006263733,-0.4611254930496216,4.984619617462158,0.005083841,0.0008424902,0.33023262
354,1548829218,-0.731942892074585,-0.4615484476089477,4.985397338867188,-0.0053893724,-0.0041020983,0.3238325
355,1548845885,-0.7321851849555969,-0.4623265862464905,4.984665393829346,-0.0022036072,-0.0014789223,0.36513138
356,1548862552,-0.7323787808418274,-0.4623110294342041,4.98480224609375,0.0012736362,0.011009881,0.34394646
357,1548879219,-0.7337111234664917,-0.4623016119003296,4.983402729034424,2.9398938e-05,0.002042615,0.3223505
358,1548895886,-0.7354432344436646,-0.4624007642269134,4.984367370605469,-0.019008849,-0.011810872,0.34108067
359,1548912553,-0.7351347804069519,-0.4620917439460754,4.982905864715576,0.011514004,0.00048041315,0.35930634
360,1548929220,-0.7358508110046387,-0.4590305984020233,4.984813213348389,0.013109569,0.00602856,0.36381626
361,1548945887,-0.7365472912788391,-0.458732545375824,4.983861923217773,-0.0036882432,0.002961337,0.332757
362,1548962554,-0.7358641028404236,-0.4580192565917969,4.982339859008789,0.0041985405,-0.00443259,0.35436535
363,1548979221,-0.735901951789856,-0.4578085243701935,4.983386516571045,-0.015791371,0.00939594,0.3525877
364,1548995888,-0.7356711626052856,-0.4572644233703613,4.982639312744141,-0.014412353,0.008353605,0.34435558
365,1549012555,-0.7356961965560913,-0.4588226675987243,4.981849670410156,0.00514348,-0.00096338976,0.3501482
366,1549029222,-0.7367302179336548,-0.4606341421604156,4.98307466506958,-0.0076330234,-0.0062978966,0.35871792
367,1549045889,-0.7377228140830994,-0.4610182046890259,4.982481956481934,0.003116759,0.00073465914,0.3252983
368,1549062556,-0.7379595637321472,-0.4611116647720337,4.982635974884033,0.006648239,0.01513921,0.33878994
369,1549079223,-0.7379432916641235,-0.4611921012401581,4.982062816619873,0.008319574,0.00627067,0.35002136
370,1549095890,-0.7395761609077454,-0.4603782892227173,4.983139514923096,-0.0059586004,0.0067253197,0.32303333
371,1549112557,-0.7399308085441589,-0.4591396749019623,4.98331356048584,-0.000784974,0.011144084,0.32514
372,1549129224,-0.738958477973938,-0.4586617350578308,4.982766151428223,0.001393743,0.00748532,0.34354973
373,1549145891,-0.7374512553215027,-0.4583321213722229,4.982083320617676,0.004578848,-0.0068194014,0.36223793
374,1549162558,-0.7368199229240417,-0.4589368999004364,4.980786323547363,0.00918098,-0.008845979,0.33298588
375,1549179225,-0.7368882894515991,-0.4595791101455688,4.980320453643799,0.004883507,0.00024193182,0.32739162
376,1549195892,-0.7370218634605408,-0.4590862095355987,4.9792914390563965,-0.0036562074,0.0019914375,0.34685516
377,1549212559,-0.7367784976959229,-0.459922045469284,4.981146335601807,0.010974741,-0.0033663914,0.34499168
378,1549229226,-0.7364579439163208,-0.4585842490196228,4.980960845947266,0.023866493,0.009081908,0.35802078
379,1549245893,-0.7354714274406433,-0.4583277404308319,4.981688022613525,0.008710289,0.003906811,0.33072662
380,1549262560,-0.7352159023284912,-0.4592220187187195,4.9817609786987305,0.012993014,0.008147404,0.339962
381,1549279227,-0.7362690567970276,-0.4591334462165832,4.980951309204102,-0.012934625,0.012088782,0.32807922
382,1549295894,-0.7372931838035583,-0.4596092104911804,4.981150627136231,-0.017993363,0.0007275905,0.34390545
383,1549312561,-0.7378427982330322,-0.4600220918655395,4.9827985763549805,0.007880672,-0.0086323,0.33685303
384,1549329228,-0.7364908456802368,-0.4599420726299286,4.9832940101623535,0.022459805,-0.012683536,0.35506058
385,1549345895,-0.7379951477050781,-0.4615606665611267,4.983607769012451,0.016653249,-0.011987315,0.3241272
386,1549362562,-0.738012433052063,-0.4600593447685241,4.983930587768555,-0.008882677,0.007858604,0.37080193
387,1549379229,-0.738089382648468,-0.458349347114563,4.9846296310424805,-0.004755217,0.011861221,0.34747028
388,1549395896,-0.7381372451782227,-0.4588637053966522,4.983757495880127,-0.0046318904,0.008039233,0.3359766
389,1549412563,-0.7386903166770935,-0.4596039056777954,4.983846664428711,-0.011477568,0.0040261107,0.34536934
390,1549429230,-0.7385973334312439,-0.4589792788028717,4.9840898513793945,-0.0089141615,0.0030676944,0.35049152
391,1549445897,-0.7388960123062134,-0.4602149426937103,4.984252452850342,-0.02195733,0.008072062,0.33830452
392,1549462564,-0.7398908138275146,-0.460558533668518,4.983157634735107,-0.0046051107,0.0055026235,0.3559084
393,1549479231,-0.7390409111976624,-0.4604926407337188,4.98292350769043,-0.000804493,-0.0015301907,0.33774948
394,1549495898,-0.7392050623893738,-0.4610863327980041,4.982837200164795,0.006258768,0.005748111,0.35997486
395,1549512565,-0.7387470006942749,-0.4612555801868438,4.983503341674805,-0.007888307,-0.002077965,0.33615112
396,1549529232,-0.7380361557006836,-0.4624517261981964,4.981204986572266,-0.012873854,-0.0028593105,0.3416977
397,1549545899,-0.7381340265274048,-0.4610635042190552,4.980807304382324,-0.008593116,-0.0035540655,0.33553505
398,1549562566,-0.7376917600631714,-0.4612077176570892,4.980142116546631,0.0016501438,0.00069834525,0.3467102
399,1549579233,-0.7371363639831543,-0.4615285992622375,4.98098611831665,0.0002745752,-0.004826965,0.34231758
400,1549595900,-0.7357584834098816,-0.4613953530788421,4.980955600738525,-0.00827737,0.01755533,0.31965065
401,1549612567,-0.7359665036201477,-0.4622621834278106,4.980966567993164,-0.005729346,0.011844133,0.35321903
402,1549629234,-0.736832320690155,-0.4639712870121002,4.979900360107422,-0.015102526,0.004652227,0.3472786
403,1549645901,-0.7370112538337708,-0.464233934879303,4.980615615844727,0.014465874,-0.0002749279,0.3483181
404,1549662568,-0.736518919467926,-0.4656534492969513,4.9800519943237305,0.00865058,0.0038414195,0.36325455
405,1549679235,-0.737025797367096,-0.4649109840393066,4.979275226593018,0.0066118278,0.0067172735,0.33098412
406,1549695902,-0.7376440763473511,-0.4659006595611572,4.9798903465271,-0.005883011,0.007289274,0.35102654
407,1549712569,-0.737653911113739,-0.4658004939556122,4.980982303619385,0.0014923296,-0.0032971653,0.3573351
408,1549729236,-0.737477719783783,-0.4638703763484955,4.981615543365479,0.0017241545,0.0031668223,0.33467293
409,1549745903,-0.7382961511611938,-0.463796317577362,4.982649803161621,0.0032821342,0.01991724,0.35488415
410,1549762570,-0.7394905090332031,-0.4654666185379028,4.983773708343506,0.003599491,-0.0040204814,0.34014702
411,1549779237,-0.7395171523094177,-0.4647176861763,4.984533786773682,-0.02115064,0.012482413,0.3576355
412,1549795904,-0.7384566068649292,-0.4646261930465698,4.984989643096924,-0.009054492,0.000524082,0.3458128
413,1549812571,-0.73787921667099,-0.4649015367031097,4.98458194732666,-5.3140204e-05,-0.001187189,0.3501053
414,1549829238,-0.7353108525276184,-0.4653490781784057,4.984835147857666,-0.005328039,0.0039428244,0.35720825
415,1549845905,-0.7354758977890015,-0.464769184589386,4.985414981842041,-0.007542525,0.010813756,0.34692383
416,1549862572,-0.7340698838233948,-0.4646835625171661,4.985568523406982,-0.020373516,0.027233705,0.34384632
417,1549879239,-0.7356132864952087,-0.4648464024066925,4.984241008758545,-0.017044105,0.023923706,0.35584164
418,1549895906,-0.7350167036056519,-0.4652729630470276,4.981711864471436,-0.0081780525,0.0024116558,0.33774662
419,1549912573,-0.7420822381973267,-0.5060182809829712,4.98883056640625,-0.026350059,0.059613016,0.38838387
420,1549929240,-0.6715384125709534,-0.4566407203674316,4.992627143859863,0.06411655,-0.08420605,0.2945881
421,1549945907,-0.6709071397781372,-0.473044753074646,5.190698623657227,0.32736343,-0.28141803,0.35859108
422,1549962574,-0.6633895039558411,-0.4773316085338592,5.263059139251709,-0.35949266,0.32598048,0.3567505
423,1549979241,-0.656972348690033,-0.4742458164691925,5.264317989349365,-0.004031489,0.00700045,0.34078026
424,1549995908,-0.6666367650032043,-0.4642195701599121,5.265399932861328,0.0055953604,0.026008341,0.37652302
425,1550012575,-0.7073578834533691,-0.4540305733680725,5.265307426452637,0.018764623,0.024360973,0.35566235
426,1550029242,-0.7271000146865845,-0.4589021205902099,5.286368370056152,0.8068951,0.3951857,0.3252144
427,1550045909,-0.6976764798164368,-0.4677281081676483,5.129128456115723,-0.23601791,-0.21827012,0.29247093
428,1550062576,-0.6713404655456543,-0.4777148962020874,5.167307376861572,-0.20812424,-0.1899875,0.37410355
429,1550079243,-0.671251118183136,-0.4864352941513061,5.208726406097412,0.1662666,-0.02177962,0.36345387
430,1550095910,-0.6809203624725342,-0.49032062292099,5.261542797088623,0.3239342,0.084186345,0.35460567
431,1550112577,-0.6830238699913025,-0.4913651049137115,5.417073249816895,-0.09014631,0.0487114,0.32899284
432,1550129244,-0.683538019657135,-0.4849999845027923,5.578295707702637,0.33016965,0.14814492,0.3554077
433,1550145911,-0.7027100920677185,-0.4968829751014709,5.781733512878418,0.118075915,0.11930592,0.32721043
434,1550162578,-0.704788088798523,-0.5078675746917725,5.958651065826416,0.1735381,-0.0735332,0.35681057
435,1550179245,-0.6942095160484314,-0.516572117805481,6.03011417388916,-0.18201481,-0.13559137,0.33018017
436,1550195912,-0.6822694540023804,-0.5226885080337524,6.001200675964356,0.088779524,0.0013889095,0.33644485
437,1550212579,-0.6746023893356323,-0.5276654958724976,5.9617228507995605,-0.025460713,0.10925584,0.33550835
438,1550229246,-0.664316713809967,-0.5267238616943359,5.917710781097412,0.15332958,0.17403944,0.3617792
439,1550245913,-0.6582017540931702,-0.5303081274032593,5.925337314605713,0.1528158,-0.038822107,0.33596134
440,1550262580,-0.6551764011383057,-0.5404443740844727,5.934607028961182,0.2699034,-0.115169466,0.350132
441,1550279247,-0.6502341628074646,-0.5527870655059814,5.922144889831543,0.054541595,-0.09130084,0.3310814
442,1550295914,-0.6505886912345886,-0.5653992295265198,5.958986759185791,0.2507204,0.088262305,0.34603977
443,1550312581,-0.6493785977363586,-0.5748586654663086,6.01002311706543,0.11568572,0.16781168,0.33897877
444,1550329248,-0.6422063112258911,-0.5779223442077637,6.076702117919922,0.18764512,-0.045169834,0.37029266
445,1550345915,-0.6326611638069153,-0.5802407264709473,6.125256538391113,0.19195725,-0.10089565,0.3653593
446,1550362582,-0.632352352142334,-0.5845324993133545,6.159260749816895,0.14228162,-0.019840872,0.34045506
447,1550379249,-0.6303775310516357,-0.5957587957382202,6.192708492279053,0.108375564,-0.00019496267,0.34234142
448,1550395916,-0.645010769367218,-0.6087379455566406,6.273358345031738,0.023037676,0.21689275,0.30718803
449,1550412583,-0.653279185295105,-0.6178325414657593,6.408698558807373,-0.11177507,0.17743412,0.36306
450,1550429250,-0.6504001617431641,-0.6171081066131592,6.486313343048096,0.044534054,-0.12147518,0.353899
451,1550445917,-0.6494238972663879,-0.6153174638748169,6.51039981842041,0.12755835,-0.057269014,0.36974335
452,1550462584,-0.6443376541137695,-0.6201760172843933,6.529753684997559,0.27455625,0.14910333,0.34195423
453,1550479251,-0.6379984021186829,-0.6368098258972168,6.567256450653076,0.16915284,0.1635082,0.3374834
454,1550495918,-0.6252393126487732,-0.6527172327041626,6.570734024047852,0.080825,-0.021466289,0.33477402
455,1550512585,-0.6231897473335266,-0.6613856554031372,6.547269344329834,-0.08433834,-0.19012395,0.35730267
456,1550529252,-0.6287268400192261,-0.6706695556640625,6.485363960266113,0.14684124,-0.15527584,0.39741516
457,1550545919,-0.6348192691802979,-0.6742013692855835,6.464751720428467,0.17740586,-0.045673195,0.3248062
458,1550562586,-0.6377567052841187,-0.6821510195732117,6.474947929382324,0.29287106,-0.015764967,0.3564415
459,1550579253,-0.6415590643882751,-0.6946796178817749,6.425915241241455,0.09021876,-0.025498072,0.35036087
460,1550595920,-0.6394125819206238,-0.7070860862731934,6.346272468566895,0.035177767,-0.005265473,0.3561592
461,1550612587,-0.6404989957809448,-0.7149232029914856,6.332553863525391,0.010866523,0.10624354,0.34585667
462,1550629254,-0.6382361650466919,-0.7189629673957825,6.347397804260254,-0.10421541,0.0846426,0.3558712
463,1550645921,-0.6411200761795044,-0.7179745435714722,6.408024787902832,-0.0886931,0.072967164,0.3306265
464,1550662588,-0.6437098979949951,-0.7138481736183167,6.476624488830566,0.046170004,-0.020179965,0.328475
465,1550679255,-0.6414356827735901,-0.7077731490135193,6.471867084503174,0.111656345,-0.01702919,0.3697691
466,1550695922,-0.641416609287262,-0.699011504650116,6.418677806854248,-0.031246752,-0.0492144,0.33747482
467,1550712589,-0.663953959941864,-0.7183425426483154,6.283508777618408,-0.05893519,-0.18989615,0.36066437
468,1550729256,-0.6736146211624146,-0.732420027256012,6.127440929412842,0.20402193,-0.18757443,0.36847305
469,1550745923,-0.6748587489128113,-0.7347248196601868,5.88606595993042,0.14349964,0.056365017,0.36817932
470,1550762590,-0.6887075901031494,-0.7157700061798096,5.492941379547119,-0.16823043,0.28938365,0.32087708
471,1550779257,-0.6764796376228333,-0.7137836813926697,5.245709896087647,0.04554791,-0.08356912,0.36022568
472,1550795924,-0.6716530919075012,-0.7128233909606934,5.043310642242432,-0.21596059,-0.10647567,0.33038616
473,1550812591,-0.675922691822052,-0.7172160744667053,5.110671043395996,-0.13061108,0.012657214,0.36966705
474,1550829258,-0.6793713569641113,-0.7258501648902893,5.146748065948486,-0.058012553,-0.26022696,0.35103893
475,1550845925,-0.6829941868782043,-0.7297784090042114,5.07144832611084,0.17702475,-0.12846935,0.32665348
476,1550862592,-0.690238356590271,-0.7327683568000793,4.977571487426758,0.19766478,-0.09467523,0.36166
477,1550879259,-0.6993584036827087,-0.7375211119651794,5.090688228607178,0.4135063,0.013543561,0.34969044
478,1550895926,-0.6937129497528076,-0.7351193428039551,5.072958946228027,-0.13728012,0.16631573,0.34948063
479,1550912593,-0.6948544979095459,-0.7317734360694885,5.290217399597168,-0.09947142,0.4570765,0.35709286
480,1550929260,-0.6969900727272034,-0.7320494055747986,5.633318901062012,-0.09252785,0.296114,0.34459496
481,1550945927,-0.701041579246521,-0.7252488136291504,5.9075117111206055,-0.11414337,0.18499422,0.32287598
482,1550962594,-0.7051190137863159,-0.7141132950782776,6.027469635009766,-0.15295154,0.32687142,0.35447216
483,1550979261,-0.6976979374885559,-0.6949169635772705,6.13607931137085,0.07869715,0.25206915,0.35503197
484,1550995928,-0.683088481426239,-0.6831868290901184,6.008392810821533,0.15828787,-0.3020616,0.34194088
485,1551012595,-0.671292781829834,-0.6735464930534363,5.6547040939331055,0.3864564,-0.28426635,0.3797722
486,1551029262,-0.6638668179512024,-0.6768290996551514,5.478504657745361,-0.12610078,0.25952655,0.34614658
487,1551045929,-0.6421207189559937,-0.6839888691902161,5.466132640838623,-0.53813607,0.046760686,0.33215427
488,1551062596,-0.6103270053863525,-0.6913143992424011,5.438838481903076,-0.2287362,-0.3495988,0.3584385
489,1551079263,-0.590228259563446,-0.7016975283622742,5.438538551330566,0.35546717,-0.12543151,0.32761955
490,1551095930,-0.5740795731544495,-0.7195148468017578,5.4782586097717285,0.573851,-0.06795998,0.3640585
491,1551112597,-0.5639227628707886,-0.733245313167572,5.555056095123291,0.35179186,-0.17423181,0.36591434
492,1551129264,-0.5591368079185486,-0.7462300062179565,5.629573822021484,0.13539325,-0.09656517,0.33478832
493,1551145931,-0.5518271327018738,-0.7531417012214661,5.731337070465088,-0.19078991,0.024538051,0.3293295
494,1551162598,-0.5439634919166565,-0.76590895652771,5.824894905090332,-0.020199466,-0.14781563,0.36127853
495,1551179265,-0.5388606190681458,-0.780666172504425,5.825924396514893,0.25589424,-0.46126744,0.33952427
496,1551195932,-0.541144847869873,-0.7964761853218079,5.741085052490234,0.12855183,-0.36807165,0.32504177
497,1551212599,-0.5455108284950256,-0.7997220158576965,5.633232116699219,-0.2358334,0.067019545,0.35923576
498,1551229266,-0.5516901612281799,-0.7970585823059082,5.609797477722168,-0.08826578,0.3116096,0.35693073
499,1551245933,-0.5624336004257202,-0.7828019261360168,5.81907844543457,-0.11308843,0.44486985,0.36998844
500,1551262600,-0.5651662945747375,-0.76263028383255,6.058857440948486,-0.17579609,0.40363646,0.3265562
501,1551279267,-0.5605891942977905,-0.7387248873710632,6.267926692962647,-0.104341656,0.15172076,0.3100214
502,1551295934,-0.5459507703781128,-0.71086186170578,6.3550896644592285,-0.02183868,-0.23953158,0.36731052
503,1551312601,-0.5383668541908264,-0.6884098052978516,6.260256290435791,0.23609126,-0.47204304,0.3299713
504,1551329268,-0.5415728688240051,-0.679176390171051,5.981589794158936,0.11625227,0.008483025,0.35923958
505,1551345935,-0.5475558042526245,-0.6808316111564636,5.678393840789795,0.009701887,0.4950389,0.36204433
506,1551362602,-0.5470831394195557,-0.6766859292984009,5.61100959777832,-0.16852383,0.53690016,0.35174656
507,1551379269,-0.5452063679695129,-0.6778717637062073,5.65474271774292,-0.34667128,0.20305705,0.32120132
508,1551395936,-0.5436452031135559,-0.6716264486312866,5.819720268249512,0.0064530564,-0.01651297,0.34974766
509,1551412603,-0.5442919731140137,-0.6710986495018005,5.966886520385742,-0.047703322,-0.297749,0.35781384
510,1551429270,-0.5441974401473999,-0.6642898917198181,6.034012794494629,-0.1725536,-0.30780125,0.3326397
511,1551445937,-0.5493851900100708,-0.6558085083961487,6.020569324493408,-0.109594196,-0.13562866,0.36653423
512,1551462604,-0.5523841381072998,-0.6464715003967285,5.978376865386963,0.06408382,0.0022759382,0.34323597
513,1551479271,-0.5546756386756897,-0.6393858194351196,5.870917320251465,0.18470824,-0.082573526,0.35548115
514,1551495938,-0.5588949918746948,-0.6406522393226624,5.875134944915772,-0.07379777,-0.0652284,0.35114193
515,1551512605,-0.5714527368545532,-0.648230791091919,5.939558982849121,-0.06286144,0.027289754,0.33217525
516,1551529272,-0.5878881216049194,-0.6558607220649719,6.084518909454346,0.082966916,0.07030048,0.35302448
517,1551545939,-0.600754976272583,-0.6654849052429199,6.094862461090088,0.397149,0.049455438,0.37089348
518,1551562606,-0.6095588803291321,-0.6763216853141785,5.994302272796631,0.21245797,-0.13265742,0.34333992
519,1551579273,-0.6139422655105591,-0.6846846342086792,5.842616081237793,-0.03129488,-0.52325153,0.3434534
520,1551595940,-0.6266205310821533,-0.6919692754745483,5.657182216644287,-0.22370295,-0.34795713,0.3381529
521,1551612607,-0.6469221711158752,-0.6963732838630676,5.569610595703125,-0.28749007,0.18525922,0.333704
522,1551629274,-0.669283390045166,-0.6891924738883972,5.624823093414307,-0.2406087,0.31000492,0.33029556
523,1551645941,-0.6814282536506653,-0.67574542760849,5.6796183586120605,-0.098221965,0.07558363,0.32621098
524,1551662608,-0.6929277777671814,-0.6632704734802246,5.666868686676025,0.18270418,-0.146733,0.33486176
525,1551679275,-0.7005447745323181,-0.6538571715354919,5.509159564971924,0.4310937,-0.0038692222,0.3462286
526,1551695942,-0.7008450031280518,-0.6472231149673462,5.344823837280273,0.79532963,0.08622861,0.34293175
527,1551712609,-0.6898239850997925,-0.6342213749885559,5.206815719604492,0.4567442,-0.012209423,0.3538456
528,1551729276,-0.6736496686935425,-0.6190600991249084,5.187740325927734,-0.41769436,-0.010685047,0.32472324
529,1551745943,-0.6651848554611206,-0.6068646311759949,5.251146793365479,-0.85290164,0.11362738,0.2867098
530,1551762610,-0.6590467095375061,-0.592966616153717,5.404545307159424,-0.6529317,0.22288014,0.33864117
531,1551779277,-0.6547105312347412,-0.5848310589790344,5.558669090270996,-0.17739058,0.25696716,0.3386898
532,1551795944,-0.648681640625,-0.5831371545791626,5.698986530303955,0.012080442,0.032834876,0.3602743
533,1551812611,-0.6414262056350708,-0.5886154174804688,5.740601539611816,0.13919963,-0.30585095,0.33820438
534,1551829278,-0.639704704284668,-0.5928171277046204,5.693148612976074,0.03167958,-0.2122658,0.33882046
535,1551845945,-0.6402682662010193,-0.5978066921234131,5.620123863220215,0.40147835,0.07153455,0.34731293
536,1551862612,-0.6377081871032715,-0.6066892147064209,5.672611713409424,0.41112193,0.17330933,0.36140728
537,1551879279,-0.6308122277259827,-0.6111802458763123,5.812399864196777,0.48336565,-0.08130539,0.346426
538,1551895946,-0.6204922795295715,-0.6183062195777893,5.857062339782715,0.38366434,-0.35172108,0.37378597
539,1551912613,-0.6161559820175171,-0.6296231746673584,5.824453830718994,0.021240933,-0.32236698,0.41545486
540,1551929280,-0.6109828352928162,-0.6583868861198425,5.694854259490967,-0.0025336905,-0.25005805,0.3403721
541,1551945947,-0.6088619828224182,-0.6762945055961609,5.450401782989502,-0.08840252,-0.28919566,0.3782177
542,1551962614,-0.6014885306358337,-0.6963909268379211,5.145169734954834,-0.1382399,-0.022830298,0.33520985
543,1551979281,-0.595931887626648,-0.7300494313240051,4.961567401885986,-0.07780528,0.41102815,0.34940147
544,1551995948,-0.5825519561767578,-0.7467331290245056,4.933655261993408,-0.3477408,0.49024287,0.3334608
545,1552012615,-0.5647003650665283,-0.7607110738754272,4.9065046310424805,-0.053610235,0.22731534,0.37633896
546,1552029282,-0.5449090003967285,-0.7817633152008057,4.840022563934326,0.22826914,0.015247279,0.34240723
547,1552045949,-0.5251652598381042,-0.8044426441192627,4.782582759857178,-0.0060165008,-0.11166124,0.35657024
548,1552062616,-0.5049644112586975,-0.8289034962654114,4.667870044708252,-0.11958295,-0.17517845,0.34807205
549,1552079283,-0.4850688278675079,-0.8520065546035767,4.638801097869873,-0.26852602,0.09107622,0.36154842
550,1552095950,-0.4558944702148437,-0.8715977668762207,4.772418022155762,-0.54562795,0.119104534,0.3275175
551,1552112617,-0.4241375029087066,-0.8837544322013855,4.87283992767334,-0.16382419,0.009163635,0.37276745
552,1552129284,-0.3928722441196441,-0.9019935131072998,4.935443878173828,0.3845203,-0.06820932,0.3030386
553,1552145951,-0.3515810072422027,-0.9043090343475342,4.883451461791992,0.15531243,-0.13268171,0.33810806
554,1552162618,-0.3105040192604065,-0.8767731189727783,4.803016185760498,-0.17043583,-0.087036125,0.32258987
555,1552179285,-0.2763371765613556,-0.8499188423156738,4.734496116638184,-0.48322368,0.029049344,0.35406494
556,1552195952,-0.2601643800735473,-0.8329240083694458,4.736183166503906,-0.50987244,0.1869931,0.36306667
557,1552212619,-0.2579100131988525,-0.8125787377357483,4.824126720428467,-0.3813083,0.23900296,0.33063412
558,1552229286,-0.2592529654502868,-0.7959057688713074,4.989304542541504,-0.089390025,0.28965083,0.34442616
559,1552245953,-0.2496944516897201,-0.7734147906303406,5.1337175369262695,-0.07064842,0.12121138,0.367939
560,1552262620,-0.2340542376041412,-0.7554481029510498,5.150273323059082,0.02130281,-0.11762619,0.3531103
561,1552279287,-0.2250932306051254,-0.7418946027755737,5.033223628997803,0.22379398,-0.10787789,0.3504038
562,1552295954,-0.2245432138442993,-0.7326522469520569,4.866107940673828,0.15782985,-0.04199059,0.34664726
563,1552312621,-0.2238465100526809,-0.722421407699585,4.700558185577393,0.024212103,-0.16874255,0.32269
564,1552329288,-0.2273971736431121,-0.7157039642333984,4.623875141143799,0.01999797,-0.1097534,0.3851614
565,1552345955,-0.233376145362854,-0.7088755965232849,4.614780426025391,0.043531816,-0.020553952,0.351223
566,1552362622,-0.2440917789936065,-0.7060247659683228,4.644944667816162,-0.09524141,0.10282611,0.3272009
567,1552379289,-0.2588130831718445,-0.7053616046905518,4.658018589019775,-0.19562444,0.25522527,0.32446194
568,1552395956,-0.2760481238365173,-0.7037307024002075,4.650566577911377,-0.20592971,0.27119026,0.33728218
569,1552412623,-0.2851410508155823,-0.7044368386268616,4.636587619781494,0.01082043,0.16579041,0.33496475
570,1552429290,-0.2895725071430206,-0.7022654414176941,4.611634254455566,0.073918015,0.022510275,0.34426498
571,1552445957,-0.3011721074581146,-0.6970378756523132,4.581846237182617,0.14257218,-0.0820349,0.34541225
572,1552462624,-0.3299024403095245,-0.6894799470901489,4.584794998168945,0.16362143,0.06879433,0.36889076
573,1552479291,-0.3636313378810882,-0.6883326172828674,4.587031364440918,0.08117322,0.20886604,0.33561897
574,1552495958,-0.3983781635761261,-0.7019321918487549,4.572046756744385,-0.054029435,0.22206306,0.30103493
575,1552512625,-0.4269819259643554,-0.7204181551933289,4.610325813293457,-0.025180575,0.15897672,0.33805084
576,1552529292,-0.4431541562080383,-0.7419841885566711,4.682885646820068,0.12317592,0.18997844,0.33883476
577,1552545959,-0.4533067941665649,-0.7569700479507446,4.787133693695068,0.021478917,-0.24731097,0.3672676
578,1552562626,-0.4621148109436035,-0.772195041179657,4.802772045135498,0.03126984,-0.52825063,0.3372841
579,1552579293,-0.4724533557891845,-0.7834346890449524,4.779789447784424,-0.34112546,-0.2965783,0.34793758
580,1552595960,-0.4870511293411255,-0.794834315776825,4.817511558532715,-0.35352555,0.20712993,0.3323574
581,1552612627,-0.503147304058075,-0.8012152910232544,4.92768144607544,-0.22022273,0.2798267,0.33457088
582,1552629294,-0.5042603015899658,-0.8071504831314087,5.0304484367370605,-0.04258191,-0.02847532,0.3289852
583,1552645961,-0.5118919014930725,-0.816114604473114,5.122859477996826,-0.0022525147,-0.0796336,0.34861946
584,1552662628,-0.5150072574615479,-0.8207738399505615,5.170339107513428,0.13307428,-0.20935135,0.31993008
585,1552679295,-0.5081577301025391,-0.823946475982666,5.141111850738525,0.14569052,-0.27067176,0.35953426
586,1552695962,-0.5046917796134949,-0.8260055184364319,5.096903800964356,0.11272442,-0.12551656,0.33106327
587,1552712629,-0.5036344528198242,-0.8210830688476562,5.054714202880859,0.071604155,-0.13671757,0.34959126
588,1552729296,-0.5009161829948425,-0.8176054358482361,5.001570224761963,0.022630868,-0.33832613,0.36100197
589,1552745963,-0.5008448362350464,-0.815356433391571,4.9186320304870605,-0.063374415,-0.21475142,0.31909752
590,1552762630,-0.5103279948234558,-0.8012189865112305,4.871490955352783,-0.023457155,0.12618357,0.33267593
591,1552779297,-0.5247617959976196,-0.7868218421936035,4.856865406036377,-0.06920055,0.10029899,0.31362343
592,1552795964,-0.5317245125770569,-0.7719021439552307,4.8561201095581055,-0.25550112,-0.16117229,0.37336826
593,1552812631,-0.5320732593536377,-0.7557411789894104,4.832817554473877,-0.32977355,-0.17049883,0.35595798
594,1552829298,-0.535167396068573,-0.7390381097793579,4.835740089416504,-0.23350923,0.11220047,0.32348156
595,1552845965,-0.534324049949646,-0.7209887504577637,4.873580455780029,-0.040674645,0.21274376,0.32841682
596,1552862632,-0.5263842344284058,-0.7039247751235962,4.906002521514893,0.10489494,-0.013599192,0.3561449
597,1552879299,-0.5165836811065674,-0.697565495967865,4.808825492858887,0.12863226,-0.324001,0.367424
598,1552895966,-0.5144394636154175,-0.6967819929122925,4.691660404205322,0.11573803,-0.20560229,0.34389305
599,1552912633,-0.5139124989509583,-0.6940775513648987,4.591455459594727,-0.026340408,-0.026654892,0.34606075
600,1552929300,-0.5103041529655457,-0.6972437500953674,4.504540920257568,-0.09340318,-0.06612093,0.33941174
601,1552945967,-0.5144582986831665,-0.695846438407898,4.4674177169799805,-0.23010083,0.11612113,0.3616686
602,1552962634,-0.5209653973579407,-0.704418420791626,4.446796894073486,-0.18641609,0.006913329,0.32747936
603,1552979301,-0.5311270952224731,-0.7126667499542236,4.459054946899414,-0.11503971,0.09028563,0.3602171
604,1552995968,-0.5432979464530945,-0.7197436690330505,4.512489795684815,-0.11833825,0.23359512,0.31043053
605,1553012635,-0.5523722767829895,-0.7242318391799927,4.553633213043213,-0.06488064,0.0558079,0.3698368
606,1553029302,-0.5530509948730469,-0.7378969788551331,4.548301696777344,0.016176304,-0.123583764,0.34544468
607,1553045969,-0.5541892647743225,-0.7520537376403809,4.538895130157471,0.057289086,-0.10739708,0.3202963
608,1553062636,-0.5564894676208496,-0.7659308910369873,4.520697593688965,0.06864377,-0.085829504,0.36054516
609,1553079303,-0.558729887008667,-0.7862249612808228,4.498559951782227,0.04390131,-0.10935517,0.34474945
610,1553095970,-0.5592425465583801,-0.8054909706115723,4.476304054260254,-0.293745,-0.08558519,0.34151077
611,1553112637,-0.5621035099029541,-0.8209551572799683,4.431925296783447,-0.7148335,-0.028277745,0.31083298
612,1553129304,-0.5760062336921692,-0.8293114304542542,4.449714183807373,-0.9037345,0.30147687,0.31967163
613,1553145971,-0.600828230381012,-0.8312199115753174,4.597752571105957,-0.48749298,0.31532156,0.3369007
614,1553162638,-0.6207003593444824,-0.8358702659606934,4.953620910644531,-0.024754353,0.3790879,0.34455872
615,1553179305,-0.6161667704582214,-0.8374004364013672,5.463932514190674,0.0802563,0.46997532,0.33392906
616,1553195972,-0.5513682961463928,-0.795197606086731,6.579312324523926,0.61814857,0.3324973,0.13514137
617,1553212639,-0.5352651476860046,-0.8141050934791565,7.233601570129394,-1.5207404,-1.5806383,0.47534084
618,1553229306,-0.5336385369300842,-0.8105418682098389,7.23396635055542,0.012958911,0.039605837,0.34721565
619,1553245973,-0.5310332775115967,-0.81019526720047,7.233985900878906,-0.005517068,-0.011308068,0.32466793
620,1553262640,-0.5315036773681641,-0.8093008399009705,7.234725952148437,-0.006449571,-0.0036673727,0.34131336
621,1553279307,-0.5296653509140015,-0.8104543089866638,7.23538875579834,-0.0007275486,0.0039134044,0.33911037
622,1553295974,-0.529579222202301,-0.8116929531097412,7.2347002029418945,-0.009074975,-0.022010962,0.34240913
623,1553312641,-0.5286605954170227,-0.8114068508148193,7.2347941398620605,0.0020582192,-0.0020989368,0.33468723
624,1553329308,-0.5263762474060059,-0.8120720982551575,7.2351393699646,-0.003597902,-0.0029560812,0.3473587
625,1553345975,-0.5283287763595581,-0.8110483884811401,7.235498428344727,-0.0038410632,-0.0005545706,0.36019993
626,1553362642,-0.5278854370117188,-0.810251772403717,7.236297607421875,-0.002025642,-0.00519573,0.3383894
627,1553379309,-0.5273904204368591,-0.8113376498222351,7.236209869384766,-0.017867371,0.0017793971,0.3279829
628,1553395976,-0.5278374552726746,-0.810368537902832,7.236908912658691,-0.014111463,0.009891454,0.3425789
629,1553412643,-0.5284582376480103,-0.8100050687789917,7.236932277679443,-0.0076564993,-0.0020373485,0.34250927
630,1553429310,-0.529511570930481,-0.8106147050857544,7.237511157989502,-0.004789247,-0.001463699,0.3527708
631,1553445977,-0.5288664698600769,-0.8113546967506409,7.238457679748535,-0.013351155,-0.0029970014,0.34532166
632,1553462644,-0.5291769504547119,-0.8118013143539429,7.239406585693359,-0.0022978808,0.015220085,0.3318634
633,1553479311,-0.5291672348976135,-0.8113582730293274,7.24082612991333,-0.02420179,0.0064280895,0.3523302
634,1553495978,-0.5293105244636536,-0.811725914478302,7.240274429321289,-0.025634719,-0.0020011393,0.3650627
635,1553512645,-0.5293542742729187,-0.8118923902511597,7.23986291885376,-0.008963512,-0.014654729,0.34375668
636,1553529312,-0.5299713015556335,-0.8127646446228027,7.23977518081665,-0.006922168,-0.016765857,0.36440945
637,1553545979,-0.530377984046936,-0.8119844794273376,7.240588188171387,-0.005321173,-0.0011310559,0.35779858
638,1553562646,-0.5297555327415466,-0.8119468688964844,7.240735054016113,-0.011184009,0.0045897616,0.33389568
639,1553579313,-0.5302080512046814,-0.8118343353271484,7.241317749023437,-0.01548115,-0.007918355,0.35498524
640,1553595980,-0.5304142236709595,-0.8124156594276428,7.241254806518555,-0.0059594004,-0.008135805,0.3449421
641,1553612647,-0.5302278995513916,-0.8127546906471252,7.240659713745117,-0.0038476428,-0.0068445536,0.35752964
642,1553629314,-0.5308371782302856,-0.8111615777015686,7.241418838500977,-0.0058171903,-0.007344426,0.34242153
643,1553645981,-0.5307109355926514,-0.8103316426277161,7.243086338043213,-0.0009693967,-0.0039328467,0.34800816
644,1553662648,-0.5307654142379761,-0.8095031976699829,7.244072437286377,-0.009293214,0.0063624987,0.33612633
645,1553679315,-0.5307886004447937,-0.8090048432350159,7.244354724884033,-0.017694201,0.007899318,0.3459816
646,1553695982,-0.5311674475669861,-0.8096051812171936,7.243115901947021,0.0026799412,-0.0027698528,0.3400879
647,1553712649,-0.5309261083602905,-0.8096023797988892,7.243692398071289,0.0043345448,0.0011914254,0.33267117
648,1553729316,-0.5312508344650269,-0.8082188963890076,7.244371891021728,-0.00813942,0.0045041246,0.34586906
649,1553745983,-0.531180739402771,-0.8093826770782471,7.245424747467041,-0.02948122,-0.0021079716,0.35455894
650,1553762650,-0.5312594771385193,-0.8088788986206055,7.245456218719482,-0.014691779,-0.009308071,0.35279274
651,1553779317,-0.5319086909294128,-0.8075543642044067,7.245525360107422,-0.0065195234,0.0036255547,0.33537483
652,1553795984,-0.5307745337486267,-0.8067641258239746,7.245912075042725,0.007986006,0.007013194,0.32593632
653,1553812651,-0.5309414267539978,-0.8073239326477051,7.246945381164551,-0.0045135017,0.012637405,0.3319292
654,1553829318,-0.531624436378479,-0.8066424131393433,7.247061252593994,-0.020112611,-0.00010493933,0.33073616
655,1553845985,-0.5320901274681091,-0.8075798749923706,7.247556686401367,-0.012620373,0.0038050392,0.3560772
656,1553862652,-0.531318724155426,-0.8091365098953247,7.247758865356445,-0.007613068,0.019182796,0.37033272
657,1553879319,-0.5310127139091492,-0.8072777986526489,7.248722553253174,-0.01829368,-0.009424961,0.3539095
658,1553895986,-0.5311657190322876,-0.80754154920578,7.248409271240234,-0.008606311,-0.00904793,0.36254692
659,1553912653,-0.5295232534408569,-0.807072103023529,7.248392581939697,-0.011987217,-0.004622265,0.34061718
660,1553929320,-0.5296272039413452,-0.8072272539138794,7.249361515045166,-0.0055002416,0.008262478,0.3521433
661,1553945987,-0.5292448997497559,-0.8085007667541504,7.2484025955200195,0.013214624,0.006303369,0.35050583
662,1553962654,-0.5287455320358276,-0.8079012632369995,7.247499465942383,-0.011524796,0.011352659,0.32633114
663,1553979321,-0.5290769338607788,-0.8093101978302002,7.248025894165039,0.0030180954,0.0045020888,0.3429737
664,1553995988,-0.5291005969047546,-0.8087424039840698,7.249281883239746,-0.0072604273,0.0073303203,0.35393715
665,1554012655,-0.5287273526191711,-0.8077564835548401,7.25053596496582,-0.009750753,-0.0045926045,0.345191
666,1554029322,-0.529273271560669,-0.8064549565315247,7.249974250793457,-0.020186685,-0.0044880146,0.35273552
667,1554045989,-0.5287230014801025,-0.8052112460136414,7.250280857086182,-0.017824931,0.005053027,0.3465891
668,1554062656,-0.5281561613082886,-0.8068348169326782,7.249874591827393,-0.0127057545,0.005147587,0.34390736
669,1554079323,-0.52752286195755,-0.8050255179405212,7.249019145965576,-0.008207452,0.0027272387,0.33814812
670,1554095990,-0.5273934602737427,-0.8044403195381165,7.2491455078125,-0.0005289155,-0.011670865,0.3314972
671,1554112657,-0.5279366970062256,-0.8041128516197205,7.249154090881348,0.0017987695,-0.0008566972,0.3357725
672,1554129324,-0.5278851389884949,-0.8043553829193115,7.249147891998291,-0.0048220963,-0.0032793263,0.33402348
673,1554145991,-0.5282225012779236,-0.8042563796043396,7.249368190765381,-0.0228555,-0.001291842,0.34895992
674,1554162658,-0.5288270711898804,-0.8049439787864685,7.2497711181640625,-0.001600255,-0.00054908055,0.35870457
675,1554179325,-0.5292521715164185,-0.805103063583374,7.250573635101318,-0.011724191,-0.013065565,0.349411
676,1554195992,-0.5289318561553955,-0.8048017024993896,7.250072479248047,-0.0100008845,-0.0020476126,0.33755875
677,1554212659,-0.5278596878051758,-0.8053149580955505,7.2483344078063965,-0.015818546,-0.0024436705,0.353467
678,1554229326,-0.5292394757270813,-0.8052287697792053,7.248988151550293,-0.010207006,0.0023135513,0.33089638
679,1554245993,-0.5301015973091125,-0.805121123790741,7.249319553375244,-0.0067132534,-0.015075928,0.34251785
680,1554262660,-0.5300759077072144,-0.8044730424880981,7.250798225402832,-0.013165688,-0.007972326,0.32634163
681,1554279327,-0.5305207967758179,-0.8054447174072266,7.251376152038574,-0.008665541,-0.002572131,0.34784222
682,1554295994,-0.5308448076248169,-0.8032687306404114,7.252191543579102,-0.012466771,-0.011205379,0.33328056
683,1554312661,-0.5309106707572937,-0.8021467328071594,7.251864433288574,-0.0071615647,0.004404955,0.35835552
684,1554329328,-0.5313671231269836,-0.8019559383392334,7.2532057762146,-0.0080445735,0.00019224558,0.3546152
685,1554345995,-0.5322746634483337,-0.8006975650787354,7.255507469177246,-0.017912084,0.0062381383,0.3435936
686,1554362662,-0.5330055952072144,-0.7996194362640381,7.257460117340088,-0.015747815,-0.0050289053,0.34305286
687,1554379329,-0.5335839986801147,-0.8013731837272644,7.258991241455078,-0.02294184,-0.02044424,0.3395443
688,1554395996,-0.5337585210800171,-0.8010281920433044,7.260015487670898,-0.01717907,-0.0010045022,0.35387802
689,1554412663,-0.5338532328605652,-0.8008370995521545,7.26084041595459,-0.019977393,0.0034883353,0.34173965
690,1554429330,-0.5341787338256836,-0.8010515570640564,7.260372638702393,-0.010018591,-0.014678173,0.34359837
691,1554445997,-0.5328148603439331,-0.8030514717102051,7.260154724121094,-0.008992289,-0.011011467,0.33388424
692,1554462664,-0.5330064296722412,-0.8038515448570251,7.261489391326904,-0.0048885914,0.012110711,0.33588314
693,1554479331,-0.5338100790977478,-0.8041724562644958,7.262222766876221,-0.01900839,-0.0033458422,0.3350439
694,1554495998,-0.5346391201019287,-0.8052700161933899,7.262496471405029,-0.020924814,-0.009448958,0.35120487
695,1554512665,-0.5350237488746643,-0.8055184483528137,7.261634349822998,-0.007793289,0.0047937906,0.34079266
696,1554529332,-0.5343377590179443,-0.8041417002677917,7.262718677520752,-0.0039344775,-0.0016740143,0.34486103
697,1554545999,-0.5339713096618652,-0.8041017055511475,7.262988567352295,0.008552758,-0.0027912299,0.34493446
698,1554562666,-0.5361706614494324,-0.8036827445030212,7.263803005218506,0.0044723474,0.014125633,0.34667206
699,1554579333,-0.5360246896743774,-0.8029704093933105,7.265156269073486,-0.009348744,-0.0036532355,0.3549652
700,1554596000,-0.5357764959335327,-0.8037604093551636,7.264012813568115,-0.010725835,0.00801507,0.3360052
701,1554612667,-0.5353862047195435,-0.8050659894943237,7.2652482986450195,-0.011651989,0.0025839005,0.33697128
702,1554629334,-0.5353219509124756,-0.8042174577713013,7.265905857086182,0.011520047,0.007611374,0.36158752
703,1554646001,-0.5346476435661316,-0.8047260642051697,7.265023231506348,0.0015309729,-0.00107413,0.33400726
704,1554662668,-0.5346781611442566,-0.8056364059448242,7.264754295349121,-0.016218774,0.0040482283,0.36319828
705,1554679335,-0.534909188747406,-0.8046238422393799,7.264598846435547,0.030204115,-0.01600227,0.34796047
706,1554696002,-0.5353081822395325,-0.8054264187812805,7.264603614807129,0.0035653668,0.021018067,0.32954884
707,1554712669,-0.5354416966438293,-0.8045424222946167,7.265259265899658,-0.015661964,0.020518374,0.36661148
708,1554729336,-0.5340064764022827,-0.8042696714401245,7.266388416290283,-0.042992763,-0.006544016,0.34114552
709,1554746003,-0.5345813035964966,-0.8052805066108704,7.265012741088867,-0.030770382,-0.004361443,0.3430395
710,1554762670,-0.5339945554733276,-0.8043174147605896,7.264389514923096,-0.011365683,0.011679509,0.33814526
711,1554779337,-0.5339521765708923,-0.8045074343681335,7.263754367828369,9.8604134e-05,-0.0034778826,0.35496616
712,1554796004,-0.5333772301673889,-0.8034940361976624,7.264065742492676,-0.012546425,0.010135782,0.34488678
713,1554812671,-0.5326818227767944,-0.8021940588951111,7.264534473419189,-0.008053053,0.0027589845,0.3547573
714,1554829338,-0.5329776406288147,-0.8024371862411499,7.265092849731445,-0.005500989,-0.0026612256,0.35050297
715,1554846005,-0.5324001312255859,-0.8024129271507263,7.266284942626953,-0.0073726936,0.0067622135,0.34562588
716,1554862672,-0.5327249765396118,-0.8029168844223022,7.265976905822754,-0.010193944,-0.014102152,0.33604527
717,1554879339,-0.5331448912620544,-0.8035202026367188,7.265792369842529,-0.0096701905,-0.004686529,0.35029602
718,1554896006,-0.5335838794708252,-0.804603099822998,7.265627384185791,-0.0050776205,0.007843768,0.34778595
719,1554912673,-0.5335454344749451,-0.8035821318626404,7.265895366668701,-0.0039764913,0.0006528639,0.34654713
720,1554929340,-0.5328891277313232,-0.8031564950942993,7.266014099121094,-0.0082489485,-0.00380586,0.3208685
721,1554946007,-0.5325541496276855,-0.8028144240379333,7.265707492828369,-0.012133435,0.0011682499,0.34676933
722,1554962674,-0.5331990718841553,-0.8032459020614624,7.264955520629883,0.0039451015,-0.0006861359,0.3595419
723,1554979341,-0.5323569774627686,-0.8020082712173462,7.26427698135376,0.007455938,0.0010934253,0.3620882
724,1554996008,-0.5329342484474182,-0.8015676736831665,7.264176845550537,-0.011347585,-0.0033642508,0.33148956
725,1555012675,-0.5324255228042603,-0.8000689744949341,7.265091419219971,-0.027621916,-0.005100709,0.3463211
726,1555029342,-0.5316829681396484,-0.8018364906311035,7.263996124267578,-0.010189397,0.002742319,0.33939648
727,1555046009,-0.5320116281509399,-0.801550567150116,7.264363765716553,-0.006799662,-0.008922197,0.3060913
728,1555062676,-0.5318031907081604,-0.8017942309379578,7.265269756317139,-0.01691171,0.00087848975,0.35013008
729,1555079343,-0.5323690176010132,-0.8037967085838318,7.265561103820801,-0.0014456189,-0.01730853,0.35610962
730,1555096010,-0.5328574776649475,-0.8024952411651611,7.265558242797852,-0.010477379,-0.0019510096,0.35678577
731,1555112677,-0.5318901538848877,-0.803424596786499,7.265599250793457,-0.0032863459,0.023910716,0.35873508
732,1555129344,-0.5317925214767456,-0.8031133413314819,7.264835357666016,-0.0045302236,0.004304849,0.37101078
733,1555146011,-0.5319008231163025,-0.803596556186676,7.264847755432129,0.0020498512,0.0017802214,0.3691349
734,1555162678,-0.5320456027984619,-0.8044672608375549,7.26518440246582,-0.012048536,0.0031129278,0.37809753
735,1555179345,-0.5319395661354065,-0.8060401082038879,7.26552677154541,-0.01515779,0.005771985,0.3373556
736,1555196012,-0.5313755869865417,-0.8053222894668579,7.265909194946289,-0.0027216265,-0.0017409493,0.3466406
737,1555212679,-0.5312713384628296,-0.8049460053443909,7.265575408935547,-0.008080413,-0.003125738,0.33667278
738,1555229346,-0.530484139919281,-0.8048309683799744,7.264952182769775,-0.0042812647,-0.011581369,0.3256998
739,1555246013,-0.5301857590675354,-0.8046628832817078,7.26527738571167,-0.0031583707,-0.00074085465,0.3419838
740,1555262680,-0.5297359228134155,-0.8056992888450623,7.265169143676758,-0.010075587,-0.010884511,0.35457516
741,1555279347,-0.5299185514450073,-0.805152177810669,7.265293598175049,-0.020590523,0.0023097724,0.3419838
742,1555296014,-0.5291743278503418,-0.8044209480285645,7.265373706817627,-0.009248386,0.007556432,0.33912945
743,1555312681,-0.529421865940094,-0.8040293455123901,7.2661519050598145,-0.015592564,-0.0046522687,0.34052277
744,1555329348,-0.5290146470069885,-0.8049871921539307,7.265563488006592,-0.0032680389,0.0004374812,0.34057713
745,1555346015,-0.5285951495170593,-0.8044237494468689,7.265390872955322,-0.009768124,0.0018459935,0.35394
746,1555362682,-0.5286438465118408,-0.8043023347854614,7.264204978942871,-0.017976163,-0.0017390985,0.3591137
747,1555379349,-0.5288498401641846,-0.8026972413063049,7.265039920806885,-0.0050078286,-0.004614177,0.35016346
748,1555396016,-0.5292838215827942,-0.8037564754486084,7.265019416809082,-0.0105350595,0.00640007,0.3471241
749,1555412683,-0.5303911566734314,-0.8048741817474365,7.264981269836426,-0.013260933,0.00015826464,0.33954906
750,1555429350,-0.5305773019790649,-0.8050235509872437,7.264664649963379,-0.005945277,-0.011819903,0.3319378
751,1555446017,-0.5304545164108276,-0.8046234250068665,7.263928413391113,-0.009143824,-0.016817067,0.35189915
752,1555462684,-0.5313336849212646,-0.8051655888557434,7.263402462005615,-0.02281783,0.0032373755,0.35095596
753,1555479351,-0.5311484932899475,-0.805096447467804,7.264223098754883,-0.00766604,0.003152783,0.35165596
754,1555496018,-0.5313966870307922,-0.8051015734672546,7.265043258666992,-0.013081012,0.0056486297,0.33766842
755,1555512685,-0.530972957611084,-0.8047472238540649,7.2650041580200195,-0.011912912,-0.00856217,0.3514614
756,1555529352,-0.5308670997619629,-0.8035805225372314,7.263734817504883,-0.007172831,-0.0105101485,0.34808636
757,1555546019,-0.5310231447219849,-0.8022942543029785,7.26229190826416,-0.015546346,-0.0013356261,0.35954857
758,1555562686,-0.5320038795471191,-0.8018497228622437,7.263283729553223,-0.011859695,0.008805111,0.34980488
759,1555579353,-0.5320453643798828,-0.8016109466552734,7.26344108581543,-0.009886013,-0.0037919288,0.34697533
760,1555596020,-0.5310766696929932,-0.802579939365387,7.26290225982666,0.00545892,0.006807908,0.3462429
761,1555612687,-0.5304240584373474,-0.8028135895729065,7.263040542602539,-0.0067220824,-0.0024398186,0.33279705
762,1555629354,-0.5301298499107361,-0.8026085495948792,7.263116359710693,-0.016379558,0.004507659,0.35535908
763,1555646021,-0.5316744446754456,-0.8024106621742249,7.264284610748291,-0.009587707,0.00026834826,0.35338783
764,1555662688,-0.5313181281089783,-0.8012276291847229,7.264373302459717,0.00045289312,-0.0070326114,0.35673714
765,1555679355,-0.5315160751342773,-0.8017231822013855,7.265451431274414,-0.009133962,-0.0029817605,0.35630226
766,1555696022,-0.530455470085144,-0.8019759058952332,7.2653489112854,-0.014646099,-0.012727694,0.33304405
767,1555712689,-0.5296409130096436,-0.8022721409797668,7.264608860015869,-0.014631808,-0.004916894,0.34869003
768,1555729356,-0.5298194885253906,-0.8019767999649048,7.264386177062988,-0.012580993,-0.018777756,0.34221363
769,1555746023,-0.5305472016334534,-0.8020192384719849,7.263281345367432,-0.00838219,0.00066555524,0.3653698
770,1555762690,-0.53019779920578,-0.8026931881904602,7.263284683227539,-0.0042831227,0.00026228197,0.36389828
771,1555779357,-0.5301671028137207,-0.8039170503616333,7.262877464294434,-0.004527744,-0.008997332,0.35565186
772,1555796024,-0.5301640629768372,-0.8049414157867432,7.263713359832764,-0.007872343,-0.0019457187,0.32879066
773,1555812691,-0.5313880443572998,-0.8045353293418884,7.263084888458252,-0.004960276,-0.0011389278,0.34817123
774,1555829358,-0.5319973826408386,-0.8064363598823547,7.263181209564209,-0.0035170182,0.013895509,0.35184288
775,1555846025,-0.5305950045585632,-0.8072161078453064,7.262052536010742,-0.007886256,0.0069335327,0.3403015
776,1555862692,-0.5315924286842346,-0.8079167008399963,7.262331962585449,0.003726324,-0.0023269479,0.34485054
777,1555879359,-0.5311551094055176,-0.8084720373153687,7.263089179992676,-0.0076634767,-0.0038112625,0.3595066
778,1555896026,-0.532970666885376,-0.8071062564849854,7.263118267059326,-0.014417103,0.007630055,0.367136
779,1555912693,-0.5329383015632629,-0.8082526326179504,7.262230396270752,-0.010550992,-0.0008594562,0.32542133
780,1555929360,-0.5332680940628052,-0.8075541853904724,7.261531829833984,-0.010413832,-0.0067876833,0.34209156
781,1555946027,-0.5340076684951782,-0.8090225458145142,7.261403083801269,0.00072597706,0.007024701,0.35497856
782,1555962694,-0.5339025259017944,-0.8109268546104431,7.261723041534424,-0.025323931,-0.0045510833,0.3550501
783,1555979361,-0.532437801361084,-0.8124171495437622,7.26132869720459,-0.0050189905,-6.455334e-05,0.36572933
784,1555996028,-0.5323339700698853,-0.8112935423851013,7.261531829833984,-0.022020077,0.008600803,0.3405342
785,1556012695,-0.5327053666114807,-0.8104466199874878,7.2612457275390625,-0.02788382,-0.007673909,0.3590126
786,1556029362,-0.5327178835868835,-0.8101277947425842,7.261257171630859,-0.0019424603,-0.008185632,0.33503532
787,1556046029,-0.5329036116600037,-0.8091275095939636,7.26056957244873,-0.005787358,-0.0032971129,0.36853218
788,1556062696,-0.5348422527313232,-0.8091287612915039,7.260585784912109,-0.015627237,-0.012839217,0.33560944
789,1556079363,-0.5348784327507019,-0.8093949556350708,7.260841369628906,-0.015989268,-0.005200815,0.358778
790,1556096030,-0.5341348052024841,-0.808604896068573,7.259512901306152,0.00037293835,0.0016386957,0.34104347
791,1556112697,-0.534207820892334,-0.8091093897819519,7.259977340698242,0.005757533,0.006912243,0.35658646
792,1556129364,-0.5341357588768005,-0.8089528679847717,7.259508609771728,-0.0040457803,-0.0021725774,0.34644604
793,1556146031,-0.5341783761978149,-0.8092237114906311,7.259605884552002,-0.014357704,-0.006521137,0.3300686
794,1556162698,-0.5339576005935669,-0.8101094365119934,7.258702754974365,-0.019261578,-0.01752357,0.36082172
795,1556179365,-0.5340204238891602,-0.8102160096168518,7.259469985961914,0.00089114613,-0.012087487,0.3356676
796,1556196032,-0.5347563028335571,-0.8105262517929077,7.259178161621094,-0.009521834,0.012678584,0.35713673
797,1556212699,-0.5344574451446533,-0.8114433884620667,7.25917387008667,-0.00026176858,-0.007108019,0.35418415
798,1556229366,-0.5358771085739136,-0.810947597026825,7.258166313171387,-0.013312005,0.012880308,0.3483448
799,1556246033,-0.53680419921875,-0.8122557401657104,7.258747577667236,-0.0038245441,-0.0017336259,0.32851124
800,1556262700,-0.5376027822494507,-0.8141764998435974,7.258485794067383,-0.013980938,-0.0033352987,0.36300373
801,1556279367,-0.5383447408676147,-0.8139229416847229,7.259073257446289,-0.017221939,-0.00017758802,0.32700825
802,1556296034,-0.5387994050979614,-0.8124991059303284,7.259949684143066,0.0009964557,0.00026370687,0.35469913
803,1556312701,-0.5377653241157532,-0.8129611611366272,7.25917387008667,-0.0044343225,0.004603934,0.3333912
804,1556329368,-0.5393110513687134,-0.8125582337379456,7.258522987365723,-0.018700268,0.01570307,0.3403902
805,1556346035,-0.5385514497756958,-0.8138063549995422,7.258724689483643,-0.022055678,0.0021867878,0.37826824
806,1556362702,-0.5391977429389954,-0.8145348429679871,7.25976037979126,-0.011546169,0.0038964455,0.35624027
807,1556379369,-0.5387936234474182,-0.8146392703056335,7.25846004486084,0.0055113966,0.0052450947,0.33191967
808,1556396036,-0.5390064716339111,-0.8159676194190979,7.258588790893555,0.00077012787,0.005533346,0.33506966
809,1556412703,-0.5385357737541199,-0.8151932954788208,7.258828639984131,-0.0044329185,0.0038845749,0.34753895
810,1556429370,-0.5383381843566895,-0.8150671720504761,7.259328365325928,-0.012990301,0.010693003,0.36118793
811,1556446037,-0.537886917591095,-0.8149474859237671,7.259478569030762,-0.014866706,-0.00058428035,0.33758736
812,1556462704,-0.5378415584564209,-0.814650297164917,7.258054733276367,-0.008912733,0.004851024,0.36687756
813,1556479371,-0.5361700057983398,-0.8157021999359131,7.256691932678223,-0.0013203889,0.0089921495,0.35198116
814,1556496038,-0.5358306169509888,-0.8156464695930481,7.256848335266113,-0.0017362766,-0.0100131845,0.33550262
815,1556512705,-0.5365710854530334,-0.8163905143737793,7.257125377655029,-0.007940039,-0.00830139,0.35331345
816,1556529372,-0.5367714762687683,-0.817764163017273,7.256648540496826,-0.021661283,-0.008038686,0.34693718
817,1556546039,-0.537021279335022,-0.8174354434013367,7.255667209625244,0.004524964,-0.0047268835,0.35368347
818,1556562706,-0.5366947650909424,-0.8167111873626709,7.255346298217773,0.0022089367,-0.018490417,0.33482933
819,1556579373,-0.5366705656051636,-0.8182901740074158,7.255565643310547,0.002638375,0.004081605,0.36959934
820,1556596040,-0.5372676849365234,-0.8177308440208435,7.254704475402832,-0.019410692,-0.005026251,0.34998894
821,1556612707,-0.5373168587684631,-0.8165692090988159,7.25418758392334,-0.003389539,-0.015091039,0.36236572
822,1556629374,-0.5370556712150574,-0.8171223402023315,7.254103183746338,-0.012079325,-0.0059146136,0.34001446
823,1556646041,-0.5373935103416443,-0.8180595636367798,7.254151821136475,0.0016285154,0.0068176794,0.35533333
824,1556662708,-0.5367820858955383,-0.8181124329566956,7.253334045410156,-0.0021223463,0.003510924,0.3665104
825,1556679375,-0.5366188883781433,-0.8187819719314575,7.253896713256836,-0.027014568,0.008521103,0.34510517
826,1556696042,-0.5368692874908447,-0.8180015087127686,7.253640651702881,-0.0175451,0.009685889,0.3559208
827,1556712709,-0.538033664226532,-0.8178871870040894,7.253184795379639,-0.014652175,0.010035361,0.33013344
828,1556729376,-0.5370728969573975,-0.8175681829452515,7.253649234771728,-0.008140398,0.004444789,0.354887
829,1556746043,-0.5365535616874695,-0.8183351159095764,7.254054546356201,-0.013452693,0.008898421,0.3546486
830,1556762710,-0.5361862182617188,-0.8195460438728333,7.253782272338867,-0.012725836,0.008511402,0.35991478
831,1556779377,-0.5360687375068665,-0.8187558650970459,7.252792835235596,0.00040385997,-0.008467729,0.34558487
832,1556796044,-0.5354251861572266,-0.818733811378479,7.252736568450928,-0.009895282,0.0014472499,0.35026932
833,1556812711,-0.5363812446594238,-0.818672776222229,7.252700328826904,-0.004188374,-0.0011662801,0.34288216
834,1556829378,-0.536305844783783,-0.8185425996780396,7.252532482147217,-0.0049520833,-0.0137175135,0.33833408
835,1556846045,-0.5356914401054382,-0.8188058733940125,7.253615856170654,-0.010119689,0.0067764237,0.33243465
836,1556862712,-0.5363494157791138,-0.8172868490219116,7.25360107421875,-0.0093367435,0.0032341802,0.3769245
837,1556879379,-0.5364729762077332,-0.8183032274246216,7.253446578979492,-0.0064075296,0.006234073,0.3310995
838,1556896046,-0.537301778793335,-0.8177351355552673,7.252161979675293,-0.010921039,0.0103489645,0.34695816
839,1556912713,-0.5379183888435364,-0.8181585669517517,7.252603054046631,-0.008811719,0.003486135,0.34880543
840,1556929380,-0.5294675230979919,-0.7878663539886475,7.28605318069458,-0.012865964,0.0021319434,0.34750366
841,1556946047,-0.5295121669769287,-0.7882510423660278,7.285924911499023,-0.005436729,-0.0044689914,0.34743118
842,1556962714,-0.5300856232643127,-0.7880876064300537,7.28715181350708,-0.00817558,-0.012077467,0.3329134
843,1556979381,-0.5307385921478271,-0.7886157035827637,7.288100719451904,-0.013331046,0.009663142,0.3477316
844,1556996048,-0.5313054919242859,-0.7894465327262878,7.287931442260742,-0.0021575566,0.0030472989,0.33644485
845,1557012715,-0.5304383039474487,-0.790930449962616,7.288181781768799,-0.010004237,-0.0042396006,0.36071777
846,1557029382,-0.5299685001373291,-0.7909358143806458,7.288890361785889,-0.011594301,0.012728277,0.3763981
847,1557046049,-0.5304244160652161,-0.7901387214660645,7.288464069366455,-0.02009966,0.0037016086,0.35018063
848,1557062716,-0.5313867926597595,-0.7906661629676819,7.289361476898193,-0.0062908838,-0.0064467983,0.3529892
849,1557079383,-0.5325743556022644,-0.7904978394508362,7.289516925811768,-0.013655755,0.00023443715,0.3261423
850,1557096050,-0.5330411195755005,-0.7910954356193542,7.289083957672119,-0.002667208,-0.0044110664,0.3358822
851,1557112717,-0.53266841173172,-0.7898545861244202,7.289639949798584,-0.0020083478,-0.008450361,0.34827137
852,1557129384,-0.5330755710601807,-0.789320170879364,7.288554668426514,-0.009189833,0.00045525748,0.35251522
853,1557146051,-0.5325641632080078,-0.7897806763648987,7.289612770080566,-0.010804037,-0.011871807,0.3513384
854,1557162718,-0.5326652526855469,-0.7881112098693848,7.289718627929687,-0.006748429,0.0030656827,0.35276318
855,1557179385,-0.5337389707565308,-0.7883478999137878,7.288957595825195,-0.0069427593,-0.013086541,0.33736706
856,1557196052,-0.5349863767623901,-0.7894851565361023,7.289225101470947,-0.0016642007,-0.0006151705,0.37373924
857,1557212719,-0.5356410145759583,-0.7898789048194885,7.288599967956543,0.0014523872,-0.009019202,0.3460188
858,1557229386,-0.5358509421348572,-0.7885000705718994,7.288153648376465,0.0030041258,0.00391865,0.35020924
859,1557246053,-0.5357622504234314,-0.7881478667259216,7.289301872253418,-0.00707517,0.001287239,0.32607937
860,1557262720,-0.5362802147865295,-0.7900656461715698,7.288478851318359,0.0021513891,-0.0023661815,0.3536749
861,1557279387,-0.5363833904266357,-0.7899890542030334,7.287301540374756,-0.018225854,0.009730602,0.3508396
862,1557296054,-0.5362488627433777,-0.7916438579559326,7.286402225494385,-0.0020024106,-0.0061776503,0.36063766
863,1557312721,-0.5364158749580383,-0.7926735877990723,7.285301208496094,-0.0020457862,-0.0036221775,0.35032272
864,1557329388,-0.5348451733589172,-0.792381763458252,7.287137508392334,-0.0041698436,-0.009555552,0.34086418
865,1557346055,-0.5345250368118286,-0.7921918630599976,7.286973476409912,-0.02031874,-0.005705535,0.3320055
866,1557362722,-0.5344755053520203,-0.7921100854873657,7.28706169128418,-0.00088843604,0.010482294,0.37197876
867,1557379389,-0.5337363481521606,-0.7932047843933105,7.285858631134033,0.0018092047,-0.0076923138,0.33017445
868,1557396056,-0.5345362424850464,-0.7920698523521423,7.286584854125977,0.00080055353,-0.015280837,0.3507576
869,1557412723,-0.5356265902519226,-0.7923129796981812,7.28693675994873,-0.0029371907,0.0031702379,0.3493433
870,1557429390,-0.5350062847137451,-0.7920678853988647,7.286083698272705,0.0012856256,-0.009982019,0.33955765
871,1557446057,-0.5344151854515076,-0.7923917174339294,7.285881519317627,-0.011894822,0.011146992,0.34300995
872,1557462724,-0.534075140953064,-0.7922540307044983,7.286368370056152,0.0023502735,0.00795565,0.34779644
873,1557479391,-0.5326172709465027,-0.793071985244751,7.285963535308838,0.00051551865,0.0031606094,0.34122753
874,1557496058,-0.5324705243110657,-0.7917813062667847,7.286298274993896,-0.008847481,0.009161503,0.34675598
875,1557512725,-0.5326344966888428,-0.79144686460495,7.286136627197266,0.0010320012,-0.004742711,0.35015297
876,1557529392,-0.5324446558952332,-0.7917988300323486,7.286792755126953,-0.0078035425,0.001770935,0.34265327
877,1557546059,-0.5317578911781311,-0.7915837168693542,7.28783655166626,0.00097338494,0.0028715862,0.3336773
878,1557562726,-0.5301500558853149,-0.7925795316696167,7.288243770599365,-0.010534808,-0.012208515,0.3557377
879,1557579393,-0.5308271050453186,-0.7923524379730225,7.287389278411865,-0.005880214,0.006767714,0.3584795
880,1557596060,-0.5307599902153015,-0.7924565672874451,7.287734985351562,-0.0058840835,-0.0021021604,0.3385353
881,1557612727,-0.5298255681991577,-0.7920315265655518,7.287376403808594,0.001004565,0.010854711,0.34780216
882,1557629394,-0.5291882157325745,-0.7919242978096008,7.287012577056885,-0.0028077348,-0.0024616774,0.33270073
883,1557646061,-0.5299370884895325,-0.7919461131095886,7.287533760070801,-0.014040232,0.0034516966,0.3484602
884,1557662728,-0.530311107635498,-0.7915677428245544,7.287780284881592,-0.011075109,-0.010035938,0.3461027
885,1557679395,-0.5304080247879028,-0.7914132475852966,7.286240100860596,-0.012117371,0.003079827,0.32916164
886,1557696062,-0.5295472145080566,-0.7902171611785889,7.286558628082275,-0.0069330786,-0.002905693,0.34705544
887,1557712729,-0.5289454460144043,-0.7902687191963196,7.286904335021973,0.0035559584,-0.0028454317,0.3442583
888,1557729396,-0.5290818214416504,-0.7905270457267761,7.287069320678711,-0.0075645726,-0.008650102,0.32909584
889,1557746063,-0.5287007689476013,-0.789901614189148,7.286542415618896,-0.013415317,-0.0101034455,0.34785843
890,1557762730,-0.528480589389801,-0.7896324396133423,7.286715507507324,0.006996172,0.004825921,0.33372498
891,1557779397,-0.529145359992981,-0.7899860143661499,7.286801815032959,-0.016815243,0.0043489756,0.34156418
892,1557796064,-0.5278369784355164,-0.7886390089988708,7.286647319793701,-0.008070382,-0.00094507914,0.3597126
893,1557812731,-0.52690589427948,-0.7883877158164978,7.286263942718506,-0.018811459,0.0022344345,0.36255932
894,1557829398,-0.525844156742096,-0.7889447808265686,7.284756183624268,-0.020613007,0.002711872,0.36157322
895,1557846065,-0.5260868668556213,-0.789652943611145,7.2845139503479,-0.004288536,0.011071983,0.3347416
896,1557862732,-0.5269174575805664,-0.7894127368927002,7.284829616546631,0.0051378296,-0.0011336997,0.35139084
897,1557879399,-0.5264829993247986,-0.7890437245368958,7.284314155578613,0.0024619254,0.012786017,0.33596706
898,1557896066,-0.527153730392456,-0.7909083962440491,7.283116817474365,-0.0035311554,-0.014205076,0.3458929
899,1557912733,-0.5284280180931091,-0.7894439101219177,7.282733917236328,-0.013555627,-0.00035704448,0.33446693
900,1557929400,-0.5282192230224609,-0.7899428606033325,7.282456874847412,-0.0006362017,0.00104976,0.36108398
901,1557946067,-0.5282383561134338,-0.7901515960693359,7.282744884490967,-0.0038399387,-0.0025416566,0.35124874
902,1557962734,-0.5280503034591675,-0.7892957925796509,7.283756732940674,-0.005597309,-0.0027483397,0.3609295
903,1557979401,-0.5282228589057922,-0.7892814874649048,7.283369541168213,-0.0039033743,0.0023634643,0.34470463
904,1557996068,-0.5280598998069763,-0.7895619869232178,7.283317565917969,-0.018481769,0.008355529,0.36746502
905,1558012735,-0.5275629758834839,-0.7904995083808899,7.282927513122559,-0.003828742,0.00073633896,0.35579777
906,1558029402,-0.5283234715461731,-0.7913432717323303,7.28342342376709,-0.010730682,0.0032096077,0.34416962
907,1558046069,-0.5275664329528809,-0.7918838858604431,7.2842302322387695,0.0003119752,-0.011750708,0.3433342
908,1558062736,-0.5269840359687805,-0.7918208241462708,7.284640312194824,-0.010044351,0.0016661249,0.3358078
909,1558079403,-0.5271963477134705,-0.7923627495765686,7.283748626708984,-0.0075416625,0.004476224,0.33022785
910,1558096070,-0.5279889702796936,-0.7919003963470459,7.2839202880859375,0.0006830067,-0.010059637,0.34791088
911,1558112737,-0.5271607041358948,-0.7921761274337769,7.28306245803833,-0.0021125467,-8.4439e-05,0.3636093
912,1558129404,-0.5265397429466248,-0.7913397550582886,7.283264636993408,-0.005625842,-0.0077922447,0.3327837
913,1558146071,-0.5262805223464966,-0.7911394238471985,7.281404495239258,-0.009565397,-0.0029582183,0.34408092
914,1558162738,-0.5259613394737244,-0.7911624908447266,7.281285762786865,0.0034012664,-0.002150282,0.349041
915,1558179405,-0.5254805684089661,-0.7920076847076416,7.28236722946167,-0.00096913124,0.012614705,0.34819794
916,1558196072,-0.523923933506012,-0.7917879223823547,7.282641410827637,-0.0065311883,0.0059272354,0.33725834
917,1558212739,-0.5230001211166382,-0.7918588519096375,7.282290458679199,-0.006412845,0.0017079742,0.32031155
918,1558229406,-0.5236344337463379,-0.791668713092804,7.282016277313232,-0.008948223,0.007930341,0.34079456
919,1558246073,-0.5234502553939819,-0.7918006181716919,7.283010959625244,-0.0068403627,0.006821462,0.32684803
920,1558262740,-0.5226523280143738,-0.7920679450035095,7.282854080200195,-0.0017895635,-0.014058916,0.34048557
921,1558279407,-0.5227882862091064,-0.792046070098877,7.283320426940918,-0.02194694,-9.71967e-05,0.36158657
922,1558296074,-0.5221652388572693,-0.7921547889709473,7.283843517303467,-0.0091863545,-0.001400141,0.33806324
923,1558312741,-0.521902859210968,-0.7922930121421814,7.284710884094238,0.0025568695,-0.014120099,0.34393883
924,1558329408,-0.5217839479446411,-0.7920790314674377,7.286009788513184,-0.0018905005,0.0016877743,0.36828232
925,1558346075,-0.5218823552131653,-0.7922935485839844,7.286856651306152,-0.005896216,0.00874185,0.35703278
926,1558362742,-0.5217990279197693,-0.7912977337837219,7.286345958709717,-0.014602804,-0.015478408,0.35700893
927,1558379409,-0.5221097469329834,-0.7905586957931519,7.287486553192139,-0.013477168,0.022538435,0.33992958
928,1558396076,-0.5220179557800293,-0.7901479601860046,7.288390636444092,0.005364248,-0.013785941,0.32937813
929,1558412743,-0.5214729905128479,-0.7899218797683716,7.288193702697754,-0.007846073,0.020358477,0.3301468
930,1558429410,-0.5204089879989624,-0.7899516224861145,7.287961959838867,-0.013106828,0.005871179,0.36755657
931,1558446077,-0.5199916958808899,-0.7911298871040344,7.287333011627197,-0.017792836,0.011759132,0.33960247
932,1558462744,-0.5188113451004028,-0.792024552822113,7.28666877746582,-0.011966388,0.010777735,0.34157276
933,1558479411,-0.5191947221755981,-0.7904375791549683,7.286489486694336,-0.002058338,0.0048894505,0.32231522
934,1558496078,-0.519459068775177,-0.7922751307487488,7.285280704498291,-0.014156529,0.002706473,0.35790062
935,1558512745,-0.519634485244751,-0.7929754257202148,7.284961223602295,-0.0034715193,-0.0026334086,0.35524178
936,1558529412,-0.5205596685409546,-0.7932710647583008,7.284399509429932,-0.016811457,-0.0035741364,0.34218025
937,1558546079,-0.5191810727119446,-0.7941035032272339,7.285012245178223,-0.005590911,0.007253687,0.3433218
938,1558562746,-0.5187060832977295,-0.7937301993370056,7.284839153289795,-0.00437762,0.0066939546,0.36035728
939,1558579413,-0.5171612501144409,-0.7928422093391418,7.284994602203369,-0.011022444,-0.0031959803,0.35239124
940,1558596080,-0.517666220664978,-0.7918943166732788,7.285340309143066,-0.013053108,-0.0027607237,0.33863354
941,1558612747,-0.5175326466560364,-0.7919942736625671,7.284687042236328,-0.010104539,0.0027320164,0.35686302
942,1558629414,-0.5161119103431702,-0.7916997671127319,7.284813404083252,-0.002357503,0.0032048684,0.36610317
943,1558646081,-0.5156078934669495,-0.7919074296951294,7.284313201904297,0.0019135433,-0.005703729,0.33012772
944,1558662748,-0.5153246521949768,-0.7918514609336853,7.284739971160889,0.0024915827,0.008023944,0.34244633
945,1558679415,-0.5154690742492676,-0.7923948764801025,7.283082008361816,-0.0026748355,-0.0070142695,0.33053112
946,1558696082,-0.5152644515037537,-0.7927603125572205,7.282447814941406,-0.018785985,-0.007046354,0.36011696
947,1558712749,-0.5145758986473083,-0.7918218970298767,7.284055233001709,-0.015242389,-0.010078545,0.3496189
948,1558729416,-0.5153618454933167,-0.792382001876831,7.283725738525391,-0.0025815398,0.010331482,0.35552025
949,1558746083,-0.5146142840385437,-0.791923463344574,7.282876968383789,-0.011193215,-0.0050505404,0.33946705
950,1558762750,-0.5160167813301086,-0.7913479208946228,7.282492160797119,0.003250018,0.00089425436,0.33563995
951,1558779417,-0.5166140198707581,-0.7925971150398254,7.281307697296143,-0.0064969906,0.010123101,0.3536644
952,1558796084,-0.5164428949356079,-0.7921313643455505,7.280982494354248,0.00045239722,-0.00616937,0.34231853
953,1558812751,-0.5161104202270508,-0.7918893694877625,7.280921936035156,-0.007316829,0.006556588,0.34281254
954,1558829418,-0.5162092447280884,-0.7918347120285034,7.280189514160156,-0.010771047,-0.0064982898,0.34037018
955,1558846085,-0.5156687498092651,-0.7912275195121765,7.2787652015686035,-0.0052065877,-0.0012376297,0.35075092
956,1558862752,-0.5166113972663879,-0.7922782897949219,7.278841495513916,-0.0045321723,0.005497745,0.35396862
957,1558879419,-0.5163385272026062,-0.793171763420105,7.279425144195557,-0.00811248,-0.0026856235,0.33578682
958,1558896086,-0.5165172219276428,-0.7936015129089355,7.281391620635986,-0.017301593,0.0050652158,0.33285904
959,1558912753,-0.5161166191101074,-0.7928428649902344,7.280837535858154,0.0035751874,-0.003345727,0.35756302
960,1558929420,-0.5265963077545166,-0.7785986065864563,7.284390926361084,0.0029098312,0.00087071565,0.36697865
961,1558946087,-0.526627242565155,-0.7778939008712769,7.283872604370117,-0.004471195,-0.005798883,0.3717661
962,1558962754,-0.5264580845832825,-0.7781891822814941,7.28354549407959,-0.00062787585,-0.012735349,0.34622192
963,1558979421,-0.5254592299461365,-0.7777206897735596,7.284065723419189,-0.0059362384,0.013537137,0.32653332
964,1558996088,-0.5257827639579773,-0.777326762676239,7.284261703491211,-0.010281449,0.00668075,0.36851025
965,1559012755,-0.5249135494232178,-0.7766177654266357,7.284667491912842,0.00069298095,-0.008720393,0.33947754
966,1559029422,-0.5252559781074524,-0.7764565944671631,7.28447961807251,0.003670823,-0.010056082,0.3504696
967,1559046089,-0.5241116285324097,-0.7771639227867126,7.284042358398437,0.01668566,0.0029732182,0.3379202
968,1559062756,-0.5241640210151672,-0.77843177318573,7.284087657928467,-0.008969561,0.0020161776,0.34375286
969,1559079423,-0.5243685841560364,-0.7790024876594543,7.2849321365356445,-0.0034537292,0.0076009003,0.33360386
970,1559096090,-0.5253130197525024,-0.779296875,7.28578519821167,-0.009807637,0.003954922,0.32683563
971,1559112757,-0.5256549119949341,-0.7783768773078918,7.286433219909668,-0.006531873,-0.002364575,0.3480959
972,1559129424,-0.5266838669776917,-0.7797495722770691,7.286524295806885,0.010724452,-0.010809411,0.35605335
973,1559146091,-0.526850700378418,-0.7792460918426514,7.285871505737305,-0.0063565196,-0.0033686545,0.3474579
974,1559162758,-0.5274152159690857,-0.7794175744056702,7.286248683929443,0.0083069075,0.011341417,0.35182667
975,1559179425,-0.5261682271957397,-0.7794271111488342,7.286655902862549,-0.005829078,-0.024731776,0.34424496
976,1559196092,-0.5256572365760803,-0.7804662585258484,7.287342548370361,0.0055755517,0.0007679207,0.34906673
977,1559212759,-0.5256044268608093,-0.7812908291816711,7.287017822265625,0.00048405922,0.008950206,0.34757328
978,1559229426,-0.5266422629356384,-0.7829895615577698,7.287196159362793,-0.006193977,0.0044416427,0.33657074
979,1559246093,-0.5269419550895691,-0.7826083302497864,7.287574768066406,-0.018624458,-0.0061135786,0.36241817
980,1559262760,-0.5276517868041992,-0.7825292348861694,7.28720760345459,-0.0045659575,0.00051832653,0.34507275
981,1559279427,-0.5271437168121338,-0.782453179359436,7.285941123962402,0.0069872662,-0.00503157,0.3493986
982,1559296094,-0.5274914503097534,-0.7824461460113525,7.286072731018066,0.0018560167,-0.00079340115,0.34376907
983,1559312761,-0.5284357666969299,-0.7829041481018066,7.286651611328125,-0.012845087,-0.011407693,0.36108017
984,1559329428,-0.5275601744651794,-0.783576250076294,7.2869391441345215,0.0061194007,-0.0012284446,0.3593769
985,1559346095,-0.5279873013496399,-0.7837928533554077,7.286080360412598,-0.008973082,-0.008937103,0.32640076
986,1559362762,-0.5283651947975159,-0.7824400067329407,7.286114692687988,-0.0054947515,0.003979257,0.32993317
987,1559379429,-0.5274576544761658,-0.7827326655387878,7.286465644836426,-0.0009734408,-0.01950814,0.32048988
988,1559396096,-0.5271687507629395,-0.7830731272697449,7.286270141601562,-0.012068994,0.00010661917,0.3540306
989,1559412763,-0.5258394479751587,-0.7837852239608765,7.286074638366699,-0.0036865948,0.0011627668,0.3529768
990,1559429430,-0.5263345837593079,-0.7813416719436646,7.286670207977295,-0.020295126,-0.011148708,0.32904816
991,1559446097,-0.5262014865875244,-0.7814406752586365,7.287181854248047,0.0021013431,-0.0006628102,0.3420534
992,1559462764,-0.5265305638313293,-0.7811084389686584,7.287525177001953,0.004284373,-0.006248053,0.3506508
993,1559479431,-0.6218822598457336,-0.7475678324699402,7.285236835479736,0.043664835,0.099161945,0.3999939
994,1559496098,-0.6579222083091736,-0.7379902005195618,7.286515235900879,-0.04938703,-0.08005301,0.262434
995,1559512765,-0.661496639251709,-0.7378357648849487,7.287088871002197,-0.03547907,-0.019869875,0.33683777
996,1559529432,-0.6525595784187317,-0.7376669049263,7.285870552062988,0.014955084,0.0027494677,0.3362398
997,1559546099,-0.6460651755332947,-0.7383104562759399,7.284302711486816,-0.010528002,0.0019889125,0.354558
998,1559562766,-0.6463728547096252,-0.7398467659950256,7.279898166656494,-0.016857713,-0.011776202,0.3705349
999,1559579433,-0.6371147036552429,-0.7556484937667847,7.265283584594727,-0.049610026,-0.03015128,0.3340788
1000,1559596100,-0.6077461838722229,-0.7703484892845154,7.0290207862854,-0.00087494846,-0.05265389,0.34367657
1001,1559612767,-0.5850277543067932,-0.7806835770606995,6.739201068878174,-0.07207518,-0.20614628,0.36261177
1002,1559629434,-0.5538873076438904,-0.7888294458389282,6.165027618408203,-0.0013208009,-0.07831841,0.37681866
1003,1559646101,-0.5300252437591553,-0.8002325892448425,5.465186595916748,-0.06800001,-0.08235276,0.35396576
1004,1559662768,-0.5119158625602722,-0.8135740756988525,4.796922206878662,-0.06958516,0.0129564665,0.31895447
1005,1559679435,-0.498934656381607,-0.8231448531150818,4.10436487197876,-0.08757836,0.053054363,0.35861206
1006,1559696102,-0.490444928407669,-0.8301191926002502,3.450782299041748,-0.048006907,-0.024873056,0.32111263
1007,1559712769,-0.4592094719409942,-0.8376055955886841,2.7020983695983887,0.0009611546,-0.05789611,0.37722778
1008,1559729436,-0.4276555180549621,-0.8454076647758484,1.9061272144317627,0.097099625,0.067721725,0.36120033
1009,1559746103,-0.410562664270401,-0.8499786257743835,1.2259197235107422,0.012371121,0.079352334,0.37447166
1010,1559762770,-0.3926065564155578,-0.8599122762680054,0.6455304026603699,-0.03952982,-0.04522638,0.34916592
1011,1559779437,-0.3789921998977661,-0.8651854991912842,0.0342576280236244,-0.09275639,-0.15760508,0.34301853
1012,1559796104,-0.355741798877716,-0.8701362013816833,-0.6956397294998169,-0.055743676,-0.105209485,0.36026192
1013,1559812771,-0.3330436646938324,-0.8744171261787415,-1.4970784187316897,-0.0013558365,-0.02339823,0.3569317
1014,1559829438,-0.3245401382446289,-0.8734678626060486,-2.2947168350219727,0.030195119,-0.016018301,0.36615753
1015,1559846105,-0.3138775825500488,-0.8744605779647827,-3.156252861022949,-0.049316995,-0.03566344,0.35604477
1016,1559862772,-0.2841452956199646,-0.884149968624115,-4.057358741760254,-0.045017105,-0.034199465,0.33456707
1017,1559879439,-0.2592299282550812,-0.8942298293113708,-4.870499134063721,-0.051530752,0.05123925,0.3546028
1018,1559896106,-0.2306663691997528,-0.9019908308982848,-5.662830829620361,0.018214224,-0.020483958,0.34737396
1019,1559912773,-0.211584523320198,-0.9038249850273132,-6.445416927337647,0.06431439,0.05196894,0.34631443
1020,1559929440,-0.206595093011856,-0.9007751941680908,-7.230078220367432,-0.044167858,0.043769635,0.34444046
1021,1559946107,-0.2104333192110061,-0.905282974243164,-8.098207473754883,-0.06912767,0.13869137,0.36212063
1022,1559962774,-0.2065770477056503,-0.9093311429023744,-8.91309928894043,-0.067321554,0.060556162,0.37432575
1023,1559979441,-0.1904308944940567,-0.9130008816719056,-9.570195198059082,0.1557499,-0.037551686,0.34096527
1024,1559996108,-0.1667292714118957,-0.9160574078559875,-9.959586143493652,-0.049904555,-0.1468685,0.35437107
1025,1560012775,-0.1388402432203292,-0.9174603819847108,-10.402789115905762,0.008541694,-0.042227924,0.37151718
1026,1560029442,-0.1403635591268539,-0.9154042601585388,-10.845332145690918,-0.037434835,0.033984434,0.33723354
1027,1560046109,-0.1554247885942459,-0.9162781834602356,-11.526357650756836,-0.20550331,0.105672054,0.35991192
1028,1560062776,-0.1474427580833435,-0.9188470244407654,-12.427323341369627,0.03408289,0.039564036,0.32425022
1029,1560079443,-0.139291450381279,-0.9167957305908204,-12.702089309692385,0.1683712,-0.064863645,0.3668337
1030,1560096110,-0.1217319518327713,-0.9188051819801332,-13.080262184143066,-0.16421656,-0.03095919,0.33727837
1031,1560112777,-0.108718916773796,-0.9207626581192015,-13.61655044555664,-0.077275746,0.025561433,0.36483955
1032,1560129444,-0.1062880754470825,-0.9203743934631348,-14.185738563537598,-0.09804869,-0.010659142,0.34409904
1033,1560146111,-0.0983016341924667,-0.917355477809906,-14.71117877960205,0.07689742,-0.06353878,0.3452816
1034,1560162778,-0.0784485340118408,-0.9127765893936156,-15.204354286193848,-0.07770252,-0.06107381,0.3322115
1035,1560179445,-0.0443982407450675,-0.9117891788482666,-15.856106758117676,-0.014290587,-0.12863961,0.37430096
1036,1560196112,-0.0184513311833143,-0.9117521643638612,-16.574365615844727,-0.06635327,-0.073138766,0.35761547
1037,1560212779,-0.0082635078579187,-0.9118712544441224,-17.261056900024414,-0.13374503,-0.011063221,0.347229
1038,1560229446,0.0014081577537581,-0.913088858127594,-18.234111785888672,-0.30241394,-0.04246487,0.3473425
1039,1560246113,0.0271415021270513,-0.9137519001960754,-19.380525588989254,0.00794233,0.0063678324,0.3340063
1040,1560262780,0.0506609305739402,-0.9081480503082277,-20.256553649902344,0.020353662,-0.053158592,0.33873177
1041,1560279447,0.0696516558527946,-0.9044360518455504,-20.914520263671875,0.050325114,-0.07108913,0.32815075
1042,1560296114,0.0887346491217613,-0.9002329111099243,-21.482406616210938,-0.08765857,-0.115009785,0.33932686
1043,1560312781,0.1183454766869545,-0.8987113833427429,-22.299776077270508,-0.1867565,-0.1650598,0.36110497
1044,1560329448,0.1442273110151291,-0.8962224125862122,-23.3798770904541,-0.2062829,-0.100835316,0.32525158
1045,1560346115,0.177033856511116,-0.8940216302871704,-24.565444946289062,-0.016297838,-0.016497243,0.35333633
1046,1560362782,0.1961493790149688,-0.88720703125,-25.556684494018555,0.02145146,0.02743743,0.3726368
1047,1560379449,0.2128982692956924,-0.8833639621734619,-26.40671157836914,0.0030897663,0.0051504946,0.34357834
1048,1560396116,0.2260266244411468,-0.880160391330719,-27.0899658203125,0.00085544697,-0.0056617046,0.36242867
1049,1560412783,0.2449314445257187,-0.8768284320831299,-27.772632598876957,-0.041852955,-0.04493945,0.33088398
1050,1560429450,0.2708546221256256,-0.869625449180603,-28.420015335083008,0.06390869,-0.015083114,0.3396902
1051,1560446117,0.2828464210033417,-0.8649856448173523,-28.81789970397949,0.13595584,0.08322666,0.37278938
1052,1560462784,0.272481769323349,-0.8685951828956604,-28.84491729736328,-0.0069307876,0.017906798,0.33490944
1053,1560479451,0.251746267080307,-0.8738868236541748,-28.907888412475582,-0.21281788,-0.053184714,0.3349533
1054,1560496118,0.2469220608472824,-0.875555157661438,-29.360675811767575,-0.20541808,0.0105530685,0.3650961
1055,1560512785,0.2522614002227783,-0.8739882707595825,-29.85907745361328,0.10634403,-0.062741905,0.3533392
1056,1560529452,0.2515094876289367,-0.8723616003990173,-29.90574836730957,0.061658397,-0.09088839,0.3411541
1057,1560546119,0.2571025490760803,-0.8722712397575378,-30.001623153686523,-0.38778022,-0.044805586,0.32129288
1058,1560562786,0.2865175008773803,-0.8695656061172485,-30.78367042541504,-0.33298758,-0.11022529,0.34079838
1059,1560579453,0.3111935257911682,-0.8626179099082947,-31.71784782409668,-0.1789213,-0.09481991,0.34290886
1060,1560596120,0.3369878232479095,-0.8522517085075378,-32.81767654418945,-0.14972617,-0.1025427,0.35859394
1061,1560612787,0.3680275976657867,-0.8432304859161377,-34.060760498046875,-0.048259575,-0.062012058,0.35838795
1062,1560629454,0.4006747305393219,-0.833118736743927,-35.13595199584961,0.17238204,-0.048657678,0.3524704
1063,1560646121,0.4257667064666748,-0.826101541519165,-35.80588912963867,0.21265303,0.02369565,0.3675604
1064,1560662788,0.4373939633369446,-0.8253287672996521,-36.21446990966797,-0.12978026,-0.053755414,0.33877754
1065,1560679455,0.4413275420665741,-0.8215644955635071,-36.71050643920898,-0.083550915,0.006441412,0.36404705
1066,1560696122,0.4454039633274078,-0.8164790868759155,-37.32666778564453,-0.20546685,-0.044152815,0.32485294
1067,1560712789,0.4548441767692566,-0.8099064826965332,-38.01095962524414,-0.012377386,-0.028288387,0.34319115
1068,1560729456,0.4675267338752746,-0.8054797053337097,-38.76506805419922,-0.10726803,-0.0121039795,0.33157825
1069,1560746123,0.4814413189888,-0.8010025024414062,-39.4208869934082,-0.03787739,-0.028685035,0.35107613
1070,1560762790,0.4959689676761627,-0.7943315505981445,-40.17745208740234,-0.30685663,-0.0012492733,0.3384018
1071,1560779457,0.5142048001289368,-0.7858877778053284,-41.170196533203125,0.013418209,0.037150256,0.34512043
1072,1560796124,0.5237874984741211,-0.7778007388114929,-41.77998733520508,0.24112712,-0.102815956,0.3391924
1073,1560812791,0.5253696441650391,-0.7738417983055115,-42.10506057739258,-0.12105034,-0.02693272,0.34145832
1074,1560829458,0.5382267236709595,-0.7674989700317383,-42.84313201904297,-0.4685867,0.10990705,0.31381035
1075,1560846125,0.5648412108421326,-0.755374550819397,-43.9227409362793,-0.13520695,-0.0144095365,0.33180428
1076,1560862792,0.5951564908027649,-0.7435221672058105,-44.858028411865234,0.101647176,-0.1450394,0.34658432
1077,1560879459,0.6181358098983765,-0.7320187091827393,-45.731388092041016,-0.09351794,-0.047416817,0.36173916
1078,1560896126,0.6376057267189026,-0.7194942235946655,-46.7626838684082,-0.20753616,0.103007585,0.34103966
1079,1560912793,0.6594024896621704,-0.7052722573280334,-48.059608459472656,-0.33363575,0.18782534,0.3349161
1080,1560929460,0.6897017359733582,-0.6817103624343872,-49.59922790527344,-0.067157626,-0.08143217,0.34851742
1081,1560946127,0.715141236782074,-0.6695933938026428,-50.57377624511719,0.37930226,-0.34317943,0.36543941
1082,1560962794,0.7260501384735107,-0.6650660037994385,-50.78881072998047,0.1935683,-0.25183338,0.34219742
1083,1560979461,0.7346094846725464,-0.6670132875442505,-50.87566757202149,-0.3226595,0.07058923,0.35101032
1084,1560996128,0.7477266192436218,-0.6629694104194641,-51.46660614013672,-0.19568342,0.0010278698,0.35434628
1085,1561012795,0.7545215487480164,-0.6593926548957825,-51.8412971496582,0.05796286,-0.114369705,0.34018326
1086,1561029462,0.7578144073486328,-0.6590312123298645,-51.98765563964844,0.006978689,-0.11969798,0.3643074
1087,1561046129,0.7568261623382568,-0.6602311730384827,-52.136268615722656,-0.19845025,0.03216394,0.34465408
1088,1561062796,0.7598058581352234,-0.6565590500831604,-52.46770095825195,-0.22876297,0.040773224,0.35428333
1089,1561079463,0.7752256393432617,-0.643466591835022,-53.17930603027344,-0.44470596,0.09186651,0.34070873
1090,1561096130,0.8027901649475098,-0.6243991255760193,-54.2332649230957,-0.21059935,-0.08794589,0.3337078
1091,1561112797,0.8275958299636841,-0.6108018755912781,-55.0723876953125,0.16749701,-0.22459002,0.33950424
1092,1561129464,0.8467190861701965,-0.5984460711479187,-55.76750183105469,-0.2636033,-0.08816502,0.34469223
1093,1561146131,0.8600983619689941,-0.5822468400001526,-56.85235977172852,-0.5286527,0.014364661,0.32775116
1094,1561162798,0.8803825974464417,-0.5616901516914368,-58.22622299194336,-0.22355658,0.06046601,0.37517643
1095,1561179465,0.9026304483413696,-0.5360451936721802,-59.59275817871094,-0.16831227,0.088170074,0.32731628
1096,1561196132,0.918540060520172,-0.5044116973876953,-61.22931289672852,-0.30327764,0.04793019,0.32868004
1097,1561212799,0.945549726486206,-0.4762991368770599,-62.7457160949707,0.24867225,-0.28190064,0.34428024
1098,1561229466,0.9681227803230286,-0.4575898051261902,-63.70882797241211,0.1843994,-0.14931487,0.35073757
1099,1561246133,0.9860063195228576,-0.4432594180107116,-64.37657928466797,0.016927112,-0.081654504,0.3515482
1100,1561262800,0.9927886128425598,-0.4359167814254761,-64.86873626708984,0.08462002,-0.026895307,0.34371376
1101,1561279467,0.99286288022995,-0.4322977662086487,-65.23035430908203,-0.18689379,0.025819816,0.35094357
1102,1561296134,0.9979689717292786,-0.4192777574062347,-66.01126861572266,-0.3892998,0.20498647,0.31831074
1103,1561312801,1.0125250816345217,-0.3892040252685547,-67.52603149414062,-0.6162536,0.3363008,0.31872177
1104,1561329468,1.0429973602294922,-0.3546232879161834,-69.29412841796875,0.063390195,-0.23588479,0.3287239
1105,1561346135,1.0675556659698486,-0.3403443992137909,-70.2191162109375,0.44997534,-0.41685045,0.3619194
