sep=,
DeviceTag:,Movella DOT,,,,,,,,,,,,,,,,,
FirmwareVersion:,3.0.0,,,,,,,,,,,,,,,,,
AppVersion:,2023.6.1,,,,,,,,,,,,,,,,,
SyncStatus:,Un-synced,,,,,,,,,,,,,,,,,
OutputRate:,60Hz,,,,,,,,,,,,,,,,,
FilterProfile:,Dynamic,,,,,,,,,,,,,,,,,
Measurement Mode:,Sensor fusion Mode - Complete (Euler),,,,,,,,,,,,,,,,,
StartTime:,2024-11-04 10:47:24.109 +0700,,,,,,,,,,,,,,,,,
 2024,,,,,,,,,,,,,,,,,,,

PacketCounter,SampleTimeFine,Euler_X,Euler_Y,Euler_Z,FreeAcc_X,FreeAcc_Y,FreeAcc_Z
1, 1413689172, -0.25189918279647827, -1.1001874208450317, 5.4663496017456055, 0.014272881, 0.013734685, 0.33876133
2, 1413705839, -0.244685098528862, -1.1374695301055908, 5.54328727722168, -9.508241E-4, -0.0018019999, 0.28907108
3, 1413722506, -0.24773555994033813, -1.1628302335739136, 5.519796848297119, -0.016913211, -0.008505417, 0.32899475
4, 1413739173, -0.2568206191062927, -1.172916293144226, 5.531697750091553, -0.017608568, 0.01763772, 0.36520576
5, 1413755840, -0.25322580337524414, -1.180180549621582, 5.563572406768799, -0.007458334, 0.0016953737, 0.33543015
6, 1413772507, -0.2515929043292999, -1.192151427268982, 5.502723217010498, -0.014529341, 0.009335835, 0.33880138
7, 1413789174, -0.25040942430496216, -1.2070211172103882, 5.491551399230957, -0.01588793, 0.014404279, 0.3352108
8, 1413805841, -0.24652962386608124, -1.2204586267471313, 5.496207237243652, -0.013093319, 0.0047559594, 0.34793282
9, 1413822508, -0.24538278579711914, -1.2340039014816284, 5.518406391143799, -0.019703848, -0.0039316313, 0.35858727
10, 1413839175, -0.24583767354488373, -1.2493855953216553, 5.532784938812256, -0.01864826, -0.010099394, 0.3291874
11, 1413855842, -0.24885666370391846, -1.2637807130813599, 5.530788421630859, -0.029263735, 0.008565904, 0.32114887
12, 1413872509, -0.2501000165939331, -1.2793476581573486, 5.499019145965576, -0.038608517, 0.005623694, 0.33729267
13, 1413889176, -0.25215232372283936, -1.2936921119689941, 5.503513813018799, -0.038820148, 0.0020271586, 0.33408546
14, 1413905843, -0.2550758421421051, -1.308096170425415, 5.493871212005615, -0.032085963, -0.008558042, 0.3479519
15, 1413922510, -0.25893861055374146, -1.3233011960983276, 5.507835388183594, -0.034607127, 0.004876513, 0.33442593
16, 1413939177, -0.26306411623954773, -1.3365594148635864, 5.51655912399292, -0.030393396, 0.0069776736, 0.35618496
17, 1413955844, -0.26546239852905273, -1.3528789281845093, 5.5080437660217285, -0.038701653, 0.0030895167, 0.32565022
18, 1413972511, -0.26844853162765503, -1.368952989578247, 5.521510601043701, -0.035354037, -0.0023758782, 0.3228302
19, 1413989178, -0.27095913887023926, -1.3851069211959839, 5.525132656097412, -0.061764397, -0.00895989, 0.33116245
20, 1414005845, -0.27473917603492737, -1.399694561958313, 5.527010440826416, -0.06643766, 0.0038308173, 0.34203434
21, 1414022512, -0.27838003635406494, -1.4147292375564575, 5.532027244567871, -0.056221966, -0.021135347, 0.35751247
22, 1414039179, -0.2822813391685486, -1.4294404983520508, 5.542278289794922, -0.04842129, 0.007149708, 0.33381176
23, 1414055846, -0.2876542806625366, -1.444499135017395, 5.552172660827637, -0.059121244, -0.0035853086, 0.34108925
24, 1414072513, -0.2917163372039795, -1.4602116346359253, 5.555230617523193, -0.071369044, -0.005684909, 0.36593914
25, 1414089180, -0.2960295081138611, -1.4738725423812866, 5.5716233253479, -0.07272898, 0.0055938484, 0.36712265
26, 1414105847, -0.2992280125617981, -1.4879884719848633, 5.570314407348633, -0.06685851, -0.0025050808, 0.34784508
27, 1414122514, -0.3037557899951935, -1.5022974014282227, 5.572887897491455, -0.07797913, 0.0061859046, 0.3643608
28, 1414139181, -0.3080299496650696, -1.5169366598129272, 5.572946548461914, -0.08015256, 0.0043326467, 0.357934
29, 1414155848, -0.311749130487442, -1.5319797992706299, 5.56704568862915, -0.079801686, 0.006666226, 0.34666824
30, 1414172515, -0.3145923912525177, -1.5481139421463013, 5.583733558654785, -0.08622177, 7.516444E-4, 0.3693323
31, 1414189182, -0.31784406304359436, -1.5626753568649292, 5.575234413146973, -0.09573359, 3.7814202E-4, 0.3482275
32, 1414205849, -0.3219226002693176, -1.577691912651062, 5.586284637451172, -0.08760097, 0.015669856, 0.34109688
33, 1414222516, -0.3244236707687378, -1.5933279991149902, 5.593058109283447, -0.08773695, 0.0025536146, 0.3477955
34, 1414239183, -0.3276940584182739, -1.6079930067062378, 5.606258869171143, -0.1016985, 0.009630948, 0.34298897
35, 1414255850, -0.33004313707351685, -1.6225148439407349, 5.614959716796875, -0.10289718, 0.0077319085, 0.3316822
36, 1414272517, -0.3339531123638153, -1.6359542608261108, 5.621895790100098, -0.09595036, 0.0043814476, 0.35637856
37, 1414289184, -0.33716219663619995, -1.649956464767456, 5.620577812194824, -0.100923866, -0.005912452, 0.3266697
38, 1414305851, -0.3404947817325592, -1.6660264730453491, 5.624753952026367, -0.093368836, 0.010645042, 0.34178543
39, 1414322518, -0.34398353099823, -1.6816333532333374, 5.626731872558594, -0.10935991, 0.016629769, 0.3431244
40, 1414339185, -0.3464716970920563, -1.6959291696548462, 5.624022006988525, -0.120281875, 0.018402843, 0.32951164
41, 1414355852, -0.34980255365371704, -1.7107378244400024, 5.621430397033691, -0.11654309, 0.0143600525, 0.3439808
42, 1414372519, -0.3530005216598511, -1.7259306907653809, 5.6261515617370605, -0.120572545, 0.012685556, 0.35645294
43, 1414389186, -0.35435372591018677, -1.7409439086914062, 5.633453845977783, -0.102955654, 0.0072771, 0.35214043
44, 1414405853, -0.3574114143848419, -1.7565944194793701, 5.623823642730713, -0.116939165, 0.00533556, 0.3226509
45, 1414422520, -0.36176544427871704, -1.770890712738037, 5.638501167297363, -0.12230573, -0.0012473088, 0.33645725
46, 1414439187, -0.36478784680366516, -1.7870442867279053, 5.643355369567871, -0.13080233, 0.002287208, 0.35228825
47, 1414455854, -0.36851850152015686, -1.8016014099121094, 5.646015167236328, -0.120111085, 0.010714188, 0.34034824
48, 1414472521, -0.37173914909362793, -1.8162578344345093, 5.647626876831055, -0.13305138, 0.018352345, 0.33436108
49, 1414489188, -0.3744579255580902, -1.8316947221755981, 5.663848400115967, -0.12312197, 5.0860725E-4, 0.33402538
50, 1414505855, -0.37731748819351196, -1.8476864099502563, 5.6609673500061035, -0.12906535, 0.021967672, 0.33958626
51, 1414522522, -0.38051140308380127, -1.863107442855835, 5.67072868347168, -0.13295317, 0.015601152, 0.3657627
52, 1414539189, -0.38253071904182434, -1.8786016702651978, 5.6628828048706055, -0.1289647, 0.024688369, 0.32658482
53, 1414555856, -0.38439127802848816, -1.8915287256240845, 5.671545505523682, -0.13688233, 0.011242156, 0.36150074
54, 1414572523, -0.3863079845905304, -1.9072859287261963, 5.670707702636719, -0.14910945, 0.01618972, 0.32876778
55, 1414589190, -0.389064759016037, -1.9219563007354736, 5.68363618850708, -0.14025609, 0.015503784, 0.32514858
56, 1414605857, -0.39039281010627747, -1.9368162155151367, 5.6963582038879395, -0.14900807, 0.0062843724, 0.34173012
57, 1414622524, -0.3940960168838501, -1.9496501684188843, 5.706476211547852, -0.16604875, 0.0034461298, 0.34719753
58, 1414639191, -0.3959336280822754, -1.9634143114089966, 5.699918746948242, -0.14843607, 7.8064867E-4, 0.3470087
59, 1414655858, -0.39827072620391846, -1.9786945581436157, 5.705438613891602, -0.16253625, 0.008704209, 0.3166113
60, 1414672525, -0.4009758234024048, -1.9928170442581177, 5.7039642333984375, -0.17227368, 0.020831177, 0.3409319
61, 1414689192, -0.4019629955291748, -2.0058023929595947, 5.692107200622559, -0.16464975, 0.009140961, 0.3477354
62, 1414705859, -0.404557466506958, -2.0197811126708984, 5.6857686042785645, -0.16383676, 0.02401727, 0.32841587
63, 1414722526, -0.40767502784729004, -2.0342891216278076, 5.697254657745361, -0.16027166, 0.014667849, 0.34544277
64, 1414739193, -0.41151759028434753, -2.0479698181152344, 5.700179576873779, -0.17031994, 0.024044188, 0.32615948
65, 1414755860, -0.41389748454093933, -2.063070058822632, 5.7010955810546875, -0.176317, 0.025928624, 0.35236835
66, 1414772527, -0.4160325825214386, -2.077801465988159, 5.683282852172852, -0.17300943, 0.017021863, 0.31856155
67, 1414789194, -0.41827428340911865, -2.0905680656433105, 5.677106857299805, -0.1822413, 0.021382151, 0.33969212
68, 1414805861, -0.420799195766449, -2.105058431625366, 5.662875652313232, -0.17854287, 0.0132256, 0.3410635
69, 1414822528, -0.4240129888057709, -2.1171140670776367, 5.663554668426514, -0.18646768, 0.02184762, 0.3421526
70, 1414839195, -0.42528799176216125, -2.1306021213531494, 5.664678573608398, -0.1843241, 0.024734994, 0.34327793
71, 1414855862, -0.4273938238620758, -2.143138885498047, 5.679332256317139, -0.18701328, 0.018755246, 0.36270142
72, 1414872529, -0.4308583736419678, -2.15606427192688, 5.685304164886475, -0.19464329, 0.010412481, 0.3324213
73, 1414889196, -0.4330460727214813, -2.1694300174713135, 5.682505130767822, -0.18590017, 0.016500065, 0.33259678
74, 1414905863, -0.43561533093452454, -2.1822400093078613, 5.680042266845703, -0.19555049, 0.027518597, 0.34368324
75, 1414922530, -0.438730388879776, -2.193568706512451, 5.676314830780029, -0.20255847, 0.017941274, 0.34904385
76, 1414939197, -0.441963255405426, -2.207353353500366, 5.685421943664551, -0.19111891, 0.018603813, 0.34166145
77, 1414955864, -0.444374680519104, -2.2209134101867676, 5.679503917694092, -0.19461831, 0.027071085, 0.35331345
78, 1414972531, -0.44706282019615173, -2.2339894771575928, 5.676886558532715, -0.20624214, 0.01633162, 0.33440495
79, 1414989198, -0.4489150941371918, -2.2480030059814453, 5.660867691040039, -0.2189345, 0.01864579, 0.34101868
80, 1415005865, -0.45076894760131836, -2.2603626251220703, 5.660313129425049, -0.20755246, 0.02648165, 0.32874298
81, 1415022532, -0.45343685150146484, -2.273529052734375, 5.678455352783203, -0.19703127, 0.019083561, 0.33886623
82, 1415039199, -0.45424291491508484, -2.286700487136841, 5.690765380859375, -0.19752048, 0.014582691, 0.34082222
83, 1415055866, -0.45648193359375, -2.2980523109436035, 5.689864158630371, -0.22258633, 0.015235373, 0.32669544
84, 1415072533, -0.45907002687454224, -2.310839891433716, 5.687604904174805, -0.22519648, 0.015027832, 0.34223747
85, 1415089200, -0.4615708887577057, -2.3224480152130127, 5.671778678894043, -0.21759939, 0.020972114, 0.3514433
86, 1415105867, -0.4648081958293915, -2.3337981700897217, 5.673793315887451, -0.22764015, 0.017040068, 0.34661007
87, 1415122534, -0.4673157334327698, -2.346949338912964, 5.66859769821167, -0.22800535, 0.027907394, 0.33316994
88, 1415139201, -0.46878790855407715, -2.360208034515381, 5.660340785980225, -0.23460856, 0.024826286, 0.33608723
89, 1415155868, -0.47164925932884216, -2.3712990283966064, 5.6390557289123535, -0.22133891, 0.035061613, 0.3534317
90, 1415172535, -0.4751560389995575, -2.3840746879577637, 5.652918815612793, -0.2385205, 0.023293303, 0.3521967
91, 1415189202, -0.4769662022590637, -2.3953378200531006, 5.648746490478516, -0.2316838, 0.025622163, 0.34732056
92, 1415205869, -0.4788360595703125, -2.406839370727539, 5.655211925506592, -0.24288873, 0.03445087, 0.35372734
93, 1415222536, -0.48066720366477966, -2.417956590652466, 5.66426944732666, -0.24307774, 0.02498383, 0.3379221
94, 1415239203, -0.48177358508110046, -2.4289419651031494, 5.674257278442383, -0.24551675, 0.004855924, 0.33660412
95, 1415255870, -0.4834340214729309, -2.4401068687438965, 5.676294326782227, -0.24437685, 0.028836468, 0.34292507
96, 1415272537, -0.48459723591804504, -2.4518985748291016, 5.673316955566406, -0.23911335, 0.021383297, 0.32669353
97, 1415289204, -0.48670727014541626, -2.4614200592041016, 5.6758599281311035, -0.25732586, 0.009774766, 0.3408575
98, 1415305871, -0.4884345829486847, -2.4719796180725098, 5.672628879547119, -0.24138421, 0.019235186, 0.33119774
99, 1415322538, -0.4903104603290558, -2.4807982444763184, 5.6722025871276855, -0.25620732, 0.0101704225, 0.3679514
100, 1415339205, -0.4928523302078247, -2.491096258163452, 5.676063537597656, -0.24969158, 3.957332E-4, 0.3525629
101, 1415355872, -0.4940985441207886, -2.500641345977783, 5.67863130569458, -0.24699637, 0.016904602, 0.34020042
102, 1415372539, -0.49461379647254944, -2.5095505714416504, 5.684147357940674, -0.2512074, 0.029463565, 0.35342598
103, 1415389206, -0.49453383684158325, -2.5186119079589844, 5.679042339324951, -0.2534261, 0.008967933, 0.36119556
104, 1415405873, -0.49691489338874817, -2.5283050537109375, 5.669984340667725, -0.25938812, 0.02095006, 0.3402052
105, 1415422540, -0.49891918897628784, -2.5356826782226562, 5.665279388427734, -0.26506242, 0.016259773, 0.35101414
106, 1415439207, -0.5019652843475342, -2.5448360443115234, 5.6506476402282715, -0.2640507, 0.01981184, 0.36011887
107, 1415455874, -0.5026239156723022, -2.5538406372070312, 5.6410603523254395, -0.2661581, 0.019882292, 0.35044956
108, 1415472541, -0.5030352473258972, -2.5637991428375244, 5.644325256347656, -0.26413998, 0.02801725, 0.34078407
109, 1415489208, -0.504663348197937, -2.5720372200012207, 5.6504926681518555, -0.26781064, 0.01334563, 0.33751202
110, 1415505875, -0.5058463215827942, -2.580014705657959, 5.655731678009033, -0.2671219, 0.022864416, 0.3524294
111, 1415522542, -0.5082708597183228, -2.5872809886932373, 5.642899990081787, -0.27865, 0.019299995, 0.34741783
112, 1415539209, -0.5098323225975037, -2.595489740371704, 5.655405521392822, -0.26761192, 0.029900076, 0.33307457
113, 1415555876, -0.5105844736099243, -2.6029574871063232, 5.636613368988037, -0.28180805, 0.01998595, 0.34482288
114, 1415572543, -0.5126799941062927, -2.609844446182251, 5.635368824005127, -0.26826504, 0.016069913, 0.33319187
115, 1415589210, -0.5143608450889587, -2.615387201309204, 5.637142658233643, -0.27158618, 0.019313902, 0.3408432
116, 1415605877, -0.5155462622642517, -2.6223225593566895, 5.634344100952148, -0.28289628, 0.030274775, 0.3290243
117, 1415622544, -0.5170947313308716, -2.6275076866149902, 5.634994029998779, -0.26181954, 0.019706307, 0.34270382
118, 1415639211, -0.5186506509780884, -2.6364853382110596, 5.6323957443237305, -0.26630202, 0.009271882, 0.33113384
119, 1415655878, -0.5201776623725891, -2.643085241317749, 5.62856388092041, -0.27009055, 0.016209574, 0.32657814
120, 1415672545, -0.22555136680603027, -1.0601264238357544, 5.415034294128418, -0.0034861804, 4.6050653E-5, 0.38340473
121, 1415689212, -0.22509409487247467, -1.0601145029067993, 5.412100791931152, -3.3797254E-4, 0.013932628, 0.32999706
122, 1415705879, -0.22602859139442444, -1.0602980852127075, 5.4110212326049805, 0.008127322, 4.3703418E-4, 0.3354349
123, 1415722546, -0.22719153761863708, -1.0617533922195435, 5.4109625816345215, 0.011607259, -0.0029092883, 0.34860802
124, 1415739213, -0.22684317827224731, -1.0617635250091553, 5.4105448722839355, 0.0123074055, 6.3640776E-4, 0.3520956
125, 1415755880, -0.22680217027664185, -1.061702013015747, 5.407961845397949, 0.0038261367, -0.0019855145, 0.33022976
126, 1415772547, -0.2262488752603531, -1.0632050037384033, 5.406929016113281, 0.002779719, 0.0139556, 0.3476143
127, 1415789214, -0.22560350596904755, -1.0631593465805054, 5.405817985534668, -0.0036711164, -0.012427271, 0.34948254
128, 1415805881, -0.22626426815986633, -1.0634201765060425, 5.403140544891357, 0.0015720644, -0.0045737, 0.33404827
129, 1415822548, -0.22596344351768494, -1.063676118850708, 5.403446197509766, 0.009987439, -0.0020164151, 0.35454845
130, 1415839215, -0.22586697340011597, -1.061600685119629, 5.40061092376709, -3.1943494E-4, 0.003998088, 0.3349619
131, 1415855882, -0.22610293328762054, -1.0605580806732178, 5.399801254272461, -2.2534297E-4, -0.0028475602, 0.35187626
132, 1415872549, -0.22655723989009857, -1.0608973503112793, 5.399869918823242, -0.007105777, -8.569731E-4, 0.3521328
133, 1415889216, -0.22647882997989655, -1.0620442628860474, 5.400287628173828, -9.055278E-4, -0.0022390638, 0.3536415
134, 1415905883, -0.22603483498096466, -1.0625112056732178, 5.398846626281738, -0.003185849, -8.035605E-4, 0.35400295
135, 1415922550, -0.22588713467121124, -1.0625070333480835, 5.397719383239746, 0.0025922754, 0.007415954, 0.33709145
136, 1415939217, -0.2251543551683426, -1.061286449432373, 5.398815631866455, -0.0035123175, -0.0057940776, 0.32930946
137, 1415955884, -0.225813627243042, -1.061137318611145, 5.400283336639404, 0.0068363883, -0.0045117033, 0.3558035
138, 1415972551, -0.22652803361415863, -1.061884880065918, 5.400501728057861, 0.007461107, 3.1709851E-4, 0.35121918
139, 1415989218, -0.22608231008052826, -1.0633759498596191, 5.39992618560791, 0.011549941, -0.0012319441, 0.33566284
140, 1416005885, -0.2257097065448761, -1.0632466077804565, 5.3992109298706055, 0.0053734053, -0.0013216845, 0.35423088
141, 1416022552, -0.22516882419586182, -1.0621064901351929, 5.394359111785889, 9.90784E-4, 0.0049669216, 0.34550285
142, 1416039219, -0.22527353465557098, -1.061580777168274, 5.389828681945801, -0.0012258079, 0.00885724, 0.3428583
143, 1416055886, -0.2263120710849762, -1.0599963665008545, 5.39271354675293, -0.007550861, -5.146525E-4, 0.3373928
144, 1416072553, -0.22651466727256775, -1.0600987672805786, 5.392156600952148, 0.013827867, 0.005787145, 0.32799911
145, 1416089220, -0.2261296957731247, -1.0605008602142334, 5.392495155334473, 0.010317596, 6.282146E-4, 0.3560629
146, 1416105887, -0.22508950531482697, -1.0603455305099487, 5.391052722930908, 0.0012654116, -0.012440956, 0.35193253
147, 1416122554, -0.22609035670757294, -1.0584726333618164, 5.389571189880371, 0.0033912363, -0.0011547989, 0.3524189
148, 1416139221, -0.22615103423595428, -1.0583544969558716, 5.3882737159729, 0.0071063917, 5.164197E-5, 0.33674145
149, 1416155888, -0.22669737040996552, -1.0600168704986572, 5.387609958648682, 0.011419075, 6.662956E-5, 0.3748579
150, 1416172555, -0.22625663876533508, -1.0607147216796875, 5.389198303222656, 0.0071896994, -0.0072355736, 0.36211586
151, 1416189222, -0.22663456201553345, -1.059194564819336, 5.391189098358154, -8.2777324E-4, -0.015048023, 0.34784126
152, 1416205889, -0.22581098973751068, -1.0600911378860474, 5.3881988525390625, -8.5750746E-4, -0.0060536494, 0.36839294
153, 1416222556, -0.2262275069952011, -1.0586045980453491, 5.387729167938232, -0.0019888182, 0.014101748, 0.343503
154, 1416239223, -0.22569802403450012, -1.058289885520935, 5.389955520629883, -0.003981436, 0.009250957, 0.3484516
155, 1416255890, -0.22392643988132477, -1.0582263469696045, 5.389355659484863, 0.0053345487, 0.012034105, 0.3400154
156, 1416272557, -0.22485338151454926, -1.0574283599853516, 5.387954235076904, 0.0052723773, -0.0038863576, 0.34318638
157, 1416289224, -0.22613035142421722, -1.0579129457473755, 5.38758659362793, -0.0021466953, 4.0573714E-4, 0.3710451
158, 1416305891, -0.22610796988010406, -1.0585627555847168, 5.390500545501709, -0.0019469794, -0.005914369, 0.3401146
159, 1416322558, -0.22476252913475037, -1.0577428340911865, 5.389604568481445, 0.008055379, 0.0151952505, 0.339406
160, 1416339225, -0.22460855543613434, -1.0591599941253662, 5.387447834014893, -0.010135272, -0.017675575, 0.3597021
161, 1416355892, -0.22341960668563843, -1.0603387355804443, 5.388021469116211, 0.0020258375, -0.008515566, 0.36190128
162, 1416372559, -0.22409282624721527, -1.0591778755187988, 5.3889641761779785, 0.012770091, -0.01164796, 0.34626484
163, 1416389226, -0.22120536863803864, -1.0559468269348145, 5.388020992279053, 0.009424047, -0.0050967764, 0.3216362
164, 1416405893, -0.22156669199466705, -1.055416464805603, 5.388632774353027, -0.0046123713, -2.3137084E-4, 0.340621
165, 1416422560, -0.221432164311409, -1.0559788942337036, 5.391513824462891, 0.006385381, 0.008376824, 0.33772755
166, 1416439227, -0.2209639549255371, -1.057447910308838, 5.39117956161499, 0.0027958816, -8.39705E-4, 0.3610525
167, 1416455894, -0.22054342925548553, -1.0559628009796143, 5.391294002532959, 0.007123023, 6.517131E-4, 0.35531998
168, 1416472561, -0.22036738693714142, -1.0559784173965454, 5.389092922210693, -0.016489124, -0.0048048072, 0.36427116
169, 1416489228, -0.2199920117855072, -1.0577844381332397, 5.3866095542907715, 0.006083722, 0.0036012705, 0.3498497
170, 1416505895, -0.22058764100074768, -1.0570321083068848, 5.385060787200928, -0.0043585305, 0.008602379, 0.32732296
171, 1416522562, -0.2192293256521225, -1.0588876008987427, 5.384781837463379, -4.0992277E-4, -1.38709E-4, 0.35300446
172, 1416539229, -0.2191193848848343, -1.0604689121246338, 5.384210109710693, -0.0010247021, -0.0070656464, 0.35683823
173, 1416555896, -0.2191624641418457, -1.0603134632110596, 5.384255886077881, 0.005112426, 0.0067280997, 0.3704443
174, 1416572563, -0.2198846936225891, -1.0617998838424683, 5.38413667678833, 0.022058723, -0.009487729, 0.373559
175, 1416589230, -0.2216498851776123, -1.0602151155471802, 5.38433837890625, 0.014444636, 0.01396269, 0.35020638
176, 1416605897, -0.2211468666791916, -1.0599435567855835, 5.388740539550781, -0.00278333, 0.0020336858, 0.36077118
177, 1416622564, -0.22056864202022552, -1.0590063333511353, 5.389740943908691, -0.006329552, 0.012394943, 0.3380556
178, 1416639231, -0.23072069883346558, -1.0344197750091553, 5.404045581817627, 0.068826005, 0.17134927, 0.22364807
179, 1416655898, -0.14492495357990265, -0.8636999130249023, 5.539539337158203, -0.7662139, 1.7806872, 0.2753296
180, 1416672565, 0.17066286504268646, -0.6977538466453552, 5.867779731750488, -0.6733256, 1.918961, 0.51813126
181, 1416689232, -0.06360737234354019, -0.7517767548561096, 6.665040016174316, -0.4251789, 1.7023547, 0.3412304
182, 1416705899, -0.26253506541252136, -0.6787232160568237, 7.262179851531982, -0.1978932, -2.175072, 0.12577724
183, 1416722566, -0.20802274346351624, -0.6557709574699402, 7.367518424987793, 2.0015697, -3.1571393, 0.64323044
184, 1416739233, -0.2851519286632538, -0.638625979423523, 7.393204212188721, 0.09557249, -0.07201118, 0.27307796
185, 1416755900, -0.30585479736328125, -0.6084309220314026, 7.5780930519104, -0.082431115, 0.8804833, 0.37171078
186, 1416772567, -0.4421917796134949, -0.6412550210952759, 7.824648380279541, 0.064327404, -0.9319207, 0.375144
187, 1416789234, -0.5017684102058411, -0.6404580473899841, 7.9065399169921875, 0.09458521, 0.054221325, 0.3228197
188, 1416805901, -0.5347703099250793, -0.6513035893440247, 8.198774337768555, 0.10096491, 0.122681625, 0.35435486
189, 1416822568, -0.5972412824630737, -0.6571449637413025, 8.788293838500977, 0.07423566, 0.14795814, 0.34062386
190, 1416839235, -0.6423235535621643, -0.6713383793830872, 9.455512046813965, -0.11403547, 0.057407696, 0.3510151
191, 1416855902, -0.6901547908782959, -0.674811840057373, 10.284244537353516, -0.026936283, 0.13451472, 0.31772232
192, 1416872569, -0.715708315372467, -0.6697500944137573, 11.0841703414917, -0.10010514, 2.467583E-4, 0.35128498
193, 1416889236, -0.7230197787284851, -0.6679370403289795, 11.536418914794922, -0.10981655, -0.30012795, 0.33226585
194, 1416905903, -0.7132841348648071, -0.6674420237541199, 11.875839233398438, -0.033007745, -0.026212722, 0.35093307
195, 1416922570, -0.6995683312416077, -0.662118136882782, 12.183937072753906, 0.006807967, 0.018285444, 0.3381176
196, 1416939237, -0.6979463696479797, -0.6551018357276917, 12.583069801330566, 0.05617654, 0.098177366, 0.35208035
197, 1416955904, -0.7026017308235168, -0.6480268836021423, 13.048576354980469, 0.021359017, 0.065386206, 0.32934284
198, 1416972571, -0.7097165584564209, -0.6516817212104797, 13.524949073791504, 0.0021810604, 0.011876025, 0.36020088
199, 1416989238, -0.7187445163726807, -0.6641588807106018, 13.939661979675293, 0.014197089, 0.021288607, 0.34439087
200, 1417005905, -0.7263290882110596, -0.6674267649650574, 14.310690879821777, 0.03271624, -0.0060334597, 0.34104156
201, 1417022572, -0.7302851676940918, -0.6612284183502197, 14.65305233001709, 0.052576073, 0.03958952, 0.35203743
202, 1417039239, -0.7329281568527222, -0.6608738303184509, 15.000139236450195, 0.004002216, 0.027103163, 0.35392666
203, 1417055906, -0.7285253405570984, -0.6718853712081909, 15.313738822937012, -0.017187595, -0.034850787, 0.3456602
204, 1417072573, -0.7230247259140015, -0.6857209801673889, 15.620878219604492, -0.17895317, 0.15936376, 0.36278343
205, 1417089240, -0.7386485934257507, -0.6873745322227478, 15.981300354003906, 0.116895966, 0.11225735, 0.32917118
206, 1417105907, -0.7516962885856628, -0.6979320645332336, 16.31731605529785, 0.113000944, -0.12195853, 0.35985088
207, 1417122574, -0.7543403506278992, -0.6927147507667542, 16.62376594543457, -0.05108502, 0.010199329, 0.33990955
208, 1417139241, -0.7661221027374268, -0.6942471861839294, 16.855348587036133, -0.0755176, 0.084079556, 0.3760929
209, 1417155908, -0.7947394251823425, -0.6923589110374451, 17.160737991333008, 0.027632516, 0.28056598, 0.35374546
210, 1417172575, -0.8152191638946533, -0.683198869228363, 17.530227661132812, -0.050842676, 0.16656594, 0.33196926
211, 1417189242, -0.8153407573699951, -0.6633538007736206, 17.88765525817871, -0.16278586, 0.4477391, 0.29198837
212, 1417205909, -0.8068649172782898, -0.6492097973823547, 18.180152893066406, 0.17883916, -0.19415677, 0.3903885
213, 1417222576, -0.8029066920280457, -0.6396890878677368, 18.43431854248047, 0.3824805, -0.55355316, 0.35103512
214, 1417239243, -0.8003903031349182, -0.6358786821365356, 18.643848419189453, 0.017556448, 0.011908002, 0.33238125
215, 1417255910, -0.8002271056175232, -0.6292119026184082, 18.84443473815918, -0.04142308, 0.15722977, 0.3555727
216, 1417272577, -0.7864603996276855, -0.6211504340171814, 19.062408447265625, -0.17219885, 0.31628132, 0.32191563
217, 1417289244, -0.7652139067649841, -0.6128486394882202, 19.20181655883789, 0.014123553, -0.18457454, 0.35686302
218, 1417305911, -0.7599896788597107, -0.6129964590072632, 19.319265365600586, 0.19599968, -0.30455178, 0.36283588
219, 1417322578, -0.7668763399124146, -0.6083173751831055, 19.4455623626709, 0.01162581, 0.1512675, 0.3520975
220, 1417339245, -0.7783182263374329, -0.603607177734375, 19.59535789489746, 0.08082725, -0.011021123, 0.35117054
221, 1417355912, -0.784890353679657, -0.5990248918533325, 19.78232192993164, 0.01140514, 0.105469935, 0.3429985
222, 1417372579, -0.7880945801734924, -0.5917189121246338, 20.014265060424805, 0.06520537, 0.049468726, 0.32535172
223, 1417389246, -0.7825753688812256, -0.5841729044914246, 20.295557022094727, -0.08775053, 0.21611074, 0.3070259
224, 1417405913, -0.7643272876739502, -0.5756893157958984, 20.45224380493164, -0.0026017816, -0.108356886, 0.3592043
225, 1417422580, -0.7634215950965881, -0.566693127155304, 20.63076400756836, -0.046166558, 0.40058044, 0.3517151
226, 1417439247, -0.767963707447052, -0.5596812963485718, 20.817522048950195, 0.0024055303, 0.14488338, 0.3716612
227, 1417455914, -0.773449718952179, -0.5569443106651306, 21.037994384765625, 0.017891249, 0.023236997, 0.34664154
228, 1417472581, -0.7797360420227051, -0.5564166307449341, 21.256587982177734, 0.050021935, -0.12911575, 0.33178043
229, 1417489248, -0.8011911511421204, -0.5579469799995422, 21.541730880737305, 0.08752596, -0.11264556, 0.3580513
230, 1417505915, -0.8196285963058472, -0.5561370253562927, 21.83159637451172, 0.06474591, 0.025978522, 0.33806324
231, 1417522582, -0.8215793371200562, -0.5455465912818909, 22.067533493041992, 0.08790293, -0.2430937, 0.3428545
232, 1417539249, -0.8182518482208252, -0.5414078831672668, 22.212474822998047, 0.037732773, -0.16086264, 0.3276701
233, 1417555916, -0.8190871477127075, -0.5419331192970276, 22.33561134338379, 0.03530779, 0.0036913094, 0.35230827
234, 1417572583, -0.8277974128723145, -0.5481006503105164, 22.4762020111084, 0.022907794, 0.0775093, 0.3770237
235, 1417589250, -0.8375644683837891, -0.5602107644081116, 22.693620681762695, 0.037456714, 0.0058569545, 0.33095074
236, 1417605917, -0.8450499773025513, -0.5648730397224426, 23.036266326904297, -0.12053937, 0.32250842, 0.33190727
237, 1417622584, -0.8586239218711853, -0.5704813599586487, 23.393423080444336, 0.06989711, -0.111468755, 0.34960365
238, 1417639251, -0.8682487607002258, -0.5712840557098389, 23.726871490478516, 0.030689321, -0.019856738, 0.34150124
239, 1417655918, -0.8649667501449585, -0.5671078562736511, 23.943618774414062, 0.10401081, -0.20627531, 0.3417282
240, 1417672585, -0.8638341426849365, -0.5668976902961731, 24.07962989807129, 0.030600922, 0.049968284, 0.343297
241, 1417689252, -0.8628294467926025, -0.559532642364502, 24.233592987060547, 0.017583514, 0.046696346, 0.34121418
242, 1417705919, -0.863913357257843, -0.5533311367034912, 24.373577117919922, 0.011656809, 0.015152998, 0.345932
243, 1417722586, -0.8713673949241638, -0.5491575598716736, 24.512916564941406, 0.056115296, 0.06491589, 0.34428406
244, 1417739253, -0.8682641386985779, -0.5409307479858398, 24.670188903808594, 0.07224234, -0.11798834, 0.36324978
245, 1417755920, -0.8681529760360718, -0.5462945699691772, 24.75103187561035, 0.022562983, -0.004266548, 0.36531925
246, 1417772587, -0.8755014538764954, -0.5517624020576477, 24.843259811401367, 0.026027197, 0.09723549, 0.3668337
247, 1417789254, -0.8871690034866333, -0.5468083024024963, 25.02017593383789, 0.020852236, 0.14016643, 0.32525063
248, 1417805921, -0.8873266577720642, -0.5365979671478271, 25.171968460083008, 0.04906391, -0.06725165, 0.33081913
249, 1417822588, -0.881838858127594, -0.5294902324676514, 25.274070739746094, 0.0048215445, -0.011607454, 0.355052
250, 1417839255, -0.8782178163528442, -0.5283530354499817, 25.34296417236328, 0.02031128, 0.0463832, 0.342309
251, 1417855922, -0.8786089420318604, -0.529878556728363, 25.447725296020508, 0.029228356, 0.07894104, 0.3548317
252, 1417872589, -0.8922469019889832, -0.5327659845352173, 25.679729461669922, -0.002448277, 0.2996742, 0.3729248
253, 1417889256, -0.9091367125511169, -0.526292622089386, 26.039627075195312, 0.023747435, 0.04774703, 0.33809185
254, 1417905923, -0.9236305952072144, -0.5127180814743042, 26.42973518371582, 0.028415587, 0.08848688, 0.34069824
255, 1417922590, -0.9344115257263184, -0.5001834034919739, 26.78951072692871, 0.037320342, 0.020073209, 0.36561394
256, 1417939257, -0.9439042806625366, -0.48884570598602295, 27.097299575805664, 0.0524454, -0.03757996, 0.35019016
257, 1417955924, -0.9506500959396362, -0.48604458570480347, 27.351573944091797, 0.027991652, -0.018627604, 0.35197258
258, 1417972591, -0.9523173570632935, -0.4838230609893799, 27.575061798095703, 0.024003057, 0.047527976, 0.34840012
259, 1417989258, -0.9572018384933472, -0.48144200444221497, 27.852609634399414, 0.024931949, 0.19529721, 0.34020805
260, 1418005925, -0.9617000222206116, -0.47792044281959534, 28.207962036132812, 0.033717845, -0.001019219, 0.35503292
261, 1418022592, -0.9597805142402649, -0.47567909955978394, 28.46921730041504, 0.04033253, -0.16561384, 0.33251286
262, 1418039259, -0.9586774706840515, -0.475768506526947, 28.58987045288086, 0.02595612, -0.09052797, 0.36584854
263, 1418055926, -0.9594182372093201, -0.4765302836894989, 28.685258865356445, 0.004882892, 0.13537708, 0.3534956
264, 1418072593, -0.9645498394966125, -0.47377288341522217, 28.8299617767334, 0.01769733, 0.13926676, 0.33647156
265, 1418089260, -0.9755511283874512, -0.4684702455997467, 29.049470901489258, -0.016157947, 0.17128153, 0.34035397
266, 1418105927, -0.9820541143417358, -0.46078458428382874, 29.258180618286133, 0.043668814, -0.023869164, 0.3534546
267, 1418122594, -0.9864932894706726, -0.4616062343120575, 29.37199592590332, 0.08366729, -0.24424621, 0.36438274
268, 1418139261, -0.9833261370658875, -0.4672987759113312, 29.4232120513916, 0.014611685, 0.096772365, 0.34517002
269, 1418155928, -0.9852875471115112, -0.4679618179798126, 29.57465171813965, -1.1615689E-5, 0.22657172, 0.34624386
270, 1418172595, -0.9935720562934875, -0.46301019191741943, 29.8256778717041, -0.04142989, 0.25053453, 0.34078407
271, 1418189262, -1.0033711194992065, -0.45420828461647034, 30.125967025756836, -0.095367745, 0.18284266, 0.33574963
272, 1418205929, -1.003731369972229, -0.4493003487586975, 30.292844772338867, 0.06935338, -0.163832, 0.3294382
273, 1418222596, -0.9997625350952148, -0.4486980140209198, 30.43867301940918, -0.005870421, 0.13589105, 0.32746696
274, 1418239263, -0.9984340667724609, -0.44177037477493286, 30.62310218811035, 0.058799196, 0.046310376, 0.38746738
275, 1418255930, -1.003351092338562, -0.4399167597293854, 30.853809356689453, -0.038775004, 0.26380536, 0.35080147
276, 1418272597, -1.0150529146194458, -0.4356767535209656, 31.155122756958008, 6.4467423E-4, 0.17505568, 0.33315754
277, 1418289264, -1.0255779027938843, -0.43327516317367554, 31.49234962463379, -0.02513949, 0.0987193, 0.36345387
278, 1418305931, -1.0248538255691528, -0.4301685392856598, 31.767969131469727, 0.08735831, -0.26379076, 0.35553646
279, 1418322598, -1.0233947038650513, -0.4327479898929596, 31.954580307006836, 0.09259711, -0.19407809, 0.3477478
280, 1418339265, -1.0292184352874756, -0.43108323216438293, 32.11712646484375, 0.043795623, 0.07794995, 0.32789803
281, 1418355932, -1.03797447681427, -0.42093464732170105, 32.31943130493164, -0.03645865, 0.18093513, 0.32990456
282, 1418372599, -1.0388778448104858, -0.41389763355255127, 32.512916564941406, -0.035644155, 0.19602497, 0.3442173
283, 1418389266, -1.0360581874847412, -0.4112558662891388, 32.64864730834961, 0.032203574, -0.11958189, 0.333292
284, 1418405933, -1.035994052886963, -0.4132821559906006, 32.70289611816406, 0.13791029, -0.20390294, 0.38036537
285, 1418422600, -1.0464859008789062, -0.4216952919960022, 32.77906036376953, 0.060610216, 4.3267218E-4, 0.3574257
286, 1418439267, -1.0568974018096924, -0.4252256453037262, 32.90767288208008, 0.024190716, 0.087953165, 0.35280704
287, 1418455934, -1.0617666244506836, -0.42327889800071716, 33.084716796875, -0.007419226, 0.15603775, 0.35274506
288, 1418472601, -1.0688339471817017, -0.4171125590801239, 33.29210662841797, -0.016760947, 0.08170947, 0.35169315
289, 1418489268, -1.0710517168045044, -0.41427892446517944, 33.422157287597656, 0.098103315, -0.16259472, 0.35010433
290, 1418505935, -1.0686911344528198, -0.4189576804637909, 33.50588607788086, 0.012654955, 0.033257734, 0.31692123
291, 1418522602, -1.0742337703704834, -0.41852641105651855, 33.59932327270508, 0.0701004, 0.04416762, 0.3265772
292, 1418539269, -1.0840822458267212, -0.41738489270210266, 33.734256744384766, -0.041700833, 0.20057277, 0.35828495
293, 1418555936, -1.0971468687057495, -0.4124223589897156, 33.930152893066406, -0.12067772, 0.24262641, 0.34275246
294, 1418572603, -1.1059362888336182, -0.40427982807159424, 34.15326690673828, -0.02367562, 0.17527068, 0.3353119
295, 1418589270, -1.110678791999817, -0.39670175313949585, 34.37697982788086, 0.030592881, -0.01276305, 0.34326744
296, 1418605937, -1.120572805404663, -0.3928565979003906, 34.60210418701172, 0.07079644, 0.08909244, 0.36301327
297, 1418622604, -1.1372750997543335, -0.3840833008289337, 34.8638801574707, 0.05495693, 0.0795613, 0.34274387
298, 1418639271, -1.1541708707809448, -0.3770298659801483, 35.127193450927734, 0.010175022, 0.024192609, 0.3403778
299, 1418655938, -1.1616488695144653, -0.3726233243942261, 35.315608978271484, 0.052120224, -0.043176506, 0.3271284
300, 1418672605, -1.1610000133514404, -0.36973339319229126, 35.50496292114258, 0.11402984, -0.0037614226, 0.33221436
301, 1418689272, -1.157415747642517, -0.36035117506980896, 35.757816314697266, 0.10494282, -0.04295511, 0.36189938
302, 1418705939, -1.163561463356018, -0.3571191132068634, 36.00030517578125, 0.04294788, 0.005796983, 0.36966896
303, 1418722606, -1.175435185432434, -0.35202640295028687, 36.25816345214844, -0.047398772, 0.15504137, 0.36016178
304, 1418739273, -1.1791558265686035, -0.3469609320163727, 36.42763137817383, -0.059606485, 0.02929022, 0.33052635
305, 1418755940, -1.1852017641067505, -0.3434962332248688, 36.50589370727539, 0.08935177, -0.02746822, 0.35453987
306, 1418772607, -1.1958460807800293, -0.3425053060054779, 36.65159606933594, -0.04262335, 0.22794183, 0.3209219
307, 1418789274, -1.2065671682357788, -0.3391501009464264, 36.841251373291016, 0.07171981, 0.0056508197, 0.34680176
308, 1418805941, -1.2196931838989258, -0.33703887462615967, 37.06361389160156, 0.04055195, 0.04571581, 0.32448578
309, 1418822608, -1.2334765195846558, -0.3382408916950226, 37.32231903076172, 0.051644344, 0.10973678, 0.35896873
310, 1418839275, -1.2503986358642578, -0.3312070965766907, 37.69309616088867, 0.019813508, 0.15750232, 0.34010983
311, 1418855942, -1.2601361274719238, -0.3226538300514221, 38.031253814697266, -0.050408438, 0.026675392, 0.33664036
312, 1418872609, -1.2658485174179077, -0.31365686655044556, 38.25284957885742, 0.124359734, -0.11733539, 0.35254478
313, 1418889276, -1.270751953125, -0.30519890785217285, 38.51304626464844, 0.018443933, 0.20539944, 0.31245136
314, 1418905943, -1.2783504724502563, -0.2957667112350464, 38.874656677246094, 0.00850647, 0.2333822, 0.37879658
315, 1418922610, -1.2909698486328125, -0.2841050922870636, 39.276790618896484, 0.038979374, -0.0066264607, 0.3473568
316, 1418939277, -1.2962931394577026, -0.27611106634140015, 39.59197235107422, 0.06694048, -0.10130052, 0.3403015
317, 1418955944, -1.2982407808303833, -0.2687436044216156, 39.866546630859375, 0.040795553, 0.0858344, 0.342247
318, 1418972611, -1.304100513458252, -0.261530339717865, 40.12816619873047, 0.053242527, -0.06733878, 0.35586262
319, 1418989278, -1.3123496770858765, -0.2604295611381531, 40.37798309326172, -0.009112556, 0.07874275, 0.3365879
320, 1419005945, -1.3157590627670288, -0.255087673664093, 40.580867767333984, -0.091374286, 0.17030376, 0.3448286
321, 1419022612, -1.322852611541748, -0.24653252959251404, 40.8204231262207, 0.060935896, 0.17549427, 0.3426466
322, 1419039279, -1.3329696655273438, -0.24129751324653625, 41.10672378540039, 0.1445513, -0.120537184, 0.32878208
323, 1419055946, -1.3444968461990356, -0.24128292500972748, 41.41143035888672, 0.05841674, 0.018325135, 0.30850315
324, 1419072613, -1.3508387804031372, -0.23753508925437927, 41.72722625732422, 0.04832742, 0.02223949, 0.34349155
325, 1419089280, -1.354239821434021, -0.23023521900177002, 42.02467727661133, 0.043391585, 0.10778, 0.33946514
326, 1419105947, -1.3547425270080566, -0.22308258712291718, 42.276065826416016, 0.046978958, -0.063943185, 0.36204052
327, 1419122614, -1.3481053113937378, -0.22009316086769104, 42.42732238769531, 0.04230538, -0.12684949, 0.33040714
328, 1419139281, -1.3423229455947876, -0.22129447758197784, 42.48406219482422, 0.023894701, 0.08856284, 0.3365326
329, 1419155948, -1.3546158075332642, -0.2165759950876236, 42.634517669677734, -0.029603262, 0.21589257, 0.3337593
330, 1419172615, -1.3663554191589355, -0.21303270757198334, 42.866477966308594, -0.023922151, 0.23768675, 0.34274387
331, 1419189282, -1.3777929544448853, -0.20363076031208038, 43.19559097290039, -0.049847387, 0.18095085, 0.34304428
332, 1419205949, -1.3827660083770752, -0.19433580338954926, 43.46303939819336, -0.010163351, -0.083860025, 0.340909
333, 1419222616, -1.3831651210784912, -0.190359964966774, 43.59037399291992, 0.016297633, -0.011849686, 0.36079025
334, 1419239283, -1.3904879093170166, -0.1881675273180008, 43.713035583496094, -0.020507082, 0.19911756, 0.34493828
335, 1419255950, -1.4059703350067139, -0.1802390217781067, 43.972572326660156, -0.07154053, 0.42781135, 0.3700447
336, 1419272617, -1.4233349561691284, -0.16788090765476227, 44.406734466552734, 0.013808285, 0.33147526, 0.35604
337, 1419289284, -1.4350502490997314, -0.15625491738319397, 44.87322998046875, -0.027683675, 0.05137938, 0.33689976
338, 1419305951, -1.442462682723999, -0.1473870575428009, 45.190067291259766, 0.04515423, -0.15888584, 0.36338615
339, 1419322618, -1.4445371627807617, -0.14214101433753967, 45.40230941772461, -0.020746434, 0.09078738, 0.32271576
340, 1419339285, -1.445386528968811, -0.13895964622497559, 45.58805465698242, 0.0024201318, 0.16215974, 0.36570072
341, 1419355952, -1.4530353546142578, -0.13074567914009094, 45.85533142089844, 0.027029753, 0.18760742, 0.32972527
342, 1419372619, -1.4636939764022827, -0.12261276692152023, 46.26111602783203, 0.01881526, 0.33013237, 0.33467388
343, 1419389286, -1.4656182527542114, -0.1141594797372818, 46.679412841796875, 0.08602515, -0.03980956, 0.33433056
344, 1419405953, -1.4742317199707031, -0.11050448566675186, 47.03009033203125, 0.13665421, -0.25894755, 0.3652544
345, 1419422620, -1.4828804731369019, -0.10724534094333649, 47.38391876220703, -0.009066171, 0.13198756, 0.3505602
346, 1419439287, -1.486163854598999, -0.09859683364629745, 47.774532318115234, -0.15704873, 0.31775528, 0.32141685
347, 1419455954, -1.4763264656066895, -0.08822697401046753, 48.08195877075195, -0.14471835, 0.32928383, 0.33502102
348, 1419472621, -1.466775894165039, -0.07964658737182617, 48.44035720825195, -0.0911199, 0.51947796, 0.36673546
349, 1419489288, -1.4582136869430542, -0.07492213696241379, 48.89455032348633, 0.03748278, 0.07198666, 0.32788086
350, 1419505955, -1.4595205783843994, -0.06536983698606491, 49.449615478515625, 0.079178624, -0.09378678, 0.3430071
351, 1419522622, -1.463724970817566, -0.05548766255378723, 50.029483795166016, -0.12049526, 0.32100955, 0.33375835
352, 1419539289, -1.4637943506240845, -0.04350537806749344, 50.60096740722656, -0.29235712, 0.59342563, 0.35165024
353, 1419555956, -1.4559516906738281, -0.03566538169980049, 51.13645553588867, -0.12435616, 0.29544958, 0.34855938
354, 1419572623, -1.4387542009353638, -0.025884604081511497, 51.60269546508789, 0.06596251, -0.27260283, 0.34134293
355, 1419589290, -1.4245718717575073, -0.020431339740753174, 51.852298736572266, -0.070995085, -0.12727773, 0.34521866
356, 1419605957, -1.4099326133728027, -0.020371681079268456, 52.05048370361328, -0.05884867, 0.19972917, 0.34555626
357, 1419622624, -1.3924403190612793, -0.014509405009448528, 52.350650787353516, 0.071720995, 0.15986618, 0.34374714
358, 1419639291, -1.3877143859863281, -0.010175220668315887, 52.76365661621094, -0.0055036643, 0.002868649, 0.35399437
359, 1419655958, -1.384284257888794, -0.005544512998312712, 53.1926155090332, -0.03711277, 0.091235355, 0.34849834
360, 1419672625, -1.3707228899002075, -0.0014080328401178122, 53.51467514038086, -9.47206E-5, -0.04900004, 0.3585739
361, 1419689292, -1.3501907587051392, 8.81361193023622E-4, 53.669464111328125, 0.0756967, -0.11710026, 0.35424805
362, 1419705959, -1.342004418373108, 0.0021763225086033344, 53.83807373046875, 0.04162373, 0.085696205, 0.36591148
363, 1419722626, -1.33892023563385, 0.01049522589892149, 54.14488983154297, -0.086361915, 0.21248545, 0.35695457
364, 1419739293, -1.329406499862671, 0.016097689047455788, 54.456886291503906, -0.052202493, 0.38482258, 0.33324337
365, 1419755960, -1.3235530853271484, 0.02023657225072384, 54.79608154296875, 0.0789993, 0.18957442, 0.3683071
366, 1419772627, -1.3184465169906616, 0.02206972800195217, 55.07169723510742, 0.2773393, -0.35071275, 0.3636446
367, 1419789294, -1.3225054740905762, 0.02196674235165119, 55.2801628112793, 0.19641714, -0.25134903, 0.37587357
368, 1419805961, -1.3313320875167847, 0.024824324995279312, 55.549251556396484, -0.08933234, 0.39269558, 0.3421135
369, 1419822628, -1.3313789367675781, 0.030364779755473137, 55.883052825927734, -0.19923322, 0.5825754, 0.36612225
370, 1419839295, -1.3279539346694946, 0.03366120532155037, 56.2364387512207, -0.11476272, 0.3724569, 0.35188484
371, 1419855962, -1.3272993564605713, 0.03739592805504799, 56.59091567993164, 0.052118152, 0.1797601, 0.3413477
372, 1419872629, -1.336159348487854, 0.0411439947783947, 56.94572830200195, 0.10020555, -0.041833542, 0.37761974
373, 1419889296, -1.354097604751587, 0.03911836817860603, 57.2469482421875, 0.09423668, -0.26608843, 0.34090424
374, 1419905963, -1.3738056421279907, 0.04529830068349838, 57.62670135498047, -0.25552592, 0.290069, 0.32222366
375, 1419922630, -1.3732883930206299, 0.05295500159263611, 58.077659606933594, -0.3028915, 0.6874665, 0.33595943
376, 1419939297, -1.3627926111221313, 0.06016015261411667, 58.569889068603516, -0.0037053733, 0.18317606, 0.32221794
377, 1419955964, -1.3571560382843018, 0.0652964636683464, 58.97787094116211, 0.11375484, -0.2088302, 0.37978363
378, 1419972631, -1.3517729043960571, 0.06847485899925232, 59.27957534790039, 0.111049816, -0.36721385, 0.3657856
379, 1419989298, -1.3500171899795532, 0.07143889367580414, 59.496742248535156, -0.023945477, -0.18624912, 0.34557724
380, 1420005965, -1.338869333267212, 0.08135015517473221, 59.716468811035156, -0.20233046, 0.26103985, 0.30866146
381, 1420022632, -1.3270493745803833, 0.09749945253133774, 60.02008819580078, -0.21373251, 0.44750386, 0.34078312
382, 1420039299, -1.328912615776062, 0.11548689752817154, 60.35767364501953, 0.2491525, -0.08857218, 0.32821083
383, 1420055966, -1.3357195854187012, 0.12998458743095398, 60.61847686767578, 0.42763144, -0.5546925, 0.35104084
384, 1420072633, -1.3384003639221191, 0.1362660974264145, 60.80159378051758, 0.14615954, -0.18860823, 0.3567667
385, 1420089300, -1.3396211862564087, 0.14820031821727753, 61.00033950805664, -0.1136293, 0.25410175, 0.32762337
386, 1420105967, -1.3463964462280273, 0.16404666006565094, 61.23591995239258, 0.06878001, 0.19748572, 0.34893417
387, 1420122634, -1.3492729663848877, 0.18235835433006287, 61.5128059387207, 0.04074005, 0.27411014, 0.3266487
388, 1420139301, -1.3595538139343262, 0.20239584147930145, 61.81344985961914, 0.22105888, -0.09031002, 0.3892994
389, 1420155968, -1.367356300354004, 0.21402603387832642, 62.05481719970703, 0.14239496, -0.02959913, 0.3478651
390, 1420172635, -1.3763952255249023, 0.22069784998893738, 62.26560974121094, 0.120586835, -0.039045688, 0.36288166
391, 1420189302, -1.386836051940918, 0.22876739501953125, 62.47003173828125, -0.0561299, 0.11510219, 0.349432
392, 1420205969, -1.3987054824829102, 0.2344553917646408, 62.6991081237793, 0.0886426, 0.12298468, 0.3444376
393, 1420222636, -1.4093339443206787, 0.23900726437568665, 63.018699645996094, -0.10463656, 0.2647003, 0.3417244
394, 1420239303, -1.41427743434906, 0.2422836422920227, 63.31571960449219, 0.079809524, 0.04424682, 0.37500763
395, 1420255970, -1.4196813106536865, 0.24408212304115295, 63.58087158203125, 0.16008742, -0.20329446, 0.3447628
396, 1420272637, -1.4264612197875977, 0.24156709015369415, 63.79166030883789, 0.045030985, -0.06401365, 0.3520422
397, 1420289304, -1.4488537311553955, 0.23353257775306702, 64.00936126708984, -0.027076975, 0.1482536, 0.3231001
398, 1420305971, -1.4657212495803833, 0.22944363951683044, 64.25639343261719, -0.40511444, 0.53970456, 0.3430252
399, 1420322638, -1.4695953130722046, 0.231663316488266, 64.54550170898438, -0.12089509, 0.39007446, 0.34268188
400, 1420339305, -1.4680945873260498, 0.23098672926425934, 64.8236312866211, 0.2330396, -0.13247588, 0.34255314
401, 1420355972, -1.4564608335494995, 0.23188665509223938, 65.0283432006836, 0.23581718, -0.24943699, 0.34768105
402, 1420372639, -1.4448884725570679, 0.23336777091026306, 65.2278823852539, 0.013023468, 0.1109394, 0.34499073
403, 1420389306, -1.448291301727295, 0.23356576263904572, 65.43907165527344, -0.0055125384, 0.09296244, 0.36044025
404, 1420405973, -1.4526441097259521, 0.23121877014636993, 65.6518783569336, 0.019258093, 0.05188438, 0.35895157
405, 1420422640, -1.4513593912124634, 0.23110702633857727, 65.8440933227539, -0.053899843, 0.18192148, 0.3288679
406, 1420439307, -1.4426896572113037, 0.2325124442577362, 65.98942565917969, 0.18166503, 0.00549925, 0.34223938
407, 1420455974, -1.4435169696807861, 0.23190699517726898, 66.17852020263672, 0.0054579456, 0.1648686, 0.34911823
408, 1420472641, -1.4441152811050415, 0.2328883558511734, 66.42813110351562, -0.16854568, 0.28318715, 0.32866955
409, 1420489308, -1.4427766799926758, 0.23718662559986115, 66.7325210571289, -0.14866154, 0.31215137, 0.35176277
410, 1420505975, -1.4382845163345337, 0.2428472489118576, 67.01799011230469, 0.09979659, 0.07276381, 0.355999
411, 1420522642, -1.4344534873962402, 0.24694429337978363, 67.24684143066406, 0.11366701, 0.056607995, 0.34547043
412, 1420539309, -1.428210973739624, 0.2517542839050293, 67.46402740478516, 0.029507035, 0.2865542, 0.3466568
413, 1420555976, -1.4250808954238892, 0.25521141290664673, 67.72271728515625, -0.18011902, 0.5051608, 0.323164
414, 1420572643, -1.425234317779541, 0.25911030173301697, 68.10533905029297, -0.31086114, 0.5270782, 0.3265829
415, 1420589310, -1.419986367225647, 0.267101913690567, 68.56759643554688, -0.05972033, 0.1835145, 0.33020687
416, 1420605977, -1.407716989517212, 0.27321869134902954, 68.92015838623047, 0.46212658, -0.5466642, 0.3683157
417, 1420622644, -1.403470516204834, 0.2750758230686188, 69.16497039794922, 0.2581705, -0.2101577, 0.3510561
418, 1420639311, -1.3962006568908691, 0.28108125925064087, 69.39035034179688, -0.1285809, 0.35136592, 0.35212803
419, 1420655978, -1.395358920097351, 0.2880651354789734, 69.64490509033203, -0.12502183, 0.22122148, 0.33426666
420, 1420672645, -1.386948823928833, 0.29517826437950134, 69.95108795166016, -0.07206513, 0.104037315, 0.36455154
421, 1420689312, -1.3732354640960693, 0.29886043071746826, 70.22388458251953, 0.114361174, -0.119167805, 0.35381126
422, 1420705979, -1.366807460784912, 0.3057977855205536, 70.4624252319336, 0.2872679, -0.23817283, 0.33146667
423, 1420722646, -1.361026644706726, 0.31032395362854004, 70.61617279052734, 0.1426045, -0.107166044, 0.36659145
424, 1420739313, -1.3640092611312866, 0.31566399335861206, 70.77177429199219, -0.17905505, 0.19999051, 0.35126972
425, 1420755980, -1.3607889413833618, 0.3248355984687805, 70.97213745117188, -0.49149677, 0.5538773, 0.3257532
426, 1420772647, -1.3505500555038452, 0.33357328176498413, 71.2197036743164, 0.057907097, 0.16070446, 0.33950424
427, 1420789314, -1.3406634330749512, 0.34333890676498413, 71.43855285644531, 0.341194, -0.16253313, 0.33148003
428, 1420805981, -1.3317747116088867, 0.3511822521686554, 71.64035034179688, 0.2891666, -0.15731187, 0.36109924
429, 1420822648, -1.3286257982254028, 0.3611028790473938, 71.79169464111328, 0.111365974, -0.029859906, 0.35372162
430, 1420839315, -1.3245046138763428, 0.36898383498191833, 71.95962524414062, -0.329416, 0.3354379, 0.36217785
431, 1420855982, -1.3182889223098755, 0.38148173689842224, 72.1624984741211, -0.5500987, 0.53157467, 0.32529926
432, 1420872649, -1.313028335571289, 0.3946368098258972, 72.43049621582031, 0.1497749, 0.2817772, 0.3692093
433, 1420889316, -1.314753770828247, 0.406343549489975, 72.77274322509766, 0.36396778, -0.13306825, 0.35665035
434, 1420905983, -1.3142160177230835, 0.41863712668418884, 73.04016876220703, 0.4223855, -0.16870476, 0.3417139
435, 1420922650, -1.3133255243301392, 0.4290747046470642, 73.2176513671875, 0.2689527, -0.18839715, 0.35364342
436, 1420939317, -1.3150311708450317, 0.4368286430835724, 73.39871978759766, -0.07844812, 0.16816024, 0.34042072
437, 1420955984, -1.3109347820281982, 0.4455520510673523, 73.59828186035156, -0.21424346, 0.3242793, 0.32602406
438, 1420972651, -1.3064837455749512, 0.4560697674751282, 73.81671142578125, 0.07037046, 0.10509394, 0.36250973
439, 1420989318, -1.3075547218322754, 0.46631157398223877, 74.15557098388672, -0.070927635, 0.26564905, 0.33444023
440, 1421005985, -1.3128502368927002, 0.4777015745639801, 74.5228271484375, 0.28906912, -0.1080702, 0.3859806
441, 1421022652, -1.3164032697677612, 0.48369675874710083, 74.78632354736328, 0.33401015, -0.17000417, 0.34620953
442, 1421039319, -1.3176648616790771, 0.48786473274230957, 74.97277069091797, 0.26947248, -0.09798084, 0.38056374
443, 1421055986, -1.3193427324295044, 0.49362054467201233, 75.12583923339844, 0.17421785, 0.004462632, 0.3788662
444, 1421072653, -1.3221853971481323, 0.49605220556259155, 75.29046630859375, -0.051912468, 0.17744322, 0.34864712
445, 1421089320, -1.320575475692749, 0.4996333718299866, 75.46186065673828, -0.16383424, 0.25119928, 0.34049416
446, 1421105987, -1.3124608993530273, 0.5013435482978821, 75.56684875488281, 0.29733458, -0.102451324, 0.36803722
447, 1421122654, -1.317065954208374, 0.500882089138031, 75.70925903320312, 0.17045675, -0.01803614, 0.3665619
448, 1421139321, -1.3285835981369019, 0.5016376376152039, 75.88026428222656, -0.123325326, 0.18897432, 0.3505888
449, 1421155988, -1.3349140882492065, 0.5063078999519348, 76.06488800048828, -0.06007929, 0.20736295, 0.32468987
450, 1421172655, -1.3450100421905518, 0.5077099800109863, 76.27279663085938, 0.28122577, -0.009424472, 0.3687153
451, 1421189322, -1.3660106658935547, 0.5082162022590637, 76.57662200927734, -0.20716597, 0.26918638, 0.33657646
452, 1421205989, -1.3791329860687256, 0.5117393732070923, 76.87727355957031, -0.049421024, 0.15538573, 0.35302734
453, 1421222656, -1.3878014087677002, 0.5141708254814148, 77.12628936767578, 0.2965148, -0.05927719, 0.332119
454, 1421239323, -1.3983851671218872, 0.5152497291564941, 77.33485412597656, -0.04334729, 0.10831454, 0.33224964
455, 1421255990, -1.4056273698806763, 0.5214753746986389, 77.576171875, -0.46547255, 0.43750542, 0.32746124
456, 1421272657, -1.3994418382644653, 0.5272531509399414, 77.72705078125, 0.057014614, 0.16035296, 0.35354996
457, 1421289324, -1.385892391204834, 0.5296558737754822, 77.77206420898438, 0.5174356, -0.26032996, 0.36532497
458, 1421305991, -1.3767852783203125, 0.5299824476242065, 77.81864929199219, 0.058012325, 0.10329181, 0.35439682
459, 1421322658, -1.3696686029434204, 0.5332043766975403, 78.01192474365234, -0.3168313, 0.35686752, 0.32495975
460, 1421339325, -1.3667458295822144, 0.5397194623947144, 78.38880920410156, -0.3161659, 0.38599575, 0.33048916
461, 1421355992, -1.3721648454666138, 0.5491418838500977, 78.82411193847656, -0.02640187, 0.10057239, 0.32647228
462, 1421372659, -1.3665090799331665, 0.5546929836273193, 79.12528991699219, 0.33312666, -0.12635095, 0.36982822
463, 1421389326, -1.3685033321380615, 0.5586806535720825, 79.40543365478516, 0.080028966, 0.085826755, 0.34411716
464, 1421405993, -1.3637453317642212, 0.5660577416419983, 79.57743835449219, 0.17362562, 0.002087625, 0.32616138
465, 1421422660, -1.3623825311660767, 0.5689135193824768, 79.68375396728516, -0.091189735, 0.21488208, 0.324255
466, 1421439327, -1.3593155145645142, 0.5732328295707703, 79.9866943359375, -0.42747697, 0.52768123, 0.32178783
467, 1421455994, -1.3579374551773071, 0.5869151949882507, 80.57579803466797, -0.09800895, 0.36678815, 0.3369379
468, 1421472661, -1.3584423065185547, 0.5981464982032776, 81.10839080810547, 0.4267327, -0.2572011, 0.36826706
469, 1421489328, -1.3639657497406006, 0.6013727188110352, 81.4522933959961, 0.3415592, -0.19099782, 0.34696007
470, 1421505995, -1.3666507005691528, 0.6020498871803284, 81.6757583618164, 0.25090307, -0.032891005, 0.34187603
471, 1421522662, -1.375709891319275, 0.6032754778862, 81.872802734375, -0.18916918, 0.22669324, 0.35920525
472, 1421539329, -1.3797227144241333, 0.6057878136634827, 82.0833740234375, -0.75281334, 0.42006293, 0.3366022
473, 1421555996, -1.372175931930542, 0.6135282516479492, 82.39701843261719, -0.5971109, 0.50261515, 0.33893013
474, 1421572663, -1.3580127954483032, 0.6162872910499573, 82.74824523925781, 0.3080418, -0.07097443, 0.37501717
475, 1421589330, -1.3518508672714233, 0.6193065047264099, 82.9983901977539, 0.44363704, -0.1443843, 0.38372803
476, 1421605997, -1.358432650566101, 0.6254996657371521, 83.32391357421875, 0.023016915, 0.2512563, 0.35619068
477, 1421622664, -1.3707501888275146, 0.6282287240028381, 83.71037292480469, 0.10428767, 0.06292721, 0.35995102
478, 1421639331, -1.3704160451889038, 0.6299524903297424, 83.99356079101562, -0.042211555, 0.010471457, 0.3181839
479, 1421655998, -1.3618450164794922, 0.6320333480834961, 84.0892105102539, 0.0073762382, 0.0025237757, 0.33510208
480, 1421672665, -1.3498904705047607, 0.6335543990135193, 84.03301239013672, -0.061363284, 0.08165301, 0.3301773
481, 1421689332, -1.336801528930664, 0.6343648433685303, 83.90393829345703, -0.0289222, 0.21565513, 0.35794258
482, 1421705999, -1.3366233110427856, 0.6346163749694824, 83.89936065673828, 0.09173237, 0.14987242, 0.3582039
483, 1421722666, -1.3774528503417969, 0.654463529586792, 83.80196380615234, 1.016374, -0.22618777, 0.43229198
484, 1421739333, -1.3956907987594604, 0.6652728319168091, 83.73114776611328, -0.08631704, 0.01415576, 0.31336308
485, 1421756000, -1.4093046188354492, 0.6770527362823486, 83.59505462646484, 0.120148316, 0.22368145, 0.36260414
486, 1421772667, -1.4161354303359985, 0.6779292821884155, 83.57806396484375, 0.0035088898, 0.11090173, 0.33986092
487, 1421789334, -1.4157410860061646, 0.6851709485054016, 83.33161163330078, -0.09306536, -8.598124E-4, 0.3315239
488, 1421806001, -1.4195737838745117, 0.6816009283065796, 83.26426696777344, 0.114976935, 0.30481058, 0.3770752
489, 1421822668, -1.4214874505996704, 0.6811069250106812, 83.2623519897461, 0.010178068, 0.13149537, 0.34592724
490, 1421839335, -1.41873037815094, 0.6825202107429504, 83.26321411132812, 0.022682214, 0.124785855, 0.33677673
491, 1421856002, -1.4107531309127808, 0.6836046576499939, 83.26097869873047, 0.013766716, 0.13141946, 0.34416103
492, 1421872669, -1.3986469507217407, 0.6823095083236694, 83.25454711914062, -0.002224331, 0.13984378, 0.34022236
493, 1421889336, -1.3842135667800903, 0.6759054660797119, 83.2255630493164, -0.009789887, 0.10819148, 0.3694954
494, 1421906003, -1.368513822555542, 0.6625086069107056, 82.94932556152344, -0.08309547, 0.08750082, 0.33534336
495, 1421922670, -1.3649343252182007, 0.6595200896263123, 82.84358215332031, 0.092675135, 0.19293368, 0.32500935
496, 1421939337, -1.3651301860809326, 0.657873272895813, 82.83794403076172, 0.019681782, 0.12997189, 0.3347063
497, 1421956004, -1.358487606048584, 0.6554578542709351, 82.81700134277344, 0.007372931, 0.103431396, 0.3342867
498, 1421972671, -1.3449045419692993, 0.6419737339019775, 82.5649642944336, -0.049714915, 0.13470142, 0.3780527
499, 1421989338, -1.3489489555358887, 0.6399700045585632, 82.51555633544922, 0.061680574, 0.14841703, 0.36537457
500, 1422006005, -1.3514888286590576, 0.6362491250038147, 82.4959945678711, -0.0036344132, 0.10052214, 0.366704
501, 1422022672, -1.3380292654037476, 0.624900758266449, 82.08212280273438, -0.09064464, 0.0021864946, 0.32676125
502, 1422039339, -1.334481954574585, 0.6155378818511963, 81.64637756347656, 0.006777522, 0.1262323, 0.33251286
503, 1422056006, -1.3276671171188354, 0.5974761843681335, 81.16825103759766, -0.03423601, 0.03571582, 0.34091663
504, 1422072673, -1.3031080961227417, 0.5655226111412048, 80.3668441772461, -0.0114675, -0.0077518416, 0.32853413
505, 1422089340, -1.2671630382537842, 0.5161640048027039, 79.08771514892578, 0.20729664, -0.10383192, 0.3736887
506, 1422106007, -1.242371678352356, 0.443647563457489, 76.79435729980469, 0.5627013, -0.09619168, 0.381032
507, 1422122674, -1.206331729888916, 0.3559229373931885, 73.72838592529297, 0.43917534, 0.049239624, 0.37134838
508, 1422139341, -1.1388370990753174, 0.26996126770973206, 70.10343170166016, 0.7050567, 0.23834532, 0.30115128
509, 1422156008, -0.8971710801124573, 0.20604616403579712, 65.6129379272461, 0.93334746, 0.817965, 0.30196953
510, 1422172675, -0.3920246362686157, 0.1404602825641632, 60.69426345825195, -0.47501254, -1.0045973, 0.48282337
511, 1422189342, -0.5708902478218079, 0.10482800751924515, 57.67698669433594, -1.4113686, 1.0389643, 0.23192215
512, 1422206009, -0.6443167924880981, 0.042475488036870956, 57.22278594970703, -0.58190733, 0.3239053, 0.37128448
513, 1422222676, -0.6082913875579834, 0.058437786996364594, 57.229400634765625, 0.1405696, 0.06695676, 0.28556728
514, 1422239343, -0.601780354976654, 0.04743769019842148, 57.22795486450195, -0.018259704, 0.061713785, 0.41445065
515, 1422256010, -0.6141912937164307, 0.05535559728741646, 57.21638488769531, 0.09706807, 0.06506757, 0.29784775
516, 1422272677, -0.5918015837669373, 0.051698412746191025, 57.15694808959961, -0.010639098, 0.055013392, 0.3638363
517, 1422289344, -0.5986497402191162, 0.05080395191907883, 57.09135437011719, 0.02784491, 0.07039788, 0.33476734
518, 1422306011, -0.607217013835907, 0.03795221820473671, 57.06761932373047, 0.02010882, 0.091015376, 0.33226395
519, 1422322678, -0.6112714409828186, 0.025456706061959267, 57.05185317993164, 0.041286644, 0.08137311, 0.34855366
520, 1422339345, -0.61580890417099, 0.02036605216562748, 57.010963439941406, 0.039923962, 0.07766234, 0.29872036
521, 1422356012, -0.6063858270645142, 0.01610502600669861, 56.976722717285156, 0.029362066, 0.096349426, 0.3434782
522, 1422372679, -0.6040740609169006, 0.019603578373789787, 56.93812942504883, 0.05344262, 0.07078973, 0.3272705
523, 1422389346, -0.5974838137626648, 0.01786249317228794, 56.910118103027344, 0.0138875395, 0.083392575, 0.33225632
524, 1422406013, -0.5964001417160034, 0.015042480081319809, 56.895870208740234, 0.03305401, 0.07665985, 0.3587141
525, 1422422680, -0.5943892002105713, 0.013429006561636925, 56.8780403137207, 0.038938716, 0.100571804, 0.36894798
526, 1422439347, -0.5910698771476746, 0.015999823808670044, 56.85408020019531, 0.028202577, 0.08786261, 0.34463215
527, 1422456014, -0.587228000164032, 0.014556868933141232, 56.828880310058594, 0.040749654, 0.072257936, 0.36676788
528, 1422472681, -0.5866672992706299, 0.013100597076117992, 56.806034088134766, 0.040073134, 0.08183572, 0.34046555
529, 1422489348, -0.5851076245307922, 0.007889295928180218, 56.778743743896484, 0.032046393, 0.08343022, 0.34573174
530, 1422506015, -0.5853819847106934, 0.005637441296130419, 56.761192321777344, 0.031715635, 0.095260456, 0.36136723
531, 1422522682, -0.584564745426178, 0.003756950842216611, 56.744781494140625, 0.021406112, 0.06723877, 0.35404968
532, 1422539349, -0.5841166377067566, 0.002033822238445282, 56.7289924621582, 0.02952837, 0.08207068, 0.38103867
533, 1422556016, -0.5818996429443359, -4.4297511340118945E-4, 56.71525955200195, 0.023206428, 0.07501088, 0.35816956
534, 1422572683, -0.5822363495826721, -0.0015388204483315349, 56.70227813720703, 0.01823188, 0.07531019, 0.34964943
535, 1422589350, -0.5822264552116394, -0.0034340110141783953, 56.686832427978516, 0.035457876, 0.053420186, 0.34714794
536, 1422606017, -0.5817576050758362, -0.00602945638820529, 56.66929626464844, 0.025327364, 0.062326454, 0.3320551
537, 1422622684, -0.580170750617981, -0.007866430096328259, 56.651763916015625, 0.035585262, 0.06595574, 0.351799
538, 1422639351, -0.5783321261405945, -0.008797630667686462, 56.63862609863281, 0.03282922, 0.07285261, 0.35425186
539, 1422656018, -0.5787000060081482, -0.01033511757850647, 56.625999450683594, 0.030470362, 0.05358593, 0.33428097
540, 1422672685, -0.5787246227264404, -0.012857458554208279, 56.61520004272461, 0.026004944, 0.083600886, 0.35411072
541, 1422689352, -0.5776488780975342, -0.015008515678346157, 56.60320281982422, 0.03082524, 0.07554642, 0.33978462
542, 1422706019, -0.5760622620582581, -0.015900013968348503, 56.590240478515625, 0.044272006, 0.09113695, 0.3523941
543, 1422722686, -0.5755906105041504, -0.016269991174340248, 56.57564163208008, 0.035898387, 0.082843915, 0.34728718
544, 1422739353, -0.5759516954421997, -0.0176258385181427, 56.56047821044922, 0.03229498, 0.06284298, 0.34375954
545, 1422756020, -0.5757420659065247, -0.019584154710173607, 56.54782485961914, 0.018570693, 0.08184942, 0.34521484
546, 1422772687, -0.575863778591156, -0.01995656080543995, 56.53678894042969, 0.02700002, 0.082623884, 0.343112
547, 1422789354, -0.5762450695037842, -0.021335456520318985, 56.52699279785156, 0.022700438, 0.07307046, 0.3454275
548, 1422806021, -0.5759952664375305, -0.021823976188898087, 56.51747131347656, 0.025375681, 0.07344796, 0.35533905
549, 1422822688, -0.57674241065979, -0.02273951657116413, 56.50738525390625, 0.03800427, 0.071127035, 0.3449335
550, 1422839355, -0.578263521194458, -0.023445051163434982, 56.496829986572266, 0.031101657, 0.062333692, 0.33272934
551, 1422856022, -0.5786944031715393, -0.02493704855442047, 56.48576736450195, 0.028821237, 0.08340182, 0.34322166
552, 1422872689, -0.5767245888710022, -0.025403479114174843, 56.475772857666016, 0.035455376, 0.06371004, 0.3416376
553, 1422889356, -0.5747237205505371, -0.02613059990108013, 56.4654541015625, 0.019926593, 0.083366044, 0.3360567
554, 1422906023, -0.5731968879699707, -0.026164403185248375, 56.4565315246582, 0.037617594, 0.06994995, 0.32697487
555, 1422922690, -0.57396000623703, -0.026720207184553146, 56.450252532958984, 0.031192672, 0.06426397, 0.3304739
556, 1422939357, -0.5748766660690308, -0.028312548995018005, 56.44280242919922, 0.024521708, 0.10449362, 0.32641792
557, 1422956024, -0.5731428265571594, -0.028854962438344955, 56.43284225463867, 0.021922356, 0.08345314, 0.34209442
558, 1422972691, -0.5718690156936646, -0.02847135439515114, 56.42143630981445, 0.01969329, 0.059676904, 0.36904526
559, 1422989358, -0.5701560378074646, -0.02739861235022545, 56.41255187988281, 0.0072367173, 0.06754212, 0.3352623
560, 1423006025, -0.5708798170089722, -0.028900934383273125, 56.40456771850586, 0.015424627, 0.07546616, 0.3360014
561, 1423022692, -0.5701442956924438, -0.0321667306125164, 56.39668655395508, 0.02491747, 0.07280991, 0.33349037
562, 1423039359, -0.5702527165412903, -0.03299091383814812, 56.389892578125, 0.029752495, 0.083493166, 0.3444729
563, 1423056026, -0.5690795183181763, -0.033069249242544174, 56.379478454589844, 0.018413901, 0.073379226, 0.34534645
564, 1423072693, -0.5676440000534058, -0.03286762535572052, 56.369911193847656, 0.03275497, 0.07887306, 0.33173275
565, 1423089360, -0.5675144195556641, -0.03360755369067192, 56.36151885986328, 0.035332676, 0.059969097, 0.35605907
566, 1423106027, -0.5668323040008545, -0.035906948149204254, 56.35275650024414, 0.037385907, 0.07372312, 0.33462715
567, 1423122694, -0.5668098330497742, -0.03587440028786659, 56.34381103515625, 0.02860903, 0.09035232, 0.3489437
568, 1423139361, -0.5664105415344238, -0.03640515357255936, 56.335636138916016, 0.025448056, 0.07068402, 0.34565544
569, 1423156028, -0.5649335384368896, -0.037120264023542404, 56.3297233581543, 0.016561225, 0.0734605, 0.3490057
570, 1423172695, -0.5644500851631165, -0.03730687126517296, 56.3234977722168, 0.03828474, 0.081040576, 0.3472414
571, 1423189362, -0.5642153024673462, -0.03865039348602295, 56.31684112548828, 0.0394313, 0.07215843, 0.3213482
572, 1423206029, -0.5640378594398499, -0.03870449960231781, 56.30768966674805, 0.028470404, 0.089648545, 0.34234142
573, 1423222696, -0.5616658926010132, -0.038961514830589294, 56.29936599731445, 0.02832, 0.081527345, 0.3489313
574, 1423239363, -0.5600306987762451, -0.04072335362434387, 56.2908935546875, 0.035436753, 0.0751982, 0.330513
575, 1423256030, -0.5595653057098389, -0.042632002383470535, 56.283512115478516, 0.021168457, 0.06852519, 0.34868336
576, 1423272697, -0.560879647731781, -0.043904464691877365, 56.27754592895508, 0.04213516, 0.06277905, 0.35941315
577, 1423289364, -0.5622557401657104, -0.04397343099117279, 56.27274703979492, 0.034133565, 0.08766721, 0.3390541
578, 1423306031, -0.5617391467094421, -0.045766379684209824, 56.265533447265625, 0.025890723, 0.082641795, 0.36042786
579, 1423322698, -0.5600181818008423, -0.04741177707910538, 56.259010314941406, 0.025002005, 0.065572426, 0.36102772
580, 1423339365, -0.5585849285125732, -0.0474688746035099, 56.25122833251953, 0.04045583, 0.067934096, 0.3244934
581, 1423356032, -0.55852210521698, -0.05047071352601051, 56.243621826171875, 0.043555956, 0.062521376, 0.33854866
582, 1423372699, -0.5593323707580566, -0.05146929621696472, 56.23638916015625, 0.042338792, 0.06421298, 0.33513832
583, 1423389366, -0.5588270425796509, -0.05262118950486183, 56.22947311401367, 0.023895927, 0.06202916, 0.34000874
584, 1423406033, -0.558249831199646, -0.052325744181871414, 56.22451400756836, 0.026902156, 0.06996946, 0.33436298
585, 1423422700, -0.5572575926780701, -0.051504019647836685, 56.218013763427734, 0.033924907, 0.06309366, 0.3440094
586, 1423439367, -0.5576819777488708, -0.05194476991891861, 56.21163558959961, 0.024117352, 0.070641175, 0.33891582
587, 1423456034, -0.5587716698646545, -0.05332507565617561, 56.20663070678711, 0.025277188, 0.07023734, 0.33594513
588, 1423472701, -0.5582678914070129, -0.05386265739798546, 56.200435638427734, 0.018942151, 0.078410886, 0.3436575
589, 1423489368, -0.5578466057777405, -0.05418672785162926, 56.193580627441406, 0.029228095, 0.06938009, 0.35709763
590, 1423506035, -0.5556073188781738, -0.05378733575344086, 56.18669128417969, 0.022151265, 0.056637134, 0.3468256
591, 1423522702, -0.5551403164863586, -0.05344551056623459, 56.17951583862305, 0.03143758, 0.06726995, 0.34652996
592, 1423539369, -0.5537342429161072, -0.05586744844913483, 56.172935485839844, 0.038083054, 0.059777815, 0.3601675
593, 1423556036, -0.5540200471878052, -0.05708824098110199, 56.16532516479492, 0.032686178, 0.067821465, 0.35115814
594, 1423572703, -0.5540850758552551, -0.056611571460962296, 56.15774917602539, 0.01359171, 0.07165394, 0.36044312
595, 1423589370, -0.5528253316879272, -0.05568205937743187, 56.15015411376953, 0.028203398, 0.07339199, 0.36619568
596, 1423606037, -0.5511206984519958, -0.05671319738030434, 56.14409255981445, 0.030058853, 0.06994114, 0.34138012
597, 1423622704, -0.5503029227256775, -0.057231221348047256, 56.13888168334961, 0.033913907, 0.07378178, 0.3338833
598, 1423639371, -0.5508922934532166, -0.05653820559382439, 56.132728576660156, 0.04385007, 0.07924691, 0.3472538
599, 1423656038, -0.5505836606025696, -0.05715964734554291, 56.12704086303711, 0.017717255, 0.0718753, 0.3554678
600, 1423672705, -0.5480764508247375, -0.05705736577510834, 56.121761322021484, 0.037178725, 0.06263188, 0.32999897
601, 1423689372, -0.5475277900695801, -0.05799095332622528, 56.116905212402344, 0.020687833, 0.060857464, 0.33919716
602, 1423706039, -0.5481874942779541, -0.05780493840575218, 56.110904693603516, 0.028477356, 0.073713794, 0.35442352
603, 1423722706, -0.5493329763412476, -0.05872885510325432, 56.10539245605469, 0.035203233, 0.06753361, 0.3498392
604, 1423739373, -0.5488993525505066, -0.060026682913303375, 56.10068130493164, 0.03382649, 0.06622784, 0.35064125
605, 1423756040, -0.5479378700256348, -0.06083676964044571, 56.095943450927734, 0.023198485, 0.058715846, 0.33654976
606, 1423772707, -0.5460676550865173, -0.06085808575153351, 56.09172058105469, 0.012883028, 0.069115676, 0.36499023
607, 1423789374, -0.5457231998443604, -0.06298525631427765, 56.08658981323242, 0.03180678, 0.065415606, 0.33595085
608, 1423806041, -0.5463240742683411, -0.06375101208686829, 56.081329345703125, 0.038070634, 0.07686337, 0.3266716
609, 1423822708, -0.5464062094688416, -0.06511404365301132, 56.077022552490234, 0.019903984, 0.06782632, 0.34603882
610, 1423839375, -0.5453134775161743, -0.06540372967720032, 56.071868896484375, 0.02295229, 0.07379923, 0.356205
611, 1423856042, -0.543134331703186, -0.06594307720661163, 56.06545639038086, 0.04566327, 0.06223105, 0.3489275
612, 1423872709, -0.5440240502357483, -0.06730677932500839, 56.061344146728516, 0.03337944, 0.059827216, 0.34396648
613, 1423889376, -0.5442211627960205, -0.06904108077287674, 56.05668640136719, 0.037903152, 0.06582495, 0.3617592
614, 1423906043, -0.5454977750778198, -0.06951460242271423, 56.05337905883789, 0.021512257, 0.066265345, 0.3469715
615, 1423922710, -0.5453924536705017, -0.07070839405059814, 56.04977035522461, 0.028031662, 0.06514037, 0.33190918
616, 1423939377, -0.544089138507843, -0.07046148926019669, 56.045005798339844, 0.024722354, 0.07088029, 0.33619404
617, 1423956044, -0.5442690849304199, -0.0696897953748703, 56.03975296020508, 0.03129208, 0.058200244, 0.32945538
618, 1423972711, -0.5451229214668274, -0.06872736662626266, 56.03476333618164, 0.03791645, 0.06880918, 0.34171104
619, 1423989378, -0.5457902550697327, -0.06989133358001709, 56.030555725097656, 0.03562475, 0.06543954, 0.33369255
620, 1424006045, -0.5451225638389587, -0.06893651932477951, 56.027217864990234, 0.029360222, 0.06874522, 0.35642624
621, 1424022712, -0.5448300242424011, -0.06813611090183258, 56.023014068603516, 0.01242798, 0.0757289, 0.34998798
622, 1424039379, -0.5444567799568176, -0.06704939156770706, 56.019081115722656, 0.034057718, 0.064988665, 0.33429432
623, 1424056046, -0.5443211793899536, -0.06935146450996399, 56.01509475708008, 0.03282792, 0.052842226, 0.3545227
624, 1424072713, -0.5462139844894409, -0.07040055841207504, 56.0112419128418, 0.034548413, 0.07083441, 0.3432827
625, 1424089380, -0.5465425848960876, -0.07087839394807816, 56.00721740722656, 0.0108253, 0.07720168, 0.3470087
626, 1424106047, -0.5466966032981873, -0.07050208002328873, 56.00307083129883, 0.024695823, 0.06183915, 0.34768963
627, 1424122714, -0.5459882616996765, -0.07005993276834488, 55.99905776977539, 0.024702879, 0.06919564, 0.34325504
628, 1424139381, -0.546214759349823, -0.06972778588533401, 55.99513626098633, 0.04630261, 0.06327682, 0.35420322
629, 1424156048, -0.5472396612167358, -0.06978335231542587, 55.992332458496094, 0.030027995, 0.074475884, 0.3323803
630, 1424172715, -0.5478049516677856, -0.07111527770757675, 55.988258361816406, 0.022173757, 0.05817652, 0.36488056
631, 1424189382, -0.5483728051185608, -0.07149440795183182, 55.98435974121094, 0.02485329, 0.062205005, 0.34548664
632, 1424206049, -0.5461588501930237, -0.07116744667291641, 55.980533599853516, 0.025340857, 0.0625261, 0.34819221
633, 1424222716, -0.5452706813812256, -0.07078675925731659, 55.97632598876953, 0.034427032, 0.07144782, 0.33430386
634, 1424239383, -0.5471439361572266, -0.07155214995145798, 55.971710205078125, 0.043495085, 0.06930472, 0.34590816
635, 1424256050, -0.5487360954284668, -0.0724998340010643, 55.96654510498047, 0.027178612, 0.07710637, 0.34954262
636, 1424272717, -0.5482596158981323, -0.07307805120944977, 55.962677001953125, 0.016193332, 0.06292587, 0.36869907
637, 1424289384, -0.5478131771087646, -0.07294795662164688, 55.958980560302734, 0.023974378, 0.08031255, 0.35755157
638, 1424306051, -0.5470440983772278, -0.07278693467378616, 55.953372955322266, 0.030731045, 0.07505896, 0.3312645
639, 1424322718, -0.5472341179847717, -0.07374567538499832, 55.95052719116211, 0.037418373, 0.07246375, 0.32251358
640, 1424339385, -0.54917973279953, -0.0753917247056961, 55.946807861328125, 0.031308882, 0.052106146, 0.32998753
641, 1424356052, -0.5480074882507324, -0.07645826786756516, 55.94405746459961, 0.034482535, 0.07730868, 0.3488865
642, 1424372719, -0.5465800762176514, -0.07608921825885773, 55.940162658691406, 0.02695608, 0.073523864, 0.33731747
643, 1424389386, -0.546140730381012, -0.07604669779539108, 55.93644714355469, 0.027303949, 0.06323588, 0.33561325
644, 1424406053, -0.5459766983985901, -0.07710826396942139, 55.93284606933594, 0.02559601, 0.053642396, 0.33641434
645, 1424422720, -0.5463676452636719, -0.07773438096046448, 55.92964172363281, 0.02073369, 0.07421409, 0.35726833
646, 1424439387, -0.5462961196899414, -0.07918526232242584, 55.92774963378906, 0.015716534, 0.08230413, 0.34039783
647, 1424456054, -0.5455887913703918, -0.07959285378456116, 55.92499542236328, 0.013965381, 0.063756995, 0.33941746
648, 1424472721, -0.5442714095115662, -0.07963747531175613, 55.92145538330078, 0.032646738, 0.06670153, 0.34299946
649, 1424489388, -0.5442973971366882, -0.07970718294382095, 55.918067932128906, 0.030020574, 0.06422773, 0.3438244
650, 1424506055, -0.5449818968772888, -0.0800853818655014, 55.91515350341797, 0.029904531, 0.070915155, 0.35193253
651, 1424522722, -0.5463705062866211, -0.08075279742479324, 55.91190719604492, 0.017769381, 0.07992393, 0.3590889
652, 1424539389, -0.5470337271690369, -0.08031381666660309, 55.909305572509766, 0.023321273, 0.07063842, 0.37316322
653, 1424556056, -0.5457619428634644, -0.08078829199075699, 55.90662384033203, 0.01812542, 0.054421324, 0.32982922
654, 1424572723, -0.5451115965843201, -0.07930923998355865, 55.903602600097656, 0.028817575, 0.06579889, 0.3355255
655, 1424589390, -0.5450652837753296, -0.07979874312877655, 55.900848388671875, 0.025783638, 0.047081552, 0.33845806
656, 1424606057, -0.54581218957901, -0.08153628557920456, 55.897274017333984, 0.027380444, 0.072293796, 0.34018707
657, 1424622724, -0.5443581938743591, -0.08283031731843948, 55.8943977355957, 0.020659987, 0.057094794, 0.34521008
658, 1424639391, -0.5427652597427368, -0.08288872241973877, 55.892032623291016, 0.03653458, 0.05420757, 0.35877228
659, 1424656058, -0.5408931970596313, -0.08273732662200928, 55.8901481628418, 0.022259235, 0.048782393, 0.3259182
660, 1424672725, -0.5419028401374817, -0.08229425549507141, 55.88691329956055, 0.017958496, 0.059729617, 0.32946873
661, 1424689392, -0.5430915355682373, -0.08330196887254715, 55.88446044921875, 0.031646032, 0.07081147, 0.36241245
662, 1424706059, -0.5436629056930542, -0.08308255672454834, 55.882877349853516, 0.025792077, 0.062037118, 0.35373878
663, 1424722726, -0.5430639982223511, -0.08303768932819366, 55.879886627197266, 0.029612925, 0.06705155, 0.3413353
664, 1424739393, -0.5421802401542664, -0.08437243103981018, 55.877037048339844, 0.013177461, 0.06097208, 0.31855106
665, 1424756060, -0.5418024063110352, -0.08618149161338806, 55.87331771850586, 0.03535034, 0.06898593, 0.34545517
666, 1424772727, -0.5424255132675171, -0.08690828830003738, 55.87013626098633, 0.031114059, 0.07134663, 0.35868263
667, 1424789394, -0.542904794216156, -0.08739162236452103, 55.8671760559082, 0.021560226, 0.056434486, 0.3462305
668, 1424806061, -0.5428165793418884, -0.08788442611694336, 55.86411666870117, 0.024493037, 0.062011812, 0.35389423
669, 1424822728, -0.5409689545631409, -0.08829227834939957, 55.860965728759766, 0.03166395, 0.05546129, 0.36482525
670, 1424839395, -0.5401408076286316, -0.08853597939014435, 55.857566833496094, 0.03982695, 0.04478923, 0.3454504
671, 1424856062, -0.5406899452209473, -0.09022949635982513, 55.85407257080078, 0.031845286, 0.06599054, 0.33608913
672, 1424872729, -0.5404505729675293, -0.0926627665758133, 55.849891662597656, 0.02353913, 0.060740735, 0.33843422
673, 1424889396, -0.5395254492759705, -0.09355519711971283, 55.84626007080078, 0.034469303, 0.061303485, 0.34233475
674, 1424906063, -0.538368284702301, -0.09470009803771973, 55.84168243408203, 0.018734654, 0.061915994, 0.32753944
675, 1424922730, -0.5372945666313171, -0.09314164519309998, 55.8385009765625, 0.025120314, 0.06321522, 0.33100605
676, 1424939397, -0.5388565063476562, -0.09279215335845947, 55.834632873535156, 0.030397912, 0.061823055, 0.32204056
677, 1424956064, -0.5410674810409546, -0.09374634921550751, 55.83088302612305, 0.0328205, 0.060047865, 0.3280487
678, 1424972731, -0.5414578318595886, -0.09399330615997314, 55.82820510864258, 0.029116614, 0.05451721, 0.3436327
679, 1424989398, -0.5403397679328918, -0.0938664898276329, 55.82598876953125, 0.020033559, 0.06518511, 0.33385658
680, 1425006065, -0.5401449799537659, -0.09355300664901733, 55.82352066040039, 0.03087331, 0.063727535, 0.36025143
681, 1425022732, -0.5410584807395935, -0.09397801011800766, 55.81977462768555, 0.043151792, 0.06370382, 0.35696793
682, 1425039399, -0.5413084626197815, -0.09349554777145386, 55.81666564941406, 0.028069403, 0.05760261, 0.34728718
683, 1425056066, -0.5408397912979126, -0.09415656328201294, 55.811954498291016, 0.016367406, 0.08058927, 0.33725166
684, 1425072733, -0.5401273369789124, -0.09295415133237839, 55.8103141784668, 0.020078575, 0.06342361, 0.3552637
685, 1425089400, -0.5394737124443054, -0.0930032879114151, 55.807247161865234, 0.033258203, 0.05944401, 0.33640385
686, 1425106067, -0.5401751399040222, -0.09447207301855087, 55.804256439208984, 0.028870411, 0.05286636, 0.33739758
687, 1425122734, -0.5403529405593872, -0.09536775946617126, 55.801719665527344, 0.032996833, 0.066215985, 0.32966423
688, 1425139401, -0.5407155156135559, -0.09681393206119537, 55.799842834472656, 0.019239567, 0.061208673, 0.35952854
689, 1425156068, -0.539372444152832, -0.09701672196388245, 55.79762268066406, 0.035414893, 0.061894216, 0.3586235
690, 1425172735, -0.5373672246932983, -0.09592852741479874, 55.79486083984375, 0.029276634, 0.05073974, 0.36608696
691, 1425189402, -0.5369762778282166, -0.09818689525127411, 55.792877197265625, 0.015542273, 0.051228005, 0.33675098
692, 1425206069, -0.5379698276519775, -0.09973467141389847, 55.79100799560547, 0.034662966, 0.062030453, 0.34802914
693, 1425222736, -0.5387651920318604, -0.10126830637454987, 55.788639068603516, 0.030729868, 0.060315188, 0.3507614
694, 1425239403, -0.5368657112121582, -0.10338304936885834, 55.785972595214844, 0.02513465, 0.060314294, 0.3826952
695, 1425256070, -0.5352545976638794, -0.10345786064863205, 55.78362274169922, 0.01270239, 0.060689427, 0.34680843
696, 1425272737, -0.5336750149726868, -0.10394272208213806, 55.781166076660156, 0.016390411, 0.05426903, 0.31207848
697, 1425289404, -0.53403240442276, -0.10520822554826736, 55.77838897705078, 0.034933545, 0.06317844, 0.3421545
698, 1425306071, -0.5347604155540466, -0.10861897468566895, 55.77880859375, 0.036073867, 0.05952977, 0.36663628
699, 1425322738, -0.5354793071746826, -0.1091330274939537, 55.77734375, 0.011013924, 0.064292066, 0.3748827
700, 1425339405, -0.5343847870826721, -0.10950150340795517, 55.774314880371094, 0.017329214, 0.060722575, 0.34475327
701, 1425356072, -0.5325996279716492, -0.11054468154907227, 55.77096939086914, 0.016480815, 0.06141892, 0.33625507
702, 1425372739, -0.5331580638885498, -0.11122146993875504, 55.76731491088867, 0.05028505, 0.06064109, 0.34087753
703, 1425389406, -0.5347347855567932, -0.11199870705604553, 55.76558303833008, 0.038652156, 0.060339734, 0.33530903
704, 1425406073, -0.53464275598526, -0.11200970411300659, 55.76276397705078, 0.023581717, 0.057930786, 0.35383606
705, 1425422740, -0.5335596799850464, -0.11207537353038788, 55.76146697998047, 0.019856714, 0.05685953, 0.31969738
706, 1425439407, -0.5323201417922974, -0.1117437481880188, 55.76149368286133, 0.017669862, 0.06543098, 0.3369646
707, 1425456074, -0.5333781838417053, -0.1129877120256424, 55.759883880615234, 0.0326198, 0.053994626, 0.33711433
708, 1425472741, -0.5344668626785278, -0.11396628618240356, 55.75885772705078, 0.04155852, 0.058447134, 0.3368826
709, 1425489408, -0.5355625152587891, -0.11489663273096085, 55.757442474365234, 0.02235873, 0.049037807, 0.359128
710, 1425506075, -0.5345886945724487, -0.1160634458065033, 55.75640106201172, 0.016206238, 0.0582967, 0.35869312
711, 1425522742, -0.5338621735572815, -0.11645381897687912, 55.75443649291992, 0.022968471, 0.057972163, 0.33281136
712, 1425539409, -0.5330120921134949, -0.11601271480321884, 55.7528076171875, 0.04181272, 0.040960878, 0.33902836
713, 1425556076, -0.5349503755569458, -0.11647526919841766, 55.75127410888672, 0.028167719, 0.03796731, 0.35141087
714, 1425572743, -0.5357027649879456, -0.11907697468996048, 55.74873352050781, 0.022475772, 0.06053084, 0.3416624
715, 1425589410, -0.5352188348770142, -0.12072545289993286, 55.74696350097656, 0.016710198, 0.07195614, 0.35544872
716, 1425606077, -0.5333028435707092, -0.12079259008169174, 55.74652862548828, 0.03900447, 0.049339686, 0.34154034
717, 1425622744, -0.5314716100692749, -0.11980397254228592, 55.74519729614258, 0.039021887, 0.058863968, 0.32921124
718, 1425639411, -0.5321524143218994, -0.12110661715269089, 55.74308395385742, 0.038916305, 0.055913176, 0.35238934
719, 1425656078, -0.5333280563354492, -0.12290804088115692, 55.74221420288086, 0.026277564, 0.065572836, 0.33936977
720, 1425672745, -0.5335885286331177, -0.12366370111703873, 55.74163818359375, 0.021956235, 0.061432824, 0.3290205
721, 1425689412, -0.5323372483253479, -0.12290927022695541, 55.740604400634766, 0.007748396, 0.05926745, 0.36312866
722, 1425706079, -0.529625415802002, -0.12184195965528488, 55.7390251159668, 0.024641529, 0.051807836, 0.3320675
723, 1425722746, -0.5290114879608154, -0.12243599444627762, 55.737430572509766, 0.025187243, 0.053868216, 0.31345844
724, 1425739413, -0.5285855531692505, -0.12385465204715729, 55.73578643798828, 0.031643495, 0.057700824, 0.3344593
725, 1425756080, -0.5299394726753235, -0.12523992359638214, 55.73527145385742, 0.025039949, 0.047059696, 0.35202026
726, 1425772747, -0.5279004573822021, -0.12648634612560272, 55.7337760925293, 0.030075746, 0.051360887, 0.36105824
727, 1425789414, -0.5251390933990479, -0.12745575606822968, 55.73118591308594, 0.024333458, 0.043074563, 0.34824657
728, 1425806081, -0.5237533450126648, -0.12691913545131683, 55.729759216308594, 0.022764446, 0.05585941, 0.3334446
729, 1425822748, -0.5238227844238281, -0.12795060873031616, 55.727684020996094, 0.024451772, 0.04705353, 0.37007713
730, 1425839415, -0.5251021385192871, -0.1282189041376114, 55.72695541381836, 0.027736617, 0.06647639, 0.34714985
731, 1425856082, -0.5247027277946472, -0.12913359701633453, 55.72561264038086, 0.0151660545, 0.05729626, 0.36853027
732, 1425872749, -0.522817075252533, -0.12899702787399292, 55.72429275512695, 0.01231888, 0.048164148, 0.3451271
733, 1425889416, -0.5211406946182251, -0.1272006332874298, 55.72242736816406, 0.0356155, 0.03943041, 0.34068203
734, 1425906083, -0.5218760371208191, -0.12716862559318542, 55.719757080078125, 0.031221058, 0.05604806, 0.343009
735, 1425922750, -0.5231189727783203, -0.1285112202167511, 55.718143463134766, 0.023729658, 0.051188435, 0.34054565
736, 1425939417, -0.523624062538147, -0.1288580298423767, 55.71704864501953, 0.03551801, 0.057367567, 0.3630867
737, 1425956084, -0.521409809589386, -0.12872344255447388, 55.71665573120117, 0.010297128, 0.0643999, 0.32735348
738, 1425972751, -0.5196755528450012, -0.1293780654668808, 55.71733093261719, 0.023126343, 0.054440696, 0.33212662
739, 1425989418, -0.5200681090354919, -0.12912067770957947, 55.716583251953125, 0.030398255, 0.049640577, 0.33432007
740, 1426006085, -0.5217996835708618, -0.1299537569284439, 55.71448516845703, 0.0275617, 0.06550275, 0.35895824
741, 1426022752, -0.5220073461532593, -0.13034777343273163, 55.714576721191406, 0.030508421, 0.050973993, 0.36737728
742, 1426039419, -0.5218270421028137, -0.13135181367397308, 55.714691162109375, 0.024993934, 0.048732676, 0.34836197
743, 1426056086, -0.5210708975791931, -0.12947309017181396, 55.71564483642578, 0.011454414, 0.051558252, 0.32202816
744, 1426072753, -0.5195208787918091, -0.12918584048748016, 55.71470642089844, 0.025168808, 0.057116188, 0.3452797
745, 1426089420, -0.5218799114227295, -0.12991082668304443, 55.714603424072266, 0.04032933, 0.06479798, 0.3459463
746, 1426106087, -0.523855447769165, -0.13052429258823395, 55.714778900146484, 0.024599802, 0.060506478, 0.34478664
747, 1426122754, -0.5242140889167786, -0.130235493183136, 55.714256286621094, 0.023457497, 0.04238609, 0.34465313
748, 1426139421, -0.5227956175804138, -0.12980298697948456, 55.712432861328125, 0.026969898, 0.061797924, 0.3390026
749, 1426156088, -0.5227994322776794, -0.13055332005023956, 55.712303161621094, 0.037693672, 0.05005796, 0.33043575
750, 1426172755, -0.5230123996734619, -0.13173526525497437, 55.71119689941406, 0.03094819, 0.051438875, 0.3232622
751, 1426189422, -0.5253302454948425, -0.13242526352405548, 55.71022415161133, 0.023419177, 0.04435609, 0.3433752
752, 1426206089, -0.5252240300178528, -0.1332159787416458, 55.70779800415039, 0.022574967, 0.050961953, 0.3660307
753, 1426222756, -0.5238673686981201, -0.13466547429561615, 55.70550537109375, 0.02278406, 0.049835477, 0.3648796
754, 1426239423, -0.5224640965461731, -0.13424456119537354, 55.7044792175293, 0.026708264, 0.036943655, 0.33606815
755, 1426256090, -0.5217735171318054, -0.13553296029567719, 55.703338623046875, 0.040850658, 0.05335129, 0.33802032
756, 1426272757, -0.5220580697059631, -0.13567158579826355, 55.702003479003906, 0.026571304, 0.054387853, 0.3208828
757, 1426289424, -0.5223357081413269, -0.13513785600662231, 55.70022201538086, 0.025647048, 0.05052394, 0.32007504
758, 1426306091, -0.5211572051048279, -0.13600502908229828, 55.69877624511719, 0.0051930896, 0.06423719, 0.343709
759, 1426322758, -0.5199376344680786, -0.13580498099327087, 55.69645309448242, 0.03702454, 0.054783914, 0.34671116
760, 1426339425, -0.5200164318084717, -0.13738611340522766, 55.694358825683594, 0.042265683, 0.03218943, 0.3301487
761, 1426356092, -0.5218285918235779, -0.13855481147766113, 55.6925048828125, 0.025754757, 0.041013673, 0.34422874
762, 1426372759, -0.5212705731391907, -0.13992218673229218, 55.691932678222656, 0.03230587, 0.05438413, 0.35947514
763, 1426389426, -0.5201636552810669, -0.14082147181034088, 55.691959381103516, 0.007836011, 0.0434285, 0.35545254
764, 1426406093, -0.5190305709838867, -0.14233900606632233, 55.69189453125, 0.02506152, 0.04469555, 0.35239983
765, 1426422760, -0.5185987949371338, -0.14223365485668182, 55.69078063964844, 0.028296765, 0.04157613, 0.35014057
766, 1426439427, -0.5198510885238647, -0.1425897777080536, 55.6898307800293, 0.02440555, 0.048318483, 0.3533535
767, 1426456094, -0.5198806524276733, -0.14320452511310577, 55.688499450683594, 0.022443326, 0.05026303, 0.34139824
768, 1426472761, -0.5188659429550171, -0.14462849497795105, 55.68765640258789, 0.014781734, 0.06276642, 0.34622002
769, 1426489428, -0.5161245465278625, -0.14376012980937958, 55.686038970947266, 0.031931188, 0.047378957, 0.3451767
770, 1426506095, -0.5146560668945312, -0.14309769868850708, 55.68532943725586, 0.028838484, 0.047577504, 0.33759308
771, 1426522762, -0.5156169533729553, -0.1430380642414093, 55.683895111083984, 0.024909675, 0.040416617, 0.35331726
772, 1426539429, -0.5166966319084167, -0.14344003796577454, 55.68341064453125, 0.049562894, 0.0487419, 0.34757328
773, 1426556096, -0.5151984691619873, -0.14426933228969574, 55.68347930908203, 0.03109399, 0.059849743, 0.3277254
774, 1426572763, -0.5140749216079712, -0.14343932271003723, 55.683372497558594, 0.016045656, 0.045479935, 0.36470795
775, 1426589430, -0.5138724446296692, -0.14442497491836548, 55.682064056396484, 0.0338502, 0.055620834, 0.3354416
776, 1426606097, -0.5139734745025635, -0.14434929192066193, 55.68123245239258, 0.03647233, 0.05349745, 0.3554716
777, 1426622764, -0.5159046649932861, -0.14459335803985596, 55.680030822753906, 0.024827149, 0.053183705, 0.34431362
778, 1426639431, -0.5161218643188477, -0.1455899327993393, 55.67786407470703, 0.022789849, 0.036241423, 0.33005524
779, 1426656098, -0.515092134475708, -0.14572957158088684, 55.67717361450195, 0.028942062, 0.063452154, 0.3408184
780, 1426672765, -0.5138320326805115, -0.14616945385932922, 55.67625045776367, 0.033444684, 0.04660372, 0.35357475
781, 1426689432, -0.5155826807022095, -0.1469755917787552, 55.67428970336914, 0.038366027, 0.041085336, 0.35165024
782, 1426706099, -0.5154637098312378, -0.1469111293554306, 55.67249298095703, 0.020138891, 0.05682944, 0.31593132
783, 1426722766, -0.5150136947631836, -0.14740389585494995, 55.67161178588867, 0.026553096, 0.05958145, 0.38044643
784, 1426739433, -0.5144907832145691, -0.14778342843055725, 55.671104431152344, 0.017254028, 0.041889027, 0.33821678
785, 1426756100, -0.5139053463935852, -0.1472843885421753, 55.67120361328125, 0.01202309, 0.044272237, 0.3380785
786, 1426772767, -0.5147715210914612, -0.14765170216560364, 55.67055892944336, 0.020860136, 0.052128598, 0.33942127
787, 1426789434, -0.5151678323745728, -0.14743314683437347, 55.6693000793457, 0.032936737, 0.04197521, 0.332489
788, 1426806101, -0.5171111226081848, -0.14927957952022552, 55.66825485229492, 0.018063188, 0.056900475, 0.34073257
789, 1426822768, -0.5172062516212463, -0.148999884724617, 55.667240142822266, 0.030127678, 0.051231146, 0.35313225
790, 1426839435, -0.5167165398597717, -0.14821776747703552, 55.66563415527344, 0.045731556, 0.05063153, 0.34562302
791, 1426856102, -0.5149581432342529, -0.14655397832393646, 55.66462326049805, 0.039288096, 0.04408853, 0.33159733
792, 1426872769, -0.5151811838150024, -0.14755798876285553, 55.663482666015625, 0.02761645, 0.05030277, 0.34045696
793, 1426889436, -0.5164561867713928, -0.14764578640460968, 55.6634521484375, 0.029000355, 0.055089507, 0.34707642
794, 1426906103, -0.5147401094436646, -0.14924092590808868, 55.663047790527344, 0.022916127, 0.038937803, 0.35624504
795, 1426922770, -0.5139696598052979, -0.14857423305511475, 55.66129684448242, 0.017863005, 0.0609739, 0.36000443
796, 1426939437, -0.5124008655548096, -0.14858362078666687, 55.65964126586914, 0.041319583, 0.037476398, 0.32567215
797, 1426956104, -0.5141631960868835, -0.14838771522045135, 55.659751892089844, 0.028440045, 0.04179433, 0.3435583
798, 1426972771, -0.5157375335693359, -0.14933808147907257, 55.65829849243164, 0.045371126, 0.041529056, 0.34670258
799, 1426989438, -0.515840470790863, -0.1494530588388443, 55.657711029052734, 0.011230777, 0.037929077, 0.34446812
800, 1427006105, -0.5143412351608276, -0.15166783332824707, 55.65559387207031, 0.016979355, 0.052445468, 0.3487215
801, 1427022772, -0.5115563869476318, -0.15260878205299377, 55.65480041503906, 0.02938813, 0.049322143, 0.32299995
802, 1427039439, -0.5118528008460999, -0.1533993035554886, 55.6529426574707, 0.02783229, 0.03701453, 0.36367226
803, 1427056106, -0.5128318071365356, -0.15552741289138794, 55.65318298339844, 0.017831273, 0.042072248, 0.34899902
804, 1427072773, -0.5143247842788696, -0.15662027895450592, 55.65316390991211, 0.013405815, 0.040618602, 0.3704567
805, 1427089440, -0.5129404067993164, -0.15686483681201935, 55.65388107299805, 0.01958887, 0.06601761, 0.3499651
806, 1427106107, -0.5125700831413269, -0.157527893781662, 55.652366638183594, 0.016338577, 0.04554348, 0.3570385
807, 1427122774, -0.5121637582778931, -0.15782704949378967, 55.65251159667969, 0.026939444, 0.046012726, 0.33042717
808, 1427139441, -0.5138259530067444, -0.15954506397247314, 55.65204620361328, 0.021981388, 0.060082056, 0.35017872
809, 1427156108, -0.5134153366088867, -0.16104359924793243, 55.651493072509766, 0.027522758, 0.052560944, 0.3537836
810, 1427172775, -0.5115184187889099, -0.16189135611057281, 55.650386810302734, 0.019592108, 0.056913033, 0.3768978
811, 1427189442, -0.5098728537559509, -0.1643592119216919, 55.64927673339844, 0.018651685, 0.060319133, 0.36571312
812, 1427206109, -0.5082309246063232, -0.1640976220369339, 55.64824676513672, 0.03515317, 0.03152016, 0.34112358
813, 1427222776, -0.5084460973739624, -0.16409726440906525, 55.647705078125, 0.040460162, 0.03520848, 0.347744
814, 1427239443, -0.508901059627533, -0.16467425227165222, 55.64630126953125, 0.03992995, 0.050417352, 0.35724354
815, 1427256110, -0.5101902484893799, -0.16669778525829315, 55.64698028564453, 0.031922285, 0.053125266, 0.35426998
816, 1427272777, -0.508512556552887, -0.1658410131931305, 55.647769927978516, 0.035855055, 0.04014484, 0.36741066
817, 1427289444, -0.50726717710495, -0.16552726924419403, 55.64584732055664, 0.012828003, 0.034986958, 0.34848404
818, 1427306111, -0.5094311833381653, -0.16656643152236938, 55.64555740356445, 0.021403966, 0.03921203, 0.32508183
819, 1427322778, -0.5103246569633484, -0.16665305197238922, 55.645877838134766, 0.02459554, 0.054600444, 0.3505888
820, 1427339445, -0.5111649036407471, -0.1684037297964096, 55.64445495605469, 0.03626303, 0.046661664, 0.36932087
821, 1427356112, -0.5099917054176331, -0.16849204897880554, 55.6439323425293, 0.010937006, 0.040713545, 0.3385048
822, 1427372779, -0.5067384243011475, -0.16855229437351227, 55.6427001953125, 0.021833703, 0.07306172, 0.36121082
823, 1427389446, -0.5075620412826538, -0.1687733680009842, 55.641719818115234, 0.031027624, 0.045995656, 0.34566116
824, 1427406113, -0.5099324584007263, -0.16929396986961365, 55.64189910888672, 0.041665867, 0.05759866, 0.35047913
825, 1427422780, -0.5098215937614441, -0.1690525859594345, 55.64044189453125, 0.046584103, 0.04140193, 0.34169674
826, 1427439447, -0.5079174041748047, -0.16977578401565552, 55.64033508300781, 0.021176348, 0.051374294, 0.3245144
827, 1427456114, -0.5061565637588501, -0.1698211282491684, 55.640525817871094, 7.027806E-4, 0.053821124, 0.36371803
828, 1427472781, -0.5065882802009583, -0.17086079716682434, 55.63941192626953, 0.018278457, 0.05427868, 0.35189247
829, 1427489448, -0.5080825686454773, -0.17147211730480194, 55.63909912109375, 0.0472967, 0.037559163, 0.33092594
830, 1427506115, -0.5085727572441101, -0.17282511293888092, 55.638999938964844, 0.026232343, 0.048037622, 0.37647343
831, 1427522782, -0.507561206817627, -0.17395436763763428, 55.63896942138672, 0.02064535, 0.047260765, 0.3408575
832, 1427539449, -0.5066059231758118, -0.17370791733264923, 55.63848114013672, 0.014558638, 0.04542678, 0.3527794
833, 1427556116, -0.5057030320167542, -0.17378856241703033, 55.638214111328125, 0.023590196, 0.042679645, 0.3432169
834, 1427572783, -0.505347728729248, -0.17460136115550995, 55.6371955871582, 0.037259158, 0.05461531, 0.32641697
835, 1427589450, -0.5057181119918823, -0.17609605193138123, 55.63651657104492, 0.028533347, 0.051238336, 0.34341335
836, 1427606117, -0.5061610341072083, -0.17778420448303223, 55.635868072509766, 0.002254743, 0.049266726, 0.3568058
837, 1427622784, -0.5061509609222412, -0.177445188164711, 55.63579559326172, 0.01441009, 0.047623474, 0.3605032
838, 1427639451, -0.5043778419494629, -0.17761017382144928, 55.63495635986328, 0.028851513, 0.03865647, 0.3354292
839, 1427656118, -0.5038787126541138, -0.17704324424266815, 55.63276672363281, 0.039174892, 0.02959385, 0.33458328
840, 1427672785, -0.5357961058616638, -0.17834024131298065, 55.8375244140625, 0.02415574, 0.049749017, 0.33446884
841, 1427689452, -0.5377850532531738, -0.17895734310150146, 55.838417053222656, 0.0021963222, 0.05342911, 0.35986805
842, 1427706119, -0.5378150343894958, -0.1794579178094864, 55.8387336730957, 0.0066438285, 0.06413186, 0.34335136
843, 1427722786, -0.5359231233596802, -0.17855890095233917, 55.838375091552734, 0.024770066, 0.037951898, 0.35432148
844, 1427739453, -0.5354185700416565, -0.1786961853504181, 55.83739471435547, 0.027001098, 0.049512707, 0.32950974
845, 1427756120, -0.5351883769035339, -0.17925913631916046, 55.83573913574219, 0.025135195, 0.044108395, 0.34532547
846, 1427772787, -0.5366606116294861, -0.18121998012065887, 55.8353157043457, 0.00508434, 0.061498165, 0.33403492
847, 1427789454, -0.5369328856468201, -0.18202003836631775, 55.835914611816406, 0.02866193, 0.04843386, 0.36376667
848, 1427806121, -0.5359490513801575, -0.182115375995636, 55.835628509521484, 0.024196092, 0.04419511, 0.34271717
849, 1427822788, -0.5330238342285156, -0.18151283264160156, 55.836219787597656, 0.008564168, 0.059167687, 0.3547659
850, 1427839455, -0.5329597592353821, -0.18169188499450684, 55.83561325073242, 0.012365068, 0.06377334, 0.36083603
851, 1427856122, -0.5342149138450623, -0.18269717693328857, 55.83564376831055, 0.011308188, 0.05451916, 0.34307194
852, 1427872789, -0.5346464514732361, -0.18462306261062622, 55.83600997924805, 0.022953324, 0.049368355, 0.3322382
853, 1427889456, -0.53373783826828, -0.18542128801345825, 55.83515548706055, 0.009323333, 0.052662056, 0.35333538
854, 1427906123, -0.5313102602958679, -0.18519669771194458, 55.83506393432617, 0.005351169, 0.05623998, 0.36260414
855, 1427922790, -0.5305923223495483, -0.18419986963272095, 55.835296630859375, 0.013459594, 0.04289394, 0.3502159
856, 1427939457, -0.5318353772163391, -0.18657439947128296, 55.83393859863281, 0.013073025, 0.053595368, 0.35387516
857, 1427956124, -0.53179532289505, -0.18752337992191315, 55.83386993408203, 0.010158723, 0.052748542, 0.33499813
858, 1427972791, -0.5337504744529724, -0.18857164680957794, 55.83440017700195, 0.0262396, 0.046400484, 0.34107018
859, 1427989458, -0.5319984555244446, -0.18795564770698547, 55.834144592285156, 0.031491887, 0.046913575, 0.34273815
860, 1428006125, -0.5311961770057678, -0.18738870322704315, 55.83377456665039, 0.020915564, 0.03496451, 0.33400822
861, 1428022792, -0.5313715934753418, -0.18753565847873688, 55.83243179321289, 0.016923493, 0.058794867, 0.35315418
862, 1428039459, -0.5328831672668457, -0.18825022876262665, 55.83189392089844, 0.015841208, 0.0554393, 0.35547638
863, 1428056126, -0.5328541398048401, -0.18871183693408966, 55.83189010620117, 0.013322549, 0.04696668, 0.3363371
864, 1428072793, -0.5328128337860107, -0.18765082955360413, 55.832611083984375, 0.022862399, 0.061273925, 0.33838177
865, 1428089460, -0.5328460335731506, -0.18811112642288208, 55.83246612548828, 0.01351395, 0.05330894, 0.34750366
866, 1428106127, -0.533184826374054, -0.18886059522628784, 55.83225631713867, 0.007300949, 0.06125216, 0.35526466
867, 1428122794, -0.534020185470581, -0.18853022158145905, 55.83084487915039, 0.028610067, 0.06008087, 0.34584904
868, 1428139461, -0.5349262952804565, -0.18924936652183533, 55.830562591552734, 0.012230615, 0.04652846, 0.32469273
869, 1428156128, -0.5331957936286926, -0.18859446048736572, 55.83087158203125, 0.007236351, 0.052033506, 0.36467457
870, 1428172795, -0.5334216356277466, -0.18981246650218964, 55.83080291748047, 0.0102691455, 0.038277984, 0.33076954
871, 1428189462, -0.5335739850997925, -0.18989889323711395, 55.83102035522461, 0.017593812, 0.046558734, 0.3368702
872, 1428206129, -0.5335600972175598, -0.1909780204296112, 55.831356048583984, 0.030936055, 0.03975871, 0.34407425
873, 1428222796, -0.533872127532959, -0.19202597439289093, 55.83208084106445, 0.016110422, 0.056576483, 0.34279156
874, 1428239463, -0.5329422354698181, -0.19234591722488403, 55.83338928222656, 0.011335194, 0.04941695, 0.32307816
875, 1428256130, -0.5310544967651367, -0.19208566844463348, 55.831905364990234, 0.023209823, 0.046752345, 0.355793
876, 1428272797, -0.5311527252197266, -0.1904039978981018, 55.83059310913086, 0.02034094, 0.04884589, 0.3324709
877, 1428289464, -0.5315771102905273, -0.19056662917137146, 55.830726623535156, 0.02135681, 0.036961384, 0.33937836
878, 1428306131, -0.5323830246925354, -0.19221946597099304, 55.8302116394043, 0.003978206, 0.05244014, 0.3437271
879, 1428322798, -0.5317583084106445, -0.19263504445552826, 55.829872131347656, 0.016675526, 0.04974618, 0.34402657
880, 1428339465, -0.5292267799377441, -0.1911740005016327, 55.828712463378906, 0.024227845, 0.041057866, 0.34453773
881, 1428356132, -0.5271422863006592, -0.19200466573238373, 55.828678131103516, 0.023789147, 0.030635782, 0.36014462
882, 1428372799, -0.5284035801887512, -0.19245518743991852, 55.82851028442383, 0.023994165, 0.04190055, 0.3595047
883, 1428389466, -0.5303992033004761, -0.1933279186487198, 55.827720642089844, 0.014543377, 0.043526117, 0.36063957
884, 1428406133, -0.5301392674446106, -0.1937343031167984, 55.82767868041992, 0.03570048, 0.045519385, 0.36868858
885, 1428422800, -0.5292764902114868, -0.19416972994804382, 55.82748031616211, 0.007618914, 0.05135986, 0.3549528
886, 1428439467, -0.5288711190223694, -0.1939505934715271, 55.82807540893555, 0.03155577, 0.04176759, 0.33824348
887, 1428456134, -0.5288352370262146, -0.19415995478630066, 55.82745361328125, 0.031447433, 0.041232824, 0.33047867
888, 1428472801, -0.5299566388130188, -0.1946469098329544, 55.826290130615234, 0.028014868, 0.043354664, 0.3294115
889, 1428489468, -0.529623806476593, -0.19499577581882477, 55.826786041259766, 0.019188618, 0.054346316, 0.34025002
890, 1428506135, -0.5277630686759949, -0.19586850702762604, 55.82772445678711, 0.010449765, 0.04853565, 0.33763313
891, 1428522802, -0.5266324877738953, -0.19530126452445984, 55.827598571777344, 0.008858018, 0.042776205, 0.36191463
892, 1428539469, -0.5267470479011536, -0.19608983397483826, 55.82767105102539, 0.045831546, 0.048916433, 0.33207417
893, 1428556136, -0.5283065438270569, -0.19787175953388214, 55.827789306640625, 0.020417765, 0.04180168, 0.35851288
894, 1428572803, -0.528186023235321, -0.1974518746137619, 55.82798767089844, 0.008034435, 0.055514496, 0.35653877
895, 1428589470, -0.5259678959846497, -0.19843463599681854, 55.82779312133789, 0.021383254, 0.054833643, 0.3542986
896, 1428606137, -0.5244895219802856, -0.19912627339363098, 55.82713317871094, 0.040165238, 0.052864313, 0.3553009
897, 1428622804, -0.5240793824195862, -0.19874095916748047, 55.82743453979492, 0.026195876, 0.034111343, 0.33723164
898, 1428639471, -0.5259347558021545, -0.1989823579788208, 55.82644271850586, 0.020430956, 0.048617706, 0.33460236
899, 1428656138, -0.5259210467338562, -0.19934891164302826, 55.82634353637695, 0.016135296, 0.06549405, 0.34228134
900, 1428672805, -0.5243917107582092, -0.19995588064193726, 55.825321197509766, 0.029977567, 0.05242573, 0.34741306
901, 1428689472, -0.5220749974250793, -0.2001388520002365, 55.82494354248047, 0.03489412, 0.04224087, 0.34622002
902, 1428706139, -0.522304356098175, -0.20019516348838806, 55.82499694824219, 0.022517562, 0.053670056, 0.34198475
903, 1428722806, -0.5250450372695923, -0.2008238285779953, 55.82419204711914, 0.015544219, 0.035724014, 0.32190228
904, 1428739473, -0.5269618630409241, -0.20122301578521729, 55.82434844970703, 0.009817719, 0.060285084, 0.36923313
905, 1428756140, -0.5281981229782104, -0.20137880742549896, 55.82510757446289, 0.024864545, 0.047777627, 0.34100056
906, 1428772807, -0.5267619490623474, -0.20043805241584778, 55.82481002807617, 0.016735973, 0.044397764, 0.34602356
907, 1428789474, -0.5261287093162537, -0.20027285814285278, 55.82780075073242, 0.011204645, 0.047396667, 0.33848667
908, 1428806141, -0.5267561078071594, -0.20004792511463165, 55.828521728515625, 0.012403055, 0.045771807, 0.34840012
909, 1428822808, -0.5295629501342773, -0.20100918412208557, 55.82753372192383, 0.023145413, 0.04389615, 0.3329134
910, 1428839475, -0.7118018865585327, -0.14581593871116638, 55.82323455810547, -0.1112158, 0.16935009, 0.33506012
911, 1428856142, -1.017061710357666, -0.16472351551055908, 55.76960372924805, 0.15599176, -0.032587167, 0.3687706
912, 1428872809, -1.0329822301864624, -0.16346918046474457, 55.74448776245117, 0.05322264, -0.028095284, 0.3284893
913, 1428889476, -0.9754449129104614, -0.16895456612110138, 55.617305755615234, 0.14804685, -0.077246994, 0.33761024
914, 1428906143, -0.9138646125793457, -0.1894209235906601, 55.389259338378906, 0.13608098, -0.06621344, 0.38971424
915, 1428922810, -0.9543735980987549, -0.21815088391304016, 55.15835189819336, -0.24043836, 0.26864204, 0.35503578
916, 1428939477, -1.0323845148086548, -0.236272394657135, 55.136165618896484, -0.020886978, 0.085737094, 0.34592533
917, 1428956144, -1.06796133518219, -0.24169054627418518, 55.06375503540039, 0.064489976, -0.0600653, 0.3228712
918, 1428972811, -1.0791759490966797, -0.24409058690071106, 54.808013916015625, 0.13613349, -0.1938855, 0.3497963
919, 1428989478, -1.0971812009811401, -0.25456348061561584, 54.33476257324219, -0.034064464, 0.012411248, 0.33685017
920, 1429006145, -1.100917100906372, -0.2566908299922943, 54.070411682128906, -0.061276034, 0.28715715, 0.36951828
921, 1429022812, -1.097601056098938, -0.24515856802463531, 53.91427230834961, 0.054297563, -0.013804489, 0.33614445
922, 1429039479, -1.0771002769470215, -0.228042334318161, 53.785850524902344, 0.0152709745, 0.16426414, 0.3514986
923, 1429056146, -1.0495117902755737, -0.21736353635787964, 53.57093811035156, 0.32861042, -0.38877618, 0.35105515
924, 1429072813, -1.036376953125, -0.20332635939121246, 53.109947204589844, 0.03908685, 0.051590696, 0.3429966
925, 1429089480, -1.038538932800293, -0.19924825429916382, 52.714420318603516, 0.0784634, 0.0029704522, 0.35757732
926, 1429106147, -1.0441129207611084, -0.20297256112098694, 52.202003479003906, 0.24833393, -0.3294757, 0.37047958
927, 1429122814, -1.0470569133758545, -0.21971262991428375, 51.51549530029297, -0.0485028, -0.09287653, 0.36958885
928, 1429139481, -1.0531103610992432, -0.24527041614055634, 50.81144332885742, -0.22918583, 0.10135577, 0.3450775
929, 1429156148, -1.0477871894836426, -0.27242735028266907, 50.12154769897461, -0.03764777, 0.11699159, 0.32674503
930, 1429172815, -1.0454140901565552, -0.2873615324497223, 49.64120864868164, 0.13336162, -0.046708982, 0.3516512
931, 1429189482, -1.046087622642517, -0.2954152226448059, 49.27778625488281, 0.09483005, 0.027383907, 0.3799448
932, 1429206149, -1.0444589853286743, -0.3078758716583252, 48.98977279663086, -0.06337587, 0.16979827, 0.3501234
933, 1429222816, -1.0439152717590332, -0.3114180564880371, 48.739173889160156, 0.0010611033, 0.07897122, 0.32940483
934, 1429239483, -1.0435863733291626, -0.30878734588623047, 48.51423263549805, -0.038268987, 0.19704355, 0.36067486
935, 1429256150, -1.040271520614624, -0.3202904462814331, 48.34230422973633, -0.26881206, 0.3270575, 0.36991405
936, 1429272817, -1.0420308113098145, -0.3358630836009979, 48.171630859375, -0.010756044, -0.014153819, 0.34170341
937, 1429289484, -1.0452717542648315, -0.3338237404823303, 47.846763610839844, 0.10633121, -0.28162146, 0.34960938
938, 1429306151, -1.040516972541809, -0.32945936918258667, 47.4085693359375, 0.03521365, 0.014410251, 0.35233307
939, 1429322818, -1.0283684730529785, -0.3263000249862671, 46.9146842956543, 0.098716624, 0.039065406, 0.3412466
940, 1429339485, -1.0162221193313599, -0.3294113874435425, 46.55704116821289, 0.04609128, 0.18605453, 0.35257816
941, 1429356152, -1.014832854270935, -0.33373042941093445, 46.37876892089844, 0.10034007, -0.014293905, 0.3419361
942, 1429372819, -1.014920949935913, -0.3422151803970337, 46.22467803955078, -0.011226392, 0.009959084, 0.3601961
943, 1429389486, -1.0105934143066406, -0.3473861515522003, 46.02289581298828, 0.04916438, -0.031056434, 0.3407936
944, 1429406153, -1.0102046728134155, -0.35065969824790955, 45.779212951660156, 0.107143, -0.12263865, 0.33716202
945, 1429422820, -1.0069375038146973, -0.35247835516929626, 45.5072021484375, 0.22753474, -0.19521809, 0.3413477
946, 1429439487, -1.0061724185943604, -0.34619495272636414, 45.19179153442383, 0.23884016, -0.2315523, 0.35864067
947, 1429456154, -1.005157232284546, -0.3508090078830719, 44.86478042602539, -0.15474947, 0.04960161, 0.36112213
948, 1429472821, -1.0038431882858276, -0.36383095383644104, 44.61726760864258, -0.17135149, 0.23048393, 0.34495258
949, 1429489488, -1.0006053447723389, -0.37590286135673523, 44.4605712890625, -0.11067217, 0.16901538, 0.35150528
950, 1429506155, -0.9973773956298828, -0.3779812455177307, 44.29317855834961, 0.0025958864, 0.04407567, 0.33243847
951, 1429522822, -0.9982833862304688, -0.3706859350204468, 44.07261657714844, 0.16204007, -0.16205756, 0.372756
952, 1429539489, -0.9942569732666016, -0.3699510991573334, 43.79150390625, 0.013661042, -0.14414479, 0.35605335
953, 1429556156, -0.9955237507820129, -0.37455859780311584, 43.43606948852539, 0.005068394, -0.16837761, 0.35652065
954, 1429572823, -0.9910308122634888, -0.37351810932159424, 43.063053131103516, 0.033616565, 0.022256045, 0.3571329
955, 1429589490, -0.9847291707992554, -0.37448665499687195, 42.7784538269043, 0.010554833, 0.22594263, 0.33721542
956, 1429606157, -0.9808055758476257, -0.37350860238075256, 42.573734283447266, 0.08245579, 0.15272284, 0.36127853
957, 1429622824, -0.9764584898948669, -0.376884400844574, 42.38257598876953, 0.016015919, 0.10921755, 0.3496189
958, 1429639491, -0.9745771884918213, -0.38549840450286865, 42.18433380126953, -0.1796889, 0.1161406, 0.35041046
959, 1429656158, -0.9678868055343628, -0.3915526270866394, 41.9843635559082, -0.057741072, 0.029199697, 0.35036373
960, 1429672825, -0.9680686593055725, -0.3926232159137726, 41.765533447265625, 0.12408009, -0.21364813, 0.33619118
961, 1429689492, -0.9648184180259705, -0.39296844601631165, 41.553131103515625, -0.0044875257, 0.09710739, 0.36321163
962, 1429706159, -0.959118664264679, -0.39436963200569153, 41.36919403076172, -0.00674589, 0.15135267, 0.3401165
963, 1429722826, -0.9554328918457031, -0.39551424980163574, 41.19611740112305, 0.1366031, -0.094900236, 0.3450575
964, 1429739493, -0.953446626663208, -0.392819344997406, 40.998104095458984, 0.060474407, 0.018784242, 0.35416222
965, 1429756160, -0.9481229186058044, -0.39434364438056946, 40.787132263183594, -0.04656864, 0.091257475, 0.33672142
966, 1429772827, -0.9479170441627502, -0.394790917634964, 40.559898376464844, 0.09598307, -0.08802756, 0.34897423
967, 1429789494, -0.9458103775978088, -0.3943723142147064, 40.34537887573242, -0.016526502, 0.07204446, 0.34639168
968, 1429806161, -0.9459532499313354, -0.39295947551727295, 40.15169906616211, -0.0102152685, 0.0015962387, 0.32729244
969, 1429822828, -0.9403842091560364, -0.3962439298629761, 39.89962387084961, -0.16606408, 0.09451289, 0.35494995
970, 1429839495, -0.936242401599884, -0.39925187826156616, 39.62849807739258, 0.047797013, -0.11901814, 0.33998775
971, 1429856162, -0.9349079728126526, -0.40259990096092224, 39.299888610839844, 0.18110014, -0.20493034, 0.34462547
972, 1429872829, -0.9301510453224182, -0.4016881287097931, 38.90516662597656, 0.25747257, -0.28914586, 0.3585043
973, 1429889496, -0.9228973984718323, -0.4073942005634308, 38.475521087646484, 0.121199846, -0.098440655, 0.31668472
974, 1429906163, -0.9128418564796448, -0.4184320271015167, 38.065834045410156, -0.08903592, 0.12481877, 0.35427856
975, 1429922830, -0.9035446047782898, -0.4281591475009918, 37.689266204833984, -0.2512537, 0.28723875, 0.34699345
976, 1429939497, -0.8941804766654968, -0.4358084499835968, 37.366905212402344, -0.0018862713, 0.07386393, 0.34455013
977, 1429956164, -0.8911464810371399, -0.43882399797439575, 37.080448150634766, 0.1284147, -0.1626924, 0.32657242
978, 1429972831, -0.8926475048065186, -0.44464296102523804, 36.82316589355469, 0.11276474, -0.102434665, 0.3351307
979, 1429989498, -0.8839020133018494, -0.45511093735694885, 36.61899948120117, -0.012586577, 0.06756601, 0.34037685
980, 1430006165, -0.8787522315979004, -0.45973438024520874, 36.41214370727539, 0.07733577, -0.08898758, 0.37479782
981, 1430022832, -0.8737837076187134, -0.46394503116607666, 36.1778450012207, 0.094520256, -0.064375356, 0.3624773
982, 1430039499, -0.8720942139625549, -0.4709549844264984, 35.93730926513672, -0.0076008094, -0.03808825, 0.33683968
983, 1430056166, -0.870006263256073, -0.4792530834674835, 35.71920394897461, -0.1293328, 0.12024486, 0.33852768
984, 1430072833, -0.8655779361724854, -0.47981807589530945, 35.50606918334961, 0.0026188453, -0.061811265, 0.33496857
985, 1430089500, -0.8646200299263, -0.47636982798576355, 35.26036071777344, 0.13729994, -0.25328907, 0.33557224
986, 1430106167, -0.8616777658462524, -0.4756344258785248, 34.979244232177734, 0.17448907, -0.24561132, 0.34269905
987, 1430122834, -0.8557536005973816, -0.47985830903053284, 34.64170837402344, 0.100040264, -0.21454251, 0.322361
988, 1430139501, -0.8455942869186401, -0.4837781488895416, 34.2837028503418, 0.043207772, 0.018391944, 0.34546566
989, 1430156168, -0.8363490104675293, -0.48745396733283997, 33.95302963256836, 0.07398729, 0.03587753, 0.32782078
990, 1430172835, -0.827467679977417, -0.4899372160434723, 33.593746185302734, 0.12642474, -0.05991285, 0.35059357
991, 1430189502, -0.8206825256347656, -0.492642343044281, 33.20357131958008, 0.07031758, -0.09976501, 0.36524487
992, 1430206169, -0.8086509108543396, -0.49449867010116577, 32.816532135009766, 0.0688783, -0.07206579, 0.34604454
993, 1430222836, -0.8076964020729065, -0.4952024221420288, 32.42676544189453, -0.05372708, -0.19892262, 0.32859612
994, 1430239503, -0.8043017387390137, -0.5007122159004211, 32.02946090698242, -0.23466559, 0.111293286, 0.33106804
995, 1430256170, -0.7961938977241516, -0.5074976682662964, 31.65938949584961, -0.17917319, 0.11657716, 0.34685326
996, 1430272837, -0.7894633412361145, -0.5116656422615051, 31.233768463134766, 0.03980264, -0.24823405, 0.35707378
997, 1430289504, -0.7939144372940063, -0.513096034526825, 30.804914474487305, 0.14199913, -0.12979347, 0.34462833
998, 1430306171, -0.801267683506012, -0.515326976776123, 30.388721466064453, 0.08502594, -0.020463303, 0.3704281
999, 1430322838, -0.8134263753890991, -0.5158171653747559, 29.976953506469727, 0.067622125, 0.08199904, 0.35189342
1000, 1430339505, -0.8203031420707703, -0.512356698513031, 29.58342170715332, -0.041262418, 0.27600998, 0.34565544
1001, 1430356172, -0.8260737061500549, -0.5160150527954102, 29.283729553222656, -0.27104387, 0.49907175, 0.30347824
1002, 1430372839, -0.8272750973701477, -0.5180208683013916, 29.060123443603516, -0.2747757, 0.29767314, 0.3400383
1003, 1430389506, -0.8295952677726746, -0.5182379484176636, 28.85245704650879, -0.03820357, 0.026994655, 0.3319664
1004, 1430406173, -0.8297503590583801, -0.518958330154419, 28.641374588012695, 0.045346126, -0.0018838266, 0.3643465
1005, 1430422840, -0.8303673267364502, -0.5218400955200195, 28.414960861206055, -0.005583378, 0.01707528, 0.36524677
1006, 1430439507, -0.8291193842887878, -0.5266436338424683, 28.17279624938965, -0.09793806, 0.13245676, 0.3482647
1007, 1430456174, -0.8256446123123169, -0.5311183333396912, 27.90336799621582, -0.063834704, 0.065272406, 0.3303442
1008, 1430472841, -0.8218950033187866, -0.5341604948043823, 27.62588119506836, -0.060473744, 0.028672183, 0.35528564
1009, 1430489508, -0.8158292174339294, -0.5359805226325989, 27.362079620361328, -0.09647916, 0.16586053, 0.3361826
1010, 1430506175, -0.8112531304359436, -0.53538978099823, 27.13872718811035, 0.016168166, 0.08593227, 0.35179996
1011, 1430522842, -0.8058750629425049, -0.5382394790649414, 26.956623077392578, 0.048870765, -0.003983319, 0.38790035
1012, 1430539509, -0.8041104078292847, -0.5424203872680664, 26.774131774902344, 0.09809967, -0.2184589, 0.3522234
1013, 1430556176, -0.801872193813324, -0.539914608001709, 26.52137565612793, 0.16127291, -0.47538233, 0.34773636
1014, 1430572843, -0.7959477305412292, -0.5446767807006836, 26.233016967773438, 0.055817395, -0.018955711, 0.34782124
1015, 1430589510, -0.7905853390693665, -0.5536720752716064, 25.992294311523438, -0.08941052, 0.16897734, 0.34087563
1016, 1430606177, -0.7865404486656189, -0.5576028227806091, 25.752033233642578, -7.3092926E-4, -0.091707796, 0.34329605
1017, 1430622844, -0.7818880677223206, -0.5627344250679016, 25.50357437133789, 0.085998595, -0.1766652, 0.3575163
1018, 1430639511, -0.7765812873840332, -0.5624754428863525, 25.203166961669922, 0.08637313, -0.20405276, 0.33528042
1019, 1430656178, -0.7674707770347595, -0.5633944272994995, 24.853342056274414, 0.1490267, -0.24756224, 0.34620953
1020, 1430672845, -0.7526625394821167, -0.5729623436927795, 24.517436981201172, 0.13592768, -0.09196825, 0.36288357
1021, 1430689512, -0.7369523048400879, -0.5797178149223328, 24.206266403198242, 0.022322847, 0.036152642, 0.34646034
1022, 1430706179, -0.7232312560081482, -0.5901426672935486, 23.97665023803711, -0.23048186, 0.15198487, 0.35857964
1023, 1430722846, -0.7052945494651794, -0.5946689248085022, 23.764379501342773, -0.21029526, 0.2114658, 0.32660103
1024, 1430739513, -0.6885648965835571, -0.5951957106590271, 23.545103073120117, -0.030435728, -0.023984976, 0.33137226
1025, 1430756180, -0.6700133681297302, -0.5951125621795654, 23.300216674804688, 0.099699795, -0.19224328, 0.35289764
1026, 1430772847, -0.6489155888557434, -0.6018590331077576, 23.030799865722656, 0.13873602, -0.10293664, 0.3532238
1027, 1430789514, -0.6309079527854919, -0.6052599549293518, 22.77899742126465, 0.06947258, 0.01899972, 0.31969833
1028, 1430806181, -0.6095037460327148, -0.6035893559455872, 22.54230499267578, 0.031717304, -0.026646739, 0.35802364
1029, 1430822848, -0.5936841368675232, -0.6008338332176208, 22.3063907623291, 0.06796384, -0.046846513, 0.32140446
1030, 1430839515, -0.5783067345619202, -0.5970320701599121, 22.060976028442383, 0.081484295, -0.16490598, 0.35091877
1031, 1430856182, -0.5637187957763672, -0.5971924066543579, 21.7959041595459, 0.02094366, -0.09019611, 0.3458538
1032, 1430872849, -0.5452818870544434, -0.6026837229728699, 21.562740325927734, -0.10196773, 0.012068258, 0.33324718
1033, 1430889516, -0.5267203450202942, -0.6063976883888245, 21.398914337158203, -0.059197593, -0.039863605, 0.3595686
1034, 1430906183, -0.5162703394889832, -0.6100345253944397, 21.182567596435547, 0.07395264, -0.19231088, 0.31708336
1035, 1430922850, -0.512687623500824, -0.6151615381240845, 20.923580169677734, 0.11333798, -0.1991417, 0.35080433
1036, 1430939517, -0.5086756944656372, -0.6230012774467468, 20.656930923461914, 0.09654472, -0.06249265, 0.31327248
1037, 1430956184, -0.5022194981575012, -0.620137631893158, 20.364200592041016, -0.074582525, -0.024533361, 0.357749
1038, 1430972851, -0.49310243129730225, -0.6197338104248047, 20.05630111694336, -0.08589389, -0.061864614, 0.310606
1039, 1430989518, -0.48693960905075073, -0.621216356754303, 19.715139389038086, -0.015886173, -0.19911239, 0.33685398
1040, 1431006185, -0.4819815456867218, -0.6342888474464417, 19.365642547607422, 0.03113942, -0.06328132, 0.3242588
1041, 1431022852, -0.4732549488544464, -0.6402499079704285, 19.06842041015625, -0.06512045, 0.0293329, 0.33240032
1042, 1431039519, -0.47094565629959106, -0.6417371034622192, 18.736169815063477, -0.05624714, -0.1396253, 0.3462391
1043, 1431056186, -0.45803749561309814, -0.6520852446556091, 18.360063552856445, -0.038325172, -0.17203625, 0.35360622
