sep=,
DeviceTag:,Movella DOT,,,,,,,,,,,,,,,,,
FirmwareVersion:,3.0.0,,,,,,,,,,,,,,,,,
AppVersion:,2023.6.1,,,,,,,,,,,,,,,,,
SyncStatus:,Un-synced,,,,,,,,,,,,,,,,,
OutputRate:,60Hz,,,,,,,,,,,,,,,,,
FilterProfile:,Dynamic,,,,,,,,,,,,,,,,,
Measurement Mode:,Sensor fusion Mode - Complete (Euler),,,,,,,,,,,,,,,,,
StartTime:,2024-11-04 10:52:23.712 +0700,,,,,,,,,,,,,,,,,
 2024,,,,,,,,,,,,,,,,,,,

PacketCounter,SampleTimeFine,Euler_X,Euler_Y,Euler_Z,FreeAcc_X,FreeAcc_Y,FreeAcc_Z
1, 1713294413, 1.509107232093811, -1.1609431505203247, 16.81429100036621, -0.02944459, 0.013298225, 0.34242916
2, 1713311080, 1.5261270999908447, -1.1604727506637573, 16.822370529174805, -0.04384352, 0.036519963, 0.3475294
3, 1713327747, 1.5791949033737183, -1.1423754692077637, 16.860889434814453, -0.050241083, 0.032414045, 0.32890892
4, 1713344414, 1.6360299587249756, -1.1166903972625732, 16.87529182434082, -0.037561268, -0.01423202, 0.35190105
5, 1713361081, 1.6567116975784302, -1.0962752103805542, 16.955646514892578, -0.009503701, -0.015089542, 0.36023426
6, 1713377748, 1.6602060794830322, -1.092111349105835, 16.906959533691406, -0.0056705168, -0.016299613, 0.3522005
7, 1713394415, 1.6562936305999756, -1.0984243154525757, 16.924467086791992, -0.0019215199, -0.016552309, 0.33655548
8, 1713411082, 1.649702548980713, -1.109597086906433, 16.92529296875, -0.01736154, -0.0049061235, 0.3509264
9, 1713427749, 1.6421830654144287, -1.1222386360168457, 16.939884185791016, -0.037887093, 5.0899485E-4, 0.32454586
10, 1713444416, 1.6376450061798096, -1.1343733072280884, 16.94086456298828, -0.01768792, 0.0010969318, 0.34511662
11, 1713461083, 1.6337496042251587, -1.1485480070114136, 16.936317443847656, -0.046569254, 0.009715312, 0.34887028
12, 1713477750, 1.6332154273986816, -1.1588950157165527, 16.95297622680664, -0.030835638, 0.009261329, 0.32888794
13, 1713494417, 1.6320867538452148, -1.1728699207305908, 16.956575393676758, -0.037968766, 0.009503701, 0.34202385
14, 1713511084, 1.630764126777649, -1.1862006187438965, 16.980899810791016, -0.039463297, 0.02136612, 0.31442547
15, 1713527751, 1.6313199996948242, -1.1998910903930664, 16.983285903930664, -0.039055772, 0.009262153, 0.3249836
16, 1713544418, 1.630732774734497, -1.2148511409759521, 16.984079360961914, -0.034725573, 0.0069340286, 0.32505226
17, 1713561085, 1.6306172609329224, -1.231160283088684, 17.007253646850586, -0.054259025, 3.6779058E-4, 0.33339596
18, 1713577752, 1.6301672458648682, -1.246808409690857, 17.016769409179688, -0.040308625, 0.0032516106, 0.35283566
19, 1713594419, 1.6297885179519653, -1.2617322206497192, 17.028966903686523, -0.04805988, 9.965325E-4, 0.31842804
20, 1713611086, 1.6284013986587524, -1.2767397165298462, 17.03378677368164, -0.061417576, -0.0060744956, 0.3290167
21, 1713627753, 1.6260473728179932, -1.2925089597702026, 17.030649185180664, -0.05153295, 0.0038547323, 0.32684135
22, 1713644420, 1.6235297918319702, -1.3077188730239868, 17.03314971923828, -0.042058844, -0.004852033, 0.34718704
23, 1713661087, 1.622046947479248, -1.323349118232727, 17.03705596923828, -0.065960996, -0.0028106754, 0.35256767
24, 1713677754, 1.6204346418380737, -1.3375366926193237, 17.04279327392578, -0.047759738, 0.0061782333, 0.31736374
25, 1713694421, 1.6195356845855713, -1.3523118495941162, 17.030935287475586, -0.040914085, 0.0064939596, 0.3408575
26, 1713711088, 1.6192052364349365, -1.3683019876480103, 17.04401397705078, -0.06556334, -0.0040905387, 0.35117722
27, 1713727755, 1.617344856262207, -1.384460210800171, 17.05278968811035, -0.073560596, 0.0052791806, 0.35400677
28, 1713744422, 1.6137683391571045, -1.3990814685821533, 17.060304641723633, -0.06267815, -0.011138642, 0.31161308
29, 1713761089, 1.6109496355056763, -1.4137156009674072, 17.066509246826172, -0.07444399, -0.009071749, 0.34559917
30, 1713777756, 1.6083321571350098, -1.4289779663085938, 17.070878982543945, -0.0738357, -0.0023347046, 0.35483742
31, 1713794423, 1.6073107719421387, -1.4446247816085815, 17.083789825439453, -0.08114705, -0.0030498062, 0.36091137
32, 1713811090, 1.6037228107452393, -1.4602755308151245, 17.09272003173828, -0.08046351, -0.011829199, 0.3517971
33, 1713827757, 1.6006572246551514, -1.4759899377822876, 17.101503372192383, -0.07887495, -0.0027189793, 0.35241795
34, 1713844424, 1.5995259284973145, -1.490351915359497, 17.109283447265625, -0.08017085, -0.005842531, 0.34767437
35, 1713861091, 1.5960044860839844, -1.5062382221221924, 17.118581771850586, -0.076394044, -0.0186464, 0.33401775
36, 1713877758, 1.5935790538787842, -1.5213788747787476, 17.12543296813965, -0.0815545, -0.004844629, 0.3373556
37, 1713894425, 1.5911165475845337, -1.5373358726501465, 17.1282958984375, -0.10393083, -0.009231043, 0.33642197
38, 1713911092, 1.587707757949829, -1.5540580749511719, 17.13933563232422, -0.10571712, -0.0086255325, 0.32924843
39, 1713927759, 1.5841013193130493, -1.57069730758667, 17.151500701904297, -0.110446274, -0.013256358, 0.3544302
40, 1713944426, 1.5815924406051636, -1.5867592096328735, 17.150312423706055, -0.10237109, -0.0010937885, 0.33516407
41, 1713961093, 1.5798568725585938, -1.6027246713638306, 17.170984268188477, -0.10056604, -0.015673386, 0.34524155
42, 1713977760, 1.5784106254577637, -1.619895339012146, 17.17815399169922, -0.10743332, -0.010925313, 0.34494686
43, 1713994427, 1.5749834775924683, -1.6366764307022095, 17.189035415649414, -0.12009178, -0.008249248, 0.33937168
44, 1714011094, 1.5736054182052612, -1.6513950824737549, 17.190088272094727, -0.11700049, -0.020001266, 0.34766865
45, 1714027761, 1.5713002681732178, -1.6676386594772339, 17.183984756469727, -0.12346551, -0.0077260607, 0.34696293
46, 1714044428, 1.5682088136672974, -1.682691216468811, 17.185317993164062, -0.124175176, -0.018275384, 0.3583889
47, 1714061095, 1.5658208131790161, -1.699473261833191, 17.200468063354492, -0.1319681, -0.009550122, 0.3281641
48, 1714077762, 1.5627106428146362, -1.7142980098724365, 17.202913284301758, -0.12615271, -0.01710933, 0.34856796
49, 1714094429, 1.5598421096801758, -1.7295974493026733, 17.205686569213867, -0.12801509, -0.0155823175, 0.35601044
50, 1714111096, 1.5567364692687988, -1.7459384202957153, 17.204191207885742, -0.12962729, -0.029260695, 0.34432602
51, 1714127763, 1.5542699098587036, -1.7614235877990723, 17.21358299255371, -0.1278676, -0.016891306, 0.32783318
52, 1714144430, 1.551570177078247, -1.7774382829666138, 17.221298217773438, -0.12412183, -0.012858658, 0.3597269
53, 1714161097, 1.5469530820846558, -1.7941370010375977, 17.230701446533203, -0.14819746, -0.0010736445, 0.33753586
54, 1714177764, 1.5449367761611938, -1.8104629516601562, 17.236047744750977, -0.1305867, -0.020514816, 0.3474722
55, 1714194431, 1.5424022674560547, -1.8270583152770996, 17.237667083740234, -0.13223173, -0.020557227, 0.3708372
56, 1714211098, 1.5392427444458008, -1.8427366018295288, 17.229955673217773, -0.14267121, -0.01566492, 0.36279964
57, 1714227765, 1.536375880241394, -1.8575849533081055, 17.230552673339844, -0.14354147, -0.0056581884, 0.34806728
58, 1714244432, 1.5331757068634033, -1.8733822107315063, 17.227527618408203, -0.17881705, -0.027862761, 0.34949398
59, 1714261099, 1.5293076038360596, -1.8874088525772095, 17.23168182373047, -0.15781511, -0.015115567, 0.33336258
60, 1714277766, 1.5262285470962524, -1.9017643928527832, 17.236061096191406, -0.15581116, -0.01920679, 0.34286785
61, 1714294433, 1.5229436159133911, -1.9163658618927002, 17.230009078979492, -0.15343729, -0.033238318, 0.33633423
62, 1714311100, 1.52048659324646, -1.9320368766784668, 17.24982261657715, -0.16913325, -0.018126259, 0.3344698
63, 1714327767, 1.5188186168670654, -1.9460970163345337, 17.25602149963379, -0.1707334, -0.030382717, 0.36129856
64, 1714344434, 1.5155881643295288, -1.960180401802063, 17.236160278320312, -0.17108297, -0.02060211, 0.34783745
65, 1714361101, 1.5130620002746582, -1.975728988647461, 17.22620964050293, -0.17400277, -0.012466519, 0.34397888
66, 1714377768, 1.5108171701431274, -1.990396499633789, 17.230314254760742, -0.1710174, -0.013188801, 0.345788
67, 1714394435, 1.5091066360473633, -2.005134344100952, 17.232894897460938, -0.17421076, -0.027705912, 0.32772732
68, 1714411102, 1.50614595413208, -2.0186755657196045, 17.226318359375, -0.16559988, -0.019314034, 0.3366108
69, 1714427769, 1.5021904706954956, -2.0322556495666504, 17.226478576660156, -0.19673431, -0.03268997, 0.34564018
70, 1714444436, 1.4989019632339478, -2.0476858615875244, 17.222131729125977, -0.18529756, -0.01749563, 0.35728168
71, 1714461103, 1.4975076913833618, -2.0604233741760254, 17.214282989501953, -0.18265869, -0.030903641, 0.34556866
72, 1714477770, 1.4938567876815796, -2.0735063552856445, 17.223873138427734, -0.16730353, -0.026440926, 0.33636284
73, 1714494437, 1.4903802871704102, -2.08709716796875, 17.222627639770508, -0.18823731, -0.026968108, 0.34881783
74, 1714511104, 1.487271785736084, -2.102285861968994, 17.226091384887695, -0.20712359, -0.015857322, 0.34962368
75, 1714527771, 1.4827892780303955, -2.115738868713379, 17.229015350341797, -0.19816667, -0.013077743, 0.3345976
76, 1714544438, 1.4801563024520874, -2.1282238960266113, 17.22705841064453, -0.19026853, -0.010519512, 0.34723186
77, 1714561105, 1.4766385555267334, -2.141167402267456, 17.229351043701172, -0.20006365, -0.03081907, 0.35405636
78, 1714577772, 1.474968433380127, -2.1539838314056396, 17.234758377075195, -0.21572416, -0.021161271, 0.3524208
79, 1714594439, 1.4721254110336304, -2.168030023574829, 17.238527297973633, -0.2142474, -0.03218409, 0.36993313
80, 1714611106, 1.4688576459884644, -2.181957960128784, 17.23583984375, -0.21485949, -0.032322083, 0.34266472
81, 1714627773, 1.4664552211761475, -2.19553542137146, 17.22584342956543, -0.21492924, -0.03331694, 0.35312843
82, 1714644440, 1.4656401872634888, -2.207580089569092, 17.223453521728516, -0.22198759, -0.029822119, 0.34334373
83, 1714661107, 1.4629607200622559, -2.21968412399292, 17.22057342529297, -0.21220592, -0.020861916, 0.35417938
84, 1714677774, 1.4607471227645874, -2.232922077178955, 17.221675872802734, -0.2174043, -0.039379854, 0.34187698
85, 1714694441, 1.457389235496521, -2.2448973655700684, 17.21750259399414, -0.20580752, -0.01821143, 0.3589363
86, 1714711108, 1.4548094272613525, -2.2557590007781982, 17.21028709411621, -0.20911947, 0.007321502, 0.32431316
87, 1714727775, 1.4526128768920898, -2.267127513885498, 17.209436416625977, -0.23705368, -0.008754667, 0.35296154
88, 1714744442, 1.450417399406433, -2.278407096862793, 17.223676681518555, -0.24385518, -0.011869991, 0.33603668
89, 1714761109, 1.4480558633804321, -2.2905924320220947, 17.21991729736328, -0.24315096, -0.043646142, 0.3550682
90, 1714777776, 1.4437322616577148, -2.302983045578003, 17.207963943481445, -0.24523613, -0.042196445, 0.35439205
91, 1714794443, 1.4410008192062378, -2.3130693435668945, 17.199478149414062, -0.23491561, -0.009792633, 0.358325
92, 1714811110, 1.4392648935317993, -2.3246545791625977, 17.18526840209961, -0.23092909, -0.019951228, 0.35454178
93, 1714827777, 1.436936378479004, -2.3353185653686523, 17.179874420166016, -0.23726903, -0.016518654, 0.3387804
94, 1714844444, 1.4340378046035767, -2.345067262649536, 17.170589447021484, -0.24500431, -0.020666078, 0.34297562
95, 1714861111, 1.4312868118286133, -2.3563826084136963, 17.178110122680664, -0.24318656, -0.051707856, 0.3521471
96, 1714877778, 1.4290517568588257, -2.366035223007202, 17.169315338134766, -0.2405214, -0.03605422, 0.3572626
97, 1714894445, 1.4270151853561401, -2.3758504390716553, 17.163883209228516, -0.22865064, -0.02384541, 0.3585205
98, 1714911112, 1.4237492084503174, -2.3858230113983154, 17.16070556640625, -0.23427658, -0.017617403, 0.34898186
99, 1714927779, 1.42162024974823, -2.3947887420654297, 17.157278060913086, -0.2537606, -0.022040725, 0.35042
100, 1714944446, 1.4191468954086304, -2.406738042831421, 17.158920288085938, -0.24479614, -0.03870567, 0.35071182
101, 1714961113, 1.4166017770767212, -2.4176089763641357, 17.155555725097656, -0.26117557, -0.04069217, 0.33244705
102, 1714977780, 1.4151649475097656, -2.4280359745025635, 17.145042419433594, -0.26563594, -0.01627483, 0.3347597
103, 1714994447, 1.412208080291748, -2.4372103214263916, 17.150379180908203, -0.2536298, -0.017130703, 0.3521347
104, 1715011114, 1.409677505493164, -2.4476189613342285, 17.150226593017578, -0.26316825, -0.015933624, 0.35853577
105, 1715027781, 1.407917857170105, -2.457664966583252, 17.144559860229492, -0.27576977, -0.031525943, 0.35475826
106, 1715044448, 1.4062787294387817, -2.4646379947662354, 17.138355255126953, -0.28110123, -0.05202466, 0.34170628
107, 1715061115, 1.4038143157958984, -2.4754741191864014, 17.1391658782959, -0.26552764, -0.02888606, 0.33363914
108, 1715077782, 1.4021188020706177, -2.4850707054138184, 17.136146545410156, -0.25806555, -0.027369805, 0.32679844
109, 1715094449, 1.4013200998306274, -2.4926373958587646, 17.133710861206055, -0.2678028, -0.034348466, 0.3660717
110, 1715111116, 1.399544596672058, -2.5005977153778076, 17.131589889526367, -0.27248842, -0.026992528, 0.34670448
111, 1715127783, 1.3965940475463867, -2.508370876312256, 17.126880645751953, -0.28589052, -0.036594316, 0.32989025
112, 1715144450, 1.3942636251449585, -2.516099452972412, 17.116960525512695, -0.25944015, -0.024955291, 0.36045933
113, 1715161117, 1.3924250602722168, -2.5244271755218506, 17.119483947753906, -0.27201554, -0.025495717, 0.35178757
114, 1715177784, 1.3913352489471436, -2.531184673309326, 17.1220645904541, -0.27445084, -0.045246456, 0.34950352
115, 1715194451, 1.3880512714385986, -2.5382637977600098, 17.128093719482422, -0.27335694, -0.02543196, 0.34765816
116, 1715211118, 1.386676549911499, -2.546320915222168, 17.11830711364746, -0.29397702, -0.035369907, 0.35186672
117, 1715227785, 1.385302186012268, -2.5525457859039307, 17.115846633911133, -0.27827835, -0.014004358, 0.34861088
118, 1715244452, 1.3839958906173706, -2.5588581562042236, 17.11795425415039, -0.2934971, -0.041604478, 0.35399532
119, 1715261119, 1.3834848403930664, -2.5660321712493896, 17.12257194519043, -0.27146336, -0.036411364, 0.36228466
120, 1715277786, 1.7026256322860718, -0.966780960559845, 16.934852600097656, -0.0071293437, -0.011102545, 0.34681034
121, 1715294453, 1.702117681503296, -0.966009259223938, 16.93769073486328, 0.009507452, 0.016669918, 0.3490162
122, 1715311120, 1.7022931575775146, -0.9646169543266296, 16.941272735595703, -0.009196287, -0.0012266391, 0.35281563
123, 1715327787, 1.7032346725463867, -0.9652402400970459, 16.94185447692871, 0.013639578, -0.006518965, 0.3414955
124, 1715344454, 1.7041822671890259, -0.965381383895874, 16.94223403930664, 0.00723355, 0.005336218, 0.35362434
125, 1715361121, 1.7039461135864258, -0.9642070531845093, 16.944692611694336, 0.009049963, 5.284545E-4, 0.3688221
126, 1715377788, 1.7037999629974365, -0.9659975171089172, 16.944496154785156, 0.012537352, 0.0034991512, 0.3671713
127, 1715394455, 1.7031720876693726, -0.9657265543937683, 16.94522476196289, -0.0030258487, 0.0022885213, 0.34226513
128, 1715411122, 1.7027411460876465, -0.965651273727417, 16.94646453857422, 0.0048193163, 0.0055916235, 0.35011196
129, 1715427789, 1.7019697427749634, -0.9668762683868408, 16.948740005493164, 0.011999, -0.0025286858, 0.35757065
130, 1715444456, 1.7028899192810059, -0.9664138555526733, 16.94927978515625, 0.003626805, 0.005195894, 0.3296585
131, 1715461123, 1.7027995586395264, -0.9672665596008301, 16.948429107666016, -0.0056543993, 0.0034848324, 0.34521866
132, 1715477790, 1.7043721675872803, -0.9659366607666016, 16.94622802734375, 0.003677305, -0.0065029836, 0.34183693
133, 1715494457, 1.704262614250183, -0.9665752053260803, 16.946439743041992, 0.0014795929, -0.0015587095, 0.36253834
134, 1715511124, 1.7043111324310303, -0.9672867059707642, 16.946033477783203, 0.0134176295, 0.0048881304, 0.3426094
135, 1715527791, 1.7046083211898804, -0.9685584902763367, 16.947513580322266, 0.008106682, 0.0033902864, 0.3497753
136, 1715544458, 1.7046656608581543, -0.9684473872184753, 16.948694229125977, 0.010177299, 0.009002445, 0.35051632
137, 1715561125, 1.7035293579101562, -0.9686668515205383, 16.949392318725586, -0.010874827, 4.5329824E-4, 0.3560629
138, 1715577792, 1.7034213542938232, -0.9691974520683289, 16.94941520690918, 0.0063053495, -0.0028058977, 0.36012363
139, 1715594459, 1.7034282684326172, -0.9694342613220215, 16.949453353881836, 0.004430781, -0.001631421, 0.32505035
140, 1715611126, 1.7024569511413574, -0.9694315791130066, 16.948705673217773, 0.006488232, 6.9275044E-4, 0.31859303
141, 1715627793, 1.7026325464248657, -0.9687089920043945, 16.951419830322266, 0.0038490188, 0.0072955326, 0.3432274
142, 1715644460, 1.7028388977050781, -0.968307614326477, 16.950897216796875, 0.0041538836, -0.005585938, 0.34581184
143, 1715661127, 1.7014209032058716, -0.9670700430870056, 16.952651977539062, 0.002260121, -0.01281918, 0.36697674
144, 1715677794, 1.7010027170181274, -0.9658344388008118, 16.954051971435547, 0.007965331, 0.0026085638, 0.35953903
145, 1715694461, 1.7010688781738281, -0.9664359092712402, 16.954133987426758, 0.008868058, -0.01171261, 0.33732796
146, 1715711128, 1.7000737190246582, -0.9664021134376526, 16.958946228027344, -0.0019014736, 0.0010534584, 0.35289288
147, 1715727795, 1.7004846334457397, -0.9668040871620178, 16.960899353027344, 6.908087E-4, 0.00139236, 0.35643482
148, 1715744462, 1.7007739543914795, -0.9657333493232727, 16.959196090698242, 0.014511138, 0.015436503, 0.37862873
149, 1715761129, 1.7000235319137573, -0.9670435786247253, 16.961029052734375, -0.0076690926, 0.01083778, 0.3172102
150, 1715777796, 1.6993510723114014, -0.9667078256607056, 16.961206436157227, 0.011382767, -0.0101985885, 0.35494232
151, 1715794463, 1.6981488466262817, -0.9680327773094177, 16.959545135498047, 0.015797818, -1.8666126E-4, 0.35624504
152, 1715811130, 1.6982945203781128, -0.9678338766098022, 16.960132598876953, 0.009394522, 0.004867246, 0.3541746
153, 1715827797, 1.6967639923095703, -0.9670975804328918, 16.960798263549805, -0.0025167, 0.0043443516, 0.36597443
154, 1715844464, 1.6965395212173462, -0.967634916305542, 16.961931228637695, 0.0030043563, -0.0030794917, 0.3341112
155, 1715861131, 1.6977241039276123, -0.96755051612854, 16.96407699584961, 0.0076279733, -0.009573842, 0.36622047
156, 1715877798, 1.6972988843917847, -0.967441976070404, 16.96383285522461, 0.0047895825, 0.002807197, 0.35801315
157, 1715894465, 1.696987509727478, -0.9661176800727844, 16.96317481994629, 0.0072356383, 0.016462848, 0.3250084
158, 1715911132, 1.6973847150802612, -0.967042863368988, 16.963092803955078, 1.6769758E-4, 0.0071584354, 0.37282944
159, 1715927799, 1.6965128183364868, -0.9664523601531982, 16.96381378173828, 0.0038406441, -0.015027768, 0.37507725
160, 1715944466, 1.6974403858184814, -0.9634345769882202, 16.964174270629883, 0.006440826, -0.008731981, 0.33255577
161, 1715961133, 1.6966946125030518, -0.9636396169662476, 16.966432571411133, 0.0066870465, -0.0050266106, 0.364295
162, 1715977800, 1.6963324546813965, -0.9630385637283325, 16.969263076782227, 0.020434245, 0.0022726378, 0.33497143
163, 1715994467, 1.6977057456970215, -0.9621378183364868, 16.97052001953125, -0.0042904536, -0.0010295984, 0.33744907
164, 1716011134, 1.6959766149520874, -0.9629541039466858, 16.97230339050293, 0.0018794506, 0.0041721207, 0.37243366
165, 1716027801, 1.6950722932815552, -0.9639325737953186, 16.97210121154785, 0.013861002, 0.012731591, 0.34877872
166, 1716044468, 1.6946918964385986, -0.9631832838058472, 16.97586441040039, 0.004440127, 0.0027207395, 0.38523865
167, 1716061135, 1.6938966512680054, -0.9632474780082703, 16.977436065673828, 0.01935139, 0.003922792, 0.34710598
168, 1716077802, 1.6943374872207642, -0.9633896350860596, 16.97751808166504, 0.014950684, -0.003620393, 0.3492689
169, 1716094469, 1.693487524986267, -0.9637675285339355, 16.976240158081055, 0.0030572102, -0.006743721, 0.37524128
170, 1716111136, 1.6921085119247437, -0.963330090045929, 16.976572036743164, 5.6158326E-4, 2.905389E-4, 0.35892296
171, 1716127803, 1.6933523416519165, -0.9639543294906616, 16.97736358642578, 0.02110556, -0.013091349, 0.3588724
172, 1716144470, 1.6926442384719849, -0.9647173881530762, 16.97714614868164, 0.004583922, -0.0025931695, 0.34179497
173, 1716161137, 1.6935471296310425, -0.9635252952575684, 16.979206085205078, -0.0034317516, 0.0026897688, 0.335474
174, 1716177804, 1.6924188137054443, -0.96324622631073, 16.980161666870117, 0.008192833, -0.0122763375, 0.35347557
175, 1716194471, 1.6912661790847778, -0.9638453722000122, 16.978979110717773, 0.011668843, -0.0076031005, 0.3572569
176, 1716211138, 1.6916221380233765, -0.9624139070510864, 16.978649139404297, 0.012112565, -0.005021554, 0.36058998
177, 1716227805, 1.6917481422424316, -0.9634631872177124, 16.97813606262207, 0.008240092, -0.006101624, 0.36925125
178, 1716244472, 1.6917028427124023, -0.9642678499221802, 16.97843360900879, -0.003764007, 0.007817603, 0.3565426
179, 1716261139, 1.6916056871414185, -0.9637640118598938, 16.979446411132812, 0.012391007, 0.0021998424, 0.37415886
180, 1716277806, 1.6907907724380493, -0.9637599587440491, 16.98055648803711, 0.014523571, -0.010081482, 0.35958767
181, 1716294473, 1.6904387474060059, -0.9633338451385498, 16.981937408447266, 0.008764306, 0.014416697, 0.36358833
182, 1716311140, 1.6889094114303589, -0.9640900492668152, 16.981414794921875, -0.003256032, -0.0065309927, 0.3473711
183, 1716327807, 1.688538908958435, -0.9644700288772583, 16.981666564941406, -0.0025454494, -0.009565013, 0.35827637
184, 1716344474, 1.6889656782150269, -0.9643204808235168, 16.981884002685547, -0.0065282513, -0.009672132, 0.3603878
185, 1716361141, 1.6897083520889282, -0.9625933170318604, 16.980024337768555, -0.009044773, 0.0014361965, 0.36258984
186, 1716377808, 1.6899406909942627, -0.9628031253814697, 16.98036003112793, -0.0012433048, 0.0031079059, 0.34732246
187, 1716394475, 1.6906182765960693, -0.9637736678123474, 16.98093032836914, 0.0076981983, 0.012538909, 0.3440323
188, 1716411142, 1.6895091533660889, -0.9642456769943237, 16.9827938079834, 0.0066922014, 0.01059904, 0.34301853
189, 1716427809, 1.6894856691360474, -0.9637413024902344, 16.984548568725586, 0.0011828236, -0.0020092, 0.3477707
190, 1716444476, 1.6887212991714478, -0.9636372327804565, 16.983051300048828, -0.010236153, 0.0014216821, 0.37438202
191, 1716461143, 1.6862328052520752, -0.9641837477684021, 16.983163833618164, 0.015661322, 2.3397616E-4, 0.35280132
192, 1716477810, 1.6851266622543335, -0.9638336300849915, 16.98658561706543, -2.4292366E-4, -0.006109084, 0.3416376
193, 1716494477, 1.684464454650879, -0.9639437794685364, 16.988157272338867, 1.8439819E-4, -0.006855659, 0.34763432
194, 1716511144, 1.6850162744522095, -0.9636433124542236, 16.990140914916992, -0.005859158, 0.009315014, 0.3681469
195, 1716527811, 1.6838405132293701, -0.9633076786994934, 16.989561080932617, 0.004038984, -0.009938476, 0.35524845
196, 1716544478, 1.6827377080917358, -0.9626403450965881, 16.98955535888672, 0.010891172, 0.006610354, 0.3559847
197, 1716561145, 1.6821297407150269, -0.9627338647842407, 16.99025535583496, -0.012190641, -0.0052666776, 0.34961033
198, 1716577812, 1.6811856031417847, -0.9632270932197571, 16.98996925354004, 0.008354495, 0.0070179994, 0.36077213
199, 1716594479, 1.680139422416687, -0.9620858430862427, 16.98954200744629, 0.004827405, 0.0073236814, 0.35047245
200, 1716611146, 1.6802191734313965, -0.9616423845291138, 16.99049186706543, -0.0035442938, -0.0026587006, 0.33374977
201, 1716627813, 1.6793900728225708, -0.9623624682426453, 16.991758346557617, 0.0019418945, 8.5672515E-4, 0.3703823
202, 1716644480, 1.6788792610168457, -0.9628075957298279, 16.991756439208984, 0.013558918, 0.015456312, 0.33336067
203, 1716661147, 1.679560899734497, -0.9625579714775085, 16.99146842956543, 0.014186472, 0.0066204118, 0.35741997
204, 1716677814, 1.6789796352386475, -0.9637205004692078, 16.992319107055664, 0.0074931323, 0.0057201018, 0.33559322
205, 1716694481, 1.6789202690124512, -0.9640321135520935, 16.99286460876465, 0.0019400156, 4.4332398E-4, 0.36925507
206, 1716711148, 1.6773509979248047, -0.9623300433158875, 16.992263793945312, 0.0068551144, -0.007529313, 0.3698511
207, 1716727815, 1.6764154434204102, -0.9624975919723511, 16.9916934967041, 0.017505534, 0.0073469547, 0.35182
208, 1716744482, 1.6768743991851807, -0.9618055820465088, 16.99054527282715, -0.008514293, 0.014458634, 0.33175087
209, 1716761149, 1.6763890981674194, -0.9621790051460266, 16.989864349365234, -0.005317876, 0.002172099, 0.3380413
210, 1716777816, 1.676863431930542, -0.9621350169181824, 16.989627838134766, 0.008760911, -0.0038762456, 0.35470104
211, 1716794483, 1.6762584447860718, -0.9628061056137085, 16.989070892333984, -0.0127471015, -0.0011512594, 0.34648514
212, 1716811150, 1.675683617591858, -0.9616142511367798, 16.987926483154297, 0.00856964, -0.0018227341, 0.34135723
213, 1716827817, 1.6761820316314697, -0.9614917039871216, 16.98881721496582, 0.0015985996, 0.010400142, 0.36404896
214, 1716844484, 1.674837589263916, -0.9612234234809875, 16.990327835083008, 0.011177883, -0.010774386, 0.36393452
215, 1716861151, 1.67420494556427, -0.9610900282859802, 16.98996925354004, 0.0026148502, 0.004603906, 0.31930065
216, 1716877818, 1.6739726066589355, -0.9619165658950806, 16.99018096923828, -4.0045838E-4, 0.014802677, 0.3601551
217, 1716894485, 1.673628568649292, -0.9607313275337219, 16.99104881286621, 0.0041960436, -0.0059674745, 0.3503189
218, 1716911152, 1.6742888689041138, -0.96083003282547, 16.992341995239258, 5.030159E-4, 0.021121094, 0.3601284
219, 1716927819, 1.6735299825668335, -0.9622671604156494, 16.99333953857422, -7.3945767E-4, 0.010938585, 0.33991432
220, 1716944486, 1.6742814779281616, -0.9620499610900879, 16.99190902709961, -0.0011412362, 9.535482E-4, 0.34632015
221, 1716961153, 1.6742407083511353, -0.9608621597290039, 16.99209976196289, 0.0050652716, 0.00434776, 0.34269142
222, 1716977820, 1.6730766296386719, -0.9605913162231445, 16.99547004699707, 0.015979653, 0.008285052, 0.35246372
223, 1716994487, 1.6724998950958252, -0.9613336324691772, 16.995840072631836, -0.0040284195, 0.010415634, 0.3413334
224, 1717011154, 1.6725414991378784, -0.9632272124290466, 16.997970581054688, 0.012034496, 0.010199217, 0.32514095
225, 1717027821, 1.671859622001648, -0.9629669189453125, 16.998987197875977, 0.020237325, -0.0068394826, 0.34953403
226, 1717044488, 1.6713439226150513, -0.9636103510856628, 16.997669219970703, 0.0062819854, 0.009668319, 0.35823154
227, 1717061155, 1.670747995376587, -0.9632158875465393, 16.997591018676758, 0.0010432258, 0.015524944, 0.35952663
228, 1717077822, 1.6698355674743652, -0.9628325700759888, 16.997344970703125, -0.01629603, -0.0025257242, 0.3356743
229, 1717094489, 1.6707415580749512, -0.9631715416908264, 16.996732711791992, -0.0032654998, 0.011906563, 0.34112453
230, 1717111156, 1.6702855825424194, -0.9627842307090759, 16.997478485107422, -0.0034466465, -0.002664554, 0.3280611
231, 1717127823, 1.6710041761398315, -0.9635436534881592, 16.998815536499023, -0.004898517, -0.0045842365, 0.36876488
232, 1717144490, 1.6712815761566162, -0.9633139967918396, 16.998950958251953, -0.008427123, 0.0034567537, 0.35632515
233, 1717161157, 1.6711866855621338, -0.9645004272460938, 16.99846076965332, -0.0107297255, -0.0028461162, 0.33917904
234, 1717177824, 1.6711031198501587, -0.9651495218276978, 16.998029708862305, 0.003356536, 0.015853425, 0.35415363
235, 1717194491, 1.6712592840194702, -0.9650940299034119, 16.998884201049805, 0.007913902, 0.0062359697, 0.37566662
236, 1717211158, 1.670517921447754, -0.9653090238571167, 16.998868942260742, 0.013201102, 0.0034631796, 0.34611416
237, 1717227825, 1.670872688293457, -0.9654093384742737, 16.99913787841797, 0.007702913, 0.008897841, 0.36185646
238, 1717244492, 1.6702840328216553, -0.9651866555213928, 17.000186920166016, -0.009609877, 0.00904223, 0.38096046
239, 1717261159, 1.6699755191802979, -0.9643596410751343, 16.9985408782959, -0.005981172, 0.0011182632, 0.35051632
240, 1717277826, 1.6950807571411133, -0.9644345641136169, 17.009017944335938, 0.009931847, -0.002061893, 0.33805943
241, 1717294493, 1.6948902606964111, -0.9636868834495544, 17.008258819580078, 0.010535067, -0.0018875529, 0.34593296
242, 1717311160, 1.69373619556427, -0.9628528356552124, 17.007434844970703, 0.00444489, -0.011229025, 0.33748436
243, 1717327827, 1.6925193071365356, -0.9626132845878601, 17.007198333740234, -0.0050691236, -0.01404656, 0.34776974
244, 1717344494, 1.6922882795333862, -0.9620062112808228, 17.006969451904297, 0.008240664, -6.6028524E-4, 0.34473515
245, 1717361161, 1.6912325620651245, -0.9610612988471985, 17.006929397583008, 0.0020010066, 3.8616054E-4, 0.36106396
246, 1717377828, 1.690934419631958, -0.9611873626708984, 17.007535934448242, 0.008889976, -0.0056976527, 0.3317709
247, 1717394495, 1.6910350322723389, -0.9611818790435791, 17.010520935058594, 0.00386185, 0.005341233, 0.34717464
248, 1717411162, 1.692815899848938, -0.9586400985717773, 17.009933471679688, 2.6119585E-4, -0.014746002, 0.33094406
249, 1717427829, 1.692413091659546, -0.9572618007659912, 17.010534286499023, 0.004388265, 0.014258129, 0.34316826
250, 1717444496, 1.6914210319519043, -0.9597679376602173, 17.01036834716797, 0.0023265604, 0.013846893, 0.36265278
251, 1717461163, 1.6901154518127441, -0.961116373538971, 17.011232376098633, 0.013759499, 0.0058564167, 0.3386526
252, 1717477830, 1.6914163827896118, -0.9608288407325745, 17.012115478515625, -0.0011474387, 0.0046366504, 0.34383488
253, 1717494497, 1.691622257232666, -0.9626463651657104, 17.013195037841797, 0.009138341, -0.01167784, 0.34040833
254, 1717511164, 1.6897311210632324, -0.9642834663391113, 17.013790130615234, -0.0026841392, 0.0142646525, 0.3526392
255, 1717527831, 1.6890978813171387, -0.9646999835968018, 17.014053344726562, 0.0056996434, 0.013639334, 0.3470068
256, 1717544498, 1.6905395984649658, -0.9637731909751892, 17.012845993041992, -7.386475E-4, -0.0055766483, 0.33693123
257, 1717561165, 1.6906546354293823, -0.9640746116638184, 17.014549255371094, -9.670148E-4, 0.003998731, 0.3457899
258, 1717577832, 1.6889194250106812, -0.965729832649231, 17.013843536376953, -0.01149181, 0.010554422, 0.35078716
259, 1717594499, 1.6886171102523804, -0.9644912481307983, 17.014802932739258, 0.0056805257, 0.0048954925, 0.34908676
260, 1717611166, 1.6875795125961304, -0.9653879404067993, 17.014392852783203, -0.0092432005, -0.004025943, 0.33359814
261, 1717627833, 1.6866099834442139, -0.9663863182067871, 17.013158798217773, -0.0074985735, 0.0011290617, 0.3589592
262, 1717644500, 1.6868391036987305, -0.9653425812721252, 17.013444900512695, 0.009832055, 0.007120173, 0.35940742
263, 1717661167, 1.6878408193588257, -0.9642595648765564, 17.014291763305664, -0.0014194051, 0.003593823, 0.34777832
264, 1717677834, 1.6875466108322144, -0.9638485312461853, 17.014766693115234, 0.010161318, 0.0018995388, 0.34507656
265, 1717694501, 1.6862072944641113, -0.9652493596076965, 17.015758514404297, 0.0046348274, 0.0060980204, 0.3636465
266, 1717711168, 1.6880879402160645, -0.9657184481620789, 17.016508102416992, -0.0040552514, -7.9984113E-4, 0.35792255
267, 1717727835, 1.6882191896438599, -0.964888870716095, 17.019046783447266, 0.011463658, 2.993537E-4, 0.33903313
268, 1717744502, 1.6891083717346191, -0.9643901586532593, 17.01792335510254, 0.012836447, 0.0011386588, 0.35926723
269, 1717761169, 1.6889399290084839, -0.9652265310287476, 17.017337799072266, 0.004999608, 0.0022102217, 0.3491192
270, 1717777836, 1.6887023448944092, -0.9655887484550476, 17.018192291259766, -0.003582368, -0.00963292, 0.33528996
271, 1717794503, 1.6895687580108643, -0.9655055403709412, 17.019027709960938, 0.013172848, 0.015900725, 0.33473206
272, 1717811170, 1.69105064868927, -0.9636565446853638, 17.018386840820312, 0.017752126, 9.1692E-4, 0.34618568
273, 1717827837, 1.6903718709945679, -0.9634008407592773, 17.017492294311523, 0.0062607867, -0.0050749453, 0.35745525
274, 1717844504, 1.6904147863388062, -0.964348316192627, 17.0174617767334, -0.004985177, -0.008082746, 0.34582615
275, 1717861171, 1.690054178237915, -0.9634581804275513, 17.01723861694336, 0.010441164, -1.7006542E-4, 0.34465027
276, 1717877838, 1.6900768280029297, -0.9655703902244568, 17.017873764038086, -0.0046744174, -0.0026829937, 0.35227966
277, 1717894505, 1.6907464265823364, -0.9649866223335266, 17.018327713012695, 0.0056284126, 0.0044957534, 0.34642982
278, 1717911172, 1.691494345664978, -0.9643361568450928, 17.019010543823242, 0.011715983, 0.0023142113, 0.37570667
279, 1717927839, 1.6922184228897095, -0.9626719355583191, 17.019670486450195, 0.0019463857, 4.663039E-5, 0.34823704
280, 1717944506, 1.692354679107666, -0.9608861804008484, 17.02053451538086, -0.0010620707, -0.011736805, 0.36741257
281, 1717961173, 1.6911588907241821, -0.9607070088386536, 17.020370483398438, 0.011278778, -0.0015809351, 0.3559847
282, 1717977840, 1.6910334825515747, -0.9617515802383423, 17.021455764770508, 0.0032513102, 0.0033752972, 0.3618164
283, 1717994507, 1.6901097297668457, -0.9637886881828308, 17.02061653137207, -1.9575543E-4, 0.005334905, 0.34377098
284, 1718011174, 1.6915079355239868, -0.9632866978645325, 17.0222110748291, -2.2754318E-4, 0.0068908767, 0.34126663
285, 1718027841, 1.6922041177749634, -0.9610100984573364, 17.022785186767578, -0.013283256, -0.0042994954, 0.3508396
286, 1718044508, 1.6911247968673706, -0.9628061056137085, 17.022573471069336, 0.009483103, 0.0075186407, 0.34517384
287, 1718061175, 1.6910356283187866, -0.9644407629966736, 17.022193908691406, 0.0023644946, 0.016572187, 0.3372774
288, 1718077842, 1.691148281097412, -0.9632356762886047, 17.022207260131836, 0.0104926, -0.014566507, 0.3546524
289, 1718094509, 1.692143201828003, -0.9624241590499878, 17.021648406982422, 0.0056190947, 0.0056407684, 0.34523582
290, 1718111176, 1.692537546157837, -0.9630243182182312, 17.021207809448242, 0.0012545293, 8.4749126E-4, 0.33914852
291, 1718127843, 1.6915785074234009, -0.9637631773948669, 17.022119522094727, 0.0012832507, -0.0038678776, 0.37244225
292, 1718144510, 1.6912935972213745, -0.961871325969696, 17.022293090820312, 0.001754423, -0.002998133, 0.33909893
293, 1718161177, 1.6908825635910034, -0.9624071717262268, 17.021976470947266, 0.014250271, -3.9931986E-4, 0.36281776
294, 1718177844, 1.691702127456665, -0.9634664058685303, 17.023086547851562, 5.9096824E-4, -0.0024835642, 0.34741688
295, 1718194511, 1.691392421722412, -0.9634114503860474, 17.023754119873047, -7.995408E-4, 0.0063315076, 0.34607792
296, 1718211178, 1.6909263134002686, -0.9633126258850098, 17.024126052856445, -0.001636932, 7.6898234E-4, 0.35710907
297, 1718227845, 1.691848874092102, -0.9630976915359497, 17.02496337890625, 0.011691397, -0.002599735, 0.32617092
298, 1718244512, 1.6905781030654907, -0.96282958984375, 17.023509979248047, 0.002413402, 0.009694804, 0.32224274
299, 1718261179, 1.689054012298584, -0.9648481011390686, 17.025318145751953, 0.015333282, -0.008215191, 0.33808613
300, 1718277846, 1.689165472984314, -0.9629551768302917, 17.024106979370117, 0.001351981, 0.008004627, 0.35208225
301, 1718294513, 1.688538908958435, -0.9608114957809448, 17.024690628051758, 0.005421335, 0.0015810468, 0.3488512
302, 1718311180, 1.6886487007141113, -0.9594659209251404, 17.024194717407227, 0.0018684845, 0.005930232, 0.33351326
303, 1718327847, 1.6896265745162964, -0.9606179594993591, 17.025068283081055, 0.011478033, -0.0053386767, 0.34399414
304, 1718344514, 1.6907235383987427, -0.9594408273696899, 17.02703094482422, 0.0098370565, 0.0025302924, 0.31785202
305, 1718361181, 1.6910361051559448, -0.957851767539978, 17.02629852294922, 0.0011346705, 0.0065306295, 0.36506844
306, 1718377848, 1.6888760328292847, -0.9595590829849243, 17.026275634765625, -0.013053104, 0.003871887, 0.3760748
307, 1718394515, 1.6892151832580566, -0.9597957730293274, 17.026655197143555, 0.002162439, 0.0048795673, 0.3528204
308, 1718411182, 1.690375566482544, -0.9583709836006165, 17.0262508392334, 0.0037440376, 0.0019826856, 0.3531723
309, 1718427849, 1.6907745599746704, -0.9590144753456116, 17.025470733642578, 0.0030862389, 0.0050484594, 0.35478115
310, 1718444516, 1.6913236379623413, -0.9589425921440125, 17.027584075927734, 0.010095494, -0.005330323, 0.34086418
311, 1718461183, 1.691575050354004, -0.9585093855857849, 17.027368545532227, 4.236269E-4, -0.0069499398, 0.36070442
312, 1718477850, 1.6908711194992065, -0.9580515623092651, 17.029239654541016, 0.006130541, -0.0026625004, 0.3363123
313, 1718494517, 1.6910802125930786, -0.9577955007553101, 17.02855682373047, -0.0019036669, -0.0053892885, 0.33774376
314, 1718511184, 1.690970778465271, -0.9579704403877258, 17.02707862854004, 0.010991557, -0.0010525923, 0.3538704
315, 1718527851, 1.6917009353637695, -0.956804096698761, 17.028724670410156, -0.0010759634, 0.00561994, 0.3427353
316, 1718544518, 1.6923723220825195, -0.9571605324745178, 17.030452728271484, 0.00865197, -0.003642884, 0.35552216
317, 1718561185, 1.6911005973815918, -0.9570029973983765, 17.030574798583984, -0.0026210456, -0.01464387, 0.3321333
318, 1718577852, 1.6908975839614868, -0.9572998881340027, 17.030406951904297, -0.0022005618, 0.006913214, 0.343318
319, 1718594519, 1.6916042566299438, -0.9574432373046875, 17.03255844116211, 0.008108533, 0.004747038, 0.36188602
320, 1718611186, 1.6920756101608276, -0.9568009972572327, 17.0336971282959, -0.0037825238, -0.009250866, 0.33984947
321, 1718627853, 1.6922985315322876, -0.9566767811775208, 17.03453254699707, 0.00970707, 7.0444297E-4, 0.34636784
322, 1718644520, 1.6922810077667236, -0.9559336304664612, 17.03330421447754, 0.014787694, 0.008100025, 0.36398983
323, 1718661187, 1.691811203956604, -0.9548164010047913, 17.034690856933594, 0.021905513, 0.007065845, 0.343153
324, 1718677854, 1.6917328834533691, -0.9551712274551392, 17.03410530090332, 0.001859991, -0.0035286827, 0.3310566
325, 1718694521, 1.6918162107467651, -0.9541410207748413, 17.033828735351562, 0.017287407, -0.012666395, 0.36748886
326, 1718711188, 1.6920979022979736, -0.9553347229957581, 17.03339385986328, 0.006585453, 0.0040256497, 0.3389063
327, 1718727855, 1.6910524368286133, -0.9558399319648743, 17.03260612487793, 0.0020826098, -0.008783459, 0.33858967
328, 1718744522, 1.6897268295288086, -0.9554875493049622, 17.033143997192383, -0.009326141, 0.007186095, 0.34502602
329, 1718761189, 1.6890939474105835, -0.9556602239608765, 17.03317642211914, -0.006674125, 0.0060690613, 0.3315134
330, 1718777856, 1.6879534721374512, -0.9566534757614136, 17.033676147460938, 0.0041174716, -0.0032549493, 0.35258102
331, 1718794523, 1.6892589330673218, -0.9549847841262817, 17.03458023071289, 2.5473491E-5, 0.0041352273, 0.3573656
332, 1718811190, 1.688400387763977, -0.9544459581375122, 17.03583526611328, -0.006159605, -2.0514299E-4, 0.33839703
333, 1718827857, 1.6868722438812256, -0.9547884464263916, 17.035017013549805, -0.0062238127, 0.0026787748, 0.33834934
334, 1718844524, 1.688066840171814, -0.9555527567863464, 17.03465461730957, 0.011797692, 0.0015827931, 0.34315205
335, 1718861191, 1.6894806623458862, -0.9558546543121338, 17.035444259643555, -0.008345171, -0.0015194131, 0.37675953
336, 1718877858, 1.689804196357727, -0.9561939239501953, 17.034757614135742, 0.011337031, -0.0041422257, 0.3511362
337, 1718894525, 1.6892670392990112, -0.9555179476737976, 17.034912109375, 0.009414449, -0.0014903704, 0.351099
338, 1718911192, 1.6889077425003052, -0.9540398716926575, 17.034664154052734, 0.01888403, 4.7504884E-4, 0.35862827
339, 1718927859, 1.6903059482574463, -0.9541812539100647, 17.033710479736328, 0.014112964, 5.218469E-4, 0.3407898
340, 1718944526, 1.6903761625289917, -0.9543949365615845, 17.03411865234375, 0.007692806, 0.0018243546, 0.35935783
341, 1718961193, 1.6904187202453613, -0.9545380473136902, 17.034189224243164, 0.0048687058, 0.017707745, 0.3338852
342, 1718977860, 1.6908061504364014, -0.9537267684936523, 17.033823013305664, 0.0014637724, 0.002388194, 0.34976864
343, 1718994527, 1.6891428232192993, -0.9544661045074463, 17.03318214416504, -2.117855E-4, -0.012045686, 0.36032867
344, 1719011194, 1.689192295074463, -0.956596314907074, 17.032146453857422, 0.008045503, 5.6448195E-4, 0.33656597
345, 1719027861, 1.6894642114639282, -0.9562986493110657, 17.031517028808594, 0.0014018524, 0.015736416, 0.3205309
346, 1719044528, 1.690853476524353, -0.95527184009552, 17.032005310058594, 0.01398114, 0.0010682103, 0.35309792
347, 1719061195, 1.6910231113433838, -0.9546679258346558, 17.03273582458496, -0.003642486, 0.011420283, 0.35016727
348, 1719077862, 1.689957857131958, -0.9548965096473694, 17.03353500366211, -0.0043763905, 0.00639838, 0.3667984
349, 1719094529, 1.6887212991714478, -0.9547324776649475, 17.03315544128418, 0.007058008, 0.0023727997, 0.36500645
350, 1719111196, 1.6900136470794678, -0.9547244906425476, 17.033227920532227, 0.015443285, 0.007940144, 0.32949448
351, 1719127863, 1.6912238597869873, -0.9549325108528137, 17.031803131103516, 0.016813923, -0.0049496805, 0.3581848
352, 1719144530, 1.6910722255706787, -0.9555475115776062, 17.031599044799805, 3.544636E-4, 0.010536247, 0.32478523
353, 1719161197, 1.6905505657196045, -0.9557175636291504, 17.031661987304688, 0.0056489827, 0.0093629155, 0.3606739
354, 1719177864, 1.6904165744781494, -0.9553956389427185, 17.032203674316406, 0.005023398, -0.014346542, 0.35217094
355, 1719194531, 1.690771460533142, -0.9543675184249878, 17.031496047973633, -0.0017491635, -8.875141E-4, 0.354599
356, 1719211198, 1.6902278661727905, -0.9556159377098083, 17.031892776489258, 0.00971249, 0.00188888, 0.3500328
357, 1719227865, 1.6897683143615723, -0.9556254148483276, 17.032501220703125, 0.016851354, 0.012850808, 0.33950996
358, 1719244532, 1.6906110048294067, -0.9550464749336243, 17.032899856567383, 0.020539233, -0.0117042, 0.3364191
359, 1719261199, 1.6892914772033691, -0.9554832577705383, 17.032564163208008, 0.009371088, -0.0016983353, 0.3425913
360, 1719277866, 1.6911746263504028, -0.961538553237915, 17.026517868041992, 0.008683359, -0.001342796, 0.3454237
361, 1719294533, 1.6908303499221802, -0.9622082710266113, 17.025634765625, 0.0016404873, -0.0037959765, 0.3308134
362, 1719311200, 1.689693570137024, -0.9621186256408691, 17.025178909301758, 0.015897276, 3.3219614E-5, 0.35147572
363, 1719327867, 1.6896616220474243, -0.9613430500030518, 17.024497985839844, -1.5475479E-4, -0.0013975566, 0.34334087
364, 1719344534, 1.6888059377670288, -0.961681604385376, 17.025638580322266, -0.007884116, -0.0107899625, 0.38953018
365, 1719361201, 1.6878407001495361, -0.961780309677124, 17.02699089050293, 0.0066087195, -8.95351E-4, 0.34069443
366, 1719377868, 1.688267707824707, -0.9628352522850037, 17.026945114135742, 0.0013438228, 0.0017336084, 0.3490448
367, 1719394535, 1.6880465745925903, -0.9625795483589172, 17.026521682739258, 0.01902791, -3.584589E-5, 0.38672733
368, 1719411202, 1.687343955039978, -0.9628262519836426, 17.026622772216797, 0.003132024, -0.004743867, 0.36558628
369, 1719427869, 1.6868155002593994, -0.9621683359146118, 17.025869369506836, 0.0037875318, 7.5921766E-4, 0.34750366
370, 1719444536, 1.686623215675354, -0.9615354537963867, 17.0257625579834, -0.00835615, 0.0024467823, 0.35768318
371, 1719461203, 1.6870548725128174, -0.9615055918693542, 17.027027130126953, 0.011321504, 0.009970158, 0.3557701
372, 1719477870, 1.687476396560669, -0.9618309736251831, 17.027477264404297, 0.012600773, -0.0049628676, 0.3604765
373, 1719494537, 1.6869306564331055, -0.9624151587486267, 17.02733039855957, 0.023019258, 0.005177943, 0.34074688
374, 1719511204, 1.6872563362121582, -0.962372899055481, 17.027385711669922, -4.927972E-4, 4.893397E-4, 0.34187603
375, 1719527871, 1.6856902837753296, -0.963500440120697, 17.02849578857422, -0.002327545, 6.230284E-4, 0.3727045
376, 1719544538, 1.6853350400924683, -0.9631043076515198, 17.028772354125977, 0.007073885, 0.0033466874, 0.34605217
377, 1719561205, 1.685373067855835, -0.9626846313476562, 17.028812408447266, -0.001289551, 0.0066344934, 0.36056137
378, 1719577872, 1.6849720478057861, -0.9631460905075073, 17.029701232910156, 0.010947979, 0.0031893484, 0.35618687
379, 1719594539, 1.6843376159667969, -0.9634333252906799, 17.03009033203125, -0.0044159247, 6.779427E-4, 0.35828972
380, 1719611206, 1.6841055154800415, -0.9633565545082092, 17.02953338623047, -0.0052415743, -2.3288652E-4, 0.3531952
381, 1719627873, 1.6829979419708252, -0.9632264971733093, 17.029556274414062, -0.0076924465, 0.009227495, 0.35412693
382, 1719644540, 1.6824100017547607, -0.9626495242118835, 17.029590606689453, 0.0041723023, -0.0040106606, 0.35681343
383, 1719661207, 1.6821908950805664, -0.9625627994537354, 17.029865264892578, 0.0027710088, 0.012871371, 0.33636856
384, 1719677874, 1.6823049783706665, -0.9632492065429688, 17.030778884887695, 0.004426702, 0.00909002, 0.35708904
385, 1719694541, 1.683043122291565, -0.9648153781890869, 17.03020668029785, -0.001308382, -0.016574463, 0.3640175
386, 1719711208, 1.6822518110275269, -0.9643492698669434, 17.03152084350586, 0.0023495054, 0.0034472123, 0.3595581
387, 1719727875, 1.6826355457305908, -0.9638170599937439, 17.032428741455078, -0.0016344315, 0.0123226745, 0.35748386
388, 1719744542, 1.6834872961044312, -0.9639179110527039, 17.030414581298828, 0.013214268, 0.0037001313, 0.35304356
389, 1719761209, 1.6843791007995605, -0.9633045196533203, 17.03013801574707, -6.1473047E-4, -0.007446432, 0.35891438
390, 1719777876, 1.6835988759994507, -0.9659231305122375, 17.030593872070312, -0.0074796514, 0.0067698164, 0.3386097
391, 1719794543, 1.6826807260513306, -0.9659140706062317, 17.031021118164062, -0.01981684, -0.0077059586, 0.3518963
392, 1719811210, 1.6816456317901611, -0.9659036993980408, 17.030813217163086, 0.012992885, 8.080273E-4, 0.34796524
393, 1719827877, 1.681632161140442, -0.9654363393783569, 17.030929565429688, 0.026300162, 0.00613117, 0.35163498
394, 1719844544, 1.6818865537643433, -0.9635788798332214, 17.032278060913086, -0.0054169414, 0.004518817, 0.3393011
395, 1719861211, 1.6824387311935425, -0.964138388633728, 17.032604217529297, 0.006514292, 0.004028402, 0.3621874
396, 1719877878, 1.6818420886993408, -0.962858259677887, 17.03438949584961, -0.018876178, 0.0150632225, 0.36301994
397, 1719894545, 1.6810561418533325, -0.9618269205093384, 17.03377342224121, 0.009280782, 0.010622523, 0.358181
398, 1719911212, 1.6806823015213013, -0.9615012407302856, 17.033411026000977, 0.0076325275, 0.01345664, 0.34640217
399, 1719927879, 1.6806755065917969, -0.9605355858802795, 17.033414840698242, 0.008510494, 1.4088301E-4, 0.34512615
400, 1719944546, 1.6810717582702637, -0.9604417085647583, 17.033802032470703, -0.0016632437, -0.004358237, 0.38393116
401, 1719961213, 1.6802514791488647, -0.9613158106803894, 17.03219985961914, 0.008082187, 0.008280275, 0.33154678
402, 1719977880, 1.6800645589828491, -0.9609227776527405, 17.033166885375977, -6.9492974E-4, 0.00844784, 0.34570408
403, 1719994547, 1.6798099279403687, -0.959958553314209, 17.033063888549805, -0.0060788607, -0.0020915645, 0.35826015
404, 1720011214, 1.679764986038208, -0.9600216150283813, 17.03333282470703, 0.012321962, 0.0026229804, 0.34091568
405, 1720027881, 1.679628849029541, -0.9601852297782898, 17.03467559814453, 0.006919514, 0.016840557, 0.35448074
406, 1720044548, 1.680159330368042, -0.9603836536407471, 17.034727096557617, -0.0011054392, 0.0018618769, 0.36705017
407, 1720061215, 1.6799906492233276, -0.9594343304634094, 17.034221649169922, -0.013398373, 7.935129E-4, 0.37106705
408, 1720077882, 1.679135799407959, -0.9603199362754822, 17.033235549926758, 0.020061754, 0.009285175, 0.36746502
409, 1720094549, 1.6784656047821045, -0.9600958228111267, 17.03411865234375, 0.009963648, -0.008195004, 0.33695316
410, 1720111216, 1.6785022020339966, -0.9599393606185913, 17.034099578857422, 0.009686067, 0.0017736452, 0.3606186
411, 1720127883, 1.6791515350341797, -0.960638165473938, 17.034563064575195, -0.007857682, -5.517138E-4, 0.35423565
412, 1720144550, 1.6785460710525513, -0.960691511631012, 17.033905029296875, -1.2071097E-4, 0.013825394, 0.36629105
413, 1720161217, 1.6772938966751099, -0.9608794450759888, 17.03421974182129, 0.013492444, 0.005221444, 0.33301353
414, 1720177884, 1.676844596862793, -0.9608482122421265, 17.035470962524414, 0.0047366587, 7.1190274E-4, 0.34509277
415, 1720194551, 1.6774474382400513, -0.9602494835853577, 17.036958694458008, 0.004243966, 0.0012270582, 0.32910442
416, 1720211218, 1.6770097017288208, -0.9605667591094971, 17.036636352539062, 0.0094000185, -0.0058794804, 0.36611938
417, 1720227885, 1.6763291358947754, -0.9595059752464294, 17.037046432495117, -0.0054755504, 0.010302676, 0.35399628
418, 1720244552, 1.6760852336883545, -0.959865927696228, 17.038177490234375, 0.0022464308, -0.0013358112, 0.35972977
419, 1720261219, 1.6762079000473022, -0.9603191614151001, 17.03874969482422, 0.008310735, -0.008337089, 0.3630581
420, 1720277886, 1.6765666007995605, -0.960367739200592, 17.03777313232422, -4.4839492E-4, -0.0044398336, 0.36491203
421, 1720294553, 1.6766823530197144, -0.960706353187561, 17.03921890258789, -0.0031268555, -0.0015598829, 0.34926224
422, 1720311220, 1.6766281127929688, -0.9602532982826233, 17.03997230529785, -0.00843965, -7.716645E-4, 0.34495544
423, 1720327887, 1.6747550964355469, -0.9599177837371826, 17.03955841064453, -1.5021468E-4, -6.803595E-4, 0.37530613
424, 1720344554, 1.6742972135543823, -0.9596828818321228, 17.03806495666504, -8.716307E-4, 0.0023582713, 0.341897
425, 1720361221, 1.6744616031646729, -0.9594926834106445, 17.036483764648438, 0.0060047875, 0.0021041092, 0.34258842
426, 1720377888, 1.6724125146865845, -0.9590553641319275, 17.036895751953125, -0.0011446099, 7.3092926E-4, 0.3426237
427, 1720394555, 1.6715489625930786, -0.9602193832397461, 17.036855697631836, 0.005164253, -0.010860285, 0.34791183
428, 1720411222, 1.6711939573287964, -0.9597558975219727, 17.037097930908203, -0.0043079117, 0.005285229, 0.35659695
429, 1720427889, 1.6703847646713257, -0.9612566232681274, 17.037193298339844, 0.013045054, 0.0047775195, 0.36170197
430, 1720444556, 1.6711090803146362, -0.9600372910499573, 17.038148880004883, 0.006064654, 0.002029749, 0.34155846
431, 1720461223, 1.6710255146026611, -0.9610098600387573, 17.03810691833496, 0.015971586, -0.00739508, 0.33861732
432, 1720477890, 1.6696454286575317, -0.9619415402412415, 17.038406372070312, -0.008982175, 0.011745508, 0.34915924
433, 1720494557, 1.6692370176315308, -0.9608316421508789, 17.03883171081543, -0.005420385, 0.0108794235, 0.33541012
434, 1720511224, 1.6677881479263306, -0.9607259035110474, 17.0394229888916, 0.016234793, 0.0141843, 0.3547449
435, 1720527891, 1.66859769821167, -0.9598579406738281, 17.0385799407959, 0.008011159, 0.013259389, 0.33365822
436, 1720544558, 1.6688604354858398, -0.9583781957626343, 17.038522720336914, -0.0012763358, 0.0065724403, 0.34038734
437, 1720561225, 1.6695557832717896, -0.957912266254425, 17.03839111328125, 0.009953877, 0.0032441788, 0.3243599
438, 1720577892, 1.6689502000808716, -0.9583209156990051, 17.038843154907227, 0.0041085524, 0.0023081065, 0.35347843
439, 1720594559, 1.6687649488449097, -0.9591015577316284, 17.038997650146484, 4.0018596E-4, 0.0027593372, 0.34687614
440, 1720611226, 1.6690340042114258, -0.9584034085273743, 17.040403366088867, -0.0010451257, 0.0042570555, 0.35454655
441, 1720627893, 1.6689162254333496, -0.9584404230117798, 17.041147232055664, -6.468395E-4, 0.0077879177, 0.3487625
442, 1720644560, 1.669066309928894, -0.9586866497993469, 17.040063858032227, -9.965604E-4, 1.585545E-4, 0.35019112
443, 1720661227, 1.6686919927597046, -0.9587149024009705, 17.039793014526367, -0.007326203, -0.0077187964, 0.3602724
444, 1720677894, 1.668857216835022, -0.9575759768486023, 17.039825439453125, 0.0032939804, 0.0032311452, 0.35229492
445, 1720694561, 1.6687355041503906, -0.957095742225647, 17.03980255126953, -0.0042602755, 0.0030776337, 0.31963348
446, 1720711228, 1.668657898902893, -0.9568752646446228, 17.03916358947754, 0.0015117718, 0.00665067, 0.35646057
447, 1720727895, 1.6683599948883057, -0.9574379920959473, 17.038619995117188, 0.0029329092, 0.009859813, 0.3370428
448, 1720744562, 1.6683496236801147, -0.9573612809181213, 17.038381576538086, -0.008447197, 0.005375459, 0.34741688
449, 1720761229, 1.667914628982544, -0.9583461880683899, 17.037059783935547, 0.0026339465, 0.014477284, 0.35644245
450, 1720777896, 1.667512059211731, -0.958724319934845, 17.03678321838379, 0.014228228, 0.0029726245, 0.34299946
451, 1720794563, 1.6669567823410034, -0.9584551453590393, 17.036357879638672, -0.0032440985, 0.0047715264, 0.333066
452, 1720811230, 1.666313886642456, -0.9588125944137573, 17.036376953125, 0.0033747943, 0.016586827, 0.35854816
453, 1720827897, 1.6666417121887207, -0.9582324624061584, 17.03740882873535, -0.0033264037, 0.0056889495, 0.35389996
454, 1720844564, 1.6654592752456665, -0.9578742980957031, 17.03618621826172, -0.0072488394, 0.0017279088, 0.35258675
455, 1720861231, 1.66532564163208, -0.9585021138191223, 17.037229537963867, 0.0014825126, 0.0070501156, 0.35895061
456, 1720877898, 1.6658356189727783, -0.9588332772254944, 17.037919998168945, 0.007867893, 0.004068467, 0.34124184
457, 1720894565, 1.6669230461120605, -0.9584811925888062, 17.037662506103516, 0.0036521738, 0.0018511902, 0.36799622
458, 1720911232, 1.6670012474060059, -0.9587889909744263, 17.03754234313965, -2.649746E-4, -0.0027067, 0.34125423
459, 1720927899, 1.6671090126037598, -0.9597471356391907, 17.037708282470703, -0.004662089, -0.005764916, 0.36493397
460, 1720944566, 1.6665427684783936, -0.9609529972076416, 17.037668228149414, 0.0033717698, 0.004483251, 0.3504734
461, 1720961233, 1.665343999862671, -0.9616747498512268, 17.03733253479004, 0.013282572, -4.576428E-5, 0.35319805
462, 1720977900, 1.6646370887756348, -0.961287796497345, 17.037708282470703, 0.005258471, 0.009760518, 0.348526
463, 1720994567, 1.6647210121154785, -0.9598339796066284, 17.038497924804688, -3.4745788E-4, 0.01005237, 0.3661585
464, 1721011234, 1.6647261381149292, -0.9605424404144287, 17.038692474365234, -0.006893255, 0.013854492, 0.37181187
465, 1721027901, 1.6646170616149902, -0.9609458446502686, 17.038433074951172, -0.008244091, 0.010638616, 0.33945942
466, 1721044568, 1.6641813516616821, -0.9608074426651001, 17.037708282470703, 0.0020909498, 0.0048087696, 0.3656683
467, 1721061235, 1.6641441583633423, -0.960822582244873, 17.03801727294922, 0.0018235933, 0.0076307324, 0.35971642
468, 1721077902, 1.66456937789917, -0.9611179828643799, 17.038848876953125, -0.0067646336, 0.012400876, 0.3540287
469, 1721094569, 1.6652042865753174, -0.9621146321296692, 17.039043426513672, 0.0014674813, 0.0060755713, 0.35208988
470, 1721111236, 1.6655489206314087, -0.960961639881134, 17.038921356201172, 0.010563215, 0.015181825, 0.3533926
471, 1721127903, 1.6660898923873901, -0.9602413773536682, 17.03883171081543, 0.0042644804, -0.0021644854, 0.34318352
472, 1721144570, 1.666296362876892, -0.9597601294517517, 17.039505004882812, 0.009346725, 0.004640017, 0.34416008
473, 1721161237, 1.665784478187561, -0.9576573371887207, 17.039953231811523, -0.010479454, -0.008654365, 0.35161018
474, 1721177904, 1.666035532951355, -0.9570060968399048, 17.038145065307617, 0.0024832848, 0.016060006, 0.35039234
475, 1721194571, 1.6664952039718628, -0.9571882486343384, 17.038490295410156, -0.0020980393, 0.0054703117, 0.341321
476, 1721211238, 1.6653642654418945, -0.9576460123062134, 17.038654327392578, 0.0146106435, 0.02175312, 0.31316853
477, 1721227905, 1.6665716171264648, -0.957604169845581, 17.039167404174805, 0.00850193, 0.006787474, 0.34794426
478, 1721244572, 1.667616605758667, -0.9565515518188477, 17.0391845703125, 0.010096129, 0.0055043558, 0.33402157
479, 1721261239, 1.6679255962371826, -0.9578008651733398, 17.041458129882812, -0.0023270422, 0.010947189, 0.35415936
480, 1721277906, 1.6826878786087036, -0.9632397890090942, 17.03606605529785, -0.012740378, -5.850312E-4, 0.33670425
481, 1721294573, 1.6822963953018188, -0.9628424048423767, 17.035791397094727, 0.00490692, 0.0079970285, 0.33428192
482, 1721311240, 1.682070255279541, -0.9621909856796265, 17.034423828125, 0.014855216, 0.012172348, 0.33753204
483, 1721327907, 1.68287992477417, -0.9616809487342834, 17.034109115600586, -0.0044970457, 0.008748492, 0.3511591
484, 1721344574, 1.6831042766571045, -0.96148681640625, 17.03441047668457, 0.0022563913, 0.0074533606, 0.36159992
485, 1721361241, 1.6835986375808716, -0.9616458415985107, 17.03535270690918, 0.0053039975, 0.006824549, 0.3642521
486, 1721377908, 1.6849693059921265, -0.961075484752655, 17.033748626708984, -0.010391376, 0.00274066, 0.35834694
487, 1721394575, 1.683690071105957, -0.961993932723999, 17.032018661499023, 0.0054264823, 0.018345762, 0.3480711
488, 1721411242, 1.6852574348449707, -0.9624939560890198, 17.032398223876953, 0.0022255534, 0.0039469595, 0.32898903
489, 1721427909, 1.6849634647369385, -0.9622769951820374, 17.032718658447266, 0.0037956832, -0.009736531, 0.34413624
490, 1721444576, 1.6861172914505005, -0.9626575708389282, 17.033422470092773, -1.15102186E-4, 0.014442387, 0.3603363
491, 1721461243, 1.686134934425354, -0.9629746079444885, 17.03403663635254, 0.0094113415, 3.4539736E-4, 0.3631029
492, 1721477910, 1.6863746643066406, -0.9645510911941528, 17.033864974975586, 0.014724991, 0.013584056, 0.3559847
493, 1721494577, 1.6864219903945923, -0.9634195566177368, 17.03347396850586, 0.017443992, 0.008256988, 0.34475994
494, 1721511244, 1.685808777809143, -0.9636218547821045, 17.033288955688477, -0.0037863513, 9.928865E-4, 0.35417652
495, 1721527911, 1.686362624168396, -0.9643217921257019, 17.032812118530273, -0.00454464, -0.008636219, 0.3620968
496, 1721544578, 1.6858797073364258, -0.9638282656669617, 17.032915115356445, 0.0088454345, -0.0097730765, 0.3610468
497, 1721561245, 1.6849724054336548, -0.9649312496185303, 17.03104591369629, 0.010624165, 0.008359371, 0.36443138
498, 1721577912, 1.685032606124878, -0.9637094140052795, 17.03165054321289, -0.010343537, 0.004228432, 0.35377216
499, 1721594579, 1.6858316659927368, -0.9631704688072205, 17.031774520874023, 0.01264667, -0.0048313024, 0.3607006
500, 1721611246, 1.6868796348571777, -0.9636829495429993, 17.03129005432129, 0.009106022, -0.0017405793, 0.3309307
501, 1721627913, 1.686981201171875, -0.9652015566825867, 17.03093719482422, 0.010624604, -0.0042961566, 0.34923077
502, 1721644580, 1.686458706855774, -0.9653306007385254, 17.030147552490234, -0.006561586, -0.001868261, 0.3679409
503, 1721661247, 1.687057375907898, -0.9644496440887451, 17.029542922973633, 0.005434082, 7.9178065E-4, 0.32719612
504, 1721677914, 1.689133644104004, -0.9640608429908752, 17.030466079711914, 0.0018926658, 0.0041314275, 0.34160614
505, 1721694581, 1.6890199184417725, -0.9656350612640381, 17.03172492980957, 0.0055227326, 0.0022342494, 0.33526993
506, 1721711248, 1.6894283294677734, -0.9664655923843384, 17.032060623168945, 0.0011851565, 0.0019308167, 0.3453579
507, 1721727915, 1.6900990009307861, -0.9658489227294922, 17.031557083129883, 0.0018144503, -0.004286797, 0.35017872
508, 1721744582, 1.6902110576629639, -0.9673876762390137, 17.03157615661621, -0.015625773, -0.005921878, 0.34903145
509, 1721761249, 1.6889153718948364, -0.9683459997177124, 17.03268814086914, -0.0045416784, -7.3359744E-4, 0.33715057
510, 1721777916, 1.6892595291137695, -0.9676823019981384, 17.033843994140625, 0.010584819, 0.006591802, 0.35489368
511, 1721794583, 1.689042329788208, -0.9673849940299988, 17.03453826904297, 0.010625939, 0.001941699, 0.33558464
512, 1721811250, 1.6886636018753052, -0.9663094282150269, 17.034870147705078, -0.015621558, 0.007609792, 0.34002304
513, 1721827917, 1.6879239082336426, -0.9680888056755066, 17.03491973876953, 0.0013224283, 0.003108171, 0.35668373
514, 1721844584, 1.6883171796798706, -0.968445897102356, 17.033239364624023, 0.0029267275, 0.0054562027, 0.33626175
515, 1721861251, 1.6890109777450562, -0.9685808420181274, 17.03295135498047, 0.014562015, -0.009858207, 0.35894203
516, 1721877918, 1.6893929243087769, -0.9666073322296143, 17.03276824951172, -0.007074681, 0.0036612959, 0.33525562
517, 1721894585, 1.6883678436279297, -0.9670923948287964, 17.033313751220703, -0.0044715162, 0.005272545, 0.3452034
518, 1721911252, 1.6873929500579834, -0.967745840549469, 17.033672332763672, 0.01105817, -7.494948E-4, 0.3320198
519, 1721927919, 1.687688946723938, -0.9669924974441528, 17.032691955566406, 0.0033434953, 0.008911769, 0.35121822
520, 1721944586, 1.6889662742614746, -0.9675986766815186, 17.03229331970215, 0.0025322412, 0.004246439, 0.34640408
521, 1721961253, 1.6889653205871582, -0.9683016538619995, 17.03120231628418, 0.0055508814, -0.005296321, 0.3488512
522, 1721977920, 1.688299298286438, -0.9689615964889526, 17.031904220581055, 0.006377258, 0.01576082, 0.33844566
523, 1721994587, 1.687759518623352, -0.968143880367279, 17.03106689453125, 0.007536312, 0.0071460865, 0.35639095
524, 1722011254, 1.6875509023666382, -0.968100368976593, 17.03105354309082, 0.0049900175, 3.8555986E-4, 0.3434477
525, 1722027921, 1.6886258125305176, -0.968701183795929, 17.032474517822266, -0.0028207684, 0.012790739, 0.34249306
526, 1722044588, 1.6880000829696655, -0.9676123261451721, 17.031431198120117, -8.3303277E-4, -0.007052295, 0.3610506
527, 1722061255, 1.6890350580215454, -0.966025710105896, 17.030141830444336, -0.004633511, -9.4633986E-4, 0.32971
528, 1722077922, 1.6883245706558228, -0.9663131833076477, 17.030418395996094, -0.00313669, -2.3144766E-4, 0.34918785
529, 1722094589, 1.688868522644043, -0.9652596116065979, 17.031801223754883, 0.014135923, 0.006149442, 0.3459568
530, 1722111256, 1.6892545223236084, -0.9656156301498413, 17.031818389892578, -0.0063017174, 0.0016025879, 0.35533047
531, 1722127923, 1.688719391822815, -0.9653701782226562, 17.031709671020508, -0.0053458815, 0.018413961, 0.31822014
532, 1722144590, 1.688956618309021, -0.9646421670913696, 17.032114028930664, 0.009612349, -0.0024738414, 0.3617115
533, 1722161257, 1.6881389617919922, -0.9646435379981995, 17.032743453979492, -0.0018210369, 0.016236106, 0.34499073
534, 1722177924, 1.6878479719161987, -0.9651849269866943, 17.033109664916992, 0.008598236, 0.004212786, 0.34251976
535, 1722194591, 1.6879560947418213, -0.9643732309341431, 17.03346824645996, 0.00961068, 0.0037706497, 0.3549738
536, 1722211258, 1.687452793121338, -0.9645153284072876, 17.03327751159668, 0.010264881, -0.002121138, 0.36027527
537, 1722227925, 1.6872023344039917, -0.9641931653022766, 17.033248901367188, 0.011514661, 0.01754043, 0.34191036
538, 1722244592, 1.6873046159744263, -0.9640975594520569, 17.032798767089844, 0.0032554383, 0.015042297, 0.34902382
539, 1722261259, 1.6867974996566772, -0.9638125896453857, 17.033262252807617, 0.00826268, 0.0023401666, 0.34849167
540, 1722277926, 1.686985731124878, -0.9629327654838562, 17.03326416015625, 0.004926505, 0.0018195491, 0.34540367
541, 1722294593, 1.6884310245513916, -0.962705671787262, 17.033353805541992, 0.00915859, -0.01570476, 0.33827496
542, 1722311260, 1.6878461837768555, -0.9614750742912292, 17.03560447692871, 0.011971277, -0.0053785876, 0.35332108
543, 1722327927, 1.68771231174469, -0.9627172946929932, 17.034826278686523, -7.3689426E-4, -0.0027196498, 0.35469627
544, 1722344594, 1.6859915256500244, -0.9631455540657043, 17.0376033782959, -0.007358944, 0.0020310483, 0.3588438
545, 1722361261, 1.6859322786331177, -0.9644370079040527, 17.036663055419922, 0.016871436, 0.0024138142, 0.31526947
546, 1722377928, 1.6864334344863892, -0.9642340540885925, 17.036474227905273, -0.0025766084, 0.010018982, 0.3399048
547, 1722394595, 1.6869810819625854, -0.9628166556358337, 17.03634262084961, 0.00872216, 0.020132748, 0.32999325
548, 1722411262, 1.6883032321929932, -0.9634292721748352, 17.0368595123291, -0.009413842, 0.0036431355, 0.33696556
549, 1722427929, 1.6873000860214233, -0.9633519053459167, 17.036483764648438, 0.0031240545, 0.013132573, 0.36201668
550, 1722444596, 1.6866991519927979, -0.9635606408119202, 17.037078857421875, 0.0068073175, 6.350562E-5, 0.3524065
551, 1722461263, 1.6862142086029053, -0.9626479148864746, 17.03543472290039, -0.0037392564, -0.006810272, 0.34687328
552, 1722477930, 1.6864938735961914, -0.9629616141319275, 17.036212921142578, 0.006170536, 0.007948875, 0.3360653
553, 1722494597, 1.6864327192306519, -0.9624829292297363, 17.0366268157959, 0.0040247976, -0.0127435075, 0.34885788
554, 1722511264, 1.6859642267227173, -0.9623677730560303, 17.03704833984375, -0.010701811, 0.00408896, 0.3621626
555, 1722527931, 1.6862297058105469, -0.9623245596885681, 17.037559509277344, 0.0049768933, 0.014121073, 0.32188797
556, 1722544598, 1.685834527015686, -0.9620580673217773, 17.037931442260742, 0.00689571, 0.0061038733, 0.34528637
557, 1722561265, 1.6867507696151733, -0.9628159403800964, 17.03647232055664, 0.009065972, -0.00280404, 0.35120964
558, 1722577932, 1.6877602338790894, -0.9616178870201111, 17.035654067993164, 0.009240361, 0.011825037, 0.33808422
559, 1722594599, 1.6885392665863037, -0.9615060091018677, 17.036340713500977, -0.0032492776, -0.012741817, 0.3641796
560, 1722611266, 1.6881059408187866, -0.9617636203765869, 17.037158966064453, 0.0059884847, 0.009931267, 0.3466711
561, 1722627933, 1.6879419088363647, -0.9625845551490784, 17.03816032409668, 0.012168611, 0.0099663865, 0.35505772
562, 1722644600, 1.6902111768722534, -0.962845504283905, 17.03896713256836, -0.0038473215, 0.001210127, 0.33757496
563, 1722661267, 1.6900086402893066, -0.9626014232635498, 17.040205001831055, 0.0096644, 0.006078253, 0.33870697
564, 1722677934, 1.690232515335083, -0.9621902108192444, 17.04012107849121, -0.0032833389, -0.008582534, 0.36261272
565, 1722694601, 1.6890106201171875, -0.9629319310188293, 17.04107666015625, -0.010991155, -1.3223586E-4, 0.3542137
566, 1722711268, 1.6888152360916138, -0.9612249135971069, 17.039958953857422, -0.002236226, -0.0042774375, 0.34600163
567, 1722727935, 1.689495325088501, -0.9608014225959778, 17.040258407592773, -0.001934798, 0.0054099215, 0.36444664
568, 1722744602, 1.6886653900146484, -0.9621502757072449, 17.040529251098633, 0.0028272434, -0.0037959625, 0.32910728
569, 1722761269, 1.6893696784973145, -0.9623653292655945, 17.041353225708008, -0.0037470306, 0.014738598, 0.35063934
570, 1722777936, 1.6892167329788208, -0.9620819091796875, 17.04213523864746, 0.008490391, 1.5881992E-4, 0.3407755
571, 1722794603, 1.6881946325302124, -0.9610410332679749, 17.042381286621094, 0.012196299, 0.024098985, 0.3462534
572, 1722811270, 1.6882445812225342, -0.9609718918800354, 17.042091369628906, 0.0068367375, -6.2909117E-4, 0.3683405
573, 1722827937, 1.6878509521484375, -0.960182249546051, 17.040761947631836, 0.0118643055, 0.011500915, 0.33689404
574, 1722844604, 1.6886003017425537, -0.959177553653717, 17.041547775268555, -0.00311166, 0.015286596, 0.34566116
575, 1722861271, 1.6891841888427734, -0.9593617916107178, 17.041255950927734, -0.0049421857, 0.011284331, 0.34372807
576, 1722877938, 1.688002347946167, -0.9588482975959778, 17.040376663208008, -0.010793064, -0.0064168056, 0.3536272
577, 1722894605, 1.6884325742721558, -0.9584486484527588, 17.041284561157227, -0.0064598736, -2.4878388E-4, 0.34610844
578, 1722911272, 1.6877840757369995, -0.9587317705154419, 17.03998374938965, 0.010512513, -0.014305946, 0.33555984
579, 1722927939, 1.6875019073486328, -0.9567409753799438, 17.0410099029541, -0.0035838836, 0.015071311, 0.33559227
580, 1722944606, 1.6875163316726685, -0.9589281678199768, 17.04198455810547, 0.007801147, 0.003639643, 0.35847378
581, 1722961273, 1.6865602731704712, -0.9578998684883118, 17.043169021606445, 0.009675066, 0.0022359816, 0.32035828
582, 1722977940, 1.6857751607894897, -0.9586302042007446, 17.042449951171875, 0.0062503302, 0.0028781483, 0.350214
583, 1722994607, 1.6845512390136719, -0.9600827693939209, 17.041994094848633, 0.0047514103, 0.006928664, 0.35333538
584, 1723011274, 1.6846680641174316, -0.9589568376541138, 17.042238235473633, 0.013488944, -0.0057211076, 0.35071945
585, 1723027941, 1.6844273805618286, -0.9601176977157593, 17.04265022277832, 8.2752877E-4, -0.012816959, 0.3519745
586, 1723044608, 1.6842094659805298, -0.9611190557479858, 17.043149948120117, 8.077898E-5, 0.0037518325, 0.35996723
587, 1723061275, 1.6827539205551147, -0.9608657956123352, 17.04109001159668, -0.0019665437, 0.005449567, 0.3553667
588, 1723077942, 1.683538556098938, -0.9605045318603516, 17.041532516479492, -7.336114E-4, -0.002051779, 0.32926083
589, 1723094609, 1.6833322048187256, -0.9607583284378052, 17.04088592529297, -0.0031886778, -0.0055718846, 0.32491302
590, 1723111276, 1.6838775873184204, -0.9615136981010437, 17.041196823120117, -0.0019320949, -0.010489267, 0.35379314
591, 1723127943, 1.6842063665390015, -0.9622447490692139, 17.040306091308594, 0.010933751, -0.0072009168, 0.35037804
592, 1723144610, 1.6849381923675537, -0.9627183675765991, 17.039724349975586, 0.009865939, 0.008958721, 0.34956837
593, 1723161277, 1.684144377708435, -0.963716447353363, 17.03985023498535, 1.1079258E-4, -0.008971042, 0.34106827
594, 1723177944, 1.684914231300354, -0.9637674689292908, 17.03904151916504, -0.0048747477, -8.313704E-4, 0.35731697
595, 1723194611, 1.6848703622817993, -0.962981104850769, 17.039283752441406, 0.008022956, 0.0066485186, 0.34007168
596, 1723211278, 1.6837152242660522, -0.9644776582717896, 17.0390682220459, 0.0087491, 0.003063203, 0.36509514
597, 1723227945, 1.6820672750473022, -0.9628877639770508, 17.037620544433594, 0.007982576, 0.006068293, 0.34032345
598, 1723244612, 1.68289315700531, -0.963015615940094, 17.037893295288086, 0.007971869, -0.0089013195, 0.34392643
599, 1723261279, 1.6832488775253296, -0.9655730724334717, 17.03765106201172, 0.009665377, -0.0071124057, 0.35062218
600, 1723277946, 1.6832475662231445, -0.9637940526008606, 17.0396728515625, -0.006196275, 3.6977424E-4, 0.35242748
601, 1723294613, 1.6834346055984497, -0.9638977646827698, 17.040395736694336, 0.0035934318, 0.0072754445, 0.32675076
602, 1723311280, 1.6838734149932861, -0.9633749127388, 17.04025650024414, -2.6192225E-4, -0.010846385, 0.35848045
603, 1723327947, 1.6836975812911987, -0.9640297889709473, 17.03834342956543, 0.0093951365, 0.010247538, 0.36642742
604, 1723344614, 1.6845548152923584, -0.9637553095817566, 17.03623390197754, -0.0017151197, 0.0018068089, 0.35213947
605, 1723361281, 1.6859813928604126, -0.9626520872116089, 17.036434173583984, 0.0072281924, -4.009543E-4, 0.33765507
606, 1723377948, 1.6853253841400146, -0.9628640413284302, 17.03679084777832, -0.002778734, 0.012169135, 0.3446827
607, 1723394615, 1.6860640048980713, -0.9625617265701294, 17.037141799926758, 0.0054214187, -0.0074269865, 0.33630657
608, 1723411282, 1.6852333545684814, -0.9631845355033875, 17.037405014038086, 0.0019938054, 0.008883635, 0.32696152
609, 1723427949, 1.68424391746521, -0.9641434550285339, 17.037206649780273, -0.003748906, 0.007081994, 0.34502697
610, 1723444616, 1.6838809251785278, -0.9642555117607117, 17.03769874572754, 0.009190266, 0.006548273, 0.3395443
611, 1723461283, 1.684343934059143, -0.9643509984016418, 17.038164138793945, 0.007852101, 0.01339122, 0.358387
612, 1723477950, 1.6842433214187622, -0.9641513228416443, 17.03839874267578, -0.0038560175, 0.0045825886, 0.3599987
613, 1723494617, 1.6844121217727661, -0.9634779095649719, 17.038267135620117, -0.004538144, 0.009090481, 0.35215282
614, 1723511284, 1.6829251050949097, -0.9629751443862915, 17.03915786743164, -0.0049405233, -0.0035027275, 0.347579
615, 1723527951, 1.681856632232666, -0.9643536806106567, 17.039093017578125, 0.0072745923, 0.014765168, 0.35887146
616, 1723544618, 1.6824431419372559, -0.9634807705879211, 17.0394229888916, 0.010283545, -0.006762105, 0.35458565
617, 1723561285, 1.681939959526062, -0.9639490842819214, 17.040382385253906, -0.004449476, 0.004406558, 0.34070015
618, 1723577952, 1.6808576583862305, -0.9639908075332642, 17.03969383239746, 0.009303336, -0.0071523027, 0.35016823
619, 1723594619, 1.6803098917007446, -0.9643808007240295, 17.040546417236328, -0.0033373488, 0.008599494, 0.32684994
620, 1723611286, 1.679452657699585, -0.9638067483901978, 17.04030418395996, -0.002785558, 0.0029144413, 0.3438549
621, 1723627953, 1.6781803369522095, -0.9638945460319519, 17.041133880615234, 0.01010384, 0.0072974605, 0.3553028
622, 1723644620, 1.6783604621887207, -0.9644692540168762, 17.040285110473633, 0.019212252, 0.004060532, 0.33213425
623, 1723661287, 1.6777268648147583, -0.9641556143760681, 17.039634704589844, -0.002118288, 0.010218244, 0.35676765
624, 1723677954, 1.676491141319275, -0.9644202589988708, 17.038684844970703, 0.014316739, 0.012626903, 0.33210087
625, 1723694621, 1.6773432493209839, -0.9635654091835022, 17.038890838623047, 0.0149876475, 0.006887007, 0.3637457
626, 1723711288, 1.676567792892456, -0.9635641574859619, 17.039140701293945, 0.022715064, 0.00448835, 0.35721016
627, 1723727955, 1.6765247583389282, -0.9643816351890564, 17.039344787597656, 0.006673489, 0.0013129151, 0.33899117
628, 1723744622, 1.6763813495635986, -0.9652338027954102, 17.03900718688965, -0.0032373685, 0.0074833673, 0.35946178
629, 1723761289, 1.6756188869476318, -0.9658268690109253, 17.03832244873047, 0.0042085676, 0.0057540056, 0.3531084
630, 1723777956, 1.6752746105194092, -0.9669150114059448, 17.038619995117188, -0.0062046917, 0.0067062406, 0.35459042
631, 1723794623, 1.674992561340332, -0.9667375087738037, 17.03786277770996, 0.016087199, 0.016847847, 0.33623695
632, 1723811290, 1.6747028827667236, -0.9655655026435852, 17.03748321533203, 0.010712606, 0.011639353, 0.33203506
633, 1723827957, 1.6745455265045166, -0.9643686413764954, 17.03679084777832, 0.0030443512, 0.01731383, 0.34244633
634, 1723844624, 1.6755167245864868, -0.9632676839828491, 17.036575317382812, -9.4563444E-4, 0.0020725937, 0.3325243
635, 1723861291, 1.6764814853668213, -0.964072048664093, 17.03713607788086, 0.0048850505, -0.0018397352, 0.351552
636, 1723877958, 1.6778010129928589, -0.9652533531188965, 17.037124633789062, 0.009677461, 0.0054853573, 0.34323502
637, 1723894625, 1.67770254611969, -0.9652259945869446, 17.036340713500977, 0.020485947, 0.013141109, 0.3252306
638, 1723911292, 1.678537130355835, -0.9639872908592224, 17.036861419677734, -0.0032186005, 0.006016899, 0.3478489
639, 1723927959, 1.6778134107589722, -0.9629963636398315, 17.035741806030273, -0.011176186, 0.0071284566, 0.341362
640, 1723944626, 1.6776971817016602, -0.9625245928764343, 17.037513732910156, -0.0067549525, 0.010677731, 0.34467506
641, 1723961293, 1.6779439449310303, -0.9621734619140625, 17.03803062438965, 9.075674E-4, 0.008149268, 0.350029
642, 1723977960, 1.6779837608337402, -0.9621081352233887, 17.038373947143555, 0.0047471845, 0.0023880263, 0.3598137
643, 1723994627, 1.6782853603363037, -0.9622209668159485, 17.038084030151367, 0.023455359, 0.0019877986, 0.31934357
644, 1724011294, 1.6779764890670776, -0.9623911380767822, 17.037931442260742, 0.011638907, -0.0026714408, 0.34764194
645, 1724027961, 1.6768462657928467, -0.9618436694145203, 17.03890609741211, 0.008756469, 0.0087117525, 0.36904812
646, 1724044628, 1.67733895778656, -0.962427020072937, 17.038572311401367, 0.011734905, 0.022991506, 0.34435177
647, 1724061295, 1.6766632795333862, -0.9627102613449097, 17.03877067565918, 0.013068334, 0.008727301, 0.35208702
648, 1724077962, 1.677405834197998, -0.9628121852874756, 17.038009643554688, -0.0036531482, -0.00174484, 0.34327984
649, 1724094629, 1.6755704879760742, -0.9605562090873718, 17.037691116333008, 0.0049651167, 0.0076592723, 0.35261822
650, 1724111296, 1.6755155324935913, -0.9609068036079407, 17.036861419677734, 0.010503132, -9.5398125E-4, 0.33899975
651, 1724127963, 1.675647497177124, -0.9598648548126221, 17.036134719848633, 0.013021236, 0.0086055845, 0.34461117
652, 1724144630, 1.6753946542739868, -0.9590620994567871, 17.037534713745117, 0.008511905, 0.011025629, 0.36271095
653, 1724161297, 1.6749680042266846, -0.9576006531715393, 17.03822898864746, -7.2863826E-4, 0.008901543, 0.34436893
654, 1724177964, 1.6752216815948486, -0.9565500617027283, 17.03801727294922, 0.0030959619, 0.0042827874, 0.34804726
655, 1724194631, 1.6739227771759033, -0.9563512802124023, 17.03699493408203, -0.0025692536, -0.006239825, 0.36165905
656, 1724211298, 1.6750712394714355, -0.9575585722923279, 17.0361385345459, 0.011230255, 0.015592376, 0.3568592
657, 1724227965, 1.6751302480697632, -0.9568217992782593, 17.035287857055664, 0.0067710527, -5.999926E-5, 0.3543644
658, 1724244632, 1.6753690242767334, -0.9556782841682434, 17.035348892211914, 0.009081387, 0.012903542, 0.38478088
659, 1724261299, 1.676042079925537, -0.9552494287490845, 17.0369930267334, -0.0027990527, 0.0075370525, 0.34950733
660, 1724277966, 1.6749240159988403, -0.9555025100708008, 17.038307189941406, 0.0030882785, 0.006428791, 0.33430862
661, 1724294633, 1.6748168468475342, -0.9557853937149048, 17.038848876953125, 0.007910228, 0.0027701915, 0.33264542
662, 1724311300, 1.675720453262329, -0.9561759233474731, 17.039630889892578, 0.008710922, 0.0129326135, 0.32819653
663, 1724327967, 1.6750541925430298, -0.956400454044342, 17.03922462463379, -0.011534027, 6.548091E-4, 0.35805893
664, 1724344634, 1.6756229400634766, -0.9574402570724487, 17.04090118408203, -0.0019905854, 0.008261402, 0.35065556
665, 1724361301, 1.676666021347046, -0.957494854927063, 17.041847229003906, -0.007025662, 0.004719197, 0.368783
666, 1724377968, 1.6766892671585083, -0.9588978290557861, 17.04086685180664, 0.015483748, 0.014660816, 0.32656193
667, 1724394635, 1.6767241954803467, -0.9584820866584778, 17.041240692138672, 0.007101908, 0.0035009254, 0.35271835
668, 1724411302, 1.6772927045822144, -0.9577750563621521, 17.04157066345215, -0.0023635237, 0.008575424, 0.35722923
669, 1724427969, 1.6779214143753052, -0.9575389623641968, 17.042272567749023, 0.007308776, 0.014806127, 0.34653568
670, 1724444636, 1.6778489351272583, -0.9583026766777039, 17.041820526123047, 0.006779441, -3.2184468E-4, 0.34305382
671, 1724461303, 1.6773582696914673, -0.9588627219200134, 17.042184829711914, -0.007425289, 0.00755735, 0.35623837
672, 1724477970, 1.6773622035980225, -0.9591077566146851, 17.041553497314453, 0.013677365, 0.009352104, 0.3282776
673, 1724494637, 1.6774853467941284, -0.9590592384338379, 17.042102813720703, 0.003289489, 0.0012339451, 0.35132885
674, 1724511304, 1.6776072978973389, -0.959385335445404, 17.0421142578125, 0.0038018366, 0.006763558, 0.37362385
675, 1724527971, 1.678267240524292, -0.9601041078567505, 17.041929244995117, 0.010624576, 0.009259709, 0.35428524
676, 1724544638, 1.6775680780410767, -0.9618611931800842, 17.04315948486328, 0.008713632, 0.0023610652, 0.33154964
677, 1724561305, 1.6781423091888428, -0.9612666368484497, 17.0443058013916, 0.0031063342, 0.0034456619, 0.35583878
678, 1724577972, 1.6792781352996826, -0.9596572518348694, 17.044130325317383, 0.005159273, -0.0023155522, 0.34939575
679, 1724594639, 1.6796129941940308, -0.9606210589408875, 17.04294776916504, 0.0226661, 0.003363479, 0.33376598
680, 1724611306, 1.6804240942001343, -0.961609959602356, 17.042327880859375, -2.146772E-4, 0.012867222, 0.33944893
681, 1724627973, 1.6796581745147705, -0.9604548215866089, 17.042390823364258, 0.004541441, 0.0013709167, 0.35771942
682, 1724644640, 1.679205298423767, -0.9604995250701904, 17.04229164123535, 0.008684163, -0.005273453, 0.3191805
683, 1724661307, 1.6795610189437866, -0.961317777633667, 17.040494918823242, 0.009586771, -0.009238922, 0.33956718
684, 1724677974, 1.6789374351501465, -0.9617106318473816, 17.04033088684082, 0.0033998624, 0.0027476167, 0.342988
685, 1724694641, 1.6329846382141113, -0.8905404806137085, 17.045717239379883, 0.1054833, 0.1925415, 0.14423084
686, 1724711308, 1.6387425661087036, -0.6661561131477356, 17.03980255126953, -0.035384092, -0.18049344, 0.51399136
687, 1724727975, 1.5564302206039429, -0.5805284380912781, 17.015823364257812, -0.103205, 0.02597162, 0.39149952
688, 1724744642, 1.4173845052719116, -0.6754266619682312, 16.873592376708984, 0.055829894, -0.08176559, 0.37665367
689, 1724761309, 1.2880281209945679, -0.8054686784744263, 16.642580032348633, 0.06401414, -0.09025617, 0.38058186
690, 1724777976, 1.2259564399719238, -0.8949312567710876, 16.348970413208008, 0.14747795, -0.10456276, 0.34004307
691, 1724794643, 1.1897774934768677, -0.9452627897262573, 16.04513931274414, 0.28882396, -0.16367583, 0.34093285
692, 1724811310, 1.1457799673080444, -0.9660465121269226, 15.87283706665039, 0.11382231, -0.16040796, 0.33638096
693, 1724827977, 1.1106114387512207, -0.9634844064712524, 15.630121231079102, -0.0680065, -0.060443554, 0.34891605
694, 1724844644, 1.0756897926330566, -0.9586809873580933, 15.270552635192871, -0.13926174, -0.043290813, 0.36642265
695, 1724861311, 1.0243349075317383, -0.9713745713233948, 14.849220275878906, -0.079855606, 0.026211958, 0.33476162
696, 1724877978, 0.9707871675491333, -0.9903194904327393, 14.425875663757324, 0.06350236, -0.0088561075, 0.36631298
697, 1724894645, 0.9079316258430481, -1.017738938331604, 14.077949523925781, -0.0032945182, 0.07756746, 0.34590435
698, 1724911312, 0.8682330846786499, -1.024565577507019, 13.77136516571045, -0.2246365, 0.3258044, 0.32331848
699, 1724927979, 0.8576881885528564, -1.004563331604004, 13.483671188354492, -0.052116677, 0.07388449, 0.35565472
700, 1724944646, 0.8559045195579529, -0.9787092208862305, 13.187810897827148, 0.003634572, -0.01980855, 0.3313818
701, 1724961313, 0.8575979471206665, -0.9500786066055298, 12.879337310791016, -0.019563498, -0.00646813, 0.37443256
702, 1724977980, 0.8530521392822266, -0.9346438646316528, 12.620671272277832, -0.039804634, 0.097642034, 0.3638935
703, 1724994647, 0.8479948043823242, -0.9269465208053589, 12.444160461425781, -0.02376204, 0.042208195, 0.36436844
704, 1725011314, 0.8421662449836731, -0.922295093536377, 12.213282585144043, 0.03293828, -0.093676165, 0.34454823
705, 1725027981, 0.8318063020706177, -0.9240938425064087, 11.896605491638184, 0.021212218, -0.076873064, 0.34415627
706, 1725044648, 0.8178156018257141, -0.9249482750892639, 11.491518020629883, 0.050339196, -0.08633125, 0.37434292
707, 1725061315, 0.7953816056251526, -0.9312720894813538, 11.043734550476074, -0.021992955, 0.011401822, 0.3536129
708, 1725077982, 0.7816502451896667, -0.9299716949462891, 10.598599433898926, -0.03172046, -0.024943948, 0.36550522
709, 1725094649, 0.7691218852996826, -0.9308720827102661, 10.178362846374512, -0.036970526, 0.046449177, 0.34409332
710, 1725111316, 0.7479880452156067, -0.9382488131523132, 9.769699096679688, 0.008535918, -0.051410772, 0.34340286
711, 1725127983, 0.7066650390625, -0.9442732334136963, 9.283001899719238, 0.08625379, -0.3348106, 0.35670185
712, 1725144650, 0.6295289993286133, -0.9493203163146973, 8.738601684570312, 0.105336644, -0.21484087, 0.3553648
713, 1725161317, 0.48568612337112427, -0.9647856950759888, 8.13617992401123, 0.034948662, -0.34131244, 0.33987427
714, 1725177984, 0.19842785596847534, -0.9871857166290283, 7.487685680389404, 0.11343176, -0.54499096, 0.36466408
715, 1725194651, -0.33207714557647705, -0.9370483756065369, 6.80743408203125, 0.10284237, -0.3048028, 0.33637333
716, 1725211318, -0.6516827344894409, -0.8130194544792175, 6.27592134475708, -0.54517674, 1.6702006, 0.3296814
717, 1725227985, -0.6433830857276917, -0.7993733286857605, 6.098592281341553, -0.050000302, 0.4388722, 0.3666048
718, 1725244652, -0.6493561863899231, -0.7981995940208435, 6.051361083984375, -0.050630387, -0.0642564, 0.35773754
719, 1725261319, -0.6656707525253296, -0.7977203726768494, 5.890599250793457, -0.04064685, -0.041314833, 0.35253525
720, 1725277986, -0.6726546287536621, -0.800795316696167, 5.758265495300293, 0.009382871, 0.051234536, 0.34067154
721, 1725294653, -0.6762721538543701, -0.8018304109573364, 5.65596342086792, -0.020290032, -0.020335631, 0.34171104
722, 1725311320, -0.6815562844276428, -0.8032413125038147, 5.466361999511719, -0.0633729, -0.08816185, 0.36540127
723, 1725327987, -0.6859386563301086, -0.8031588792800903, 5.234400272369385, -0.0015663648, -0.009094333, 0.35329628
724, 1725344654, -0.6881221532821655, -0.8045251369476318, 4.97015905380249, -0.015140893, -0.0062999674, 0.34748745
725, 1725361321, -0.6836506128311157, -0.8093870282173157, 4.700611591339111, -0.0075520766, 0.0026282016, 0.36806583
726, 1725377988, -0.6796240210533142, -0.8135344982147217, 4.4192657470703125, -0.016114956, -0.037247013, 0.3373003
727, 1725394655, -0.6770251393318176, -0.8147714734077454, 4.134591579437256, -0.00941929, -0.027040709, 0.35439873
728, 1725411322, -0.6727380752563477, -0.8150287866592407, 3.80788516998291, -0.013456374, -0.05864176, 0.3420725
729, 1725427989, -0.6661005020141602, -0.8192415237426758, 3.4335358142852783, -0.04152154, -0.09859444, 0.35509586
730, 1725444656, -0.6602271795272827, -0.8242175579071045, 2.972238779067993, -0.034596525, -0.108155854, 0.34335518
731, 1725461323, -0.6530894637107849, -0.8284114599227905, 2.424424409866333, -0.025636768, -0.06875063, 0.3537655
732, 1725477990, -0.6474446058273315, -0.8339548110961914, 1.8831297159194946, -0.01612129, 0.06800115, 0.34681606
733, 1725494657, -0.642030656337738, -0.838178813457489, 1.3953937292099, -0.031102149, 0.037183058, 0.35364342
734, 1725511324, -0.6358779072761536, -0.8435054421424866, 0.957379937171936, -0.0022189668, 0.020758053, 0.33220005
735, 1725527991, -0.629951000213623, -0.8485909700393677, 0.5921134948730469, 0.034406982, 0.062450115, 0.3400879
736, 1725544658, -0.6295050978660583, -0.848979115486145, 0.281080961227417, 0.025316615, 0.041318938, 0.33036232
737, 1725561325, -0.6253417134284973, -0.8484510779380798, -0.011538833379745483, -0.013252041, 5.443728E-4, 0.35774517
738, 1725577992, -0.6213575601577759, -0.848882257938385, -0.31167805194854736, -0.014774458, -0.018589038, 0.36484337
739, 1725594659, -0.6172289848327637, -0.8532822728157043, -0.6218259334564209, -0.057686068, -0.03957981, 0.35086632
740, 1725611326, -0.6120672821998596, -0.8538190722465515, -1.0052663087844849, -0.10219503, -0.1337082, 0.36348534
741, 1725627993, -0.6066422462463379, -0.8545239567756653, -1.4531632661819458, -0.03535249, -0.012852561, 0.34942532
742, 1725644660, -0.6011294722557068, -0.8609161972999573, -1.8645449876785278, 0.018850084, 0.06347562, 0.35541725
743, 1725661327, -0.5950028300285339, -0.8660818338394165, -2.252657413482666, -0.015185715, -4.8323153E-4, 0.36881638
744, 1725677994, -0.5877726078033447, -0.8709976673126221, -2.6315155029296875, -0.03891449, -0.03497845, 0.3560896
745, 1725694661, -0.5782480835914612, -0.8752082586288452, -2.997436761856079, -0.0445434, -0.03914086, 0.3485899
746, 1725711328, -0.5703074336051941, -0.8771905303001404, -3.397152900695801, -0.07013307, -0.041550305, 0.35214233
747, 1725727995, -0.5612616539001465, -0.8809002041816711, -3.8681819438934326, -0.09379044, -0.10340764, 0.36580944
748, 1725744662, -0.5534760355949402, -0.8829761147499084, -4.393769264221191, -0.051941562, -0.016179726, 0.37234116
749, 1725761329, -0.5443392395973206, -0.8876791000366211, -4.9505767822265625, -0.041364234, -0.045798846, 0.3622427
750, 1725777996, -0.5364704132080078, -0.8921465277671814, -5.498948097229004, -0.008376678, 0.04526152, 0.34668255
751, 1725794663, -0.5276585221290588, -0.894818127155304, -5.949496746063232, 0.05522455, 0.09464551, 0.3573017
752, 1725811330, -0.5211274027824402, -0.8935478329658508, -6.296870708465576, 0.034705743, 0.07100178, 0.36832333
753, 1725827997, -0.5167708396911621, -0.8921976089477539, -6.591867446899414, -0.019579837, 0.0063788504, 0.34374905
754, 1725844664, -0.5124104022979736, -0.8929052948951721, -6.851521015167236, 0.014847673, 0.041963715, 0.34362507
755, 1725861331, -0.508495569229126, -0.8967386484146118, -7.065136432647705, -0.023199629, -0.008087502, 0.35592556
756, 1725877998, -0.5074135065078735, -0.9011504054069519, -7.263110637664795, -0.0034705834, -0.011094512, 0.32826138
757, 1725894665, -0.5074271559715271, -0.903372585773468, -7.470914840698242, -0.04393437, -0.046945818, 0.37158394
758, 1725911332, -0.5089433193206787, -0.9035564661026001, -7.749490261077881, -0.07999662, -0.079680495, 0.3462286
759, 1725927999, -0.503447949886322, -0.9041779041290283, -8.07912540435791, -0.055720437, -0.039668545, 0.34957504
760, 1725944666, -0.49050647020339966, -0.9052398800849915, -8.444488525390625, -0.053222865, -0.064045504, 0.38067627
761, 1725961333, -0.47834527492523193, -0.9066065549850464, -8.805421829223633, -0.05871009, -0.04068687, 0.33684444
762, 1725978000, -0.46638351678848267, -0.9068101644515991, -9.152665138244629, -0.007234786, -0.040322535, 0.35836506
763, 1725994667, -0.46099087595939636, -0.9083268046379089, -9.5116548538208, -0.03957297, -0.012093011, 0.37861538
764, 1726011334, -0.454946368932724, -0.9115796685218811, -9.88238525390625, -0.0550186, -0.030225197, 0.359334
765, 1726028001, -0.4494042992591858, -0.9186336398124695, -10.257816314697266, -0.0405631, 0.006783136, 0.3538227
766, 1726044668, -0.44356995820999146, -0.920224130153656, -10.635844230651855, -0.079109184, -0.08593215, 0.3337326
767, 1726061335, -0.4350329637527466, -0.91709965467453, -11.071846961975098, -0.041402183, -0.049025334, 0.3391857
768, 1726078002, -0.4256988763809204, -0.9162924885749817, -11.504509925842285, -0.016189553, -0.016005816, 0.33717346
769, 1726094669, -0.41561487317085266, -0.9190029501914978, -11.870132446289062, 0.048200086, 0.085223034, 0.3732481
770, 1726111336, -0.4090263843536377, -0.9218687415122986, -12.21989917755127, -0.117814235, -0.06757073, 0.34663486
771, 1726128003, -0.40183645486831665, -0.9236950278282166, -12.711882591247559, -0.15159225, -0.12243922, 0.35829258
772, 1726144670, -0.38525304198265076, -0.9293553829193115, -13.324675559997559, -0.1105172, -0.108283676, 0.3705635
773, 1726161337, -0.36925607919692993, -0.9310005903244019, -14.000027656555176, -0.10758441, -0.068118244, 0.34576225
774, 1726178004, -0.3512129783630371, -0.9352064728736877, -14.701170921325684, -0.03254082, -0.02195965, 0.3773203
775, 1726194671, -0.3353033661842346, -0.935358464717865, -15.403779029846191, -0.05791877, -0.024271464, 0.34981155
776, 1726211338, -0.3186953663825989, -0.9397996664047241, -16.088817596435547, -0.042918064, -0.042982474, 0.36062813
777, 1726228005, -0.3047507703304291, -0.9430825710296631, -16.767763137817383, -0.05669287, -0.017301533, 0.3592739
778, 1726244672, -0.28847983479499817, -0.9434194564819336, -17.41811752319336, 0.03782151, 0.030533783, 0.33942032
779, 1726261339, -0.27126917243003845, -0.9482650756835938, -17.94559097290039, 0.0018227272, -0.0021786925, 0.34337425
780, 1726278006, -0.2597027122974396, -0.9499300122261047, -18.41879653930664, -0.03649252, 0.020388922, 0.3674612
781, 1726294673, -0.2515151798725128, -0.9495912790298462, -18.861576080322266, -0.038534205, 0.009847106, 0.35193157
782, 1726311340, -0.2447912096977234, -0.950921356678009, -19.29124641418457, -0.027848978, 0.0017352812, 0.38193035
783, 1726328007, -0.24146583676338196, -0.9535285830497742, -19.742826461791992, -0.11925155, -0.07159094, 0.33592892
784, 1726344674, -0.2367209941148758, -0.9554032683372498, -20.223791122436523, -0.09068589, -0.03250481, 0.34277725
785, 1726361341, -0.2324509173631668, -0.9567528367042542, -20.757389068603516, -0.12430972, -0.08388426, 0.35714054
786, 1726378008, -0.22594021260738373, -0.9617668390274048, -21.382375717163086, -0.14646927, -0.09267197, 0.35795212
787, 1726394675, -0.2188393920660019, -0.969366729259491, -22.056461334228516, -0.086631514, -0.013385642, 0.35700226
788, 1726411342, -0.2133684903383255, -0.9728437066078186, -22.717254638671875, 0.017109806, 0.07946545, 0.3631506
789, 1726428009, -0.20570747554302216, -0.974621593952179, -23.301729202270508, 0.05686227, 0.07489371, 0.34328556
790, 1726444676, -0.19291263818740845, -0.9820098280906677, -23.760974884033203, 0.0446265, 0.055405237, 0.33537674
791, 1726461343, -0.1715695559978485, -0.9871244430541992, -24.196508407592773, -0.09375568, -0.05689123, 0.3718109
792, 1726478010, -0.15981850028038025, -0.9837720990180969, -24.681608200073242, -0.13100143, -0.07904168, 0.3802414
793, 1726494677, -0.14556379616260529, -0.9781880974769592, -25.23987579345703, -0.16142692, -0.14767863, 0.33884144
794, 1726511344, -0.129600390791893, -0.9714038968086243, -25.8486385345459, -0.06217606, -0.045972027, 0.36475945
795, 1726528011, -0.11697600781917572, -0.9616196751594543, -26.498384475708008, -0.12763987, -0.05241326, 0.34799385
796, 1726544678, -0.09923030436038971, -0.9555176496505737, -27.15369415283203, 0.02183241, 0.02249454, 0.3391714
797, 1726561345, -0.08187786489725113, -0.9495213031768799, -27.78379249572754, -0.0747692, -0.027918635, 0.34630013
798, 1726578012, -0.058969344943761826, -0.9437636137008667, -28.384767532348633, 0.0028234506, -0.016191721, 0.33886337
799, 1726594679, -0.03599337488412857, -0.938196063041687, -28.930038452148438, -0.0235856, -0.038855135, 0.35770416
800, 1726611346, -0.016015727072954178, -0.9326715469360352, -29.45732307434082, 0.01921121, 0.085719414, 0.33513165
801, 1726628013, 0.010895797051489353, -0.9378021955490112, -29.89911651611328, -0.1414775, -0.07522363, 0.3624239
802, 1726644680, 0.026758363470435143, -0.9276926517486572, -30.49217414855957, -0.07799678, -0.046907023, 0.3596859
803, 1726661347, 0.04123307764530182, -0.9165238738059998, -31.082672119140625, -0.10864863, -0.08612089, 0.33880615
804, 1726678014, 0.05939929932355881, -0.9063681364059448, -31.69724464416504, -0.040654995, -0.034229096, 0.33508396
805, 1726694681, 0.0762489065527916, -0.9017055630683899, -32.250736236572266, 0.025210913, 0.014973802, 0.34128284
806, 1726711348, 0.09195603430271149, -0.8974805474281311, -32.707725524902344, -0.033762153, 0.0057410384, 0.35907078
807, 1726728015, 0.10227204114198685, -0.8935848474502563, -33.204551696777344, -0.1707651, -0.09652638, 0.35312176
808, 1726744682, 0.11742829531431198, -0.8844191431999207, -33.8055534362793, -0.10453427, -0.08460354, 0.34537697
809, 1726761349, 0.13535822927951813, -0.8800817728042603, -34.45073699951172, -0.121954255, -0.04785442, 0.35531044
810, 1726778016, 0.15206997096538544, -0.8723931312561035, -35.10580825805664, -0.031599063, 0.0021047734, 0.3700037
811, 1726794683, 0.1682691127061844, -0.8681745529174805, -35.76035690307617, -0.097420454, -0.006565342, 0.34424114
812, 1726811350, 0.18467757105827332, -0.8651827573776245, -36.35725021362305, -0.007037983, 0.037012186, 0.35695553
813, 1726828017, 0.19616714119911194, -0.8604761362075806, -36.91883087158203, -0.09367174, -0.027404638, 0.36848736
814, 1726844684, 0.2080548256635666, -0.8550072312355042, -37.498905181884766, -0.10823467, -0.08825847, 0.37167358
815, 1726861351, 0.22147983312606812, -0.8535444140434265, -38.06541061401367, -0.04524693, -0.048159298, 0.3560114
816, 1726878018, 0.23618431389331818, -0.8525649309158325, -38.548728942871094, -0.0369402, 0.0044661695, 0.33850288
817, 1726894685, 0.2473573088645935, -0.8489410281181335, -39.00371170043945, -0.12436141, -0.048092537, 0.3719263
818, 1726911352, 0.2565562129020691, -0.8430392146110535, -39.532623291015625, -0.16366848, -0.055607587, 0.38279724
819, 1726928019, 0.2657143771648407, -0.8363780975341797, -40.169036865234375, -0.19846933, -0.05412626, 0.34737682
820, 1726944686, 0.2778095304965973, -0.8323695063591003, -40.891563415527344, -0.12437866, -0.025412522, 0.33595848
821, 1726961353, 0.2909140884876251, -0.824998140335083, -41.61380386352539, -0.028476765, -0.009846321, 0.33538437
822, 1726978020, 0.30633771419525146, -0.8151031732559204, -42.27317428588867, -0.018275337, -0.0043711136, 0.3442974
823, 1726994687, 0.3223998546600342, -0.8093354105949402, -42.85953140258789, -0.05999421, -0.045478284, 0.3336153
824, 1727011354, 0.34103092551231384, -0.8024469017982483, -43.39429473876953, -0.06193516, -0.020425556, 0.3602066
825, 1727028021, 0.3539106845855713, -0.8008332252502441, -43.843624114990234, -0.0232341, -0.0033215287, 0.36509705
826, 1727044688, 0.3629617393016815, -0.8063798546791077, -44.1904411315918, -0.059482984, -0.023736672, 0.3640089
827, 1727061355, 0.3654421865940094, -0.8101693391799927, -44.543060302734375, -0.12230872, -0.030204965, 0.3539076
828, 1727078022, 0.3692095875740051, -0.8094358444213867, -44.88521194458008, -0.04565612, -0.001881403, 0.34824085
829, 1727094689, 0.37158653140068054, -0.8059130311012268, -45.19718551635742, -0.06437503, -0.016600966, 0.32099628
830, 1727111356, 0.3776123821735382, -0.8082412481307983, -45.47812271118164, -0.09934716, -0.03854093, 0.34485722
831, 1727128023, 0.3869127333164215, -0.8100247383117676, -45.75935363769531, -0.09483904, -0.051000647, 0.33722878
832, 1727144690, 0.39437535405158997, -0.8118919730186462, -46.02642059326172, -0.062078893, -0.025000717, 0.33551788
833, 1727161357, 0.3947919011116028, -0.8111998438835144, -46.28072738647461, -0.10663055, -0.0154516185, 0.343112
834, 1727178024, 0.39972439408302307, -0.8101404905319214, -46.57864761352539, -0.14438193, -0.053515248, 0.34637928
835, 1727194691, 0.41306495666503906, -0.8013181090354919, -46.95106887817383, -0.14216173, -0.079619855, 0.3304119
836, 1727211358, 0.42476749420166016, -0.7927917242050171, -47.34989547729492, -0.10184839, -0.044443116, 0.33310795
837, 1727228025, 0.4335382878780365, -0.785184383392334, -47.73311996459961, -0.09517377, -0.03687344, 0.34094048
838, 1727244692, 0.44019365310668945, -0.7828978300094604, -48.07207107543945, -0.109856546, -0.015128351, 0.33558464
839, 1727261359, 0.4501746892929077, -0.7808474898338318, -48.47718811035156, -0.43067035, -0.2102532, 0.32536316
840, 1727278026, 0.45530638098716736, -0.7739271521568298, -49.01355743408203, 0.08164789, 0.115757056, 0.38635445
841, 1727294693, 0.4621269106864929, -0.76551753282547, -49.49587631225586, -0.16330731, -0.08060258, 0.3466568
842, 1727311360, 0.4741756021976471, -0.76097571849823, -50.05193328857422, -0.10759485, -0.054226562, 0.37391853
843, 1727328027, 0.48716896772384644, -0.7542404532432556, -50.614078521728516, -0.21073507, -0.08924935, 0.35546684
844, 1727344694, 0.5011175870895386, -0.7471163272857666, -51.286537170410156, -0.10603167, 0.015433573, 0.36816692
845, 1727361361, 0.5107556581497192, -0.7434943318367004, -51.85665512084961, 0.009166106, 0.04971671, 0.37462425
846, 1727378028, 0.5177679657936096, -0.7398560047149658, -52.33149719238281, -0.10997765, 0.00120117, 0.36236477
847, 1727394695, 0.5277047753334045, -0.732375979423523, -52.86796951293945, -0.2014885, -0.09253093, 0.3649006
848, 1727411362, 0.5390672087669373, -0.7228168249130249, -53.472312927246094, -0.114286706, -0.04097776, 0.3276825
849, 1727428029, 0.5537703037261963, -0.7158291935920715, -54.03513717651367, -0.04791887, -0.005019753, 0.3409214
850, 1727444696, 0.5632541179656982, -0.710680365562439, -54.50284194946289, -0.07439443, -0.004173019, 0.37214947
851, 1727461363, 0.5711168050765991, -0.7095479369163513, -54.9305534362793, -0.10602358, -0.041095078, 0.35882473
852, 1727478030, 0.5744194388389587, -0.7065121531486511, -55.31729507446289, -0.06487372, -0.032638248, 0.36505985
853, 1727494697, 0.5766534805297852, -0.7048273682594299, -55.620418548583984, -0.078744955, -0.0188067, 0.37235832
854, 1727511364, 0.5836777091026306, -0.6991899013519287, -55.92744064331055, -0.14995407, -0.054754764, 0.34369564
855, 1727528031, 0.5904059410095215, -0.6906960010528564, -56.330326080322266, -0.19925506, -0.030348655, 0.35570621
856, 1727544698, 0.5968689322471619, -0.6857333183288574, -56.764137268066406, -0.072712295, -0.016804779, 0.35237026
857, 1727561365, 0.6039361357688904, -0.6892802119255066, -57.12880325317383, -0.10772514, -0.032124586, 0.32752895
858, 1727578032, 0.6119176149368286, -0.6895326375961304, -57.45663070678711, -0.13027172, -0.039682366, 0.35084057
859, 1727594699, 0.6184531450271606, -0.6845397353172302, -57.797176361083984, -0.16410479, -0.026192836, 0.3615589
860, 1727611366, 0.6245734691619873, -0.6784612536430359, -58.15578842163086, -0.13276234, -0.031074032, 0.37032032
861, 1727628033, 0.6314865350723267, -0.6725561618804932, -58.521087646484375, -0.15483943, -0.044075973, 0.36275387
862, 1727644700, 0.6403544545173645, -0.6678550839424133, -58.95305633544922, -0.20905185, -0.06659952, 0.35222435
863, 1727661367, 0.6527732610702515, -0.6601924300193787, -59.49801254272461, -0.21347749, -0.054263312, 0.33995342
864, 1727678034, 0.6640185713768005, -0.6563563346862793, -60.09616470336914, -0.083995275, 0.013823211, 0.3448801
865, 1727694701, 0.6685624122619629, -0.6527820229530334, -60.62739562988281, -0.06559165, 0.01648399, 0.3570795
866, 1727711368, 0.6706156134605408, -0.6511014103889465, -61.05770492553711, -0.055250313, 0.005049776, 0.36033154
867, 1727728035, 0.6759457588195801, -0.650829017162323, -61.44514083862305, -0.1416669, -0.02935631, 0.342556
868, 1727744702, 0.686044454574585, -0.6407549381256104, -61.88785171508789, -0.17252591, -0.036528155, 0.35170555
869, 1727761369, 0.6971167325973511, -0.6338305473327637, -62.37699890136719, -0.18021704, -0.04704864, 0.3327856
870, 1727778036, 0.7091639637947083, -0.6286507248878479, -62.90184783935547, -0.14434557, -0.019021405, 0.34638882
871, 1727794703, 0.7205072641372681, -0.623079240322113, -63.41573715209961, -0.14929986, -0.0081280945, 0.3543911
872, 1727811370, 0.732218325138092, -0.614347517490387, -63.954647064208984, -0.16833825, -0.013916248, 0.34520626
873, 1727828037, 0.7447044849395752, -0.6064009070396423, -64.49501037597656, -0.13721412, -0.03508748, 0.36192417
874, 1727844704, 0.7566338777542114, -0.593123197555542, -65.04450225830078, -0.13686563, -0.052785855, 0.3700781
875, 1727861371, 0.7679716944694519, -0.5848166346549988, -65.58909606933594, -0.15405887, -0.03869332, 0.3532343
876, 1727878038, 0.7789264917373657, -0.5778548717498779, -66.1607666015625, -0.12181797, -0.005232272, 0.35782433
877, 1727894705, 0.7953667044639587, -0.568085789680481, -66.72080993652344, -0.14443885, -0.013360073, 0.35112858
878, 1727911372, 0.8115619421005249, -0.5529385805130005, -67.34367370605469, -0.21660805, -0.033379387, 0.34759998
879, 1727928039, 0.8243792057037354, -0.5387377738952637, -68.01338958740234, -0.13732265, -0.03243607, 0.36949062
880, 1727944706, 0.8377280235290527, -0.5298178791999817, -68.64558410644531, -0.12670301, -0.023909181, 0.35892677
881, 1727961373, 0.8498547077178955, -0.5174413323402405, -69.32051849365234, -0.22109726, -0.03821835, 0.35343552
882, 1727978040, 0.863059401512146, -0.5030480027198792, -70.02494049072266, -0.09508524, 0.007806504, 0.3603077
883, 1727994707, 0.8769169449806213, -0.49293017387390137, -70.66836547851562, -0.099206164, -0.0042105773, 0.35133648
884, 1728011374, 0.8886968493461609, -0.48204055428504944, -71.2726821899414, -0.15551165, -0.033812284, 0.36562634
885, 1728028041, 0.9011017680168152, -0.47429218888282776, -71.8759994506836, -0.16936775, -0.049996115, 0.3511572
886, 1728044708, 0.9155222773551941, -0.4711741507053375, -72.4942626953125, -0.183053, 0.015591813, 0.3328104
887, 1728061375, 0.9343996644020081, -0.47003787755966187, -73.06566619873047, -0.08522942, -0.015658213, 0.3418417
888, 1728078042, 0.9496819972991943, -0.4618133306503296, -73.65120697021484, -0.25486612, -0.031499915, 0.33132553
889, 1728094709, 0.9734790325164795, -0.4512478709220886, -74.3582992553711, -0.22983715, -0.071610995, 0.34348202
890, 1728111376, 1.00092613697052, -0.4441825747489929, -75.0947265625, -0.14211565, -0.050354518, 0.3621912
891, 1728128043, 1.0204885005950928, -0.43810445070266724, -75.82188415527344, -0.1096779, -0.012252798, 0.35974026
892, 1728144710, 1.0307830572128296, -0.4276846945285797, -76.44602966308594, -0.04957078, -4.4470347E-4, 0.36417198
893, 1728161377, 1.0387216806411743, -0.42004451155662537, -77.00418090820312, -0.12908858, -0.011917264, 0.3593092
894, 1728178044, 1.047871470451355, -0.41394463181495667, -77.52459716796875, -0.17225616, -0.043549407, 0.35030174
895, 1728194711, 1.0594950914382935, -0.40956372022628784, -78.05393981933594, -0.15434949, -0.054560658, 0.35153103
896, 1728211378, 1.0642985105514526, -0.40878820419311523, -78.51290130615234, -0.05014577, 0.030638743, 0.3399639
897, 1728228045, 1.060895323753357, -0.41173988580703735, -78.88336181640625, -0.09822313, 0.013885955, 0.35751343
898, 1728244712, 1.0460971593856812, -0.4202190935611725, -79.1786880493164, -0.13933007, 0.0043744594, 0.34692478
899, 1728261379, 1.0402843952178955, -0.4171876311302185, -79.47368621826172, -0.18439771, -0.026620064, 0.34693336
900, 1728278046, 1.0399090051651, -0.41932475566864014, -79.81170654296875, -0.21569556, -0.045080826, 0.34934425
901, 1728294713, 1.0477995872497559, -0.4196191132068634, -80.23246002197266, -0.23303905, -0.029882178, 0.3303938
902, 1728311380, 1.0538681745529175, -0.4117259383201599, -80.73652648925781, -0.25217625, 0.005147486, 0.36422443
903, 1728328047, 1.0588476657867432, -0.39908602833747864, -81.31554412841797, -0.15831235, 0.024062825, 0.3594141
904, 1728344714, 1.0693235397338867, -0.39247962832450867, -81.87510681152344, -0.15322958, 0.004710389, 0.33903885
905, 1728361381, 1.075484037399292, -0.389358788728714, -82.34964752197266, -0.13202764, -0.0065613207, 0.36258602
906, 1728378048, 1.0846179723739624, -0.3779274523258209, -82.85090637207031, -0.25289422, -0.036710203, 0.3510275
907, 1728394715, 1.0942001342773438, -0.36406210064888, -83.45821380615234, -0.25918156, -0.032200467, 0.35097122
908, 1728411382, 1.1058326959609985, -0.35967904329299927, -84.09397888183594, -0.08154021, -0.0077991635, 0.34208107
909, 1728428049, 1.1170727014541626, -0.3607881963253021, -84.5810317993164, -0.096778594, 0.01753703, 0.3826456
910, 1728444716, 1.122138500213623, -0.35465139150619507, -85.01239776611328, -0.18564782, -0.013639029, 0.343606
911, 1728461383, 1.127871036529541, -0.3411889970302582, -85.4815444946289, -0.21870144, -0.001611291, 0.33738708
912, 1728478050, 1.1368073225021362, -0.32305651903152466, -85.98686218261719, -0.23217337, 0.018186456, 0.34208775
913, 1728494717, 1.14559006690979, -0.30099034309387207, -86.6106185913086, -0.2981629, -0.027243145, 0.3556633
914, 1728511384, 1.1604262590408325, -0.27964818477630615, -87.35360717773438, -0.19732928, -0.03263084, 0.36382198
915, 1728528051, 1.1733766794204712, -0.2608141005039215, -88.1132583618164, -0.20871204, -1.3286449E-4, 0.36121178
916, 1728544718, 1.1789991855621338, -0.2436233013868332, -88.83570098876953, -0.123129375, 0.042098776, 0.3402853
917, 1728561385, 1.1830068826675415, -0.22223608195781708, -89.52963256835938, -0.13399373, 0.039130837, 0.36184978
918, 1728578052, 1.1829344034194946, -0.2028498500585556, -90.16661071777344, -0.2035808, 0.0014069896, 0.32840538
919, 1728594719, 1.1882555484771729, -0.18347793817520142, -90.84043884277344, -0.1627531, -0.01015331, 0.34671497
920, 1728611386, 1.1963618993759155, -0.16184325516223907, -91.50180053710938, -0.1746808, 0.030643847, 0.3346138
921, 1728628053, 1.201886773109436, -0.14271625876426697, -92.15164947509766, -0.19985624, 0.01766103, 0.35481167
922, 1728644720, 1.207045555114746, -0.12200798094272614, -92.83995819091797, -0.12282059, -0.008773223, 0.34328175
923, 1728661387, 1.2146737575531006, -0.10442377626895905, -93.48788452148438, -0.18644403, 0.012462342, 0.3761921
924, 1728678054, 1.2277005910873413, -0.08926853537559509, -94.19816589355469, -0.23991391, 0.0042199213, 0.36286163
925, 1728694721, 1.2463555335998535, -0.07864239811897278, -94.91908264160156, -0.18579894, 0.04353831, 0.35223866
926, 1728711388, 1.263698697090149, -0.06279042363166809, -95.69818115234375, -0.22896826, 0.047745336, 0.3213377
927, 1728728055, 1.272458791732788, -0.047586359083652496, -96.404296875, -0.07498443, 0.011096793, 0.3803215
928, 1728744722, 1.2782270908355713, -0.032454393804073334, -97.0550537109375, -0.17217356, 0.001951041, 0.351696
929, 1728761389, 1.2862263917922974, -0.016117539256811142, -97.77539825439453, -0.2650241, 0.057467084, 0.35786724
930, 1728778056, 1.297109603881836, 0.0020657056011259556, -98.56524658203125, -0.21217537, 0.056535706, 0.34505558
931, 1728794723, 1.313279390335083, 0.01920921541750431, -99.33203125, -0.1895279, 0.028391957, 0.35669422
932, 1728811390, 1.3287036418914795, 0.036830730736255646, -100.04032135009766, -0.20441352, 0.008896835, 0.33150005
933, 1728828057, 1.341442584991455, 0.05022025480866432, -100.7462387084961, -0.24808039, 0.013822963, 0.37022686
934, 1728844724, 1.3549991846084595, 0.06677050143480301, -101.5687026977539, -0.24627545, -0.0034732725, 0.36459732
935, 1728861391, 1.365370273590088, 0.0873241126537323, -102.48601531982422, -0.24600103, 0.034441955, 0.35013103
936, 1728878058, 1.380433440208435, 0.11418921500444412, -103.55927276611328, -0.35935163, 0.10601995, 0.34559727
937, 1728894725, 1.397196888923645, 0.14442279934883118, -104.76341247558594, -0.29459, 0.09030946, 0.3426361
938, 1728911392, 1.4104481935501099, 0.17648376524448395, -106.03826141357422, -0.18863928, 0.08188767, 0.34095383
939, 1728928059, 1.4213790893554688, 0.20419923961162567, -107.21800994873047, -0.08946165, 0.038775567, 0.3333702
940, 1728944726, 1.4304906129837036, 0.23009248077869415, -108.30961608886719, -0.11655459, -0.02925369, 0.38060856
941, 1728961393, 1.4394078254699707, 0.25251349806785583, -109.255126953125, -0.079187654, 0.00787389, 0.35251236
942, 1728978060, 1.4431703090667725, 0.2720767557621002, -110.08638000488281, -0.082809724, 0.010168125, 0.3654461
943, 1728994727, 1.4435428380966187, 0.28880032896995544, -110.74797058105469, -0.033241272, -0.05383073, 0.362175
944, 1729011394, 1.443378210067749, 0.2950758635997772, -111.14503479003906, 0.009467408, -0.06656438, 0.36342812
945, 1729028061, 1.4447261095046997, 0.29464247822761536, -111.35443115234375, -0.16790083, 0.02929938, 0.35598183
946, 1729044728, 1.4454610347747803, 0.29925107955932617, -111.61406707763672, -0.241078, 0.08970086, 0.31790924
947, 1729061395, 1.449396014213562, 0.3122015595436096, -112.05672454833984, -0.39503327, 0.15522365, 0.33164406
948, 1729078062, 1.4516441822052002, 0.32910317182540894, -112.68718719482422, -0.25179532, 0.06250121, 0.3788643
949, 1729094729, 1.4523948431015015, 0.34536585211753845, -113.32728576660156, -0.1502997, 0.043519624, 0.3526268
950, 1729111396, 1.4516597986221313, 0.35626569390296936, -113.87903594970703, -0.17228572, 0.056091193, 0.35512638
951, 1729128063, 1.4482108354568481, 0.369655966758728, -114.44344329833984, -0.17239389, 0.044918843, 0.3866434
952, 1729144730, 1.44960355758667, 0.37822651863098145, -114.9828872680664, -0.2179973, 0.06584766, 0.36420727
953, 1729161397, 1.4478175640106201, 0.39283278584480286, -115.58834075927734, -0.23743708, 0.080591254, 0.35190964
954, 1729178064, 1.4388725757598877, 0.4215761423110962, -116.27681732177734, -0.2538846, 0.105651446, 0.34829998
955, 1729194731, 1.4323115348815918, 0.45150065422058105, -117.11280059814453, -0.3611883, 0.14822528, 0.3263998
956, 1729211398, 1.424653172492981, 0.4873877763748169, -118.21965789794922, -0.29534972, 0.1287958, 0.36114693
957, 1729228065, 1.4187889099121094, 0.5188665390014648, -119.3829345703125, -0.21203569, 0.051129248, 0.37190437
958, 1729244732, 1.4189311265945435, 0.5395651459693909, -120.57229614257812, -0.18808597, 0.078231536, 0.35034084
959, 1729261399, 1.4219701290130615, 0.5568252205848694, -121.66807556152344, -0.10046202, 0.04549757, 0.34127426
960, 1729278066, 1.4219934940338135, 0.5714446306228638, -122.61199188232422, -0.1723124, 0.07553027, 0.37070465
961, 1729294733, 1.4142565727233887, 0.5922253131866455, -123.49158477783203, -0.10097579, 0.019738572, 0.344285
962, 1729311400, 1.404956340789795, 0.6098407506942749, -124.2237548828125, -0.087827235, -0.0514343, 0.35521412
963, 1729328067, 1.3968366384506226, 0.6219799518585205, -124.77809143066406, -0.14064513, -0.021319358, 0.35325813
964, 1729344734, 1.39122474193573, 0.6279418468475342, -125.14408111572266, -0.13668275, -0.02740722, 0.34901714
965, 1729361401, 1.3881034851074219, 0.6377238035202026, -125.50225830078125, -0.25767553, 0.12015485, 0.35892487
966, 1729378068, 1.3825969696044922, 0.6534726023674011, -125.9774169921875, -0.2875145, 0.17254083, 0.3435688
967, 1729394735, 1.3789197206497192, 0.6659199595451355, -126.5589370727539, -0.23636506, 0.103057414, 0.34383297
968, 1729411402, 1.3738179206848145, 0.6812520623207092, -127.21883392333984, -0.19631039, 0.09110456, 0.35234737
969, 1729428069, 1.3715182542800903, 0.6892756819725037, -127.81340026855469, -0.15234156, 0.041408256, 0.3377962
970, 1729444736, 1.3692377805709839, 0.689933717250824, -128.33197021484375, -0.20013127, 0.07864407, 0.3300085
971, 1729461403, 1.3616622686386108, 0.7074800133705139, -128.9130401611328, -0.36906278, 0.2691123, 0.34605312
972, 1729478070, 1.3423371315002441, 0.7466331124305725, -129.99960327148438, -0.514357, 0.4289468, 0.34599876
973, 1729494737, 1.3248629570007324, 0.7754092216491699, -131.55499267578125, -0.39574972, 0.35486385, 0.33552742
974, 1729511404, 1.3086329698562622, 0.8019454479217529, -133.28915405273438, -0.09459143, 0.09672471, 0.3437376
975, 1729528071, 1.2926912307739258, 0.8253070712089539, -134.84532165527344, 0.02318575, -0.1223588, 0.36745834
976, 1729544738, 1.2815803289413452, 0.8404453992843628, -135.99365234375, 0.012445882, -0.15835182, 0.33691597
977, 1729561405, 1.278933048248291, 0.8481014370918274, -136.86651611328125, -0.1560465, 0.02084264, 0.3608837
978, 1729578072, 1.28191077709198, 0.8496030569076538, -137.60467529296875, -0.14259653, -0.011051731, 0.355649
979, 1729594739, 1.2865816354751587, 0.8454908132553101, -138.1823272705078, -0.17586596, 0.053409684, 0.3361311
980, 1729611406, 1.274879813194275, 0.8664670586585999, -138.88455200195312, -0.3183674, 0.3334599, 0.35984325
981, 1729628073, 1.2567685842514038, 0.8968234062194824, -139.9033966064453, -0.31140697, 0.27658957, 0.33627415
982, 1729644740, 1.2443552017211914, 0.9192273616790771, -141.05589294433594, -0.17672215, 0.12426345, 0.34939575
983, 1729661407, 1.2335734367370605, 0.9362977147102356, -142.1995849609375, -0.13480575, -0.0026873138, 0.36956215
984, 1729678074, 1.2389190196990967, 0.9384089708328247, -143.15025329589844, -0.10987746, -0.03965173, 0.33755207
985, 1729694741, 1.25214684009552, 0.9300700426101685, -143.89932250976562, -0.14099678, -0.005139415, 0.36315823
986, 1729711408, 1.2612422704696655, 0.9211716055870056, -144.4903106689453, -0.15965119, 0.04645987, 0.36375332
987, 1729728075, 1.2536739110946655, 0.9300892949104309, -145.03936767578125, -0.2229085, 0.11403493, 0.33419704
988, 1729744742, 1.2273179292678833, 0.9670898914337158, -145.7246856689453, -0.2912188, 0.29486308, 0.33201218
989, 1729761409, 1.1899430751800537, 1.0095486640930176, -146.7411651611328, -0.2972385, 0.26870632, 0.3668852
990, 1729778076, 1.1701784133911133, 1.0304572582244873, -147.93759155273438, -0.19938192, 0.12663399, 0.34917355
991, 1729794743, 1.1639039516448975, 1.0372787714004517, -149.0745849609375, -0.08826296, -0.04283769, 0.35483742
992, 1729811410, 1.165480136871338, 1.0413792133331299, -149.99713134765625, -0.16937995, 0.11057215, 0.35751152
993, 1729828077, 1.1583609580993652, 1.0528991222381592, -150.93728637695312, -0.18204589, 0.20299022, 0.35077
994, 1729844744, 1.1442643404006958, 1.065277338027954, -151.9574432373047, -0.17753975, 0.1104519, 0.35757446
995, 1729861411, 1.1348005533218384, 1.0755081176757812, -152.93731689453125, -0.17665766, 0.09464285, 0.36274815
996, 1729878078, 1.1196818351745605, 1.0876985788345337, -153.9024200439453, -0.19061139, 0.14263415, 0.33467388
997, 1729894745, 1.0956315994262695, 1.1122188568115234, -154.92449951171875, -0.21772157, 0.22282557, 0.33295727
998, 1729911412, 1.0563875436782837, 1.150587797164917, -156.20941162109375, -0.18286929, 0.24006842, 0.37821198
999, 1729928079, 1.0349284410476685, 1.1712837219238281, -157.5379638671875, -0.15026407, 0.049457233, 0.3416071
1000, 1729944746, 1.022421956062317, 1.1846460103988647, -158.58743286132812, -0.14576648, -0.038645033, 0.35288906
1001, 1729961413, 1.0062519311904907, 1.1973755359649658, -159.49700927734375, -0.17952192, 0.1552235, 0.3507967
1002, 1729978080, 0.9873022437095642, 1.2118548154830933, -160.37745666503906, -0.16263261, 0.15240845, 0.36231422
1003, 1729994747, 0.9701970219612122, 1.2253056764602661, -161.2557830810547, -0.17583188, 0.09148179, 0.35256004
1004, 1730011414, 0.9717956185340881, 1.2206321954727173, -162.0033416748047, -0.14745885, 0.010763125, 0.36269855
1005, 1730028081, 0.9729942679405212, 1.2145663499832153, -162.6415252685547, -0.15984611, 0.113342024, 0.35171318
1006, 1730044748, 0.9874827265739441, 1.1949173212051392, -163.19036865234375, -0.14944291, 0.092916824, 0.36333084
1007, 1730061415, 1.0112931728363037, 1.1690996885299683, -163.6421356201172, -0.1717288, 0.11522797, 0.31717587
1008, 1730078082, 1.0116198062896729, 1.165064811706543, -164.09918212890625, -0.16789345, 0.17161752, 0.3351488
1009, 1730094749, 0.9930312037467957, 1.1736340522766113, -164.599853515625, -0.15858006, 0.17145231, 0.36097717
1010, 1730111416, 0.972651481628418, 1.1829630136489868, -165.1172332763672, -0.1603301, 0.18275853, 0.34420967
1011, 1730128083, 0.9390105605125427, 1.2048592567443848, -165.70774841308594, -0.15320192, 0.21247956, 0.37255573
1012, 1730144750, 0.9141684174537659, 1.2131893634796143, -166.3229217529297, -0.17676237, 0.11463617, 0.3646536
1013, 1730161417, 0.8951195478439331, 1.2254014015197754, -166.91880798339844, -0.16160525, 0.1645559, 0.3225441
1014, 1730178084, 0.8652745485305786, 1.2528893947601318, -167.6125030517578, -0.13926058, 0.2927217, 0.3374071
1015, 1730194751, 0.8389518857002258, 1.2821074724197388, -168.4996337890625, -0.16407257, 0.2702984, 0.34209824
1016, 1730211418, 0.8321858048439026, 1.287843108177185, -169.39967346191406, -0.19751222, 0.118221894, 0.31582642
1017, 1730228085, 0.8381885290145874, 1.281988501548767, -170.154052734375, -0.1798996, 0.01737097, 0.35433483
1018, 1730244752, 0.8436164855957031, 1.2763912677764893, -170.74876403808594, -0.18502983, 0.099723384, 0.3573885
1019, 1730261419, 0.8224092721939087, 1.2882992029190063, -171.3749237060547, -0.14576533, 0.22331703, 0.3423748
1020, 1730278086, 0.797817051410675, 1.3025859594345093, -172.04920959472656, -0.16967633, 0.17120157, 0.33747673
1021, 1730294753, 0.7559019327163696, 1.335677146911621, -172.82594299316406, -0.14948128, 0.20208462, 0.3551569
1022, 1730311420, 0.7163305282592773, 1.3618348836898804, -173.65550231933594, -0.16399801, 0.13253096, 0.34768486
1023, 1730328087, 0.6962136030197144, 1.3724782466888428, -174.43077087402344, -0.18333785, 0.07970587, 0.3564949
1024, 1730344754, 0.6867285966873169, 1.370491623878479, -175.0540008544922, -0.15872881, 0.075616665, 0.32992744
1025, 1730361421, 0.6754603981971741, 1.3766449689865112, -175.6439208984375, -0.121681206, 0.23112054, 0.35210896
1026, 1730378088, 0.653549075126648, 1.3886728286743164, -176.33848571777344, -0.12514505, 0.21906349, 0.37685013
1027, 1730394755, 0.634110152721405, 1.3985024690628052, -177.103515625, -0.14121428, 0.19741072, 0.3417139
1028, 1730411422, 0.6126085519790649, 1.4083352088928223, -177.92518615722656, -0.1288126, 0.17316379, 0.36257362
1029, 1730428089, 0.6036732196807861, 1.4142229557037354, -178.71250915527344, -0.17542425, 0.14556001, 0.3474121
1030, 1730444756, 0.5870444178581238, 1.4229601621627808, -179.45437622070312, -0.15620239, 0.13400109, 0.35480976
1031, 1730461423, 0.5728071331977844, 1.4295884370803833, 179.86129760742188, -0.16991203, 0.14521618, 0.3270359
1032, 1730478090, 0.5561166405677795, 1.441988229751587, 179.1072540283203, -0.11495953, 0.2448306, 0.33485985
1033, 1730494757, 0.5369943380355835, 1.4511927366256714, 178.28208923339844, -0.17125179, 0.17695755, 0.34829807
1034, 1730511424, 0.5131991505622864, 1.460575819015503, 177.44427490234375, -0.122119755, 0.123432726, 0.36851597
1035, 1730528091, 0.4920235574245453, 1.4665580987930298, 176.5495147705078, -0.072718374, 0.21900463, 0.34640026
1036, 1730544758, 0.47449713945388794, 1.4763585329055786, 175.595703125, -0.1139433, 0.24676347, 0.33952904
1037, 1730561425, 0.44555577635765076, 1.49423348903656, 174.49974060058594, -0.13104035, 0.25125763, 0.3546362
1038, 1730578092, 0.42052778601646423, 1.5034419298171997, 173.3178253173828, -0.13943416, 0.1921205, 0.34251976
1039, 1730594759, 0.39812955260276794, 1.5063812732696533, 172.1947479248047, -0.13756041, 0.10106052, 0.35620403
