PacketCounter,SampleTimeFine,Euler_X,Euler_Y,Euler_Z,FreeAcc_X,FreeAcc_Y,FreeAcc_Z
1,1037210512,-0.6634966731071472,-0.3485550284385681,-0.1919791847467422,0.00406089,0.014228517,0.31497383
2,1037227179,-0.6548330783843994,-0.3709871768951416,-0.1231797039508819,0.022903234,-0.0007741685,0.35599613
3,1037243846,-0.6575459241867065,-0.4170045256614685,-0.0844423025846481,-0.013265319,0.00059385295,0.32193184
4,1037260513,-0.6619832515716553,-0.4371613264083862,-0.1066052839159965,-0.0016034226,-0.002739064,0.34157944
5,1037277180,-0.6695107221603394,-0.4553559124469757,-0.1428271830081939,-0.005251608,0.00718767,0.32952118
6,1037293847,-0.6731618046760559,-0.4734004735946655,-0.0865850821137428,-0.0058077467,0.009234382,0.34515
7,1037310514,-0.6753949522972107,-0.4902070462703705,-0.0581108033657074,-0.009662992,-0.0008523108,0.33939266
8,1037327181,-0.6793206334114075,-0.5067153573036194,-0.058700792491436,-0.007051453,0.012324393,0.33516312
9,1037343848,-0.6817213892936707,-0.5226085186004639,-0.0374076552689075,-0.003122263,0.0021602912,0.33871078
10,1037360515,-0.6863550543785095,-0.5393821001052856,-0.0347664095461368,-0.004787106,0.0019929672,0.33051968
11,1037377182,-0.6909130215644836,-0.5573969483375549,-0.0233924407511949,-0.018949153,0.0066681076,0.33762932
12,1037393849,-0.6955289244651794,-0.5730311870574951,-0.0069481548853218,-0.027466426,0.009077395,0.32170582
13,1037410516,-0.6998745203018188,-0.5893015265464783,-0.0169325843453407,-0.0242763,0.009917714,0.34519768
14,1037427183,-0.7028218507766724,-0.6035686731338501,-0.0097827157005667,-0.049713433,0.012614757,0.34414864
15,1037443850,-0.707221269607544,-0.6157045960426331,-0.0131441373378038,-0.032557942,0.004452654,0.33694553
16,1037460517,-0.7116199731826782,-0.6300835609436035,0.0022569636348634,-0.04288934,0.020260563,0.31946754
17,1037477184,-0.7161411643028259,-0.6411652565002441,-0.0030952575616538,-0.047658335,0.011749541,0.3342514
18,1037493851,-0.7193171381950378,-0.6534062623977661,0.0071305776946246,-0.042038757,0.0007824281,0.31806087
19,1037510518,-0.7237339615821838,-0.6661149263381958,0.0005690117250196636,-0.053555597,0.01300953,0.35733223
20,1037527185,-0.7267361283302307,-0.6791355013847351,0.0230297464877367,-0.039794832,0.011566998,0.344347
21,1037543852,-0.730919599533081,-0.6924234628677368,0.0388405583798885,-0.041279383,0.016758928,0.33764172
22,1037560519,-0.7357314229011536,-0.705195426940918,0.0385225899517536,-0.04518709,0.016742567,0.31254578
23,1037577186,-0.7395711541175842,-0.7186981439590454,0.0474297627806663,-0.054928143,0.02001656,0.35142612
24,1037593853,-0.7445353865623474,-0.7313530445098877,0.0566286668181419,-0.04579839,0.023929402,0.3487339
25,1037610520,-0.7485000491142273,-0.7449954748153687,0.0582603588700294,-0.045376,0.029863741,0.3295927
26,1037627187,-0.7531134486198425,-0.7585322260856628,0.0700852423906326,-0.057478428,0.0135018695,0.3510561
27,1037643854,-0.7563736438751221,-0.7726130485534668,0.0659302547574043,-0.06633362,0.026455367,0.33687687
28,1037660521,-0.7599787712097168,-0.7856534719467163,0.0717630162835121,-0.05383389,0.027630122,0.335433
29,1037677188,-0.7638998627662659,-0.7983550429344177,0.0843350514769554,-0.082156084,0.018444782,0.33250904
30,1037693855,-0.7673422694206238,-0.8122171759605408,0.0936288312077522,-0.056618277,0.021247005,0.32648087
31,1037710522,-0.7721456289291382,-0.82499098777771,0.1082924604415893,-0.07855495,0.033127733,0.32935905
32,1037727189,-0.7761086225509644,-0.8378483653068542,0.111766517162323,-0.08257717,0.017731262,0.3460226
33,1037743856,-0.7798054814338684,-0.8515252470970154,0.1121561378240585,-0.084489115,0.020479776,0.33013916
34,1037760523,-0.7850215435028076,-0.8642776608467102,0.1108960807323455,-0.07037494,0.037992455,0.35426426
35,1037777190,-0.7892478108406067,-0.8764384388923645,0.1075868308544159,-0.073575,0.035144676,0.34136868
36,1037793857,-0.7920422554016113,-0.8892889022827148,0.1045244857668876,-0.0734901,0.030864125,0.3595667
37,1037810524,-0.7958048582077026,-0.9027155637741088,0.0991841852664947,-0.09926594,0.03622381,0.31744385
38,1037827191,-0.7994449734687805,-0.9157921075820924,0.1035992130637168,-0.099470265,0.026409585,0.33171082
39,1037843858,-0.8031945824623108,-0.9286136627197266,0.0913018658757209,-0.08906644,0.029926332,0.331398
40,1037860525,-0.8064335584640503,-0.9425743222236632,0.1112778037786483,-0.087981105,0.035851452,0.32876587
41,1037877192,-0.809050977230072,-0.9555633068084716,0.1096582114696502,-0.091943815,0.03073993,0.32933807
42,1037893859,-0.8126713633537292,-0.9692094326019288,0.1129616424441337,-0.105589144,0.032418463,0.33253002
43,1037910526,-0.8170285820960999,-0.9817518591880798,0.1098796501755714,-0.09787021,0.009211269,0.33043766
44,1037927193,-0.8208410143852234,-0.9941511154174804,0.1167648881673812,-0.10201465,0.029184358,0.33043766
45,1037943860,-0.8240103125572205,-1.0071450471878052,0.1141421496868133,-0.10646161,0.030180473,0.3357792
46,1037960527,-0.8280285000801086,-1.019947528839111,0.1205533593893051,-0.1129487,0.047444064,0.34370804
47,1037977194,-0.8329421281814575,-1.033719539642334,0.118326261639595,-0.101983465,0.03511918,0.3421936
48,1037993861,-0.8373010754585266,-1.0451345443725586,0.1014328673481941,-0.10515343,0.0437834,0.33319664
49,1038010528,-0.8406499624252319,-1.0583921670913696,0.1004740223288536,-0.11093602,0.024299217,0.33328915
50,1038027195,-0.8442814946174622,-1.0709733963012695,0.0938484221696853,-0.110477135,0.031313717,0.3433361
51,1038043862,-0.8474209904670715,-1.0849120616912842,0.1023862734436988,-0.12564385,0.05365198,0.3347149
52,1038060529,-0.8517033457756042,-1.0989917516708374,0.1039044633507728,-0.1273063,0.04281865,0.33112335
53,1038077196,-0.8549794554710388,-1.1116347312927246,0.1070605516433715,-0.1253828,0.023348272,0.36353016
54,1038093863,-0.8591843843460083,-1.1246551275253296,0.1103146076202392,-0.12192278,0.02155327,0.3150854
55,1038110530,-0.8624141216278076,-1.1374043226242063,0.1093218848109245,-0.13470817,0.03519216,0.33429146
56,1038127197,-0.8675435185432434,-1.149316668510437,0.0991134047508239,-0.11884231,0.03850962,0.34784698
57,1038143864,-0.8718015551567078,-1.1616840362548828,0.0923735648393631,-0.121122815,0.034361254,0.35974884
58,1038160531,-0.8751198053359985,-1.1750091314315796,0.0905834808945655,-0.15139437,0.034617685,0.33790302
59,1038177198,-0.8789265751838684,-1.1860376596450806,0.0916150212287902,-0.14123437,0.031018859,0.34309006
60,1038193865,-0.8826020359992981,-1.197907328605652,0.1014738902449607,-0.1375799,0.04007896,0.32920074
61,1038210532,-0.8864250779151917,-1.2093746662139893,0.0957635343074798,-0.13459536,0.04365008,0.35115337
62,1038227199,-0.8908582329750061,-1.2218292951583862,0.0990501940250396,-0.14090185,0.047121678,0.35647297
63,1038243866,-0.8950878977775574,-1.234628438949585,0.112029030919075,-0.14944099,0.052598774,0.3345337
64,1038260533,-0.8992481231689453,-1.2467197179794312,0.1171337962150573,-0.13964601,0.040662613,0.3012085
65,1038277200,-0.9030416011810304,-1.2579237222671509,0.1124553680419921,-0.15725498,0.04237482,0.35621834
66,1038293867,-0.907005786895752,-1.2712907791137695,0.1156434714794159,-0.14775108,0.04514007,0.3525114
67,1038310534,-0.910864531993866,-1.284027338027954,0.1175282299518585,-0.15487045,0.05883329,0.3343258
68,1038327201,-0.9160661697387696,-1.296517252922058,0.1129503175616264,-0.16034253,0.062499076,0.329628
69,1038343868,-0.9189570546150208,-1.3079100847244265,0.1086814478039741,-0.16456802,0.060382765,0.32778645
70,1038360535,-0.923192262649536,-1.319295048713684,0.1144631952047348,-0.16888776,0.047542788,0.31665897
71,1038377202,-0.927087426185608,-1.3299357891082764,0.1064692884683609,-0.17203149,0.05453398,0.32885456
72,1038393869,-0.932226300239563,-1.340972900390625,0.1117412745952606,-0.15933211,0.059350442,0.34306335
73,1038410536,-0.9367309212684632,-1.3539214134216309,0.1039915159344673,-0.16355596,0.043339435,0.3422613
74,1038427203,-0.9400267004966736,-1.3648371696472168,0.1031346768140792,-0.17140351,0.032814976,0.33488178
75,1038443870,-0.9429490566253662,-1.3755656480789185,0.1062116473913192,-0.16028108,0.051494453,0.3306713
76,1038460537,-0.9466449022293092,-1.3866597414016724,0.0993697494268417,-0.17262782,0.045648254,0.33516598
77,1038477204,-0.9508790969848632,-1.3975502252578735,0.1082037761807441,-0.16681859,0.043903586,0.35872364
78,1038493871,-0.95505553483963,-1.4075711965560913,0.1073466762900352,-0.17329903,0.05823662,0.33982563
79,1038510538,-0.95847088098526,-1.4189176559448242,0.1053363755345344,-0.18040419,0.06632167,0.33423996
80,1038527205,-0.9627296924591064,-1.4302300214767456,0.0995907336473465,-0.18227337,0.055550948,0.3354845
81,1038543872,-0.9669398665428162,-1.441225528717041,0.0892627537250518,-0.18036836,0.057610143,0.32008076
82,1038560539,-0.9700384140014648,-1.4520955085754397,0.0869476124644279,-0.17480037,0.0668014,0.3386135
83,1038577206,-0.9725332260131836,-1.4624041318893433,0.0775427222251892,-0.1828695,0.062462583,0.3675413
84,1038593873,-0.9752326607704164,-1.4744950532913208,0.0842885226011276,-0.18975346,0.057559676,0.34185982
85,1038610540,-0.9792558550834656,-1.4855451583862305,0.0800025388598442,-0.18275279,0.04821961,0.33025455
86,1038627207,-0.9835015535354614,-1.4953069686889648,0.0751709267497062,-0.19181709,0.05431534,0.34378242
87,1038643874,-0.9861140251159668,-1.5047612190246582,0.0668277516961097,-0.18943608,0.06177755,0.33577728
88,1038660541,-0.9890531301498412,-1.5146080255508425,0.0693596750497818,-0.18864407,0.06777125,0.3382759
89,1038677208,-0.9926923513412476,-1.522971749305725,0.0719006806612014,-0.19391185,0.059135523,0.3462448
90,1038693875,-0.9961995482444764,-1.5330983400344849,0.0623710937798023,-0.20903018,0.058134295,0.34258556
91,1038710542,-0.9996618032455444,-1.5421167612075806,0.0645926967263221,-0.20828985,0.07399014,0.33119774
92,1038727209,-1.0028023719787598,-1.5507609844207764,0.0563715063035488,-0.19622537,0.057187036,0.33318996
93,1038743876,-1.0072609186172483,-1.5588163137435913,0.0589815117418766,-0.1919716,0.063483514,0.3453741
94,1038760543,-1.0091898441314695,-1.5683878660202026,0.0696087777614593,-0.21277632,0.06949065,0.32704067
95,1038777210,-1.011925458908081,-1.5772429704666138,0.062711663544178,-0.2194538,0.060515337,0.3428831
96,1038793877,-1.0141479969024658,-1.587286353111267,0.0538013242185115,-0.21160318,0.046450555,0.35210037
97,1038810544,-1.01640522480011,-1.597670555114746,0.0525388978421688,-0.21695536,0.06380697,0.35023975
98,1038827211,-1.0185487270355225,-1.60658597946167,0.0486986711621284,-0.21369919,0.0659929,0.34906673
99,1038843878,-1.0215939283370972,-1.6143008470535278,0.0429246537387371,-0.21801867,0.08093999,0.33164978
100,1038860545,-1.0250424146652222,-1.6225579977035522,0.0398591794073581,-0.2198297,0.08057626,0.3483076
101,1038877212,-1.02924382686615,-1.6310443878173828,0.0406694710254669,-0.20958404,0.07585067,0.3383608
102,1038893879,-1.03071129322052,-1.6409292221069336,0.0416706129908561,-0.20991568,0.07436505,0.34635162
103,1038910546,-1.032360315322876,-1.6500427722930908,0.0457487404346466,-0.2201953,0.06589414,0.3508358
104,1038927213,-1.0354918241500854,-1.6581432819366455,0.0496667809784412,-0.21824811,0.07304642,0.3416767
105,1038943880,-1.0372495651245115,-1.6666488647460938,0.0448410026729106,-0.21789844,0.06100177,0.3083849
106,1038960547,-1.039677381515503,-1.6748275756835938,0.0463707633316516,-0.2342057,0.081956826,0.3406067
107,1038977214,-1.042334794998169,-1.6822389364242554,0.0442200452089309,-0.22063346,0.06687323,0.34343052
108,1038993881,-1.0441910028457642,-1.689062476158142,0.0468084551393985,-0.23973627,0.075218596,0.3451519
109,1039010548,-1.0461020469665527,-1.6944717168807983,0.0516071505844593,-0.22286858,0.06795914,0.34918213
110,1039027215,-1.0471365451812744,-1.7014825344085691,0.053293477743864,-0.22072273,0.067910135,0.31189156
111,1039043882,-1.0493098497390747,-1.708178162574768,0.0532995797693729,-0.22321396,0.061273478,0.32854939
112,1039060549,-1.0507888793945312,-1.7141577005386353,0.0497452616691589,-0.22858396,0.061584357,0.33389664
113,1039077216,-1.053794264793396,-1.7210484743118286,0.0501162372529506,-0.23302631,0.071677126,0.32759476
114,1039093883,-1.056626319885254,-1.7274835109710691,0.0585526525974273,-0.21073763,0.09223734,0.33418465
115,1039110550,-1.0587221384048462,-1.733706831932068,0.0562183260917663,-0.24261086,0.061190445,0.33613586
116,1039127217,-1.0609132051467896,-1.7389367818832395,0.0528269037604332,-0.23228121,0.06542757,0.34719086
117,1039143884,-1.0637478828430176,-1.744815230369568,0.04321875795722,-0.22338319,0.0773514,0.3062029
118,1039160551,-1.0653153657913208,-1.7512246370315552,0.0418555364012718,-0.23810443,0.07247387,0.3178463
119,1039177218,-1.065805435180664,-1.7561761140823364,0.0369466356933116,-0.23546082,0.06626146,0.3372841
120,1039193885,-0.6344601511955261,-0.3858668804168701,-0.179917961359024,0.023142856,0.0069174045,0.3578844
121,1039210552,-0.6336653232574463,-0.3852452635765075,-0.176271915435791,-0.0055345874,-0.0028538902,0.345973
122,1039227219,-0.6340115666389465,-0.3858112692832947,-0.1776879280805587,0.0054950346,0.007954921,0.3453865
123,1039243886,-0.6326826214790344,-0.3853345513343811,-0.1779017001390457,0.010630587,-0.0057072076,0.32456207
124,1039260553,-0.632571280002594,-0.3850747644901275,-0.1758197098970413,0.013031535,-0.014292281,0.33235073
125,1039277220,-0.6314922571182251,-0.3848933279514313,-0.175512284040451,0.012473029,-0.016666554,0.33684063
126,1039293887,-0.6307887434959412,-0.385723203420639,-0.1751971989870071,0.0127519695,-0.008782984,0.33118153
127,1039310554,-0.6317752003669739,-0.3858247995376587,-0.1748739629983902,-0.007947199,-0.0008738239,0.3610258
128,1039327221,-0.631479024887085,-0.3857607841491699,-0.1759232431650161,-0.012296888,0.008753431,0.33737278
129,1039343888,-0.6319794058799744,-0.3859969973564148,-0.1726063191890716,0.00799655,-0.0011938595,0.31211758
130,1039360555,-0.6317647099494934,-0.3867947459220886,-0.1720921099185943,0.012425127,-0.0030647467,0.32600975
131,1039377222,-0.6311423182487488,-0.3861738443374634,-0.1723731011152267,0.0002066098,-0.005292598,0.33546257
132,1039393889,-0.6310639381408691,-0.3874115943908691,-0.1745654642581939,0.0035739618,-0.0032362617,0.32525635
133,1039410556,-0.6303521990776062,-0.3869453370571136,-0.1754020452499389,0.0037035746,0.0007917702,0.36268044
134,1039427223,-0.6303339004516602,-0.3869219720363617,-0.1734329015016555,-0.0011847793,-0.0028728994,0.3185997
135,1039443890,-0.6311295628547668,-0.3866660296916961,-0.1739628165960312,0.021060051,-0.008895526,0.32546806
136,1039460557,-0.6311694383621216,-0.3862289190292358,-0.1724923104047775,0.006836542,-0.008415008,0.34282875
137,1039477224,-0.6316836476325989,-0.3866612613201141,-0.1732386946678161,0.01495303,-0.0015556152,0.3203802
138,1039493891,-0.6328838467597961,-0.3855612874031067,-0.1706406623125076,-0.0023098108,-0.0045919446,0.34783363
139,1039510558,-0.6328596472740173,-0.3853284120559692,-0.1721482574939727,0.01105427,-0.002481783,0.35232162
140,1039527225,-0.6331127285957336,-0.385272204875946,-0.1734321564435959,-0.0014420428,-0.009912545,0.33702374
141,1039543892,-0.6334795355796814,-0.3855189681053161,-0.17106793820858,-0.0007650325,0.015350255,0.3501444
142,1039560559,-0.6337446570396423,-0.3855167329311371,-0.1711225509643554,0.010240487,0.005509563,0.36985874
143,1039577226,-0.6336892247200012,-0.385586678981781,-0.1684830784797668,0.0024874269,-0.006041349,0.32639503
144,1039593893,-0.6338472366333008,-0.3855905830860138,-0.1692757606506347,-0.00416295,-0.011328167,0.3272934
145,1039610560,-0.6335604786872864,-0.3851601481437683,-0.1699825525283813,0.005959327,0.00052618794,0.34867096
146,1039627227,-0.633054256439209,-0.384980708360672,-0.1691656708717346,0.011555306,0.0021977297,0.34910965
147,1039643894,-0.6345456838607788,-0.3837452232837677,-0.1687093079090118,0.00866235,0.0050641084,0.33684254
148,1039660561,-0.6344871520996094,-0.3828937113285064,-0.1697246432304382,0.0007988772,-0.0033925076,0.3500948
149,1039677228,-0.632969856262207,-0.3815043866634369,-0.1697422862052917,-0.0016565279,-0.00083663693,0.31631374
150,1039693895,-0.6328349113464355,-0.3830248713493347,-0.1678915917873382,-0.0025222355,-0.0077271885,0.35503483
151,1039710562,-0.6317443251609802,-0.3838047683238983,-0.1711469888687133,0.003908295,0.0049895914,0.33682632
152,1039727229,-0.631234347820282,-0.3832786977291107,-0.1703021973371505,0.021951204,0.026220752,0.31371498
153,1039743896,-0.6309627890586853,-0.3828043639659881,-0.1687316596508026,-0.009487498,-0.002609608,0.34026718
154,1039760563,-0.6303590536117554,-0.3830153048038482,-0.1687719523906707,-0.0026036291,0.0010890948,0.33748436
155,1039777230,-0.6302971839904785,-0.3831279277801513,-0.1689961552619934,0.011753383,0.009647046,0.34720612
156,1039793897,-0.6293696165084839,-0.3833787143230438,-0.1714090853929519,-0.011421629,0.00965972,0.32284927
157,1039810564,-0.6295929551124573,-0.3832595944404602,-0.1711973845958709,0.010321168,0.00081634964,0.3146801
158,1039827231,-0.6296082139015198,-0.3836239278316498,-0.1725680232048034,0.0022703537,-0.007541128,0.3274536
159,1039843898,-0.629963755607605,-0.3833388090133667,-0.1719232499599456,-0.005789602,-0.017331904,0.34100246
160,1039860565,-0.6297542452812195,-0.3825953006744385,-0.173681154847145,-0.000834786,-0.0046529775,0.327837
161,1039877232,-0.629663348197937,-0.3828760087490082,-0.175262302160263,-0.005367508,-0.00741477,0.3347206
162,1039893899,-0.6293725967407227,-0.3824031949043274,-0.1738246083259582,0.001867105,0.0017589631,0.33365822
163,1039910566,-0.6307567358016968,-0.382683128118515,-0.1752096861600875,0.0090384,-0.008193384,0.32972813
164,1039927233,-0.6303783655166626,-0.3831293880939483,-0.1735125929117202,0.0026147105,-0.008651589,0.3435793
165,1039943900,-0.6301226615905762,-0.3837316334247589,-0.1723539233207702,-0.01645498,0.00017332731,0.33210182
166,1039960567,-0.6301407814025879,-0.3828701972961426,-0.1730141788721084,0.0040438245,-0.006598298,0.31811237
167,1039977234,-0.6302776336669922,-0.3815057873725891,-0.1718453168869018,0.015325931,-0.011858187,0.3408594
168,1039993901,-0.6288982033729553,-0.3819577991962433,-0.1664983034133911,0.0033575383,-0.008190548,0.3458147
169,1040010568,-0.6294726729393005,-0.3809612095355987,-0.1651991009712219,0.012775019,0.003760211,0.32810116
170,1040027235,-0.6289834380149841,-0.3818889260292053,-0.1651917248964309,0.0035599747,0.0030808956,0.3336277
171,1040043902,-0.6291970610618591,-0.3809335827827453,-0.1635048985481262,0.0028054053,0.0064093214,0.34577942
172,1040060569,-0.6301314234733582,-0.3799242079257965,-0.1639729589223861,0.013353593,-0.008906716,0.36389256
173,1040077236,-0.631263017654419,-0.3799230754375458,-0.1639797836542129,0.008221407,-0.0095010605,0.34475613
174,1040093903,-0.6315732598304749,-0.3801354169845581,-0.1628762632608413,0.011722297,-0.005079304,0.3499422
175,1040110570,-0.632243812084198,-0.3804887235164642,-0.162623643875122,0.0011999991,0.00772831,0.3282385
176,1040127237,-0.6327546834945679,-0.3802302777767181,-0.1611111909151077,0.00031672834,-0.004081116,0.33315945
177,1040143904,-0.6338404417037964,-0.3801252543926239,-0.1602871417999267,-0.006052193,-0.008172095,0.34957123
178,1040160571,-0.6331704258918762,-0.3800072968006134,-0.1594634503126144,0.015724953,-0.006003733,0.3424015
179,1040177238,-0.6336365938186646,-0.3803361058235168,-0.1603004485368728,0.0076086675,-0.0074908063,0.3747282
180,1040193905,-0.6342588067054749,-0.3799299895763397,-0.1597682684659958,0.005298371,0.000974066,0.35167313
181,1040210572,-0.6340171098709106,-0.3797396719455719,-0.1592749208211898,-0.0052548787,0.012154981,0.34230423
182,1040227239,-0.6349026560783386,-0.3806242048740387,-0.1583681404590606,-0.0025081122,-0.0044975732,0.31779003
183,1040243906,-0.6347532868385315,-0.379122257232666,-0.1584092825651168,0.011310716,0.010758733,0.35229778
184,1040260573,-0.6352806687355042,-0.3797076344490051,-0.1577537506818771,0.003286262,-0.001408645,0.35651302
185,1040277240,-0.6354213953018188,-0.3806945383548736,-0.1580991446971893,0.023745866,-0.0061686956,0.3610344
186,1040293907,-0.6342307925224304,-0.3806155622005462,-0.1598214358091354,-0.0053958404,0.00943049,0.35639
187,1040310574,-0.6346022486686707,-0.3805555701255798,-0.1619858145713806,-0.002995531,0.0013991108,0.33842087
188,1040327241,-0.6345526576042175,-0.3808457851409912,-0.1602221429347992,0.013818637,0.005393242,0.34036255
189,1040343908,-0.6341407895088196,-0.3813231885433197,-0.1608357429504394,0.01397446,-0.015590109,0.34761715
190,1040360575,-0.6342498660087585,-0.3803198933601379,-0.160854160785675,0.0077944556,0.0011685537,0.3580246
191,1040377242,-0.6331321001052856,-0.3811554610729217,-0.1615710407495498,-0.008670754,-0.014334724,0.3442955
192,1040393909,-0.6334432363510132,-0.3809789419174194,-0.1633284538984298,-0.01142627,0.0037708906,0.3515339
193,1040410576,-0.6325827836990356,-0.3813991844654083,-0.1645535826683044,-0.009034181,0.002647923,0.34782505
194,1040427243,-0.6331222057342529,-0.3802260756492615,-0.1643164604902267,0.004006131,0.0067234198,0.3517046
195,1040443910,-0.6336020231246948,-0.3810448050498962,-0.1652822196483612,-0.0055068703,-0.0028758224,0.36544704
196,1040460577,-0.6330084800720215,-0.3800993859767914,-0.1646137088537216,0.0077720205,-0.0007272169,0.34825706
197,1040477244,-0.6310415863990784,-0.3804856836795807,-0.1659148186445236,-0.0121901855,0.0032561577,0.34817028
198,1040493911,-0.6304106712341309,-0.3806156814098358,-0.1664685904979705,0.017697304,0.0133049125,0.35144043
199,1040510578,-0.629641056060791,-0.3796320259571075,-0.1661315262317657,0.0078071156,-0.008009807,0.33989525
200,1040527245,-0.6303043961524963,-0.379700094461441,-0.1670078039169311,0.004658834,0.005115789,0.3413391
201,1040543912,-0.6298251748085022,-0.3803185820579529,-0.1654633283615112,0.014695414,-0.0028206566,0.35901833
202,1040560579,-0.6301705241203308,-0.3798298835754394,-0.1647001057863235,0.0024458743,-0.003397638,0.35195065
203,1040577246,-0.6291103959083557,-0.380336046218872,-0.1641184836626052,-0.015588967,0.020285714,0.3288679
204,1040593913,-0.6292614936828613,-0.3783636391162872,-0.163355603814125,-0.007338838,0.016212476,0.34274197
205,1040610580,-0.6291664838790894,-0.3787033855915069,-0.1635933965444564,0.0156581,-0.015669774,0.3449707
206,1040627247,-0.6282073259353638,-0.3775917589664459,-0.161760538816452,0.0117022935,0.0022430853,0.34788322
207,1040643914,-0.6290072798728943,-0.3784781694412231,-0.1620825231075287,-0.013902305,0.0015738525,0.3565836
208,1040660581,-0.6282203197479248,-0.3783701658248901,-0.1627325415611267,0.00053313427,-0.00039281356,0.33121014
209,1040677248,-0.6273764967918396,-0.3788131475448608,-0.163829818367958,0.023888618,-0.009650675,0.32976913
210,1040693915,-0.6271699666976929,-0.3779685497283935,-0.1632739603519439,0.020401383,0.00087182276,0.3532648
211,1040710582,-0.6265027523040771,-0.3782743215560913,-0.1609964966773986,0.0034032885,-0.0045532384,0.345891
212,1040727249,-0.6275790929794312,-0.3797149360179901,-0.1596511900424957,-0.0036305874,0.0056409747,0.3641262
213,1040743916,-0.6276960968971252,-0.380304604768753,-0.1594955027103424,0.004276309,0.0064744926,0.3275509
214,1040760583,-0.6269049048423767,-0.3817588686943054,-0.1587880998849868,-0.00011866093,-0.007621935,0.32634068
215,1040777250,-0.6260488033294678,-0.382142961025238,-0.157570794224739,-0.0029483838,-0.0020859975,0.3406391
216,1040793917,-0.6256679892539978,-0.3817920982837677,-0.1580294370651245,0.006700234,0.008092311,0.35077763
217,1040810584,-0.6262990236282349,-0.3820150196552276,-0.157987579703331,0.016556177,0.01086003,0.34410858
218,1040827251,-0.6267383694648743,-0.3815915882587433,-0.1586461514234542,-0.0069814986,0.00045027383,0.32072163
219,1040843918,-0.6267048716545105,-0.3826302289962768,-0.1593023687601089,-0.0055878293,-0.0014627491,0.33460522
220,1040860585,-0.6269669532775879,-0.3814310431480407,-0.1619322150945663,-0.010368427,-0.003822784,0.33325577
221,1040877252,-0.6257794499397278,-0.38105508685112,-0.1625461727380752,0.004818789,0.0017787406,0.3409338
222,1040893919,-0.6243795156478882,-0.3809078931808471,-0.1622416675090789,-0.010294408,-0.022725236,0.33668995
223,1040910586,-0.624511182308197,-0.3815309703350067,-0.1630768626928329,-0.0053733196,-0.005037413,0.3303976
224,1040927253,-0.6243863701820374,-0.3816632926464081,-0.1597491353750229,-0.009857678,0.00197385,0.35707664
225,1040943920,-0.6247591972351074,-0.3819026947021484,-0.1610692888498306,5.244871e-05,-0.01704722,0.34550858
226,1040960587,-0.6235994100570679,-0.3827379643917084,-0.1609834432601928,0.013639173,0.0033162409,0.33965015
227,1040977254,-0.6233123540878296,-0.3823646306991577,-0.1631595939397812,0.012228174,0.0015070606,0.35231113
228,1040993921,-0.6234421133995056,-0.3824733793735504,-0.1637871712446212,0.0038251588,0.00062583626,0.3562832
229,1041010588,-0.6238393187522888,-0.3833139836788177,-0.1653493195772171,-0.0036565321,-0.0049239625,0.35584068
230,1041027255,-0.6231995820999146,-0.3834378123283386,-0.1660013496875763,0.0018500342,-0.008482516,0.3295021
231,1041043922,-0.6226300001144409,-0.3826882541179657,-0.1656848788261413,0.00027335982,0.0035989427,0.34739208
232,1041060589,-0.6230679154396057,-0.3826580047607422,-0.1625681668519973,0.006166597,-0.0032149125,0.36709976
233,1041077256,-0.6230908036231995,-0.3833826780319214,-0.162092313170433,0.0028163786,0.0006476847,0.3501463
234,1041093923,-0.6229969263076782,-0.3823592364788055,-0.1613623946905136,-0.0076566893,-0.0034671016,0.32411957
235,1041110590,-0.6219255924224854,-0.3831194639205932,-0.1626588851213455,-0.0013554909,-0.011107958,0.32718086
236,1041127257,-0.621410608291626,-0.3828752636909485,-0.1650816947221756,0.013917841,-0.0014948722,0.31771183
237,1041143924,-0.621444582939148,-0.3842786848545074,-0.1668669730424881,0.01119677,-0.007893339,0.34321785
238,1041160591,-0.6215398907661438,-0.38509401679039,-0.1671046018600464,-0.006397868,-0.005678294,0.34848976
239,1041177258,-0.6217734217643738,-0.3854093849658966,-0.1667873710393905,0.0007228933,-0.01715434,0.34697247
240,1041193925,-0.630872905254364,-0.3825209736824035,-0.1604420244693756,0.0064013484,-0.007068681,0.33174992
241,1041210592,-0.6310624480247498,-0.3811596035957336,-0.1590294539928436,0.0070529026,-0.005662495,0.3411436
242,1041227259,-0.6306530833244324,-0.3812501728534698,-0.1591049134731292,0.011521241,-0.005543118,0.3283081
243,1041243926,-0.6299417614936829,-0.3811136484146118,-0.1589444875717163,-0.01030141,0.013090983,0.33580685
244,1041260593,-0.6290843486785889,-0.3818778693675995,-0.1584809869527816,0.009463514,-0.0114620095,0.347147
245,1041277260,-0.6283316016197205,-0.3799246549606323,-0.1592125594615936,0.00054889196,-0.004654172,0.3428688
246,1041293927,-0.6282450556755066,-0.3798219561576843,-0.1604520082473755,-0.0022037504,-0.0042703897,0.34006023
247,1041310594,-0.6281871795654297,-0.379486083984375,-0.1593536883592605,0.014622504,0.005618389,0.33408546
248,1041327261,-0.6285697221755981,-0.3794668316841125,-0.1591320484876632,0.0065479134,-0.0025769682,0.3546152
249,1041343928,-0.6295004487037659,-0.3791800141334533,-0.1567009538412094,0.008321737,-0.0002499329,0.36147308
250,1041360595,-0.6300188899040222,-0.3796655833721161,-0.1562667042016983,-0.0038845295,-0.003080295,0.3447981
251,1041377262,-0.6309527158737183,-0.379514992237091,-0.157153844833374,0.005827636,-0.0027249162,0.3396883
252,1041393929,-0.6295867562294006,-0.3785233199596405,-0.1562478095293045,0.00935349,0.006651215,0.35304642
253,1041410596,-0.6299504637718201,-0.3775411248207092,-0.1553159952163696,0.009582576,0.0072315205,0.34465218
254,1041427263,-0.6296242475509644,-0.3783417046070099,-0.1545175164937973,-0.0014377855,-0.0025757493,0.35804844
255,1041443930,-0.6294121146202087,-0.3782587349414825,-0.1537398844957351,-0.008789415,-0.002558221,0.34450912
256,1041460597,-0.6295176148414612,-0.3782195746898651,-0.1546344310045242,0.001189281,-0.0018860548,0.32958412
257,1041477264,-0.6301107406616211,-0.3784201443195343,-0.1554944217205047,-0.008905291,0.005523924,0.3432064
258,1041493931,-0.6300192475318909,-0.378111720085144,-0.1554019004106521,-0.0024166151,-0.007576251,0.33986664
259,1041510598,-0.6291704773902893,-0.3773462176322937,-0.1573351323604583,0.0045209234,-0.013331577,0.34204292
260,1041527265,-0.6294671297073364,-0.3764732480049133,-0.1570788770914077,0.010716695,0.0013794381,0.3538313
261,1041543932,-0.6296437978744507,-0.3765628635883331,-0.1558322161436081,-0.00050244667,-0.011063884,0.3363266
262,1041560599,-0.6303334832191467,-0.3775826394557953,-0.1573432236909866,0.007844375,-0.008219312,0.3422203
263,1041577266,-0.6295143961906433,-0.3777835369110107,-0.1571352332830429,0.0050149565,0.006428872,0.34103775
264,1041593933,-0.6297216415405273,-0.3780884444713592,-0.1565342843532562,0.016435647,-0.008598858,0.35624504
265,1041610600,-0.629063606262207,-0.3777823150157928,-0.1562337726354599,0.0017492962,-0.0011884987,0.34813404
266,1041627267,-0.6273630857467651,-0.3777940571308136,-0.1565230786800384,-0.011035201,0.0063377586,0.33446312
267,1041643934,-0.6278154253959656,-0.3778740465641022,-0.1576251536607742,0.0045995857,-0.0048388354,0.35354328
268,1041660601,-0.6277109980583191,-0.3779255747795105,-0.1562826484441757,0.012121185,-0.007349609,0.34260273
269,1041677268,-0.6281492114067078,-0.3785490393638611,-0.1563829630613327,0.0050732866,-0.0015310742,0.3407936
270,1041693935,-0.6279090046882629,-0.3788112699985504,-0.1547806411981582,0.0014822157,0.0026519813,0.3561468
271,1041710602,-0.6283695697784424,-0.3788586854934692,-0.1541278809309005,-0.009672284,-0.0019816484,0.34722328
272,1041727269,-0.6281136274337769,-0.3779456615447998,-0.1538758277893066,-0.006441701,0.0064107566,0.3362379
273,1041743936,-0.6276727914810181,-0.3782013952732086,-0.1538886427879333,-0.0012224552,-0.012631988,0.3490343
274,1041760603,-0.6273871660232544,-0.3783060908317566,-0.1532348990440368,0.011424453,0.0034677302,0.35233498
275,1041777270,-0.626621425151825,-0.3781755268573761,-0.1541633009910583,0.0015819025,-0.004391534,0.3566332
276,1041793937,-0.6271998286247253,-0.3793768584728241,-0.1542609333992004,0.0108403815,-0.011590418,0.35082817
277,1041810604,-0.626388430595398,-0.3800579011440277,-0.1532166898250579,0.005883088,-0.014245647,0.32469368
278,1041827271,-0.6271503567695618,-0.3818016052246094,-0.1525053530931472,0.0016494523,-0.0022226232,0.331748
279,1041843938,-0.6278329491615295,-0.3813981711864471,-0.1524694114923477,0.0073459526,-0.009853799,0.32485104
280,1041860605,-0.6277143955230713,-0.3816982209682464,-0.1529548317193985,0.02092811,-0.0032187577,0.34207153
281,1041877272,-0.6277849674224854,-0.3821790814399719,-0.1514654606580734,0.0072327675,-0.013870292,0.3300457
282,1041893939,-0.6285979151725769,-0.3822197020053863,-0.1509059816598892,-0.001463713,-0.0023496242,0.35391045
283,1041910606,-0.62803715467453,-0.3814471065998077,-0.152987390756607,0.005102609,-0.008277998,0.34673023
284,1041927273,-0.6278375387191772,-0.381470113992691,-0.1534267514944076,0.0029686047,-0.007962265,0.33710384
285,1041943940,-0.6276339292526245,-0.3811047971248626,-0.1537014096975326,0.014613557,-0.0036793272,0.32417583
286,1041960607,-0.6285825967788696,-0.3806610107421875,-0.1548382341861724,0.010507518,-0.011136373,0.35939026
287,1041977274,-0.6280800700187683,-0.3803075850009918,-0.1548843532800674,-0.0041801115,-0.0001918719,0.3482008
288,1041993941,-0.6281951069831848,-0.38053959608078,-0.1553382128477096,0.004494933,-0.015195316,0.3167286
289,1042010608,-0.6278210282325745,-0.3793096542358398,-0.1554155647754669,0.010651335,-0.015692713,0.33858967
290,1042027275,-0.6266923546791077,-0.3788284361362457,-0.1563343554735183,0.010942523,-0.004423789,0.34237003
291,1042043942,-0.626765787601471,-0.3786053955554962,-0.1557555645704269,0.00770307,-0.0024802778,0.35540485
292,1042060609,-0.6281672120094299,-0.3789583444595337,-0.1553833931684494,0.008071573,0.0027408765,0.34672737
293,1042077276,-0.6278955340385437,-0.3785227239131927,-0.1538969576358795,-0.004862327,-0.006220533,0.34470844
294,1042093943,-0.6280163526535034,-0.3784651756286621,-0.1531327366828918,-0.0007560675,0.0027013496,0.32260418
295,1042110610,-0.6282526850700378,-0.3787058889865875,-0.1527763307094574,0.0017265538,-0.0012151771,0.3219118
296,1042127277,-0.6285465955734253,-0.3791230916976928,-0.1528503596782684,0.0039269584,-0.010599561,0.35160542
297,1042143944,-0.6281747817993164,-0.3798991441726684,-0.1522784233093261,0.016247757,0.0060590347,0.3427105
298,1042160611,-0.6288049221038818,-0.3793746531009674,-0.1517466455698013,0.0041807364,0.0050919955,0.34591103
299,1042177278,-0.6285458207130432,-0.3797200620174408,-0.15389484167099,-0.002321629,-0.0026709065,0.31698418
300,1042193945,-0.6282684206962585,-0.3793657720088959,-0.1550694406032562,-0.010209546,0.0067076343,0.32971478
301,1042210612,-0.6281248331069946,-0.3789753913879394,-0.1555623263120651,0.009682061,0.010361788,0.34825325
302,1042227279,-0.627520740032196,-0.378679871559143,-0.1558355093002319,0.021539958,-0.0039747204,0.35407066
303,1042243946,-0.6283699870109558,-0.3777854144573211,-0.1554243415594101,0.013011499,-0.009553052,0.34708786
304,1042260613,-0.6296694874763489,-0.3778326511383056,-0.1553579121828079,0.0030641356,-0.010330332,0.33689117
305,1042277280,-0.6303156614303589,-0.3785690367221832,-0.1557850986719131,-0.0024519232,-0.0035408153,0.3202057
306,1042293947,-0.6308061480522156,-0.3796783089637756,-0.1572088003158569,0.0051771645,-0.0023944245,0.34574223
307,1042310614,-0.6313494443893433,-0.3809593319892883,-0.157042995095253,0.0067650806,-0.0030793275,0.3546524
308,1042327281,-0.6303451061248779,-0.3815910816192627,-0.1573659777641296,-0.012655923,0.008709092,0.35137653
309,1042343948,-0.6300640106201172,-0.3819030821323395,-0.1558146178722381,0.000755617,-0.004983263,0.36272907
310,1042360615,-0.630577027797699,-0.3826474547386169,-0.1558430641889572,0.0051263324,0.00011745606,0.35054398
311,1042377282,-0.6286964416503906,-0.3829420506954193,-0.1565182656049728,0.008341178,0.0027473338,0.34093857
312,1042393949,-0.6286446452140808,-0.3833005130290985,-0.1555020362138748,0.007877652,-0.0047164937,0.3705616
313,1042410616,-0.6294553279876709,-0.3841998279094696,-0.1542145311832428,-0.00013638132,-0.0041575716,0.3547802
314,1042427283,-0.6302820444107056,-0.3824315667152405,-0.1533103138208389,0.009224453,-0.013943133,0.3391075
315,1042443950,-0.6278088688850403,-0.3821636140346527,-0.1520378738641739,0.006362848,-0.006200274,0.36892128
316,1042460617,-0.627967894077301,-0.3816939890384674,-0.152333527803421,0.0034546128,-0.0011970341,0.3250656
317,1042477284,-0.627852737903595,-0.3812771737575531,-0.1533527225255966,0.0071683573,0.002268789,0.32313156
318,1042493951,-0.6277561187744141,-0.3821057081222534,-0.1524628102779388,0.004714531,-0.023516824,0.34106445
319,1042510618,-0.6288078427314758,-0.3822515308856964,-0.1516725718975067,0.012821084,-0.014217907,0.3374586
320,1042527285,-0.6291067004203796,-0.3820216059684753,-0.1517631113529205,-0.009696254,0.010076327,0.33372593
321,1042543952,-0.6287198662757874,-0.3827499449253082,-0.1518908888101577,-0.0030659551,0.0026090771,0.33157063
322,1042560619,-0.6281241774559021,-0.3821778893470764,-0.1524807810783386,0.008144264,-0.004868549,0.340024
323,1042577286,-0.6275895237922668,-0.381913810968399,-0.1515988260507583,0.007332762,-0.005018917,0.35888004
324,1042593953,-0.6270878314971924,-0.3821543753147125,-0.1511500179767608,0.011408126,-0.0014461637,0.3450241
325,1042610620,-0.6281523108482361,-0.3822122812271118,-0.1514170169830322,0.0074139247,0.0012243795,0.35141182
326,1042627287,-0.6273857355117798,-0.3817440867424011,-0.1514486819505691,0.014073814,0.0033184094,0.3725481
327,1042643954,-0.6278843879699707,-0.3823826611042022,-0.1520693153142929,0.007474581,0.0075772675,0.3385563
328,1042660621,-0.6280753016471863,-0.3825634121894836,-0.1521477997303009,-0.0020499316,-0.004034227,0.34978676
329,1042677288,-0.6275725364685059,-0.3823968470096588,-0.1529829651117324,0.017098527,0.00018949009,0.36741257
330,1042693955,-0.628322958946228,-0.3813563883304596,-0.1507614403963089,0.0028624118,0.00066420715,0.3445406
331,1042710622,-0.6281665563583374,-0.3821958601474762,-0.1509925872087478,-0.008404817,0.012723195,0.34130096
332,1042727289,-0.6288691759109497,-0.3821578919887543,-0.1528466045856475,-0.004141482,-0.0136426445,0.32462978
333,1042743956,-0.6299723386764526,-0.381692886352539,-0.1523230671882629,-0.001602532,-0.0150988065,0.3480835
334,1042760623,-0.6294740438461304,-0.3811506628990173,-0.1518827080726623,0.002572145,0.008274701,0.33046722
335,1042777290,-0.6289761662483215,-0.3814891576766968,-0.1510166674852371,0.007986663,-0.004290824,0.35011196
336,1042793957,-0.628255307674408,-0.3802295625209808,-0.151688352227211,0.005470965,0.006594673,0.32518768
337,1042810624,-0.6279062628746033,-0.3794253766536712,-0.1524205654859542,-0.0015738315,0.006607675,0.34148312
338,1042827291,-0.6275430917739868,-0.380079448223114,-0.1514768749475479,0.0050260066,0.0016372603,0.3602667
339,1042843958,-0.6281629800796509,-0.3787345588207245,-0.1501352488994598,0.00044148698,-0.013022668,0.34117985
340,1042860625,-0.6280630826950073,-0.3799598217010498,-0.1507560759782791,-0.0003697428,0.0045278,0.350605
341,1042877292,-0.6300626397132874,-0.3797593414783478,-0.1521879732608795,-0.001147994,-0.010000008,0.33340836
342,1042893959,-0.6290745139122009,-0.3797556161880493,-0.1519367098808288,0.00084094657,-0.00986209,0.3522854
343,1042910626,-0.6292304992675781,-0.3799075186252594,-0.1523065268993377,0.0038451457,-0.0024722174,0.31858635
344,1042927293,-0.6285608410835266,-0.3804425299167633,-0.1518033593893051,0.0023835038,-0.0046757897,0.32642078
345,1042943960,-0.6295319199562073,-0.3825073838233948,-0.1517603248357772,0.0046029454,0.0054894993,0.36491203
346,1042960627,-0.629519522190094,-0.3829492926597595,-0.1523877084255218,-0.009259971,-0.0016998369,0.33303356
347,1042977294,-0.630675733089447,-0.3839721977710724,-0.152288481593132,0.006499914,-0.009011693,0.32659245
348,1042993961,-0.6308440566062927,-0.3832117021083832,-0.1521813720464706,0.009493213,0.017457986,0.33249664
349,1043010628,-0.631534993648529,-0.38222536444664,-0.1518276035785675,0.0055630626,-0.017770244,0.35089684
350,1043027295,-0.6313236355781555,-0.3822959065437317,-0.1509608179330825,0.015823562,-0.00039032346,0.34277344
351,1043043962,-0.6317251324653625,-0.3823263645172119,-0.1504300683736801,-0.013777775,-0.0050572567,0.3412037
352,1043060629,-0.6322022676467896,-0.3818235099315643,-0.15205679833889,0.0011997023,-0.006914733,0.34024906
353,1043077296,-0.6326310634613037,-0.382601261138916,-0.1533790975809097,-0.0024712675,-0.0045677875,0.33596802
354,1043093963,-0.6323496699333191,-0.3829717934131622,-0.1547234952449798,0.009249092,-0.0026311036,0.34870243
355,1043110630,-0.6320834159851074,-0.3821249604225158,-0.1548516154289245,0.0071233404,0.0031302292,0.33871746
356,1043127297,-0.631632387638092,-0.3815822899341583,-0.1527655571699142,0.012493218,0.014081589,0.3197441
357,1043143964,-0.6313547492027283,-0.3810718357563019,-0.1527518033981323,0.0026130236,-0.0023421538,0.32411385
358,1043160631,-0.6310897469520569,-0.3805718123912811,-0.1540579497814178,0.017334435,-0.00039826866,0.33080578
359,1043177298,-0.6301563382148743,-0.380012035369873,-0.1540105938911438,-0.0030387493,-0.004394324,0.32725334
360,1043193965,-0.6303679943084717,-0.383534163236618,-0.1512951254844665,0.008867873,0.0012804184,0.324399
361,1043210632,-0.6303199529647827,-0.3841458559036255,-0.1507789045572281,0.020439466,0.0006187188,0.36537838
362,1043227299,-0.630890429019928,-0.3848661184310913,-0.1514431536197662,-0.013374109,-0.0024055478,0.34041595
363,1043243966,-0.6312329769134521,-0.3845825493335724,-0.1495983153581619,-0.009675857,0.005011276,0.33175468
364,1043260633,-0.6312687397003174,-0.3848693966865539,-0.1483630686998367,0.020094663,0.0063080527,0.34539986
365,1043277300,-0.6309627890586853,-0.3839475810527801,-0.1491981297731399,0.012654713,-0.0032691006,0.31674862
366,1043293967,-0.6304767727851868,-0.3844018578529358,-0.1499418765306472,0.0084018,0.0063929837,0.34487534
367,1043310634,-0.6309345364570618,-0.3854126632213592,-0.1490473300218582,-0.003241521,-0.0071583726,0.3332796
368,1043327301,-0.6307588815689087,-0.3864770531654358,-0.1481375098228454,0.013035059,0.0067935856,0.34385967
369,1043343968,-0.6313238143920898,-0.3859106004238128,-0.1477042883634567,-0.0041212994,0.0021488746,0.32639027
370,1043360635,-0.6316477656364441,-0.3859968185424804,-0.1478215903043747,0.006706286,-0.012120203,0.34402466
371,1043377302,-0.6296587586402893,-0.3858850002288818,-0.1481990069150924,0.009362899,-0.0034864738,0.34886837
372,1043393969,-0.631793737411499,-0.3854028880596161,-0.1486847847700119,0.004501027,-0.017199304,0.35630226
373,1043410636,-0.6316198110580444,-0.3865428268909454,-0.1495372653007507,0.012476151,-0.013557405,0.3087387
374,1043427303,-0.6324361562728882,-0.3869783282279968,-0.1490272879600525,0.0037695495,0.0042368276,0.33904934
375,1043443970,-0.6328309774398804,-0.38715261220932,-0.1491591334342956,0.0038125373,0.0032413185,0.34626293
376,1043460637,-0.6331722140312195,-0.3873941898345947,-0.1478863060474395,0.015656011,0.014501542,0.34196663
377,1043477304,-0.6319241523742676,-0.3880939781665802,-0.1479980498552322,0.009484643,0.0048402706,0.31480598
378,1043493971,-0.6318778991699219,-0.3869936168193817,-0.1476996093988418,-0.0012547005,0.012040482,0.33036327
379,1043510638,-0.6316778063774109,-0.3857510685920715,-0.1481123566627502,0.008354352,-0.0021724098,0.319458
380,1043527305,-0.6315304040908813,-0.3851540386676788,-0.1474213600158691,0.008598736,0.0035036635,0.3344307
381,1043543972,-0.6312605142593384,-0.3860633075237274,-0.1464300453662872,-0.0018487979,0.012877284,0.35925865
382,1043560639,-0.631746768951416,-0.3852300345897674,-0.1465640217065811,0.016424406,0.01938838,0.34382057
383,1043577306,-0.6326910853385925,-0.3844033479690552,-0.1461678296327591,-0.002079191,0.00958996,0.33169556
384,1043593973,-0.6322808861732483,-0.3840291500091553,-0.1465871036052703,0.011274214,-0.006847246,0.31909752
385,1043610640,-0.6319279074668884,-0.3829880654811859,-0.1477032899856567,0.0021778822,-0.0074093845,0.348732
386,1043627307,-0.6321945190429688,-0.3829632997512817,-0.1460315734148025,0.007546314,0.00813357,0.33944225
387,1043643974,-0.6324908137321472,-0.3822765052318573,-0.145679697394371,0.0018074166,0.0007536019,0.34724808
388,1043660641,-0.6324561834335327,-0.3830378949642181,-0.1474440693855285,-0.0050958176,-0.00150866,0.35784245
389,1043677308,-0.6324865221977234,-0.3810949325561523,-0.1476930379867553,0.007985545,0.008625662,0.3400364
390,1043693975,-0.632096529006958,-0.3824066817760467,-0.147567018866539,-0.0023587917,-0.0026152343,0.34741116
391,1043710642,-0.6333814263343811,-0.3824493885040283,-0.1469138860702514,0.018779702,0.00056577765,0.34072304
392,1043727309,-0.6334740519523621,-0.3820792436599731,-0.1460865586996078,0.022420418,-0.00087621965,0.3373909
393,1043743976,-0.6343860030174255,-0.3827703893184662,-0.144679918885231,0.0045012506,0.009464482,0.35086155
394,1043760643,-0.6343867182731628,-0.3826114535331726,-0.1444953978061676,-0.008286704,0.0062614675,0.33759403
395,1043777310,-0.6351601481437683,-0.3823235929012298,-0.1447814106941223,-0.0040678624,0.011315472,0.34767246
396,1043793977,-0.6347764134407043,-0.3823578059673309,-0.1463628858327865,0.0039731627,0.0026106278,0.337842
397,1043810644,-0.6354038119316101,-0.3827374875545501,-0.1460101306438446,-0.0030707538,0.0018791363,0.34183788
398,1043827311,-0.6354416608810425,-0.3817029297351837,-0.1471889168024063,0.006548165,-0.0003875016,0.3444805
399,1043843978,-0.6351935863494873,-0.3819952607154846,-0.1469631493091583,0.01065071,-0.010329163,0.33751965
400,1043860645,-0.6353788375854492,-0.3816849887371063,-0.1471751481294632,0.011866509,-0.017478075,0.32759857
401,1043877312,-0.6357165575027466,-0.3818472921848297,-0.147012323141098,0.009088344,-0.016684344,0.34459972
402,1043893979,-0.6350975632667542,-0.3828132152557373,-0.1486155688762664,0.030172523,-0.0028971087,0.34582806
403,1043910646,-0.6344897747039795,-0.382000207901001,-0.1480062454938888,0.005471426,-0.0026590603,0.32229614
404,1043927313,-0.6338267922401428,-0.382271260023117,-0.1476714015007019,-0.006704835,-0.0014278252,0.35175037
405,1043943980,-0.63404381275177,-0.3831931948661804,-0.1459225118160247,-0.0036445325,0.015738899,0.33951378
406,1043960647,-0.634315550327301,-0.3834705352783203,-0.1451470404863357,0.0027620962,0.0056243925,0.3233242
407,1043977314,-0.6330431699752808,-0.3820444643497467,-0.144397959113121,0.004541731,0.012272977,0.3442812
408,1043993981,-0.6315070986747742,-0.382676213979721,-0.1445337086915969,-0.0010285683,0.012269883,0.33689022
409,1044010648,-0.631140947341919,-0.3837471902370453,-0.1450760662555694,-0.017108046,0.0031141187,0.33603764
410,1044027315,-0.6304965615272522,-0.3836266100406647,-0.1457383781671524,-0.009353062,0.0057629845,0.31864548
411,1044043982,-0.6297745704650879,-0.3831889033317566,-0.145784243941307,-0.0073939343,-0.011518161,0.34052944
412,1044060649,-0.6297736167907715,-0.3830927610397339,-0.1451156139373779,0.010953332,0.0048917066,0.33417606
413,1044077316,-0.6297004818916321,-0.3836810886859894,-0.1445100456476211,0.0069791256,0.0005400038,0.32713223
414,1044093983,-0.6287442445755005,-0.3833345174789428,-0.1435746103525161,0.006073479,0.005487938,0.34030056
415,1044110650,-0.6293870210647583,-0.3835797905921936,-0.1449314057826995,-0.013392905,-0.001718888,0.34362507
416,1044127317,-0.630486011505127,-0.3833841979503631,-0.1462206840515136,-0.001362748,0.007696393,0.33757877
417,1044143984,-0.6305181384086609,-0.3838422894477844,-0.1464782059192657,-0.0042531164,-0.0056644576,0.32121086
418,1044160651,-0.6306199431419373,-0.3841007351875305,-0.147285908460617,0.010848086,-0.0027749238,0.35158443
419,1044177318,-0.6300027370452881,-0.3834892213344574,-0.1495328843593597,0.009508776,0.007171214,0.3392353
420,1044193985,-0.630103588104248,-0.3848284184932709,-0.1496193706989288,0.0066012177,-0.006387026,0.35177708
421,1044210652,-0.6296003460884094,-0.3853851854801178,-0.1486738473176956,-0.015849924,-0.0052527185,0.35608768
422,1044227319,-0.6299784779548645,-0.3864527344703674,-0.147443950176239,-0.004402573,0.0014804555,0.32069778
423,1044243986,-0.6289246678352356,-0.3868263661861419,-0.1484533101320266,0.0055174,0.001347626,0.3452711
424,1044260653,-0.6285210847854614,-0.3877688944339752,-0.148976594209671,5.922395e-05,-0.018028727,0.33659458
425,1044277320,-0.628682553768158,-0.3879832327365875,-0.150265097618103,0.014752652,-0.0054336595,0.35344505
426,1044293987,-0.6294415593147278,-0.3870868980884552,-0.1509357243776321,0.0036716263,-0.00037316186,0.34420013
427,1044310654,-0.6281615495681763,-0.3880899548530578,-0.1516807526350021,0.0092805615,-0.016405195,0.3516903
428,1044327321,-0.6282833814620972,-0.3881142437458038,-0.15129454433918,0.003995039,-0.014660096,0.33190632
429,1044343988,-0.6283144354820251,-0.3878649771213531,-0.1513534933328628,0.0033063085,-0.00019997425,0.3409109
430,1044360655,-0.6282511949539185,-0.389125645160675,-0.1522689461708068,0.00019400226,0.016602011,0.32136536
431,1044377322,-0.6271852850914001,-0.3876818716526031,-0.1520692855119705,-0.010266158,-0.007321792,0.3454609
432,1044393989,-0.6280168294906616,-0.3873807787895202,-0.1523128002882003,0.0015058592,0.009999027,0.348032
433,1044410656,-0.6278426051139832,-0.3873995244503021,-0.15402851998806,0.0015896905,0.006982185,0.33704472
434,1044427323,-0.6280598044395447,-0.3880538642406463,-0.1565362811088562,0.019649733,0.002803373,0.3566656
435,1044443990,-0.6277535557746887,-0.3876346051692962,-0.1572053581476211,0.025671309,-0.006722194,0.3553238
436,1044460657,-0.6272872090339661,-0.3884953558444977,-0.1564754992723465,-0.009442639,-0.010580555,0.33598232
437,1044477324,-0.6276082992553711,-0.3903777003288269,-0.1557736098766327,-0.011009586,0.014298738,0.3615532
438,1044493991,-0.6273523569107056,-0.3898695111274719,-0.1559295356273651,0.006137697,-0.0007757017,0.3349676
439,1044510658,-0.6267628073692322,-0.3895659148693084,-0.156203880906105,-0.0013021306,0.015067683,0.35678673
440,1044527325,-0.6258936524391174,-0.3886794149875641,-0.1572965383529663,-0.0069790334,-0.006188756,0.3680172
441,1044543992,-0.6247469186782837,-0.3887296020984649,-0.1567619740962982,-0.005273582,-0.0022194418,0.34226704
442,1044560659,-0.6239340901374817,-0.389065682888031,-0.1577295809984207,0.022488823,-0.016214356,0.31325626
443,1044577326,-0.6235197186470032,-0.3901308476924896,-0.1574230790138244,0.003076104,-0.024275312,0.34282017
444,1044593993,-0.6236181259155273,-0.3881785869598388,-0.1565605252981186,-0.00022143149,0.0032605056,0.32578087
445,1044610660,-0.6237114667892456,-0.3884112238883972,-0.1563483476638794,0.008607309,-0.0062454897,0.3192482
446,1044627327,-0.6237041354179382,-0.3885387480258941,-0.1564980894327163,0.0058107395,0.0019586335,0.32650757
447,1044643994,-0.6235776543617249,-0.3875438570976257,-0.1562484055757522,-0.0062661595,-0.009016991,0.325531
448,1044660661,-0.6238918304443359,-0.3873403668403625,-0.1584814190864563,0.011363416,-0.015133993,0.34615803
449,1044677328,-0.6240909099578857,-0.3878015577793121,-0.1582557260990142,-0.0075511113,0.0024142088,0.34322357
450,1044693995,-0.624240517616272,-0.3880800008773803,-0.158215656876564,-0.010424645,-0.008651838,0.37759113
451,1044710662,-0.6238183379173279,-0.3891897201538086,-0.1573623716831207,0.0024977573,-0.0005772606,0.34493637
452,1044727329,-0.624536395072937,-0.3890583515167236,-0.1563705652952194,-0.012284269,0.0011959026,0.36369133
453,1044743996,-0.6242837309837341,-0.3884643316268921,-0.1553189903497696,-0.0050329985,-0.0006240342,0.33027744
454,1044760663,-0.6247687339782715,-0.3889824151992798,-0.1556039750576019,-0.004934146,-0.011608247,0.33105564
455,1044777330,-0.6259130239486694,-0.3891895711421966,-0.1553422659635543,-0.0015429902,-0.00016918534,0.33992004
456,1044793997,-0.6251142621040344,-0.3900645971298218,-0.1547618955373764,0.008248166,-0.007787771,0.34736633
457,1044810664,-0.625443160533905,-0.3897215127944946,-0.1546904295682907,-0.005202851,-0.0032084412,0.35116005
458,1044827331,-0.6267357468605042,-0.3901472687721252,-0.154363602399826,0.0070864083,-0.007604812,0.35244656
459,1044843998,-0.6268946528434753,-0.390884131193161,-0.1539252698421478,0.0066199685,-0.0031142444,0.3354807
460,1044860665,-0.627109706401825,-0.3905758559703827,-0.1534070968627929,-0.003997868,-0.00603281,0.34034157
461,1044877332,-0.6271407008171082,-0.3909802436828613,-0.1531688719987869,0.0119689545,0.0035017252,0.33495998
462,1044893999,-0.6278212070465088,-0.3924733102321625,-0.1529654264450073,-0.0021654773,5.604238e-05,0.34841728
463,1044910666,-0.6278710961341858,-0.3918003141880035,-0.1526466459035873,-0.009612949,0.002914532,0.35389996
464,1044927333,-0.6269965171813965,-0.3920577764511108,-0.1516198962926864,0.0012916256,-0.0017982072,0.3412342
465,1044944000,-0.6262639164924622,-0.3924160003662109,-0.1525592803955078,-0.010044431,0.0018842771,0.34167767
466,1044960667,-0.6249614357948303,-0.3922114372253418,-0.153772085905075,0.013529208,-0.011549333,0.34827614
467,1044977334,-0.6245066523551941,-0.3916528522968292,-0.1540037989616394,0.0063671614,-0.00468692,0.3659563
468,1044994001,-0.6239625215530396,-0.3920995891094208,-0.1546899527311325,-0.007823547,-0.0063804425,0.3295679
469,1045010668,-0.6237788200378418,-0.3922151029109955,-0.1551783680915832,-0.0041197664,9.653315e-05,0.3353939
470,1045027335,-0.6235588788986206,-0.3921983540058136,-0.1548846960067749,0.0007481048,0.022185404,0.33478165
471,1045044002,-0.6239659190177917,-0.3925929963588714,-0.1563659757375717,0.006515071,-0.0042694327,0.332304
472,1045060669,-0.6249122023582458,-0.3929762840270996,-0.1561136096715927,-0.002186383,-0.0041225916,0.3300314
473,1045077336,-0.623645544052124,-0.3929925858974457,-0.1566575914621353,0.012967499,-0.018442057,0.3445282
474,1045094003,-0.6246637105941772,-0.3933031857013702,-0.157222032546997,0.0009337254,-0.0075807874,0.3399973
475,1045110670,-0.6250682473182678,-0.3939591646194458,-0.1566247642040252,-0.0026733966,0.0035323743,0.33411503
476,1045127337,-0.6241977214813232,-0.3944090902805328,-0.1558885425329208,-0.007930777,-0.0037530758,0.34453678
477,1045144004,-0.6232610940933228,-0.3938657343387604,-0.1543322652578354,0.010220647,-0.005217774,0.31917953
478,1045160671,-0.6230989694595337,-0.3948173820972442,-0.1545757800340652,0.0059543955,-0.0042958665,0.34178734
479,1045177338,-0.6223964095115662,-0.3947266340255737,-0.1549406796693802,0.0010501791,0.0077057523,0.34604454
480,1045194005,-0.6267973780632019,-0.3879649639129638,-0.1520007699728012,0.011485549,-0.009125594,0.36985874
481,1045210672,-0.6271789073944092,-0.387779027223587,-0.1522130221128463,-0.00043798063,-0.002670229,0.34325218
482,1045227339,-0.6260544657707214,-0.3885434865951538,-0.1525236368179321,-0.003760155,0.00071367685,0.34154034
483,1045244006,-0.6263745427131653,-0.3878955841064453,-0.1524946540594101,0.002210833,-0.011379296,0.363451
484,1045260673,-0.6267678141593933,-0.3864074051380157,-0.1525604277849197,-0.0012442059,-0.014630878,0.3475151
485,1045277340,-0.6261169910430908,-0.3868383467197418,-0.1520655006170272,0.003115596,0.00065939466,0.35180187
486,1045294007,-0.6270265579223633,-0.3870265781879425,-0.1537799686193466,-0.008267498,0.009345566,0.33063316
487,1045310674,-0.6279354095458984,-0.3869870007038116,-0.156567245721817,-0.0053309253,-0.0070123556,0.32291508
488,1045327341,-0.6282818913459778,-0.3856878876686096,-0.1570836752653122,0.009280447,-0.0021350132,0.34090996
489,1045344008,-0.6279756426811218,-0.3854101598262787,-0.1557075381278991,0.010134814,-0.013570177,0.33542538
490,1045360675,-0.6273797750473022,-0.3856185972690582,-0.1561697423458099,-0.0015507538,-0.009624203,0.33453655
491,1045377342,-0.6273667812347412,-0.3861262500286102,-0.1570290476083755,0.0211706,-0.010596655,0.36993885
492,1045394009,-0.6268244385719299,-0.3854292929172516,-0.1574144810438156,0.006162416,0.012224521,0.33267403
493,1045410676,-0.6270102262496948,-0.3856907784938812,-0.1565549671649933,0.007813423,-0.0065600495,0.33720207
494,1045427343,-0.6272040605545044,-0.3863336443901062,-0.1564788222312927,0.0059959027,-0.0064668166,0.36870575
495,1045444010,-0.6280725598335266,-0.3877277076244354,-0.155546486377716,-0.015960427,-0.0010794768,0.349905
496,1045460677,-0.628100574016571,-0.3874006271362304,-0.1553299278020858,-0.008903363,0.0041524726,0.35494137
497,1045477344,-0.6278083920478821,-0.3883437216281891,-0.153332307934761,0.00899135,-0.011301147,0.33849144
498,1045494011,-0.627547562122345,-0.3876566886901855,-0.1541204303503036,0.008863923,0.004814029,0.31899166
499,1045510678,-0.6266787052154541,-0.3865857422351837,-0.1545465141534805,-0.0016790712,-0.006232498,0.3235979
500,1045527345,-0.626710832118988,-0.3861175775527954,-0.1557880192995071,0.015356231,-0.00622845,0.3557186
501,1045544012,-0.6259812116622925,-0.3853614628314972,-0.1543917804956436,0.013176693,-0.011813079,0.32932758
502,1045560679,-0.6249960660934448,-0.3848984539508819,-0.1533691585063934,0.011967327,-0.003173451,0.35446072
503,1045577346,-0.6242262721061707,-0.3828470110893249,-0.1542957425117492,0.024269117,-0.0087599335,0.3155613
504,1045594013,-0.6240703463554382,-0.3827172517776489,-0.1528054922819137,0.01050125,-0.0031586257,0.3403597
505,1045610680,-0.6237802505493164,-0.3832529485225677,-0.1526141911745071,0.0059392,0.009408334,0.34758377
506,1045627347,-0.6244643926620483,-0.3825447857379913,-0.1519752442836761,-0.0019388527,-0.014472119,0.34732056
507,1045644014,-0.6248831152915955,-0.3828852772712707,-0.1511721163988113,0.00023376312,-0.008465508,0.3500185
508,1045660681,-0.6252415776252747,-0.3818897604942322,-0.1503157168626785,0.00050819863,-0.009983352,0.3464203
509,1045677348,-0.6258113980293274,-0.3818074762821197,-0.1513997912406921,0.01709204,-0.009924548,0.34714794
510,1045694015,-0.6262426376342773,-0.3798020780086517,-0.1502280980348587,0.019745138,-0.0030164924,0.30862808
511,1045710682,-0.6279057860374451,-0.3794842064380646,-0.1493665426969528,0.016963495,-0.011329872,0.3554201
512,1045727349,-0.6286284327507019,-0.3811231851577759,-0.1489457190036773,0.011218758,-0.0049240673,0.33753967
513,1045744016,-0.6294875144958496,-0.3806065022945404,-0.1497434675693512,0.009717735,-0.0042788414,0.33375645
514,1045760683,-0.6293145418167114,-0.3812442719936371,-0.1502028405666351,0.012553867,-0.003791129,0.31912804
515,1045777350,-0.6293208003044128,-0.3824644386768341,-0.1487916111946106,0.0018743937,0.0029787503,0.34530735
516,1045794017,-0.6296524405479431,-0.38349249958992,-0.1482375264167785,0.01126112,0.00094007107,0.3497467
517,1045810684,-0.6296283006668091,-0.3854341506958008,-0.1476596146821975,-0.006536888,0.005611031,0.33423805
518,1045827351,-0.6299730539321899,-0.384554773569107,-0.1469294428825378,-0.001752572,-0.00081239274,0.33288574
519,1045844018,-0.6290339231491089,-0.3839218914508819,-0.1472094804048538,0.010687544,-0.0048287422,0.34362698
520,1045860685,-0.6286249756813049,-0.3845646679401397,-0.146587073802948,0.0012730111,-0.0046020164,0.32767582
521,1045877352,-0.6277554631233215,-0.3858916461467743,-0.1463576257228851,0.022368154,-0.007915621,0.3336258
522,1045894019,-0.6272472143173218,-0.3859875798225403,-0.1461275964975357,0.0033750108,0.004752902,0.3421955
523,1045910686,-0.6269418001174927,-0.3876957893371582,-0.1467652171850204,0.00717537,-0.0007547194,0.36276054
524,1045927353,-0.6264860033988953,-0.3882134854793548,-0.14677694439888,0.011501487,-0.01136372,0.3415308
525,1045944020,-0.6255220770835876,-0.387992113828659,-0.1465297937393188,0.016431523,-0.0073798075,0.33503532
526,1045960687,-0.6247665286064148,-0.3875797986984253,-0.1455101370811462,0.0077973544,-0.0052760793,0.33915615
527,1045977354,-0.6258837580680847,-0.3869555294513702,-0.1447742581367492,-0.008198748,-0.002301995,0.3382635
528,1045994021,-0.6263822913169861,-0.3870487213134765,-0.1436814814805984,-0.0013186042,-0.005988251,0.3395748
529,1046010688,-0.6266927719116211,-0.3874453604221344,-0.14285808801651,-0.0004773713,-0.00469607,0.3190241
530,1046027355,-0.6268190741539001,-0.3867706060409546,-0.1434592753648758,0.004928014,-0.008582475,0.343503
531,1046044022,-0.6261487007141113,-0.3873156309127807,-0.1442306786775589,-0.0035546138,-0.012931227,0.3362112
532,1046060689,-0.6257942914962769,-0.3864978551864624,-0.143506571650505,0.006759332,0.0034757033,0.3650608
533,1046077356,-0.6247878074645996,-0.3870592713356018,-0.1433305144309997,-0.0030037311,-0.010425611,0.346941
534,1046094023,-0.6237179636955261,-0.3866397440433502,-0.1438058018684387,-0.0065512466,-0.009501246,0.3288231
535,1046110690,-0.6219770312309265,-0.3866771161556244,-0.1433542072772979,-0.007853442,-0.009204609,0.33044243
536,1046127357,-0.6210747957229614,-0.386288434267044,-0.1436553001403808,0.017359972,0.005501576,0.32955647
537,1046144024,-0.6206870079040527,-0.3868915140628814,-0.1454720050096511,-0.0023784887,-0.0070412518,0.35376453
538,1046160691,-0.6201781630516052,-0.3866991698741913,-0.1448317617177963,-0.002826475,-0.0050739325,0.33823013
539,1046177358,-0.6209318041801453,-0.3868496417999267,-0.1441740840673446,-0.0063882307,-0.013909159,0.3241043
540,1046194025,-0.6201058030128479,-0.3868481516838074,-0.1429671198129654,0.0038188307,-0.0043225833,0.3533497
541,1046210692,-0.6191700100898743,-0.3882981836795807,-0.1431210190057754,-0.001866892,-0.01983708,0.33909988
542,1046227359,-0.6188713312149048,-0.3886759877204895,-0.1417526751756668,0.0024253984,-0.008717917,0.3405447
543,1046244026,-0.6185587644577026,-0.3886919617652893,-0.1414848715066909,0.01106643,-0.0032931527,0.34576797
544,1046260693,-0.6177407503128052,-0.3889885544776916,-0.140725165605545,0.011696391,0.009143604,0.3250246
545,1046277360,-0.6174172759056091,-0.3880623877048492,-0.14084392786026,0.00019466582,-0.012987654,0.37254143
546,1046294027,-0.6151834726333618,-0.3881385326385498,-0.1401617377996444,0.015993403,-0.0068455315,0.3438425
547,1046310694,-0.6145561337471008,-0.387935072183609,-0.1416604667901992,0.004904702,-0.0035212685,0.34597397
548,1046327361,-0.6144217252731323,-0.3874370753765106,-0.1423379778861999,-0.00060718344,-0.0057233777,0.31946087
549,1046344028,-0.6154670715332031,-0.3869489133358001,-0.1419987380504608,-0.0042285263,-0.0079855975,0.3256359
550,1046360695,-0.6159665584564209,-0.3877792656421661,-0.1427364349365234,0.0022483482,-0.021371227,0.31869316
551,1046377362,-0.6164516806602478,-0.3867795765399933,-0.1416841745376587,-0.010546357,-0.0039583235,0.34594917
552,1046394029,-0.6164438128471375,-0.3857680857181549,-0.1428577750921249,-0.0033459296,0.001441222,0.3316164
553,1046410696,-0.6164010763168335,-0.3874371647834778,-0.1444873511791229,0.0010192016,-0.0022288328,0.33372307
554,1046427363,-0.6155025959014893,-0.3884491324424743,-0.1446742415428161,-0.0047222804,-0.0154957725,0.32655907
555,1046444030,-0.615882396697998,-0.3894386291503906,-0.144980639219284,0.004136425,-0.0012455818,0.3423214
556,1046460697,-0.6163733601570129,-0.3897581398487091,-0.1439719349145889,-0.007832762,0.007959307,0.32509518
557,1046477364,-0.6156888604164124,-0.3906951248645782,-0.1448424011468887,0.014199139,-0.01426174,0.3309183
558,1046494031,-0.615647554397583,-0.3895266950130462,-0.1449391692876815,0.005190952,-0.0007456078,0.33243275
559,1046510698,-0.6156092882156372,-0.3911721110343933,-0.1454242914915084,0.0016622868,-0.013755486,0.3400383
560,1046527365,-0.6158838868141174,-0.3920374810695648,-0.1444383114576339,1.969708e-05,0.007842615,0.34893322
561,1046544032,-0.6155053377151489,-0.3905734419822693,-0.1443124264478683,0.0036519573,0.0050015356,0.33815765
562,1046560699,-0.6147858500480652,-0.3906441628932953,-0.1450946778059005,0.013720902,-0.0030087987,0.32159233
563,1046577366,-0.6145999431610107,-0.3909473717212677,-0.1462397873401641,0.013917286,-0.003025192,0.35700417
564,1046594033,-0.6154520511627197,-0.3907088935375213,-0.1465470343828201,-0.0009871171,-0.013977268,0.3636799
565,1046610700,-0.6150211095809937,-0.3894850611686706,-0.1459607630968094,0.0077889794,-0.011542862,0.33200455
566,1046627367,-0.61452317237854,-0.3896059989929199,-0.1465115845203399,-0.00932158,-0.011253874,0.34685993
567,1046644034,-0.6137380599975586,-0.3883792161941528,-0.1469877511262893,0.015261776,-0.0071045477,0.3504858
568,1046660701,-0.6154076457023621,-0.3882568180561065,-0.1449691951274871,0.008505258,-0.0031925857,0.37211323
569,1046677368,-0.6153662204742432,-0.3877636790275574,-0.1454155594110489,0.016292753,-0.010493368,0.34592247
570,1046694035,-0.6152051687240601,-0.3878311514854431,-0.1442827135324478,-0.015003558,-0.011234383,0.34959126
571,1046710702,-0.6153141260147095,-0.3884784579277038,-0.145585224032402,-0.009125061,0.011076702,0.32515335
572,1046727369,-0.6158351302146912,-0.388603001832962,-0.1462967246770858,-0.011437587,0.019123612,0.32744026
573,1046744036,-0.616672694683075,-0.3871219158172607,-0.1473779380321502,-0.0036575694,-0.020038687,0.32671452
574,1046760703,-0.6168040037155151,-0.3871792554855346,-0.1476058512926101,0.013619688,-0.0027237951,0.3402319
575,1046777370,-0.6169056296348572,-0.387267142534256,-0.1480754762887954,-0.0045739305,-0.018924478,0.34063244
576,1046794037,-0.6163346171379089,-0.3894276320934295,-0.1484826207160949,0.011711555,-0.017643806,0.34265232
577,1046810704,-0.6167627573013306,-0.3902675807476043,-0.1476244181394577,-0.022771817,-0.0084045725,0.3483181
578,1046827371,-0.616520881652832,-0.3908213973045349,-0.1486957967281341,-0.015768353,0.004141503,0.33734798
579,1046844038,-0.6166659593582153,-0.3918416500091553,-0.1496837139129638,0.00038142834,-0.012012494,0.35103512
580,1046860705,-0.617158055305481,-0.391495406627655,-0.1478342115879058,-0.00011948164,-0.011811951,0.33459568
581,1046877372,-0.6163755059242249,-0.3899840712547302,-0.1482096165418625,0.00086393,-0.012599872,0.33759117
582,1046894039,-0.6157189607620239,-0.3899329900741577,-0.1487761586904525,-0.004970708,-0.006512085,0.3384552
583,1046910706,-0.6164048314094543,-0.3878403306007385,-0.1478026807308197,0.009162124,0.0066452636,0.3517542
584,1046927373,-0.6169499754905701,-0.3878685534000397,-0.1477823555469513,0.0082997205,-0.012384423,0.36985302
585,1046944040,-0.617553174495697,-0.3887285888195038,-0.1478074640035629,0.00981649,-0.012295738,0.3442135
586,1046960707,-0.6182018518447876,-0.38947793841362,-0.1470702588558197,-0.007607941,-0.00043107965,0.3348179
587,1046977374,-0.6190387010574341,-0.3893442451953888,-0.1469012051820755,0.0018481343,-0.0039801267,0.3691349
588,1046994041,-0.617534875869751,-0.3879542350769043,-0.1476528495550155,0.006339072,0.0009518125,0.34884834
589,1047010708,-0.6168493032455444,-0.3873605728149414,-0.1477299928665161,0.0008104405,0.0128662335,0.33586693
590,1047027375,-0.6167308688163757,-0.3861105740070343,-0.1471513211727142,0.0055208784,0.0061080013,0.34876728
591,1047044042,-0.6155251264572144,-0.386403739452362,-0.1454899609088897,-0.0054583293,-0.013280518,0.35890675
592,1047060709,-0.6152421832084656,-0.3866280615329742,-0.1451130211353302,-0.001431136,-0.016741903,0.31597328
593,1047077376,-0.6145527362823486,-0.3861283659934997,-0.1453866809606552,0.002677329,-0.002011861,0.31515884
594,1047094043,-0.61473149061203,-0.3856165707111358,-0.1454963982105255,0.0055156117,0.009387834,0.34337997
595,1047110710,-0.6147384643554688,-0.3855964541435241,-0.1464044600725174,-0.007626681,-0.010430941,0.36206055
596,1047127377,-0.6145570278167725,-0.3853567838668823,-0.1463915705680847,0.017618755,-0.0121446075,0.3417282
597,1047144044,-0.6135683059692383,-0.3873052299022674,-0.1458733677864074,0.017697044,-0.02453757,0.35134792
598,1047160711,-0.6135993003845215,-0.387491911649704,-0.1446950882673263,0.009042723,-0.01848684,0.32412243
599,1047177378,-0.6133552193641663,-0.3883155882358551,-0.143433079123497,-0.0011201317,0.0014368566,0.34511757
600,1047194045,-0.6199120879173279,-0.3903388381004333,-0.1457294672727584,-0.0036012477,-0.00085738173,0.34511948
601,1047210712,-0.6198240518569946,-0.3891297578811645,-0.1468657106161117,0.00019763086,0.0018660678,0.35180283
602,1047227379,-0.6197699308395386,-0.3887697160243988,-0.1470076292753219,0.017815463,0.0015464303,0.347826
603,1047244046,-0.621046245098114,-0.3899120390415191,-0.1471921503543853,0.008565904,-0.014984686,0.34640408
604,1047260713,-0.6209452152252197,-0.3892480731010437,-0.1461409777402877,0.0026042997,-0.021662844,0.3309126
605,1047277380,-0.6216264963150024,-0.3901579082012176,-0.1466858237981796,6.527975e-05,0.0017032351,0.33072853
606,1047294047,-0.621276319026947,-0.390918105840683,-0.1462714970111847,-0.0018501704,0.00890929,0.33428192
607,1047310714,-0.6221218705177307,-0.3910323679447174,-0.1458590179681778,0.0036852013,-0.004017038,0.34123993
608,1047327381,-0.6222821474075317,-0.3902498185634613,-0.1449673324823379,0.00046926196,-0.0026485657,0.3383913
609,1047344048,-0.6220513582229614,-0.3886478543281555,-0.1450078636407852,-0.0076411045,0.0068438863,0.34276772
610,1047360715,-0.6211735606193542,-0.3892664909362793,-0.1440454274415969,0.003993534,-0.009636942,0.34038925
611,1047377382,-0.6217945218086243,-0.3883309364318847,-0.1447474509477615,0.019801265,-0.006843942,0.34525776
612,1047394049,-0.6220278143882751,-0.3893415033817291,-0.1449604481458664,0.023137126,-0.0087753525,0.3501196
613,1047410716,-0.622648298740387,-0.3881655633449554,-0.1448879390954971,-0.0033848383,0.0032262243,0.33559036
614,1047427383,-0.6219276189804077,-0.3887929022312164,-0.1449342370033264,-0.008034241,0.002937568,0.34089756
615,1047444050,-0.6207056045532227,-0.3897518515586853,-0.1446451395750045,0.005075483,-0.005307322,0.33001423
616,1047460717,-0.6204637885093689,-0.3905893862247467,-0.1472336202859878,0.011168188,-0.0055105514,0.31617928
617,1047477384,-0.6204870939254761,-0.3902361392974853,-0.1456724554300308,0.0011559636,-0.014208632,0.34344864
618,1047494051,-0.6201965808868408,-0.3896099030971527,-0.1461683958768844,0.009859548,0.0057687648,0.32928276
619,1047510718,-0.6197137236595154,-0.3916146159172058,-0.1482804417610168,-0.00025402248,-0.009806931,0.33451557
620,1047527385,-0.6203086376190186,-0.3899953961372375,-0.1476374268531799,0.009469434,-0.0198021,0.32904816
621,1047544052,-0.6212913990020752,-0.3901814818382263,-0.1470822095870971,0.01636814,-0.0039680707,0.34518433
622,1047560719,-0.6207377314567566,-0.3889965713024139,-0.1470760852098465,-0.0041800346,0.0019015505,0.34596825
623,1047577386,-0.6224641799926758,-0.389937162399292,-0.1468082517385482,-0.0056581832,0.00968636,0.3542242
624,1047594053,-0.6227917671203613,-0.389424055814743,-0.146632581949234,-0.00424259,-7.0326256e-05,0.31715393
625,1047610720,-0.6238275766372681,-0.3892528712749481,-0.1461248993873596,-0.0026018305,0.013046353,0.32719326
626,1047627387,-0.6239439249038696,-0.3879248797893524,-0.1460877954959869,0.00664364,0.012146127,0.35276413
627,1047644054,-0.6241999864578247,-0.3881199061870575,-0.1454002112150192,-0.011054696,-0.00030290894,0.33680058
628,1047660721,-0.6241224408149719,-0.3882328569889068,-0.1450796574354171,0.009086402,-0.0060573057,0.33221722
629,1047677388,-0.6240183115005493,-0.3885374963283539,-0.1448926925659179,-0.0011708342,0.0046037664,0.31327534
630,1047694055,-0.6244096755981445,-0.3895223438739776,-0.1450973451137542,0.004900403,-0.00673572,0.31982994
631,1047710722,-0.6258614659309387,-0.3887591063976288,-0.1446152031421661,0.00650898,-0.012045916,0.34020138
632,1047727389,-0.6255436539649963,-0.3905671536922455,-0.1448261886835098,0.0003680176,-0.0057175276,0.34251022
633,1047744056,-0.6249133944511414,-0.3902021050453186,-0.1457482427358627,-0.010274312,0.0011548391,0.33941936
634,1047760723,-0.6242685914039612,-0.3892218768596649,-0.1458452939987182,-0.00830158,-0.0007307581,0.31691837
635,1047777390,-0.6245240569114685,-0.3879330456256866,-0.1461370289325714,0.01247648,0.002275512,0.34308243
636,1047794057,-0.624021589756012,-0.3889603614807129,-0.1464150100946426,0.013531331,-0.002299627,0.33122158
637,1047810724,-0.6249631643295288,-0.38919797539711,-0.1463799327611923,0.013569395,-0.0019660722,0.3568964
638,1047827391,-0.625283420085907,-0.3871857225894928,-0.1452412158250808,-0.0053030476,-0.0017254222,0.3344946
639,1047844058,-0.6254159808158875,-0.387428730726242,-0.1455116122961044,0.011340583,0.000698017,0.35707283
640,1047860725,-0.625243604183197,-0.3876500129699707,-0.1462680399417877,0.01338675,-0.0028796082,0.34024143
641,1047877392,-0.6250910758972168,-0.3874954283237457,-0.1460443884134292,0.008089611,-0.008049746,0.32356358
642,1047894059,-0.6248061656951904,-0.3874789178371429,-0.144954964518547,0.00046742146,-0.0010351303,0.36102104
643,1047910726,-0.6247981190681458,-0.3868817985057831,-0.1450918614864349,-0.0048832167,-0.008928019,0.34539413
644,1047927393,-0.6246894001960754,-0.3862316906452179,-0.1444731205701828,0.014170913,0.0013334608,0.3363781
645,1047944060,-0.6234816312789917,-0.3869060277938843,-0.1447685360908508,0.004936451,-0.0029172387,0.32919312
646,1047960727,-0.6240494847297668,-0.3864064216613769,-0.1442887932062149,-0.014750077,0.0009237441,0.34773636
647,1047977394,-0.6229456067085266,-0.3868508338928222,-0.1439660936594009,0.0053414116,-0.018601911,0.32175446
648,1047994061,-0.6228673458099365,-0.38670414686203,-0.1433812528848648,-0.0024007736,-0.010012885,0.34561825
649,1048010728,-0.6224567294120789,-0.3856692016124725,-0.1430089175701141,0.006704044,-0.006549038,0.33277702
650,1048027395,-0.6235535144805908,-0.3839643597602844,-0.1427881270647049,-0.00036809093,-0.008469859,0.34204292
651,1048044062,-0.6235329508781433,-0.3839891850948334,-0.1431750804185867,0.008329158,0.0018476698,0.34885216
652,1048060729,-0.6234857439994812,-0.383743941783905,-0.1416742354631424,-0.00012338963,-0.0020354276,0.33050442
653,1048077396,-0.6233928203582764,-0.3835023939609527,-0.1417832821607589,0.015585621,-0.0047090896,0.33411407
654,1048094063,-0.6227937936782837,-0.3840547204017639,-0.1420151442289352,0.017868929,-0.016118936,0.36007786
655,1048110730,-0.622543454170227,-0.3848700225353241,-0.1403300464153289,-0.009450887,-0.0017506478,0.31986046
656,1048127397,-0.6218425035476685,-0.3849099278450012,-0.1398141682147979,0.005254273,0.01482464,0.35356522
657,1048144064,-0.6207565665245056,-0.3843516409397125,-0.1400267481803894,-0.010899641,0.004388251,0.34805775
658,1048160731,-0.6205794215202332,-0.384533017873764,-0.1403537541627884,0.012524091,-0.0051095653,0.36115837
659,1048177398,-0.6205698847770691,-0.3847560584545135,-0.1396872848272323,0.0031907696,0.005720608,0.34312916
660,1048194065,-0.6203412413597107,-0.3851257264614105,-0.1400080621242523,0.00094368565,-0.009465005,0.34574318
661,1048210732,-0.6200588345527649,-0.3843850493431091,-0.140482485294342,0.0010987269,-0.0008556076,0.34266472
662,1048227399,-0.6193960905075073,-0.3835134506225586,-0.1414266228675842,0.021212539,-0.011619237,0.33260155
663,1048244066,-0.6190938353538513,-0.3843015730381012,-0.1414830237627029,0.017721916,-0.008618377,0.3321228
664,1048260733,-0.6188588738441467,-0.384015828371048,-0.1416099667549133,0.0030640168,-0.008480658,0.33411217
665,1048277400,-0.6191751956939697,-0.3833708167076111,-0.1410577446222305,-0.0036095039,-0.011576934,0.3394642
666,1048294067,-0.6204678416252136,-0.382189929485321,-0.1401821821928024,-0.0095671015,0.0055188,0.32696533
667,1048310734,-0.6214905977249146,-0.3822433650493622,-0.1417261213064193,0.008894939,0.0043141004,0.33893585
668,1048327401,-0.6214656829833984,-0.3823652565479278,-0.1401395052671432,0.012730344,0.004744894,0.3331833
669,1048344068,-0.621550440788269,-0.3819514811038971,-0.1396356672048568,0.012649922,0.0011517238,0.34220314
670,1048360735,-0.6211109161376953,-0.3812754154205322,-0.1391642987728119,0.00046372303,0.012053212,0.35750294
671,1048377402,-0.6213371157646179,-0.3809957802295685,-0.1391850113868713,-0.0042335168,-0.0149220005,0.3218832
672,1048394069,-0.621313214302063,-0.3804197311401367,-0.1384233832359314,-0.007411576,-0.006451656,0.35584736
673,1048410736,-0.6217023730278015,-0.3788610398769378,-0.1389134228229522,-0.0054820064,0.0045380183,0.33781052
674,1048427403,-0.622012197971344,-0.3788586258888244,-0.1381628066301345,0.007816698,0.004560024,0.34248924
675,1048444070,-0.621440052986145,-0.3787497878074646,-0.1372271031141281,0.014830629,-0.003130037,0.34718704
676,1048460737,-0.6225253343582153,-0.3796817362308502,-0.1366035789251327,0.003628712,-0.0042557567,0.35470867
677,1048477404,-0.6217037439346313,-0.3794648647308349,-0.1375283896923065,-0.005052949,0.00822028,0.35128593
678,1048494071,-0.622580349445343,-0.3787491023540497,-0.1370531171560287,0.01632454,0.010103198,0.34239006
679,1048510738,-0.6233381032943726,-0.3780114948749542,-0.1359872967004776,-0.010051149,0.017123131,0.35495377
680,1048527405,-0.6231752038002014,-0.3781731724739074,-0.1358094066381454,-0.010353587,0.011048825,0.36640072
681,1048544072,-0.6226939558982849,-0.3783831894397735,-0.1364149749279022,0.0022386394,0.004528547,0.32879066
682,1048560739,-0.6219995617866516,-0.3783584237098694,-0.13739675283432,0.00095310115,-0.004625929,0.33478928
683,1048577406,-0.6226112842559814,-0.3789699673652649,-0.1364712119102478,0.020227524,-0.00442139,0.33738804
684,1048594073,-0.621679961681366,-0.3785494267940521,-0.13643778860569,-0.001532059,-0.0050079543,0.34649086
685,1048610740,-0.620839536190033,-0.3796125948429107,-0.1365122646093368,0.018300878,0.00056233414,0.33604145
686,1048627407,-0.6226727366447449,-0.3799429833889007,-0.1353140324354171,0.006450769,-0.0057552247,0.3380375
687,1048644074,-0.6229945421218872,-0.3800998032093048,-0.1352535337209701,0.013317318,0.00036256594,0.34113503
688,1048660741,-0.6226959228515625,-0.3802303373813629,-0.1345027387142181,0.004261229,0.0065002004,0.35003948
689,1048677408,-0.6220039129257202,-0.3795892000198364,-0.1341952979564666,0.0009132984,0.013000233,0.34081078
690,1048694075,-0.622093677520752,-0.3812814354896545,-0.1349851191043853,0.0073993546,-0.011037558,0.3350544
691,1048710742,-0.6220486164093018,-0.3808170557022095,-0.1342031508684158,0.004461741,-0.008264021,0.34759712
692,1048727409,-0.6211360096931458,-0.3813157379627228,-0.1329947113990783,0.0026542232,-0.007501395,0.35031223
693,1048744076,-0.6209214329719543,-0.380117654800415,-0.131738394498825,-0.002021584,0.010812198,0.3512249
694,1048760743,-0.6200064420700073,-0.3797073066234588,-0.1321279257535934,-0.009574565,0.0027617784,0.33890724
695,1048777410,-0.6201639771461487,-0.3814428150653839,-0.1330056190490722,0.006503707,-0.011150045,0.34457016
696,1048794077,-0.6199911832809448,-0.3822476863861084,-0.1341673284769058,-0.0067351907,0.008352672,0.3539791
697,1048810744,-0.6198323965072632,-0.3830585479736328,-0.1357609182596206,0.0012409404,-0.010832964,0.35678864
698,1048827411,-0.6192333102226257,-0.384129136800766,-0.1351270675659179,0.0027284157,-0.008001376,0.32128334
699,1048844078,-0.6186068654060364,-0.3847076594829559,-0.1360627263784408,-0.0039377883,0.00023397965,0.3407278
700,1048860745,-0.617206871509552,-0.3846082091331482,-0.1355279982089996,-0.013888215,0.0015074796,0.32658672
701,1048877412,-0.6177440881729126,-0.3856073021888733,-0.1366853415966034,0.016782861,-0.011399248,0.33203697
702,1048894079,-0.6166093349456787,-0.3846715092658996,-0.1372049748897552,0.010341522,-0.012767863,0.34839725
703,1048910746,-0.6171982884407043,-0.3853514194488525,-0.1363586336374282,-0.0046526142,-0.0022140983,0.35002518
704,1048927413,-0.616470456123352,-0.3844887912273407,-0.1367269456386566,0.004701455,0.00032949302,0.3544855
705,1048944080,-0.6158298254013062,-0.3845207989215851,-0.136449933052063,0.012202903,0.0012127743,0.34427452
706,1048960747,-0.6157636046409607,-0.3836914300918579,-0.1364935785531997,0.01172579,-0.0026318615,0.3284378
707,1048977414,-0.6156758069992065,-0.3829781413078308,-0.1356574594974517,-0.008279246,0.0031395468,0.35814285
708,1048994081,-0.6156591773033142,-0.381966769695282,-0.1344069093465805,0.00533568,-0.010678465,0.3561449
709,1049010748,-0.6152942180633545,-0.381182849407196,-0.1333037912845611,0.00025840543,-0.0075445087,0.33740807
710,1049027415,-0.6148695349693298,-0.3806877434253692,-0.1320162266492843,-0.0010994741,0.0075903917,0.33440495
711,1049044082,-0.6136672496795654,-0.3806037604808807,-0.1321070045232772,0.007077269,0.0018514068,0.3330059
712,1049060749,-0.6135603785514832,-0.3805849254131317,-0.132622554898262,0.0154364575,-0.011281237,0.34171677
713,1049077416,-0.6139366626739502,-0.3794799745082855,-0.1308220028877258,-0.0014802215,-0.0034703284,0.3240509
714,1049094083,-0.61366868019104,-0.379569262266159,-0.131424069404602,0.0041647865,-0.0030787757,0.32924843
715,1049110750,-0.6141071319580078,-0.3798907995223999,-0.1332660466432571,0.003643635,-0.0023505355,0.3404379
716,1049127417,-0.613551914691925,-0.3797837495803833,-0.1344834119081497,0.0026009155,0.0014655326,0.35499573
717,1049144084,-0.6137786507606506,-0.3794717788696289,-0.1333582252264022,0.0012038478,0.011156335,0.35141563
718,1049160751,-0.6130109429359436,-0.3792527019977569,-0.1344205737113952,-0.015063049,-0.0033867068,0.3408928
719,1049177418,-0.6131343245506287,-0.379656046628952,-0.1333992183208465,-0.0056153666,-0.0148604615,0.34126663
720,1049194085,-0.618739664554596,-0.389933317899704,-0.1391905695199966,0.0033594556,-0.007792905,0.34271717
721,1049210752,-0.6188191175460815,-0.390118271112442,-0.1379784494638443,-0.0010365064,-0.011940006,0.32138443
722,1049227419,-0.618455171585083,-0.3911446034908294,-0.1369488686323166,0.006054302,-0.00096691004,0.34693146
723,1049244086,-0.6179807186126709,-0.3908837139606476,-0.1368092745542526,0.018070314,0.0022176746,0.33822918
724,1049260753,-0.6169731020927429,-0.3911990523338318,-0.1356615126132965,0.0037182288,-0.00481558,0.33990097
725,1049277420,-0.6176679730415344,-0.3902539908885956,-0.1349839866161346,-0.00357766,-0.0018290309,0.3621521
726,1049294087,-0.6180994510650635,-0.3896428346633911,-0.1349644064903259,0.0025709928,0.00070523925,0.32973766
727,1049310754,-0.619049608707428,-0.3915179073810577,-0.1333202868700027,0.010784958,-0.013680069,0.3287258
728,1049327421,-0.6181691884994507,-0.3908340632915497,-0.1321067959070205,0.006868375,-0.0043703243,0.33315086
729,1049344088,-0.6177554130554199,-0.3928983807563782,-0.1335050165653228,-0.0017192337,0.005147524,0.33850193
730,1049360755,-0.6176139116287231,-0.3926136791706085,-0.1328745782375335,-0.003062592,-0.0037710443,0.31590176
731,1049377422,-0.616947591304779,-0.3924735188484192,-0.1321197748184204,0.01062385,-0.018742187,0.32656574
732,1049394089,-0.6168917417526245,-0.3923807442188263,-0.1326521635055542,0.0063017453,0.005536479,0.35065937
733,1049410756,-0.6173930168151855,-0.39206662774086,-0.1319219022989273,-0.0058710133,-0.0023647216,0.34448814
734,1049427423,-0.6191354990005493,-0.3918249905109405,-0.1326672583818435,-0.0021338817,-0.008877072,0.34740067
735,1049444090,-0.6187185049057007,-0.3918232917785644,-0.1338009685277938,0.0021523493,0.010759941,0.3474369
736,1049460757,-0.6196208596229553,-0.3914868533611297,-0.1326670944690704,0.005343695,0.0030880654,0.3274765
737,1049477424,-0.6200748085975647,-0.3920550346374511,-0.1321187615394592,0.005883388,-0.007183944,0.33325768
738,1049494091,-0.6193912029266357,-0.3911085128784179,-0.1310091614723205,0.0024410724,-0.00774339,0.36459064
739,1049510758,-0.6191592812538147,-0.3915484845638275,-0.1316739022731781,0.011146078,0.009992003,0.34959888
740,1049527425,-0.61909019947052,-0.3918955624103546,-0.1330289542675018,0.0042674,-0.003274594,0.36067677
741,1049544092,-0.6186562776565552,-0.3924444913864136,-0.1338128298521042,-0.0069311596,-0.002244856,0.35997295
742,1049560759,-0.6191906929016113,-0.3924712836742401,-0.1336154490709304,0.018958488,-0.012782947,0.33891678
743,1049577426,-0.6186273097991943,-0.3916654586791992,-0.1332272142171859,0.021445174,9.11863e-05,0.32729816
744,1049594093,-0.6178284287452698,-0.3917035758495331,-0.1339529752731323,0.009988728,0.0127964765,0.35998535
745,1049610760,-0.6193386912345886,-0.3919145464897156,-0.1342911422252655,-0.008279877,0.0019913537,0.34976006
746,1049627427,-0.6196446418762207,-0.3905543982982635,-0.1350192129611969,-0.00974813,-0.012352681,0.35219288
747,1049644094,-0.6198449730873108,-0.3899365663528442,-0.1342960894107818,0.0058449195,-0.0071482062,0.35207176
748,1049660761,-0.6197930574417114,-0.3900145590305328,-0.1345956176519394,0.004129744,0.0052122595,0.32758808
749,1049677428,-0.6194955110549927,-0.39060840010643,-0.1345331221818924,0.0017681132,-0.0032016903,0.35019016
750,1049694095,-0.6199361085891724,-0.3908104002475738,-0.1340323537588119,0.0019721282,0.00046999188,0.36789322
751,1049710762,-0.6202495694160461,-0.3908488154411316,-0.1347230672836303,0.014590454,-0.007818487,0.36959648
752,1049727429,-0.6207135319709778,-0.3894854485988617,-0.1365874409675598,0.017396737,0.008808094,0.34357738
753,1049744096,-0.6216597557067871,-0.3891591429710388,-0.1367330849170684,0.0074328114,0.00019051686,0.34251118
754,1049760763,-0.621550977230072,-0.3880491256713867,-0.1362762153148651,0.015284815,0.001549514,0.3301649
755,1049777430,-0.6219467520713806,-0.3872586190700531,-0.1366085857152938,0.004974354,-0.0025467381,0.34399414
756,1049794097,-0.6213856339454651,-0.3871504366397857,-0.1362772136926651,-0.0054786187,-0.0019109449,0.35846138
757,1049810764,-0.6219454407691956,-0.3871700167655945,-0.1355124413967132,-0.0091637485,0.0007963976,0.34505558
758,1049827431,-0.6221275329589844,-0.3859327137470245,-0.1352856457233429,-0.0081541175,0.011366874,0.32579327
759,1049844098,-0.6215637922286987,-0.3853493928909302,-0.1356701403856277,0.0031838652,-0.00049298577,0.32700634
760,1049860765,-0.6206124424934387,-0.3848419189453125,-0.1372750699520111,-0.00054898625,-0.014263067,0.35012054
761,1049877432,-0.6208135485649109,-0.3844245374202728,-0.1372966021299362,0.015918422,-0.0006838588,0.3578577
762,1049894099,-0.6205843091011047,-0.3849212229251861,-0.1381162703037262,-0.0009545191,-0.020872066,0.31479168
763,1049910766,-0.6203249096870422,-0.3851718604564667,-0.1377780139446258,0.00796019,-0.0052526486,0.30417347
764,1049927433,-0.6198999285697937,-0.3846464157104492,-0.1391846984624862,0.009876877,-0.007493628,0.33042622
765,1049944100,-0.6193825602531433,-0.3842249810695648,-0.1390627175569534,0.015820632,-0.011506377,0.36785507
766,1049960767,-0.619661271572113,-0.3841737806797027,-0.1380320936441421,0.005120825,0.010602997,0.34047508
767,1049977434,-0.6204654574394226,-0.3844630420207977,-0.1371934413909912,0.005158012,-0.0020696148,0.33117104
768,1049994101,-0.6208504438400269,-0.3850221931934356,-0.1390380710363388,0.0026701102,0.0052623716,0.33398056
769,1050010768,-0.6209272146224976,-0.3848620057106018,-0.1399506777524948,0.010748906,-0.003236115,0.33113194
770,1050027435,-0.6201063394546509,-0.3863167762756347,-0.1413480639457702,0.0022612596,0.006118381,0.34690857
771,1050044102,-0.6206618547439575,-0.3850162327289581,-0.1408690512180328,-0.0013144378,-0.0034642343,0.35015774
772,1050060769,-0.6200389862060547,-0.3846745491027832,-0.1411248743534088,0.010754979,-0.001021772,0.32374287
773,1050077436,-0.6191093921661377,-0.3843480348587036,-0.1402853727340698,-0.006760284,-0.0010829621,0.33406734
774,1050094103,-0.6197980046272278,-0.3844249844551086,-0.1418267339468002,0.0044384087,-0.0053163045,0.33780575
775,1050110770,-0.6193534731864929,-0.3843118846416473,-0.1422268450260162,0.022747053,-0.0004771862,0.35698318
776,1050127437,-0.6193203926086426,-0.3840377628803253,-0.1424259692430496,0.0101487385,-0.002070575,0.35286903
777,1050144104,-0.6193834543228149,-0.3838633298873901,-0.1414869576692581,0.008407087,0.0029799026,0.35504055
778,1050160771,-0.6192519664764404,-0.3844530284404754,-0.1413684785366058,-0.006779483,0.0077341627,0.330678
779,1050177438,-0.6203266978263855,-0.3854340612888336,-0.1405448168516159,0.008787167,0.006151363,0.34029198
780,1050194105,-0.6208695769309998,-0.3864185214042663,-0.140729084610939,-0.0010278418,-0.013589906,0.3138399
781,1050210772,-0.6202265620231628,-0.3865227699279785,-0.1421801298856735,0.008937246,-0.001767062,0.34089565
782,1050227439,-0.620651364326477,-0.386219173669815,-0.1413707882165908,0.007218051,-0.017883578,0.34004402
783,1050244106,-0.6212348341941833,-0.3867484927177429,-0.1407309472560882,-0.0029636386,-0.00015365817,0.32853222
784,1050260773,-0.6213722229003906,-0.3867906928062439,-0.1415215581655502,0.0006349444,0.005314548,0.33565426
785,1050277440,-0.6210612654685974,-0.3871507942676544,-0.1402088105678558,-0.0032683602,-0.016883785,0.34146023
786,1050294107,-0.6200658679008484,-0.3878123164176941,-0.1414494067430496,0.01999965,-0.015179184,0.34687614
787,1050310774,-0.6197816133499146,-0.3869973719120025,-0.1401327550411224,0.0043763034,0.010566949,0.32545853
788,1050327441,-0.6187154054641724,-0.3857259750366211,-0.1396361142396927,-0.006171402,-0.013796558,0.33816433
789,1050344108,-0.6190123558044434,-0.3850035369396209,-0.1395525783300399,0.0020741618,-0.011111129,0.3446169
790,1050360775,-0.6192693710327148,-0.3845369517803192,-0.1398053020238876,-0.01279567,-0.01588582,0.35280418
791,1050377442,-0.6182017922401428,-0.3844881653785705,-0.1403787732124328,-0.006419889,0.012474904,0.3447342
792,1050394109,-0.6177577972412109,-0.3841560781002044,-0.1405431777238845,-0.0025080913,0.0022657334,0.33384228
793,1050410776,-0.6176432967185974,-0.3838765919208526,-0.1399774849414825,0.0064904424,-0.001981554,0.34304047
794,1050427443,-0.6179683208465576,-0.3844306170940399,-0.1421971023082733,-0.0018073502,-0.011394687,0.32905197
795,1050444110,-0.6170413494110107,-0.3858208358287811,-0.1431082934141159,0.010179391,-0.004947194,0.33608913
796,1050460777,-0.6174550652503967,-0.385299801826477,-0.1432421207427978,-0.010092591,-0.0026072715,0.3382988
797,1050477444,-0.6178843975067139,-0.3843407928943634,-0.1427905559539795,-0.005313242,-0.01439985,0.3288889
798,1050494111,-0.6178784370422363,-0.384030282497406,-0.1434345543384552,-0.0016348646,-0.008907396,0.33987617
799,1050510778,-0.6178879737854004,-0.3847735524177551,-0.1433395594358444,-0.010056859,0.0010476296,0.32882977
800,1050527445,-0.6174846291542053,-0.3845985531806946,-0.1433217227458953,-0.0038698858,-0.008542578,0.35155582
801,1050544112,-0.6187169551849365,-0.3838675618171692,-0.144574373960495,-0.007227768,-0.00756159,0.32131863
802,1050560779,-0.6192225217819214,-0.3829691708087921,-0.1451042741537094,0.018803066,-0.0040939995,0.34463978
803,1050577446,-0.6184941530227661,-0.382390558719635,-0.1452738940715789,-0.0058686594,-0.0032113784,0.35152817
804,1050594113,-0.6181830167770386,-0.3844501078128814,-0.144374281167984,0.006044985,-0.016379222,0.35483456
805,1050610780,-0.6187116503715515,-0.3842566907405853,-0.144493818283081,-0.0053074113,-0.0091749625,0.3410883
806,1050627447,-0.618962824344635,-0.3838739991188049,-0.1443938016891479,-0.0024053312,-0.0001285898,0.34350872
807,1050644114,-0.618746817111969,-0.3843177258968353,-0.1442264169454574,-0.0049915803,0.0011077721,0.3290882
808,1050660781,-0.6197390556335449,-0.3837122023105621,-0.143683522939682,0.019206898,-0.005345075,0.34992123
809,1050677448,-0.6213101148605347,-0.3836109638214111,-0.1429932117462158,0.00384963,-0.004223948,0.3489666
810,1050694115,-0.6203489899635315,-0.3834597170352936,-0.1421327143907547,0.0037994059,-0.012219551,0.33099174
811,1050710782,-0.6204045414924622,-0.3839960694313049,-0.1427900791168213,-0.009289897,0.0175416,0.34342575
812,1050727449,-0.6206096410751343,-0.3833349943161011,-0.1435150355100631,-0.000758582,0.01373022,0.34892654
813,1050744116,-0.6203681826591492,-0.382964938879013,-0.1441654562950134,0.022269102,-0.0034933398,0.375535
814,1050760783,-0.621004045009613,-0.3830337822437286,-0.1437334567308426,0.0140606975,-0.0042804023,0.33920002
815,1050777450,-0.6203745007514954,-0.3831223249435425,-0.1437436044216156,0.006918917,0.0012307077,0.3452387
816,1050794117,-0.6209053993225098,-0.3828041553497314,-0.1435103863477707,0.00300722,-0.0006113603,0.3522854
817,1050810784,-0.6198475360870361,-0.3823280930519104,-0.144626498222351,-0.0006689848,0.014049619,0.337883
818,1050827451,-0.6192147731781006,-0.3818147182464599,-0.1447228491306305,0.0053254617,0.008164331,0.32834625
819,1050844118,-0.6188681721687317,-0.3838678002357483,-0.1456534266471862,0.00511508,0.0023342716,0.3627758
820,1050860785,-0.6191405653953552,-0.3833796679973602,-0.1480703502893448,0.0036099507,0.008123107,0.33820438
821,1050877452,-0.6199541091918945,-0.3831055164337158,-0.1485292315483093,0.0066186446,-0.012914698,0.341321
822,1050894119,-0.6212716698646545,-0.3845108449459076,-0.1484394073486328,-0.0049671372,0.00581462,0.31981087
823,1050910786,-0.6211034655570984,-0.384046196937561,-0.1478268355131149,0.021839727,0.0053638187,0.32435417
824,1050927453,-0.6217924952507019,-0.3850423395633697,-0.147204965353012,-0.00962547,0.00052148366,0.34976578
825,1050944120,-0.6222367286682129,-0.3854268491268158,-0.1465611606836319,0.0012782287,0.0015129942,0.34420967
826,1050960787,-0.6220498085021973,-0.3859141170978546,-0.1457293182611465,0.0030805115,0.0015187985,0.33725548
827,1050977454,-0.6232229471206665,-0.3873360753059387,-0.1460877656936645,0.011301328,-0.010226664,0.31063557
828,1050994121,-0.6219211220741272,-0.3870663046836853,-0.1457964032888412,0.0065708305,0.0034624217,0.34620667
829,1051010788,-0.621738076210022,-0.3867753148078918,-0.1455510407686233,0.0066965283,-0.011399126,0.35711288
830,1051027455,-0.6224446296691895,-0.3872582614421844,-0.1453652530908584,0.011938198,0.012542171,0.35058117
831,1051044122,-0.6228856444358826,-0.3871423304080963,-0.1447910815477371,-0.011734046,0.014045851,0.3364544
832,1051060789,-0.6245986819267273,-0.3872219622135162,-0.1451404988765716,5.1572122e-05,0.008635772,0.34042835
833,1051077456,-0.624968945980072,-0.3879757821559906,-0.1437154114246368,0.00031708105,-0.0025104906,0.3160696
834,1051094123,-0.625200629234314,-0.3854885399341583,-0.1430215537548065,0.020560004,0.0071775005,0.34102154
835,1051110790,-0.6259886622428894,-0.3846063613891601,-0.1422390043735504,-0.011273115,0.018461207,0.33795166
836,1051127457,-0.6267135143280029,-0.3841584026813507,-0.1424010545015335,0.00302288,0.002683797,0.34768677
837,1051144124,-0.625491201877594,-0.3847319185733795,-0.1432343274354934,0.0035890138,-0.003933566,0.33661556
838,1051160791,-0.6260088086128235,-0.385025292634964,-0.1427263021469116,0.011569184,-0.0011754546,0.34040356
839,1051177458,-0.6251711249351501,-0.3857523798942566,-0.1432794034481048,0.0069332565,0.0046937056,0.33550644
840,1051194125,-0.6209983229637146,-0.3888623118400574,-0.1434277445077896,-0.0067717195,0.0042395936,0.3393526
841,1051210792,-0.6214497089385986,-0.3898414373397827,-0.1427395045757293,0.0031470554,-0.0005657043,0.34400272
842,1051227459,-0.6218671798706055,-0.3902503252029419,-0.1441937834024429,-0.011178223,0.0039694575,0.34412766
843,1051244126,-0.622787356376648,-0.3910045921802521,-0.1448044776916504,-0.00028853078,-0.006983931,0.33474636
844,1051260793,-0.6226330995559692,-0.3909527957439422,-0.1445567309856414,-0.0007690382,0.007189448,0.3383913
845,1051277460,-0.6222163438796997,-0.3926001787185669,-0.145091712474823,-0.003763546,0.013274448,0.34790993
846,1051294127,-0.6223637461662292,-0.3929205238819122,-0.1456850618124008,0.0008074964,-0.0016778314,0.3304968
847,1051310794,-0.6227491497993469,-0.3917103707790375,-0.1463218778371811,-0.009951336,-0.006188201,0.32284546
848,1051327461,-0.6224048137664795,-0.3918585777282715,-0.1470728665590286,0.015469618,0.0001762714,0.33241272
849,1051344128,-0.6231006383895874,-0.3914896547794342,-0.1462703645229339,0.0095808655,-0.0065131327,0.33155346
850,1051360795,-0.6229371428489685,-0.3917716741561889,-0.1474308967590332,0.0064599714,0.008932542,0.3571949
851,1051377462,-0.6222468614578247,-0.3911740481853485,-0.1471556723117828,-0.0074228253,-0.010002906,0.3421812
852,1051394129,-0.623145341873169,-0.3935956358909607,-0.1475500911474228,-0.0038145978,0.0014975996,0.33742237
853,1051410796,-0.6224832534790039,-0.3928206264972687,-0.1476360857486724,-0.010069639,-0.0044885944,0.33841228
854,1051427463,-0.6218301653862,-0.393521249294281,-0.1470884382724762,0.018039895,-0.0066795484,0.30385685
855,1051444130,-0.622134804725647,-0.3940078616142273,-0.147477850317955,0.0012368334,0.0137725575,0.33595276
856,1051460797,-0.6213853359222412,-0.3940607011318207,-0.1480557173490524,-0.0020159017,-0.0034363335,0.3572712
857,1051477464,-0.6216265559196472,-0.3946416974067688,-0.1497721970081329,0.00947309,-0.0110070985,0.34339428
858,1051494131,-0.6225804686546326,-0.3948022425174713,-0.1490957736968994,-0.0029950945,-0.017619478,0.34169102
859,1051510798,-0.6228724122047424,-0.3946397304534912,-0.1489419937133789,-0.00055173825,-0.0014720354,0.3352871
860,1051527465,-0.6226591467857361,-0.3946478962898254,-0.1477986723184585,-0.013401872,0.004260157,0.35462093
861,1051544132,-0.6226589679718018,-0.3955628573894501,-0.149153396487236,0.013160666,-0.0037508232,0.33564758
862,1051560799,-0.623498797416687,-0.396988034248352,-0.1494760513305664,0.00067259587,0.0077791833,0.3289652
863,1051577466,-0.6242824196815491,-0.3976988494396209,-0.1487693190574646,-0.010994716,-0.0034044445,0.3452711
864,1051594133,-0.6232773661613464,-0.3970086574554443,-0.1475332677364349,-0.0021265652,0.0022578929,0.32626057
865,1051610800,-0.621889591217041,-0.3954747319221496,-0.1468671262264251,-0.011960127,0.00791795,0.3463421
866,1051627467,-0.6204747557640076,-0.3957533836364746,-0.1482239514589309,0.023786735,-0.010628575,0.3382206
867,1051644134,-0.6200035214424133,-0.3958711624145508,-0.1481867581605911,-0.008071039,-0.0056044897,0.3432865
868,1051660801,-0.62171471118927,-0.3968236446380615,-0.1483327448368072,0.0029433793,0.01340403,0.3236351
869,1051677468,-0.621623694896698,-0.3956412076950073,-0.14866603910923,-0.0035857137,0.001071535,0.34150887
870,1051694135,-0.6217585206031799,-0.3970076739788055,-0.1492449343204498,0.00043960457,-0.00024199468,0.34520054
871,1051710802,-0.6215488910675049,-0.3961454927921295,-0.1505059748888015,-0.0039749965,5.8647704e-05,0.34721375
872,1051727469,-0.621234655380249,-0.3955633044242859,-0.1499769240617752,0.0007507486,-0.0051444406,0.33404446
873,1051744136,-0.6214302778244019,-0.3956663310527801,-0.1504878103733062,0.013550585,-0.0025205382,0.3633604
874,1051760803,-0.6221604347229004,-0.3948937654495239,-0.1496117562055587,0.0030990175,0.00526951,0.33651733
875,1051777470,-0.622674286365509,-0.3951336443424225,-0.149778813123703,0.003906975,0.011714244,0.33963585
876,1051794137,-0.622780978679657,-0.3958357870578766,-0.151059940457344,0.008302089,-0.0074512516,0.32152367
877,1051810804,-0.6237072348594666,-0.3952317237854004,-0.1507475674152374,0.013948609,-0.0015054261,0.34212208
878,1051827471,-0.6223727464675903,-0.3952361643314361,-0.1508490592241287,-0.006746737,-0.0032843691,0.33358383
879,1051844138,-0.6213672757148743,-0.3948538303375244,-0.1516596525907516,0.004330113,0.009412364,0.35317326
880,1051860805,-0.6214715838432312,-0.3936260938644409,-0.1528526842594146,-0.0005310109,-0.005367702,0.334589
881,1051877472,-0.6215184926986694,-0.3931814432144165,-0.1533343195915222,0.00013061888,-0.011772864,0.33670425
882,1051894139,-0.6201943755149841,-0.3929710686206817,-0.1532464027404785,-0.0026505669,-0.0008096652,0.3188839
883,1051910806,-0.6206921339035034,-0.392531156539917,-0.1530437618494033,0.0029950736,-0.009284742,0.31757545
884,1051927473,-0.6202238202095032,-0.3926300406455993,-0.1534711569547653,-0.005912489,-0.0066193608,0.3600998
885,1051944140,-0.620317280292511,-0.3923398852348327,-0.1543887108564376,0.0039606076,-0.021049395,0.32906628
886,1051960807,-0.6196979880332947,-0.3938266038894653,-0.1550830453634262,-0.0066090897,-0.010375492,0.34517002
887,1051977474,-0.6200985908508301,-0.3939986824989319,-0.1545044928789138,-0.0042761033,0.0007043906,0.3479824
888,1051994141,-0.6202746629714966,-0.3944475650787353,-0.1546270698308944,-0.0086278515,-0.0009758331,0.3651619
889,1052010808,-0.6210137009620667,-0.3942722976207733,-0.1544381082057953,0.008562355,-0.0026749577,0.35507393
890,1052027475,-0.6207998991012573,-0.3941949605941772,-0.1546014100313186,-0.008301455,-0.00037872524,0.33111763
891,1052044142,-0.620622456073761,-0.394791692495346,-0.1560392528772354,0.005315571,-0.0066483403,0.34497833
892,1052060809,-0.6213009357452393,-0.3938925266265869,-0.1554122567176818,0.00012692742,1.5258252e-05,0.3330965
893,1052077476,-0.620567262172699,-0.3951973915100097,-0.155021920800209,0.00037026318,-0.0037592435,0.33810425
894,1052094143,-0.6210361123085022,-0.3950155973434448,-0.1535582989454269,0.000573859,0.013209961,0.3299322
895,1052110810,-0.6203126311302185,-0.3942854404449463,-0.1538412421941757,0.0042840936,0.0052686054,0.33231354
896,1052127477,-0.6214537024497986,-0.3944210112094879,-0.1545946449041366,0.00045367543,0.009387241,0.35690212
897,1052144144,-0.6212583780288696,-0.3938998281955719,-0.15420001745224,-0.0062091793,-0.0066484697,0.3346634
898,1052160811,-0.6207324266433716,-0.3948035836219787,-0.1551452875137329,0.0052239136,-0.0073628905,0.34315395
899,1052177478,-0.6203101873397827,-0.3943912088871002,-0.1557101607322693,-0.012933588,-0.014434705,0.3545885
900,1052194145,-0.6202133893966675,-0.3944734036922455,-0.1556048095226287,-0.015749428,-0.0014005741,0.3394251
901,1052210812,-0.6203673481941223,-0.3953540921211242,-0.1560317128896713,-0.012310706,-0.011206786,0.3429346
902,1052227479,-0.6212493181228638,-0.3958704471588135,-0.1562710106372833,-0.008533393,-0.0017775741,0.32866287
903,1052244146,-0.6212781071662903,-0.3949938714504242,-0.1559545695781707,0.0041436404,0.0150729595,0.33155823
904,1052260813,-0.6218947172164917,-0.395362377166748,-0.1558181345462799,0.005925084,-0.0036848101,0.32997417
905,1052277480,-0.620547354221344,-0.3956299722194671,-0.1554572880268097,-0.0038940078,-0.00045812823,0.34183407
906,1052294147,-0.6213629841804504,-0.3944918513298034,-0.157010018825531,-0.011575044,-0.0070281727,0.33744144
907,1052310814,-0.6232151985168457,-0.3947847485542297,-0.1584636270999908,0.007428184,-0.0033426606,0.33350086
908,1052327481,-0.6230658292770386,-0.3942816853523254,-0.1578996628522873,-0.009963893,0.015545923,0.34299564
909,1052344148,-0.623911440372467,-0.3951224684715271,-0.157305359840393,0.0025739856,0.00464476,0.3240366
910,1052360815,-0.6236174702644348,-0.3953059315681457,-0.1571709960699081,0.0005673073,0.013364804,0.34857845
911,1052377482,-0.624014675617218,-0.3953317105770111,-0.1568506062030792,-0.006144181,-0.000824665,0.3478737
912,1052394149,-0.6242216229438782,-0.3946813344955444,-0.1576073467731475,-0.0020438025,0.0068222303,0.33594036
913,1052410816,-0.6230486631393433,-0.394744873046875,-0.1585757136344909,-0.0035080218,-0.012638586,0.33272934
914,1052427483,-0.6225917339324951,-0.3952789306640625,-0.1587147563695907,-0.0013813275,0.0014792786,0.3390255
915,1052444150,-0.6215446591377258,-0.3968071937561035,-0.1596930176019668,0.010138293,-0.0010835663,0.32990265
916,1052460817,-0.6212978959083557,-0.3973173499107361,-0.1598626673221588,0.001018552,-0.002923546,0.33190918
917,1052477484,-0.6207876801490784,-0.3980050384998321,-0.1597933918237686,0.007195633,-0.0048346063,0.35461903
918,1052494151,-0.620300829410553,-0.3971158564090729,-0.1587989181280136,-0.009590737,-0.0077740215,0.34404087
919,1052510818,-0.620837390422821,-0.396897405385971,-0.1595135778188705,-0.0045142947,0.008179491,0.33211803
920,1052527485,-0.6213062405586243,-0.3965032994747162,-0.1597783416509628,0.008608825,-0.009788145,0.3354187
921,1052544152,-0.6216602921485901,-0.3972943425178528,-0.159626692533493,0.0033579713,-0.00017720387,0.3515501
922,1052560819,-0.621926486492157,-0.3969479203224182,-0.1595354080200195,-0.0040841824,-0.0095168045,0.32652187
923,1052577486,-0.6214244365692139,-0.3973346948623657,-0.1587214916944503,0.010627853,-0.009369922,0.32939053
924,1052594153,-0.6221121549606323,-0.3970040678977966,-0.1577205657958984,-0.014503918,0.006762367,0.32921886
925,1052610820,-0.622647225856781,-0.3957348167896271,-0.1581558734178543,0.0028405702,0.0042626713,0.35945606
926,1052627487,-0.6219031810760498,-0.3958645462989807,-0.1591899693012237,0.005213551,-0.0022045432,0.3400507
927,1052644154,-0.6214576363563538,-0.3964862823486328,-0.1602890342473983,-0.0027747946,0.011753401,0.327631
928,1052660821,-0.6212769746780396,-0.3975924253463745,-0.1606028974056244,-0.0022491969,-0.014713655,0.3233614
929,1052677488,-0.6206021308898926,-0.3985559642314911,-0.1607652157545089,0.014369833,-0.005246705,0.3396206
930,1052694155,-0.6207895278930664,-0.3995544612407684,-0.161338061094284,0.01705951,-0.0049332976,0.3347559
931,1052710822,-0.62192302942276,-0.3996061980724334,-0.160198763012886,-0.01822058,-0.01018194,0.3379774
932,1052727489,-0.6223716735839844,-0.3992753028869629,-0.1609390527009964,-0.011312759,-0.014480122,0.34346008
933,1052744156,-0.6217917203903198,-0.3996150195598602,-0.1607886105775833,-0.011747589,-0.0018226119,0.3423195
934,1052760823,-0.6224155426025391,-0.3996523916721344,-0.1601658761501312,-0.0031152328,0.000873995,0.34317493
935,1052777490,-0.6233363151550293,-0.3995535969734192,-0.1607270538806915,0.0163674,-0.0100780735,0.34104156
936,1052794157,-0.6235260963439941,-0.3975592851638794,-0.1608242988586425,0.00249979,-0.00026770565,0.33751488
937,1052810824,-0.6240533590316772,-0.3977832496166229,-0.1606574654579162,0.009438903,0.0076081157,0.3698349
938,1052827491,-0.6237557530403137,-0.3992196917533874,-0.1617589443922042,-0.0011337905,0.00425115,0.33820152
939,1052844158,-0.6238389611244202,-0.4001289904117584,-0.1620093882083892,0.024798023,-0.005893747,0.33761406
940,1052860825,-0.6240741610527039,-0.399425595998764,-0.1625359505414962,-0.0061425413,0.0024571372,0.35035324
941,1052877492,-0.6234018206596375,-0.3982944190502167,-0.1630949974060058,0.0037095188,0.0022421808,0.34677792
942,1052894159,-0.6220267415046692,-0.3982017040252685,-0.1624048054218292,0.0017265363,-0.00758384,0.3682518
943,1052910826,-0.6216888427734375,-0.3971626758575439,-0.1626141518354416,-0.014573183,-0.0018511204,0.32082176
944,1052927493,-0.6209281086921692,-0.3968552052974701,-0.1628826409578323,0.0091238795,0.0010247859,0.3221712
945,1052944160,-0.6208817362785339,-0.3964222967624664,-0.1627407670021057,0.011152668,-0.00061790505,0.3287573
946,1052960827,-0.6201124787330627,-0.3970170617103576,-0.1635733693838119,-0.0076499893,-0.0007129609,0.34108257
947,1052977494,-0.6190453171730042,-0.3976689279079437,-0.1640988141298294,0.0014994052,-0.00609268,0.36369228
948,1052994161,-0.6200054883956909,-0.3980580270290375,-0.1629835218191146,-0.01064905,-0.012732541,0.35821247
949,1053010828,-0.6218969821929932,-0.3985275626182556,-0.1644741594791412,-0.01157198,-0.009559653,0.33103848
950,1053027495,-0.6212929487228394,-0.3994114100933075,-0.164468914270401,-0.0066359495,-0.0051363,0.35515976
951,1053044162,-0.6201379895210266,-0.398023396730423,-0.1650893092155456,0.0126665905,0.00784959,0.3148632
952,1053060829,-0.6208174824714661,-0.397864818572998,-0.1652439087629318,-0.008058164,-0.004590041,0.3362522
953,1053077496,-0.6207869648933411,-0.3983452916145324,-0.1666267067193985,0.015931798,-0.015296266,0.35330486
954,1053094163,-0.6209166646003723,-0.3981107771396637,-0.166483074426651,-0.0060639554,0.007655207,0.36738205
955,1053110830,-0.6194556355476379,-0.3998405933380127,-0.1656252890825271,-0.010630999,0.0042334506,0.33272457
956,1053127497,-0.6198664307594299,-0.3992373347282409,-0.1662282943725586,-0.010067006,-0.0006801255,0.34797287
957,1053144164,-0.6199601292610168,-0.3985640406608581,-0.1677432358264923,0.0015147578,-0.008761139,0.33562374
958,1053160831,-0.6201778650283813,-0.3986249566078186,-0.1683833599090576,-0.0031955717,0.0018953026,0.35515213
959,1053177498,-0.6213343143463135,-0.3983014822006225,-0.1688740849494934,-0.006100133,0.0016329507,0.33246136
960,1053194165,-0.6202977299690247,-0.3904162049293518,-0.1414441168308258,-0.0024706458,-0.0068743434,0.36776543
961,1053210832,-0.6202962398529053,-0.3909023106098175,-0.1425520330667495,-0.009649248,0.007906163,0.31508923
962,1053227499,-0.6204145550727844,-0.3896624445915222,-0.1428508013486862,0.005573917,-0.010201697,0.3553133
963,1053244166,-0.6200215220451355,-0.3903718590736389,-0.1427975594997406,0.019078137,0.0030599798,0.33416176
964,1053260833,-0.6205848455429077,-0.3909435570240021,-0.1424973160028457,0.011202361,-0.010447516,0.32292366
965,1053277500,-0.6210078001022339,-0.3904657363891601,-0.1418568044900894,-0.0024745993,0.0035543274,0.35373878
966,1053294167,-0.6211828589439392,-0.389246255159378,-0.1430204957723617,0.0029896465,0.008627093,0.34131336
967,1053310834,-0.6209149360656738,-0.3883958756923675,-0.1436008810997009,0.0054028565,0.0014124238,0.33959866
968,1053327501,-0.6213473081588745,-0.3879590034484863,-0.1454219669103622,0.00074310025,0.019902037,0.3490963
969,1053344168,-0.6217651963233948,-0.3869622051715851,-0.1453213095664978,0.0007536543,-0.016374594,0.3518448
970,1053360835,-0.6223808526992798,-0.386817455291748,-0.1458906382322311,0.006679566,0.003047421,0.33439732
971,1053377502,-0.622786819934845,-0.388565719127655,-0.1470190435647964,0.0051553613,0.003235455,0.32781696
972,1053394169,-0.623381495475769,-0.3877107501029968,-0.1475690305233001,0.0024743513,0.0020367373,0.32909393
973,1053410836,-0.6233585476875305,-0.3878690898418426,-0.1484071761369705,0.0051286444,-0.0138612185,0.34362793
974,1053427503,-0.6219557523727417,-0.3875802755355835,-0.1490213572978973,0.003866589,-0.01141116,0.34407997
975,1053444170,-0.6231563091278076,-0.3865631520748138,-0.149878904223442,0.013819858,0.010688268,0.33687878
976,1053460837,-0.6228151321411133,-0.3882878720760345,-0.1502785682678222,-0.0013619517,-0.0058560674,0.36357975
977,1053477504,-0.6234809160232544,-0.3884220421314239,-0.1500533521175384,0.0005244976,0.009511542,0.35150623
978,1053494171,-0.6229742765426636,-0.3876064717769623,-0.1503270715475082,0.015753016,-0.0020105515,0.3428793
979,1053510838,-0.6239904761314392,-0.388261467218399,-0.1501898169517517,0.002193874,-0.0012901657,0.3742571
980,1053527505,-0.6239317059516907,-0.3888785541057586,-0.151166170835495,-0.0067828656,0.006073951,0.3472681
981,1053544172,-0.6249609589576721,-0.3883617520332336,-0.1498539298772812,-0.0071468004,-0.0041585146,0.33756256
982,1053560839,-0.6248693466186523,-0.3894869089126587,-0.1504796147346496,0.006812224,0.0066951,0.32782936
983,1053577506,-0.6256833076477051,-0.3898693025112152,-0.1506006270647049,0.006435378,0.009147302,0.37012482
984,1053594173,-0.6256945133209229,-0.388883501291275,-0.1523532718420028,0.005945333,-0.008910152,0.36003208
985,1053610840,-0.6252774596214294,-0.3893196284770965,-0.1516327261924743,-0.0013727503,-0.011358017,0.36181068
986,1053627507,-0.6253787875175476,-0.3900704383850097,-0.1517495363950729,-0.005555334,-0.005299688,0.3393526
987,1053644174,-0.6259080767631531,-0.3894041776657104,-0.150844395160675,-0.001255406,-0.00940026,0.33436012
988,1053660841,-0.6255792379379272,-0.3899334371089935,-0.1508659422397613,0.018045297,-0.008924725,0.33415318
989,1053677508,-0.6261039972305298,-0.3900984227657318,-0.1508196145296096,0.02172025,-0.008692611,0.34690762
990,1053694175,-0.6269142031669617,-0.3894903659820556,-0.1495120078325271,0.005481107,0.011628468,0.34611034
991,1053710842,-0.6272727847099304,-0.3884394466876983,-0.1500983387231826,-0.0062932274,0.007762577,0.3637905
992,1053727509,-0.6273214817047119,-0.3890721797943115,-0.1507315039634704,0.0014093295,0.0004877821,0.31735992
993,1053744176,-0.6264010071754456,-0.3892538845539093,-0.1512579321861267,0.0020616695,-0.014557888,0.34226894
994,1053760843,-0.6268720626831055,-0.3888386487960815,-0.1508466154336929,-0.004575474,-0.006359541,0.34122753
995,1053777510,-0.6267950534820557,-0.3866534531116485,-0.1511136889457702,-0.011816819,-0.015902545,0.34348106
996,1053794177,-0.6263900399208069,-0.3860087692737579,-0.1506211012601852,0.0053760805,-0.0034176912,0.35254097
997,1053810844,-0.6255356669425964,-0.3851599097251892,-0.1497763991355896,-0.00029134215,-0.0022631804,0.32100773
998,1053827511,-0.6260209679603577,-0.3844240605831146,-0.1499041020870208,0.0015607455,-0.0038797623,0.3507023
999,1053844178,-0.6267510652542114,-0.3843260407447815,-0.1504332274198532,-0.0064958646,0.0014328647,0.33803558
1000,1053860845,-0.6282260417938232,-0.3840164840221405,-0.1501663029193878,-0.005351499,-0.0077968724,0.33965778
1001,1053877512,-0.6276932954788208,-0.3857934474945068,-0.1503554135560989,0.0017488142,-0.012431945,0.33943272
1002,1053894179,-0.6274315118789673,-0.3861388862133026,-0.1504590958356857,-0.010804899,-0.0012784033,0.34972
1003,1053910846,-0.6269433498382568,-0.38616544008255,-0.1511574685573578,-0.005544997,0.0015806487,0.34462166
1004,1053927513,-0.6265943646430969,-0.3861615359783172,-0.1523424535989761,0.009376861,-0.0017520308,0.34450626
1005,1053944180,-0.6259042024612427,-0.3863478302955627,-0.1531898081302642,0.012585379,0.017094675,0.35610867
1006,1053960847,-0.6250947713851929,-0.3862879574298858,-0.1536902338266372,0.00033963143,0.0070040193,0.36377907
1007,1053977514,-0.6259282827377319,-0.3868373930454254,-0.1539981365203857,-0.01880962,0.010509554,0.35055733
1008,1053994181,-0.6253349781036377,-0.3865554630756378,-0.154877096414566,-0.0028084612,0.005391415,0.3705082
1009,1054010848,-0.6252177953720093,-0.3873913288116455,-0.1556207984685897,0.017552266,-0.0058706515,0.34046173
1010,1054027515,-0.6250752210617065,-0.3880532085895538,-0.1554780453443527,0.021402026,-0.01658569,0.34204006
1011,1054044182,-0.6250693798065186,-0.3879269659519195,-0.1544568985700607,0.011076258,-0.0089141335,0.34696484
1012,1054060849,-0.624610185623169,-0.3890658915042877,-0.1554082334041595,0.002131912,-0.0061931107,0.346035
1013,1054077516,-0.6254029273986816,-0.3900776207447052,-0.1556085646152496,0.00050157006,0.0138251595,0.3574543
1014,1054094183,-0.6261627078056335,-0.3906397521495819,-0.1550272852182388,0.00148736,-0.008186403,0.35871792
1015,1054110850,-0.6248644590377808,-0.390383780002594,-0.1561115533113479,0.011748808,0.001147767,0.34762383
1016,1054127517,-0.624199390411377,-0.3899091780185699,-0.1567536741495132,-0.0033548037,-0.0071154893,0.34113216
1017,1054144184,-0.6246245503425598,-0.390365332365036,-0.1569635272026062,0.008569983,0.0050278436,0.32819748
1018,1054160851,-0.6248892545700073,-0.3908948898315429,-0.1577847599983215,-0.0139919985,0.0014096124,0.36413288
1019,1054177518,-0.6246234178543091,-0.3895935714244842,-0.1578620672225952,0.0016620109,0.010699317,0.30105782
1020,1054194185,-0.6239989399909973,-0.3904558420181274,-0.1577808111906051,-0.0045060525,-0.0030094972,0.3496647
1021,1054210852,-0.6242797374725342,-0.3896253108978271,-0.1598274409770965,0.009051108,-0.01972298,0.3425913
1022,1054227519,-0.6235178709030151,-0.3914111852645874,-0.1591462194919586,0.025116863,-0.027756108,0.33336258
1023,1054244186,-0.6229773759841919,-0.3906274139881134,-0.1574601083993911,-0.0040442296,-0.0056187944,0.3505106
1024,1054260853,-0.6224807500839233,-0.39006307721138,-0.1574676185846328,0.0063344724,0.0168244,0.34536266
1025,1054277520,-0.6211910247802734,-0.3893804252147674,-0.1579273641109466,0.0051113153,0.00045545306,0.35450172
1026,1054294187,-0.6212641000747681,-0.3880185484886169,-0.1573721915483474,0.023213835,-0.009389213,0.35107613
1027,1054310854,-0.6221722960472107,-0.3874679505825043,-0.1567976176738739,0.002790657,0.022295194,0.35880947
1028,1054327521,-0.6226569414138794,-0.3879238665103912,-0.1576714068651199,0.004112066,0.011136086,0.34722996
1029,1054344188,-0.6214600801467896,-0.3877918124198913,-0.1558255851268768,0.01997323,-0.016190965,0.34117126
1030,1054360855,-0.6212844252586365,-0.387572169303894,-0.1561274230480194,0.0032255957,-0.0037929765,0.32423973
1031,1054377522,-0.6207449436187744,-0.3877308666706085,-0.1560100317001342,0.0016320043,0.015830096,0.35828876
1032,1054394189,-0.6212590336799622,-0.3871384263038635,-0.1564079076051712,-0.006924608,0.022090364,0.35383034
1033,1054410856,-0.6212495565414429,-0.3881891965866089,-0.1566545516252517,0.0011241374,-0.0022485508,0.32693672
1034,1054427523,-0.6214130520820618,-0.3892342448234558,-0.1566049456596374,0.010983273,-0.018511262,0.34475613
1035,1054444190,-0.6222600936889648,-0.3903465569019317,-0.1564439982175827,0.021421293,-0.021472152,0.32964897
1036,1054460857,-0.621895968914032,-0.3890652954578399,-0.1573486328125,0.018194817,-0.0076452503,0.34205437
1037,1054477524,-0.6216449737548828,-0.3886091113090515,-0.1570277512073516,0.0031808547,-0.012540118,0.33202553
1038,1054494191,-0.6211961507797241,-0.3874062299728393,-0.1556868702173233,-0.006345835,0.008534783,0.33654308
1039,1054510858,-0.6205123662948608,-0.3877466320991516,-0.1549482494592666,-0.017245458,0.023751384,0.35285282
1040,1054527525,-0.6211827397346497,-0.3881142735481262,-0.1559327542781829,-0.0065188813,-0.0023484752,0.3517189
1041,1054544192,-0.6208978295326233,-0.3889035582542419,-0.1565024405717849,0.035254393,-0.01944394,0.3571024
1042,1054560859,-0.6215183734893799,-0.3906357884407043,-0.1563090831041336,0.037973337,-0.051544666,0.34976006
1043,1054577526,-0.6207231283187866,-0.3907738029956817,-0.1545685678720474,0.016335996,-0.01808001,0.34125614
1044,1054594193,-0.6208134889602661,-0.3908019661903381,-0.1543382108211517,-0.026980508,0.02274493,0.34873676
1045,1054610860,-0.6205785870552063,-0.391113132238388,-0.1536786705255508,-0.00480922,0.005589046,0.33515358
1046,1054627527,-0.6200392842292786,-0.3915900290012359,-0.1537373512983322,0.018521953,-0.0047938707,0.33826447
1047,1054644194,-0.6199936270713806,-0.3906345069408417,-0.1523418575525283,0.007930651,-0.01985652,0.34849834
1048,1054660861,-0.6203521490097046,-0.390202134847641,-0.1523355990648269,0.006626265,0.008714868,0.34717846
1049,1054677528,-0.6207283735275269,-0.3894315063953399,-0.1511611342430114,-0.0044352375,-0.0055278596,0.31823826
1050,1054694195,-0.6202071905136108,-0.3894447684288025,-0.1506426185369491,0.008282049,-0.011260254,0.3361349
1051,1054710862,-0.6209009885787964,-0.3913415968418121,-0.1514886915683746,-0.0047972375,0.018862842,0.33699036
1052,1054727529,-0.6194119453430176,-0.3903750777244568,-0.1516109257936477,-0.0049181967,-0.007027527,0.33479786
1053,1054744196,-0.6183240413665771,-0.3905448019504547,-0.1527886539697647,0.003919118,-0.02019856,0.34430504
1054,1054760863,-0.6191477179527283,-0.3905077874660492,-0.1525215953588485,0.016559726,-0.024532463,0.3524971
1055,1054777530,-0.6183972954750061,-0.391415536403656,-0.1532375067472458,0.004113864,0.0021188748,0.36297226
1056,1054794197,-0.6185060739517212,-0.3897872269153595,-0.1534546464681625,-0.010467711,0.0068457094,0.3376913
1057,1054810864,-0.6184176802635193,-0.3893955647945404,-0.153592512011528,-0.0019351332,0.024290452,0.3475809
1058,1054827531,-0.619337260723114,-0.3887950181961059,-0.153631180524826,0.012906099,-0.01207322,0.33771706
1059,1054844198,-0.6190035343170166,-0.386683315038681,-0.1533105969429016,0.0019556999,-0.008180232,0.34184456
1060,1054860865,-0.618873655796051,-0.3868259191513061,-0.1550444960594177,-0.0099609615,0.0068221497,0.32900524
1061,1054877532,-0.619558572769165,-0.3866965770721435,-0.1560176908969879,-0.0052226316,-0.00422904,0.3081503
1062,1054894199,-0.618934154510498,-0.3866302371025085,-0.1558806747198104,0.0052299867,-0.0016899046,0.32807732
1063,1054910866,-0.6193898916244507,-0.3868190050125122,-0.1558577567338943,0.004297571,-0.0053622434,0.3388033
1064,1054927533,-0.6194007396697998,-0.3872961401939392,-0.1553554534912109,-0.00028890796,-0.010072563,0.32748318
1065,1054944200,-0.6190277338027954,-0.3863908052444458,-0.1567043364048004,-0.0052511524,0.0050218054,0.34407234
1066,1054960867,-0.6201823353767395,-0.3864222466945648,-0.1562979221343994,-0.01246547,0.011873881,0.33204365
1067,1054977534,-0.6199744343757629,-0.3866561949253082,-0.1553512811660766,-0.00074231793,-0.002009427,0.34101677
1068,1054994201,-0.6193231344223022,-0.3869374096393585,-0.153645172715187,-0.0006145768,-0.007091783,0.33288574
1069,1055010868,-0.6181269884109497,-0.3855219185352325,-0.1539056003093719,0.006010791,0.018041523,0.3807974
1070,1055027535,-0.6173446178436279,-0.3866841495037079,-0.154425635933876,0.021272762,-0.0077037513,0.3306265
1071,1055044202,-0.6181827187538147,-0.3852969110012054,-0.1533001661300659,0.012585675,-0.045286186,0.35309887
1072,1055060869,-0.6183646321296692,-0.3855584561824798,-0.1529287993907928,0.01938165,-0.010300504,0.32853603
1073,1055077536,-0.6183115839958191,-0.3836450278759002,-0.1504763215780258,-0.019195711,0.024472611,0.3269434
1074,1055094203,-0.6185352206230164,-0.3817010223865509,-0.1505811363458633,-0.012119868,0.012582749,0.36694527
1075,1055110870,-0.6193694472312927,-0.3810001015663147,-0.150460198521614,0.0010280374,0.0011437612,0.3577814
1076,1055127537,-0.6195007562637329,-0.3809606432914734,-0.1510676443576812,0.0047162073,-0.014596971,0.33465385
1077,1055144204,-0.6206321120262146,-0.3794424533843994,-0.1506752222776413,0.0236743,-0.0024676214,0.34370422
1078,1055160871,-0.6192850470542908,-0.3787030875682831,-0.1491601318120956,-0.00034062326,-0.010300682,0.34291458
1079,1055177538,-0.6193000674247742,-0.3786013126373291,-0.1477182954549789,-9.976361e-05,0.010060108,0.3316555
1080,1055194205,-0.620058000087738,-0.385648101568222,-0.1433206647634506,0.00049784366,0.0125628,0.33336163
1081,1055210872,-0.6203522682189941,-0.3860674500465393,-0.1431440114974975,0.03665851,-0.024776129,0.35733986
1082,1055227539,-0.6207003593444824,-0.3853981494903564,-0.1414894163608551,0.020452833,-0.024981502,0.34157944
