sep=,
DeviceTag:,Movella DOT,,,,,,,,,,,,,,,,,
FirmwareVersion:,3.0.0,,,,,,,,,,,,,,,,,
AppVersion:,2023.6.1,,,,,,,,,,,,,,,,,
SyncStatus:,Un-synced,,,,,,,,,,,,,,,,,
OutputRate:,60Hz,,,,,,,,,,,,,,,,,
FilterProfile:,Dynamic,,,,,,,,,,,,,,,,,
Measurement Mode:,Sensor fusion Mode - Complete (Euler),,,,,,,,,,,,,,,,,
StartTime:,2024-11-04 13:07:35.372 +0700,,,,,,,,,,,,,,,,,
 2024,,,,,,,,,,,,,,,,,,,

PacketCounter,SampleTimeFine,Euler_X,Euler_Y,Euler_Z,FreeAcc_X,FreeAcc_Y,FreeAcc_Z
1, 21889780, -0.4552190899848938, -0.10979027301073074, 3.6642982959747314, 0.0076090395, -0.009199147, 0.30936813
2, 21906447, -0.46735820174217224, -0.13786494731903076, 3.630319833755493, 0.005599302, 0.0096624335, 0.35077572
3, 21923114, -0.4641009569168091, -0.1676480919122696, 3.543471336364746, 0.0025983031, 0.0029938966, 0.34219837
4, 21939781, -0.46302664279937744, -0.1944114863872528, 3.5568807125091553, -0.010430172, -0.016441511, 0.36191463
5, 21956448, -0.4733729362487793, -0.2128324657678604, 3.4886858463287354, -0.005046974, -0.0107996045, 0.33241844
6, 21973115, -0.4838596284389496, -0.22927021980285645, 3.4703447818756104, 7.947108E-5, 0.0044099945, 0.33877182
7, 21989782, -0.4916175305843353, -0.24794453382492065, 3.4629065990448, -0.008676254, 0.0034195737, 0.327281
8, 22006449, -0.49475210905075073, -0.2662900984287262, 3.4795966148376465, -9.769436E-4, 0.0158307, 0.37522602
9, 22023116, -0.49624207615852356, -0.28519633412361145, 3.4856855869293213, -0.0177393, 0.0075478614, 0.3593788
10, 22039783, -0.4968273937702179, -0.30227234959602356, 3.5133087635040283, -0.032154426, -0.0011206032, 0.34834766
11, 22056450, -0.4994555711746216, -0.3172755241394043, 3.532317876815796, -0.02927758, 0.010118023, 0.33702183
12, 22073117, -0.5011521577835083, -0.3316463232040405, 3.5054354667663574, -0.019613007, 0.014326083, 0.35034752
13, 22089784, -0.5025125741958618, -0.34716567397117615, 3.513082265853882, -0.02713426, 2.2341516E-4, 0.36779976
14, 22106451, -0.5042192339897156, -0.3619246184825897, 3.513317346572876, -0.037629504, -0.005234562, 0.3516302
15, 22123118, -0.5079361200332642, -0.3759724795818329, 3.526512384414673, -0.037822906, 0.006631525, 0.3620968
16, 22139785, -0.5106676816940308, -0.39085447788238525, 3.547679901123047, -0.04587149, 0.0035371275, 0.36174297
17, 22156452, -0.5146530866622925, -0.40402889251708984, 3.549708366394043, -0.03580452, 6.0937315E-4, 0.3578596
18, 22173119, -0.516684889793396, -0.41842228174209595, 3.554969549179077, -0.04526562, -7.3792454E-4, 0.3657894
19, 22189786, -0.5192741751670837, -0.4331328570842743, 3.571110486984253, -0.036354877, 0.006049148, 0.35174847
20, 22206453, -0.5232378244400024, -0.4492190480232239, 3.584688186645508, -0.058941357, -0.003990862, 0.34782696
21, 22223120, -0.526310920715332, -0.4626505672931671, 3.5907952785491943, -0.064711496, 0.0044587515, 0.34863567
22, 22239787, -0.5292221903800964, -0.477012038230896, 3.606274127960205, -0.05688829, 0.017515713, 0.35032654
23, 22256454, -0.5322953462600708, -0.4911934435367584, 3.6162197589874268, -0.053261075, 0.0029489286, 0.3380375
24, 22273121, -0.5358797907829285, -0.5058876276016235, 3.6291770935058594, -0.058122873, 0.012077131, 0.32822514
25, 22289788, -0.5392913818359375, -0.5218372344970703, 3.630232334136963, -0.05943098, 0.003949086, 0.3513651
26, 22306455, -0.5432391166687012, -0.5369775891304016, 3.6272361278533936, -0.07536578, 0.009198798, 0.34678936
27, 22323122, -0.5468567609786987, -0.5515677332878113, 3.6266939640045166, -0.06644917, 0.020472137, 0.34060574
28, 22339789, -0.5493944883346558, -0.5657369494438171, 3.627521514892578, -0.07152523, 0.01545649, 0.34880733
29, 22356456, -0.5522412657737732, -0.580105721950531, 3.625828981399536, -0.05777978, 0.023391476, 0.3501711
30, 22373123, -0.5554393529891968, -0.592835545539856, 3.6361758708953857, -0.07647927, 9.982333E-4, 0.3362322
31, 22389790, -0.5595270991325378, -0.607308030128479, 3.628390312194824, -0.07410544, 0.010143224, 0.35285282
32, 22406457, -0.5631763935089111, -0.621823787689209, 3.637573003768921, -0.06001994, 0.0027219339, 0.34082317
33, 22423124, -0.5676830410957336, -0.6358353495597839, 3.6417396068573, -0.07840622, 0.0111770695, 0.3454361
34, 22439791, -0.571131706237793, -0.6500131487846375, 3.6386518478393555, -0.06508252, 0.014653915, 0.3516302
35, 22456458, -0.5736442804336548, -0.6648104190826416, 3.641639232635498, -0.08376165, 0.011637422, 0.3516798
36, 22473125, -0.5770577192306519, -0.6782144904136658, 3.642949342727661, -0.088333845, 0.013913535, 0.3536501
37, 22489792, -0.5803181529045105, -0.6922329068183899, 3.6425962448120117, -0.080641374, 0.01451102, 0.36881828
38, 22506459, -0.5831599235534668, -0.7075276970863342, 3.648768186569214, -0.093675055, 0.0059524155, 0.3472376
39, 22523126, -0.5868997573852539, -0.721409261226654, 3.6571013927459717, -0.08989667, 0.021885855, 0.342453
40, 22539793, -0.5898658633232117, -0.7372333407402039, 3.6695985794067383, -0.09098048, 0.017861564, 0.36296272
41, 22556460, -0.5942275524139404, -0.7517281770706177, 3.686736822128296, -0.10184823, 0.01790549, 0.32731724
42, 22573127, -0.5978009104728699, -0.7677907943725586, 3.6836183071136475, -0.11452821, 0.01890031, 0.35059452
43, 22589794, -0.601604700088501, -0.7835696339607239, 3.6936757564544678, -0.11688184, 0.021844959, 0.33993626
44, 22606461, -0.6049299836158752, -0.7985096573829651, 3.686387538909912, -0.097566366, 0.020567061, 0.32256985
45, 22623128, -0.6077724099159241, -0.8130567669868469, 3.7008564472198486, -0.11027903, 0.037952352, 0.36017323
46, 22639795, -0.6110497713088989, -0.8287558555603027, 3.7053580284118652, -0.1191333, 0.028208219, 0.36536217
47, 22656462, -0.6153994202613831, -0.8418927192687988, 3.706477403640747, -0.12313104, 0.024857739, 0.35790348
48, 22673129, -0.6182012557983398, -0.8565599322319031, 3.692326545715332, -0.12304433, 0.01506763, 0.33414364
49, 22689796, -0.6213253140449524, -0.8706313371658325, 3.699753761291504, -0.11013964, 0.026781427, 0.36187267
50, 22706463, -0.6236170530319214, -0.8853458166122437, 3.712566375732422, -0.1204183, 0.035034273, 0.34003925
51, 22723130, -0.6268448233604431, -0.8984764814376831, 3.714200019836426, -0.12343693, 0.029552618, 0.34085464
52, 22739797, -0.6291897892951965, -0.9111719131469727, 3.727191686630249, -0.12622996, 0.021774024, 0.34860134
53, 22756464, -0.632313072681427, -0.9247344136238098, 3.7365877628326416, -0.1405909, 0.01081559, 0.37185955
54, 22773131, -0.6356633901596069, -0.9388455748558044, 3.7379307746887207, -0.13247739, 0.025940211, 0.34358025
55, 22789798, -0.6381216645240784, -0.9526734352111816, 3.7277605533599854, -0.13435788, 0.041893557, 0.34338665
56, 22806465, -0.6408388614654541, -0.967998743057251, 3.7343547344207764, -0.14018215, 0.013815957, 0.35345078
57, 22823132, -0.6441026926040649, -0.983526349067688, 3.7305281162261963, -0.1261089, 0.009382707, 0.3543167
58, 22839799, -0.6472027897834778, -0.9969969391822815, 3.7297542095184326, -0.1579959, 0.014091462, 0.36990356
59, 22856466, -0.6508631110191345, -1.011784553527832, 3.72883677482605, -0.14389719, 0.014065793, 0.33733368
60, 22873133, -0.6544385552406311, -1.0248770713806152, 3.7397425174713135, -0.1363974, 0.017814849, 0.33894157
61, 22889800, -0.6571205854415894, -1.0392800569534302, 3.7331769466400146, -0.14326009, 0.022333642, 0.34170532
62, 22906467, -0.6593104004859924, -1.0552856922149658, 3.735248565673828, -0.16024947, 0.012033023, 0.34680653
63, 22923134, -0.662047803401947, -1.0687965154647827, 3.7458431720733643, -0.15789254, 0.026827618, 0.3411312
64, 22939801, -0.6651108860969543, -1.0830715894699097, 3.74692440032959, -0.1651884, 0.031076165, 0.3551712
65, 22956468, -0.6689480543136597, -1.0960612297058105, 3.7540509700775146, -0.1582825, 0.039881, 0.36730194
66, 22973135, -0.6723498106002808, -1.1087257862091064, 3.7494938373565674, -0.16855496, 0.029128248, 0.33464146
67, 22989802, -0.6757596731185913, -1.1216564178466797, 3.7564167976379395, -0.16580553, 0.039174285, 0.37614822
68, 23006469, -0.6784365177154541, -1.1354286670684814, 3.7648024559020996, -0.16721559, 0.014930309, 0.34824944
69, 23023136, -0.6809558272361755, -1.1491230726242065, 3.762274742126465, -0.1719194, 0.025203617, 0.3645153
70, 23039803, -0.6852072477340698, -1.1632051467895508, 3.7573418617248535, -0.1647899, 0.022631172, 0.34645367
71, 23056470, -0.6884984374046326, -1.1763581037521362, 3.7610082626342773, -0.15869892, 0.016361557, 0.3569355
72, 23073137, -0.6925643086433411, -1.1887422800064087, 3.765993356704712, -0.16336584, 0.026666524, 0.35818386
73, 23089804, -0.6964992880821228, -1.2021112442016602, 3.769890069961548, -0.20536385, 0.031178541, 0.3664732
74, 23106471, -0.6989229917526245, -1.2137144804000854, 3.7746164798736572, -0.20096603, 0.024745231, 0.35309505
75, 23123138, -0.7012647986412048, -1.2268974781036377, 3.77176570892334, -0.17128798, 0.028815895, 0.37209415
76, 23139805, -0.7042502760887146, -1.23932945728302, 3.7559800148010254, -0.17429951, 0.036798634, 0.3474636
77, 23156472, -0.7073192000389099, -1.2516528367996216, 3.7565367221832275, -0.18519068, 0.030487789, 0.34626865
78, 23173139, -0.7094953656196594, -1.2648389339447021, 3.7595133781433105, -0.19651933, 0.014594781, 0.34306622
79, 23189806, -0.7128413915634155, -1.2761627435684204, 3.7626304626464844, -0.20455542, 0.026477946, 0.34209728
80, 23206473, -0.7163153886795044, -1.2887864112854004, 3.7670085430145264, -0.18935089, 0.033501927, 0.33925247
81, 23223140, -0.7201641798019409, -1.3003464937210083, 3.7720718383789062, -0.19737156, 0.042329423, 0.37392235
82, 23239807, -0.7226781249046326, -1.3132086992263794, 3.7727084159851074, -0.18619767, 0.04255744, 0.35020542
83, 23256474, -0.7244893312454224, -1.325223684310913, 3.778233051300049, -0.19542657, 0.017771361, 0.35108852
84, 23273141, -0.7273844480514526, -1.3372970819473267, 3.7725727558135986, -0.21542624, 0.037762716, 0.35597992
85, 23289808, -0.7304478287696838, -1.348853349685669, 3.775317907333374, -0.21438342, 0.034146775, 0.33097172
86, 23306475, -0.7327583432197571, -1.360619068145752, 3.765209674835205, -0.20830418, 0.046708137, 0.33730698
87, 23323142, -0.7351062893867493, -1.3722264766693115, 3.7589430809020996, -0.22395226, 0.04210799, 0.36204052
88, 23339809, -0.736027181148529, -1.3830711841583252, 3.764965057373047, -0.22520101, 0.023908207, 0.33871555
89, 23356476, -0.7387787699699402, -1.3947937488555908, 3.7614710330963135, -0.2268188, 0.051442955, 0.33965874
90, 23373143, -0.7407941222190857, -1.4061872959136963, 3.7577455043792725, -0.21372977, 0.03998727, 0.34572124
91, 23389810, -0.7436786890029907, -1.416929006576538, 3.7563676834106445, -0.20679986, 0.028552858, 0.35440826
92, 23406477, -0.7470737099647522, -1.4274383783340454, 3.7564218044281006, -0.21506983, 0.044491176, 0.37021828
93, 23423144, -0.7476181387901306, -1.4376335144042969, 3.7588422298431396, -0.23041604, 0.039406836, 0.34055424
94, 23439811, -0.7492876052856445, -1.44658625125885, 3.757931709289551, -0.23560145, 0.038742315, 0.3399992
95, 23456478, -0.7518668174743652, -1.45701003074646, 3.7607243061065674, -0.22658028, 0.03727399, 0.3406067
96, 23473145, -0.7546678185462952, -1.4670571088790894, 3.763795852661133, -0.22904994, 0.03914279, 0.34344006
97, 23489812, -0.7571543455123901, -1.4756710529327393, 3.7665607929229736, -0.22667357, 0.036418125, 0.35746193
98, 23506479, -0.7576603293418884, -1.4861599206924438, 3.7580487728118896, -0.21914968, 0.0317052, 0.35055256
99, 23523146, -0.7602522969245911, -1.4959490299224854, 3.7609975337982178, -0.23740569, 0.030289073, 0.3524351
100, 23539813, -0.7635098695755005, -1.5047754049301147, 3.7643449306488037, -0.23984745, 0.029300628, 0.34283447
101, 23556480, -0.7665630578994751, -1.5150011777877808, 3.7617506980895996, -0.24100175, 0.040130768, 0.34587765
102, 23573147, -0.76839679479599, -1.5249416828155518, 3.7666471004486084, -0.23269168, 0.03226447, 0.35436535
103, 23589814, -0.7703235745429993, -1.5340986251831055, 3.766453266143799, -0.23377451, 0.035257146, 0.34387684
104, 23606481, -0.7730603218078613, -1.5417155027389526, 3.7711997032165527, -0.24595834, 0.034621295, 0.36950207
105, 23623148, -0.7757672667503357, -1.5507233142852783, 3.7737603187561035, -0.23650199, 0.03895781, 0.3679657
106, 23639815, -0.7770510911941528, -1.5581005811691284, 3.770090341567993, -0.2663732, 0.037812628, 0.3421316
107, 23656482, -0.7801010608673096, -1.566296100616455, 3.7639644145965576, -0.23906672, 0.036975708, 0.36127567
108, 23673149, -0.7826970219612122, -1.572737693786621, 3.764695405960083, -0.25329116, 0.04332653, 0.34864712
109, 23689816, -0.7839769124984741, -1.5827890634536743, 3.765939235687256, -0.23010218, 0.042994983, 0.36778545
110, 23706483, -0.785835862159729, -1.591499924659729, 3.7700603008270264, -0.24697044, 0.042976066, 0.35260773
111, 23723150, -0.7877885699272156, -1.5967869758605957, 3.760178804397583, -0.26761833, 0.040541057, 0.3443451
112, 23739817, -0.7891581058502197, -1.6033252477645874, 3.7544891834259033, -0.2380736, 0.031581264, 0.32053947
113, 23756484, -0.7920839190483093, -1.611101508140564, 3.7508351802825928, -0.25065464, 0.029554294, 0.3580265
114, 23773151, -0.7917569279670715, -1.6190531253814697, 3.753720998764038, -0.25387558, 0.04140737, 0.3528595
115, 23789818, -0.7936072945594788, -1.625551462173462, 3.7520999908447266, -0.2624887, 0.04022133, 0.34467888
116, 23806485, -0.7967947125434875, -1.633394718170166, 3.7547309398651123, -0.25077114, 0.04704571, 0.34021854
117, 23823152, -0.7991846799850464, -1.640736699104309, 3.7550480365753174, -0.24771695, 0.03896486, 0.34930325
118, 23839819, -0.8010236024856567, -1.6481890678405762, 3.7546677589416504, -0.2636098, 0.033887442, 0.3784876
119, 23856486, -0.801983118057251, -1.6548067331314087, 3.7582287788391113, -0.2614593, 0.023144225, 0.33880615
120, 23873153, -0.470456063747406, -0.14987099170684814, 3.379690408706665, 0.0062234886, -0.007109853, 0.34041977
121, 23889820, -0.4717552363872528, -0.14972059428691864, 3.3823795318603516, -0.0021783388, -0.0077910293, 0.35570621
122, 23906487, -0.47212380170822144, -0.15078753232955933, 3.3840713500976562, 0.0017690588, -0.0034237853, 0.3605852
123, 23923154, -0.47269177436828613, -0.1513485163450241, 3.3825387954711914, 0.006434823, -0.0032686675, 0.37399292
124, 23939821, -0.4723018705844879, -0.1511984020471573, 3.3846583366394043, 0.0151401935, 0.004792177, 0.35359287
125, 23956488, -0.47187909483909607, -0.15139605104923248, 3.38457989692688, 0.008581149, -0.0068175048, 0.39486122
126, 23973155, -0.471784383058548, -0.14973227679729462, 3.3851840496063232, -0.0049739885, -0.013091248, 0.37895966
127, 23989822, -0.471407026052475, -0.15009620785713196, 3.3857550621032715, -0.0042087776, 0.004756939, 0.36191273
128, 24006489, -0.4701502025127411, -0.15011146664619446, 3.38671875, 0.0046674795, -0.0033017823, 0.34881496
129, 24023156, -0.47053369879722595, -0.150382861495018, 3.3867881298065186, 0.0013904313, 0.011367858, 0.34404564
130, 24039823, -0.4696637690067291, -0.1486838161945343, 3.38714861869812, 0.007844031, 0.002115449, 0.34797955
131, 24056490, -0.4699934422969818, -0.15014804899692535, 3.38655948638916, 0.0025986673, 4.244057E-4, 0.37711143
132, 24073157, -0.4703080952167511, -0.14939431846141815, 3.385603904724121, 0.008961874, 0.005740759, 0.35813427
133, 24089824, -0.4708510935306549, -0.1490248590707779, 3.3871262073516846, 0.0051770178, 0.0027411664, 0.34057522
134, 24106491, -0.47083091735839844, -0.1491987258195877, 3.3909151554107666, 0.0039685015, 0.00663515, 0.37927914
135, 24123158, -0.47025421261787415, -0.1503707319498062, 3.3916633129119873, -0.0024042442, 0.0032229102, 0.35795116
136, 24139825, -0.470664381980896, -0.1491827368736267, 3.3922934532165527, -0.015567535, -0.0072856597, 0.35936832
137, 24156492, -0.4702478051185608, -0.14774096012115479, 3.392911911010742, -0.004600297, 0.0033298575, 0.35287857
138, 24173159, -0.469664990901947, -0.14682364463806152, 3.393501043319702, 0.0045156726, 0.0128116505, 0.34876347
139, 24189826, -0.4692036509513855, -0.14761923253536224, 3.3954126834869385, 0.019525478, -0.0075273365, 0.3463621
140, 24206493, -0.46933427453041077, -0.14771661162376404, 3.3971710205078125, -0.001946935, 0.0046241023, 0.3528614
141, 24223160, -0.46878305077552795, -0.14841604232788086, 3.3971364498138428, 0.012481968, -0.00213026, 0.35209942
142, 24239827, -0.469527006149292, -0.14879350364208221, 3.398918390274048, -0.0021485987, 0.0012873997, 0.34013653
143, 24256494, -0.46941548585891724, -0.14868786931037903, 3.394646167755127, 0.019653969, 0.010638469, 0.35338783
144, 24273161, -0.4693991541862488, -0.14979144930839539, 3.3931431770324707, 0.0019186859, -5.717706E-4, 0.35344982
145, 24289828, -0.46996355056762695, -0.14784511923789978, 3.3929126262664795, 0.019228565, 0.006222835, 0.35341358
146, 24306495, -0.46955031156539917, -0.14721260964870453, 3.3910200595855713, 0.022540059, 0.012780734, 0.35115433
147, 24323162, -0.4686771333217621, -0.14675073325634003, 3.3905444145202637, -0.0037294019, -0.0048187296, 0.34274578
148, 24339829, -0.4684256315231323, -0.14696593582630157, 3.391428232192993, -0.001586371, 0.0034763354, 0.36028385
149, 24356496, -0.468586802482605, -0.14629234373569489, 3.3931899070739746, 0.008702012, -0.001830627, 0.3327589
150, 24373163, -0.46855443716049194, -0.14524854719638824, 3.3928143978118896, -0.0023465483, 0.006792992, 0.33352852
151, 24389830, -0.4674051105976105, -0.14516840875148773, 3.391730785369873, 0.006787473, 0.012528868, 0.364851
152, 24406497, -0.4678947627544403, -0.14575308561325073, 3.3906033039093018, -0.0034930632, -0.011526721, 0.3656044
153, 24423164, -0.4686991572380066, -0.1449708342552185, 3.390202522277832, -0.0047070817, 0.010064429, 0.34424114
154, 24439831, -0.4676382839679718, -0.14480940997600555, 3.3888299465179443, -0.0020502922, 0.0141241, 0.35714245
155, 24456498, -0.4673684537410736, -0.14415673911571503, 3.3897647857666016, 0.012760895, 0.011855646, 0.36322498
156, 24473165, -0.467751145362854, -0.14541800320148468, 3.389392137527466, 0.016449915, 3.0512313E-4, 0.35814762
157, 24489832, -0.46613672375679016, -0.1461823582649231, 3.3898134231567383, 0.0063107223, 0.0025544562, 0.33730602
158, 24506499, -0.46648719906806946, -0.14765526354312897, 3.3891868591308594, 0.012660125, -0.0068757194, 0.3578558
159, 24523166, -0.46561095118522644, -0.14692941308021545, 3.3873119354248047, 0.009995011, -0.002227586, 0.33944893
160, 24539833, -0.4675259292125702, -0.1458226591348648, 3.387981414794922, 0.012384984, -0.010225694, 0.33652878
161, 24556500, -0.46712732315063477, -0.14516127109527588, 3.387746810913086, 0.001022701, 0.0025758296, 0.36148453
162, 24573167, -0.46569180488586426, -0.14505410194396973, 3.3898353576660156, 0.009747324, -0.0036539375, 0.3565302
163, 24589834, -0.465989351272583, -0.14626511931419373, 3.3914268016815186, 0.0013718675, -0.008735264, 0.35399818
164, 24606501, -0.46584591269493103, -0.14679192006587982, 3.3919317722320557, -0.010560531, 0.010844478, 0.34811878
165, 24623168, -0.4668428599834442, -0.1463041454553604, 3.390925884246826, 0.005965398, -0.0017302976, 0.36353016
166, 24639835, -0.46680310368537903, -0.14461900293827057, 3.391352415084839, 0.017453935, 0.015246902, 0.3544426
167, 24656502, -0.4660823941230774, -0.1454007625579834, 3.390657424926758, 0.0030785103, -0.0029424503, 0.34023952
168, 24673169, -0.46605679392814636, -0.14498566091060638, 3.391213893890381, -0.008786706, -0.0067263814, 0.382308
169, 24689836, -0.4662953019142151, -0.14502598345279694, 3.3931713104248047, -9.699327E-5, -0.0036750524, 0.35512733
170, 24706503, -0.46704787015914917, -0.14419636130332947, 3.393728733062744, -3.843375E-4, -0.006037462, 0.35839748
171, 24723170, -0.4669346213340759, -0.1445048600435257, 3.3924484252929688, 0.009068167, -0.004895042, 0.3566532
172, 24739837, -0.46610796451568604, -0.1446024477481842, 3.393113136291504, 0.00841301, -3.6604438E-4, 0.3503275
173, 24756504, -0.4663790464401245, -0.1445227563381195, 3.3914430141448975, -0.005181681, -0.0023540035, 0.36833954
174, 24773171, -0.4666295647621155, -0.14458422362804413, 3.3906168937683105, 7.405604E-4, -0.0029299126, 0.35198975
175, 24789838, -0.4661681652069092, -0.14453254640102386, 3.3896381855010986, -0.0014398862, -0.012380096, 0.33344078
176, 24806505, -0.46602392196655273, -0.144222229719162, 3.391298770904541, -0.008991047, 0.0023629405, 0.3526783
177, 24823172, -0.46681270003318787, -0.14349883794784546, 3.3910253047943115, 0.008411936, 0.012213158, 0.35085964
178, 24839839, -0.46671947836875916, -0.14376777410507202, 3.3906986713409424, 0.009389502, -0.00829027, 0.353837
179, 24856506, -0.4676874577999115, -0.14444157481193542, 3.3916614055633545, -0.0012122199, 0.002948328, 0.3695631
180, 24873173, -0.4666620194911957, -0.14505165815353394, 3.3918001651763916, 0.0018220602, -0.002793821, 0.35332775
181, 24889840, -0.46639156341552734, -0.14412003755569458, 3.393195390701294, 0.008481185, 0.016508233, 0.33856297
182, 24906507, -0.46580421924591064, -0.14507073163986206, 3.3931825160980225, 0.007527129, 4.1241283E-4, 0.35813713
183, 24923174, -0.46646007895469666, -0.14580784738063812, 3.3933422565460205, 0.0051909313, 0.011421945, 0.3646698
184, 24939841, -0.4663752019405365, -0.1464376002550125, 3.3944709300994873, 0.0027778286, 0.0067886435, 0.36693668
185, 24956508, -0.46570712327957153, -0.14553727209568024, 3.3947722911834717, 0.0050157914, 0.0145490905, 0.36621666
186, 24973175, -0.465692400932312, -0.14380311965942383, 3.3948733806610107, -0.0016661948, -0.0071388604, 0.36061478
187, 24989842, -0.465610146522522, -0.14400698244571686, 3.393751859664917, 0.009698535, 0.0051118913, 0.3548975
188, 25006509, -0.4650496542453766, -0.14492957293987274, 3.394605875015259, -0.0014720703, 0.0067847287, 0.33947086
189, 25023176, -0.46460866928100586, -0.14426575601100922, 3.394573211669922, -9.0983656E-4, -0.0032100268, 0.37327576
190, 25039843, -0.46353116631507874, -0.14527198672294617, 3.3959603309631348, 0.0078090024, 0.0030594838, 0.37261295
191, 25056510, -0.4633268415927887, -0.14607012271881104, 3.3962719440460205, 0.0018219188, 0.0152057335, 0.3611269
192, 25073177, -0.4640187919139862, -0.14519384503364563, 3.394636631011963, 0.010428682, 0.004856011, 0.36728287
193, 25089844, -0.4640786349773407, -0.14532335102558136, 3.394932746887207, 0.014427388, 0.016691172, 0.35227776
194, 25106511, -0.464016318321228, -0.14511562883853912, 3.3925743103027344, 0.0013521259, 0.0012332153, 0.3623619
195, 25123178, -0.4635847508907318, -0.14538314938545227, 3.3929951190948486, 9.2943583E-4, 0.0026199594, 0.3911438
196, 25139845, -0.4638417661190033, -0.146727055311203, 3.3932366371154785, 0.0010718678, 0.004320827, 0.33583927
197, 25156512, -0.4641018211841583, -0.1469130963087082, 3.3936538696289062, 0.017318992, 0.014145124, 0.33125877
198, 25173179, -0.46434956789016724, -0.1469995230436325, 3.3946125507354736, 0.013814864, -0.002822616, 0.34054756
199, 25189846, -0.4632404148578644, -0.14715084433555603, 3.3966481685638428, 0.003133016, 0.002168596, 0.3637743
200, 25206513, -0.463442862033844, -0.14640381932258606, 3.400686025619507, -4.2355093E-4, -0.0044664387, 0.35580063
201, 25223180, -0.46313410997390747, -0.14751440286636353, 3.4016714096069336, -2.9218645E-4, -0.004810865, 0.36578846
202, 25239847, -0.46290919184684753, -0.1466754972934723, 3.401994228363037, 0.009335691, -0.008407321, 0.36036015
203, 25256514, -0.4639745354652405, -0.14710557460784912, 3.4027719497680664, 2.5146693E-4, 0.0065986402, 0.36358356
204, 25273181, -0.46311959624290466, -0.1472960263490677, 3.403186082839966, 0.009826819, 0.0036634402, 0.32955074
205, 25289848, -0.46382561326026917, -0.14793910086154938, 3.402069568634033, 0.0067736804, 0.00626906, 0.3664055
206, 25306515, -0.465214341878891, -0.14796486496925354, 3.403571128845215, -0.026415877, -0.01025972, 0.36731052
207, 25323182, -0.464828222990036, -0.14805440604686737, 3.4034039974212646, 5.0024904E-4, 0.0062965346, 0.3451023
208, 25339849, -0.46412843465805054, -0.14853312075138092, 3.4021334648132324, 0.021587666, -7.093463E-4, 0.3516283
209, 25356516, -0.4637208580970764, -0.148744136095047, 3.402682304382324, 0.010857038, 8.3783135E-4, 0.35673904
210, 25373183, -0.462989866733551, -0.14977653324604034, 3.4037117958068848, 0.009466478, -0.008426777, 0.3696947
211, 25389850, -0.4634327292442322, -0.14843882620334625, 3.403010129928589, -0.0124869505, -0.0010480557, 0.35337067
212, 25406517, -0.4632951617240906, -0.14794869720935822, 3.4020328521728516, -1.5639096E-4, -0.0030573045, 0.3491907
213, 25423184, -0.4636572599411011, -0.14878006279468536, 3.4013054370880127, 0.016161505, 0.009887539, 0.33077908
214, 25439851, -0.4631137251853943, -0.14836908876895905, 3.4021244049072266, 0.0080372365, 0.015595673, 0.34144306
215, 25456518, -0.46295759081840515, -0.1482146978378296, 3.402803421020508, 8.747092E-4, 4.0535122E-4, 0.3617239
216, 25473185, -0.4642081558704376, -0.1486191749572754, 3.403301954269409, -0.003931648, -0.0102274325, 0.35050106
217, 25489852, -0.4641258716583252, -0.14788250625133514, 3.4039552211761475, 0.0036000044, -3.2800526E-4, 0.35361862
218, 25506519, -0.4650181233882904, -0.14842945337295532, 3.403988838195801, -0.0014508759, 0.0014160139, 0.366724
219, 25523186, -0.4644613564014435, -0.14829550683498383, 3.4055349826812744, 0.006672857, 0.023868306, 0.37410355
220, 25539853, -0.4642314314842224, -0.14912903308868408, 3.404737949371338, 0.011307527, -0.0033618445, 0.3716154
221, 25556520, -0.46419674158096313, -0.1495693475008011, 3.4061782360076904, -0.011298403, -0.010002998, 0.33720112
222, 25573187, -0.4647520184516907, -0.1498863399028778, 3.4076004028320312, 0.0063897404, 0.0044202097, 0.3595791
223, 25589854, -0.46376892924308777, -0.14936640858650208, 3.407984733581543, -2.3096484E-4, 0.008363718, 0.33319187
224, 25606521, -0.46446284651756287, -0.14896300435066223, 3.4056594371795654, -0.0014027742, 0.010533048, 0.34807777
225, 25623188, -0.46423420310020447, -0.14838841557502747, 3.405797243118286, 0.017550087, -0.012330039, 0.37507725
226, 25639855, -0.46464982628822327, -0.14781822264194489, 3.405648946762085, -8.1288605E-4, -0.012489705, 0.36921978
227, 25656522, -0.4646442234516144, -0.1463797688484192, 3.4074044227600098, -0.002273978, 0.0071522747, 0.34411144
228, 25673189, -0.4638105034828186, -0.14707855880260468, 3.4076716899871826, -0.0074770106, 0.008703678, 0.37047958
229, 25689856, -0.46440389752388, -0.1464856117963791, 3.407553195953369, 0.00924324, 0.013092025, 0.35968685
230, 25706523, -0.46370235085487366, -0.146038219332695, 3.4085264205932617, 0.009284351, 0.017974121, 0.3550825
231, 25723190, -0.4641154706478119, -0.14550182223320007, 3.4092764854431152, 0.003508111, 0.0041747927, 0.3520813
232, 25739857, -0.4636359214782715, -0.1464536190032959, 3.4099833965301514, 1.1803667E-4, -0.004465768, 0.3543253
233, 25756524, -0.463906466960907, -0.1459968090057373, 3.4093191623687744, 0.010460343, 0.009913058, 0.34558487
234, 25773191, -0.4640200138092041, -0.14396052062511444, 3.4108903408050537, 0.014475784, 0.0037809731, 0.34396553
235, 25789858, -0.4641580581665039, -0.1442137509584427, 3.4103729724884033, 0.011693525, 0.019649483, 0.3602047
236, 25806525, -0.46337375044822693, -0.1434287279844284, 3.4102845191955566, 0.010662322, -0.0015802506, 0.36364365
237, 25823192, -0.4642968475818634, -0.14304684102535248, 3.410017728805542, 0.0156169515, -0.014518504, 0.34957504
238, 25839859, -0.4641662538051605, -0.14281804859638214, 3.411485195159912, 0.0049082274, 2.1591003E-4, 0.3909893
239, 25856526, -0.46430501341819763, -0.14270783960819244, 3.412724256515503, 0.01897638, 0.0043687318, 0.35147953
240, 25873193, -0.46803146600723267, -0.14999377727508545, 3.427058696746826, 0.00819548, 0.004363521, 0.36742496
241, 25889860, -0.4684136211872101, -0.15117789804935455, 3.4266586303710938, 0.0048691146, 0.0012320663, 0.3573637
242, 25906527, -0.468004047870636, -0.15227612853050232, 3.427084445953369, -0.009763006, -0.0065988917, 0.35245132
243, 25923194, -0.46789801120758057, -0.1534009575843811, 3.4267804622650146, -0.014143378, -0.0028374132, 0.34077072
244, 25939861, -0.4679509997367859, -0.15254326164722443, 3.4275310039520264, 0.010193389, 2.2709614E-4, 0.3516941
245, 25956528, -0.46829622983932495, -0.1516725867986679, 3.4259183406829834, 0.008368785, 0.013790515, 0.35984516
246, 25973195, -0.46913352608680725, -0.1506095826625824, 3.4273383617401123, 0.003908835, 0.009883062, 0.35233402
247, 25989862, -0.4689112603664398, -0.1510426104068756, 3.426237106323242, -0.00203824, 0.0043590264, 0.3523283
248, 26006529, -0.46928492188453674, -0.15098045766353607, 3.424870014190674, 0.008092362, -0.009341686, 0.35612965
249, 26023196, -0.468196302652359, -0.1512739211320877, 3.4239134788513184, 0.011520937, -0.0016869501, 0.3468542
250, 26039863, -0.46814677119255066, -0.15193423628807068, 3.4227912425994873, 0.023371872, 0.013026311, 0.35733318
251, 26056530, -0.4677335023880005, -0.15143989026546478, 3.421178102493286, 0.014163125, 0.0022314137, 0.35307884
252, 26073197, -0.466910183429718, -0.15126903355121613, 3.4208858013153076, 0.0017917585, -0.0058846734, 0.35725975
253, 26089864, -0.46586084365844727, -0.14978110790252686, 3.4214227199554443, -0.002407363, 0.009109333, 0.37128544
254, 26106531, -0.4654889702796936, -0.14968827366828918, 3.4218997955322266, -0.0027831197, 0.0036758732, 0.33913326
255, 26123198, -0.46568426489830017, -0.14948725700378418, 3.4224159717559814, 0.009834443, 0.005781959, 0.36323833
256, 26139865, -0.46579691767692566, -0.14972645044326782, 3.4232943058013916, 0.020739648, 0.010431856, 0.36504364
257, 26156532, -0.46544426679611206, -0.1495438665151596, 3.4246044158935547, 0.019623524, 0.007840671, 0.35654068
258, 26173199, -0.4664005935192108, -0.14860309660434723, 3.4235496520996094, -0.0064332974, -0.0067208773, 0.3707161
259, 26189866, -0.46679219603538513, -0.14733271300792694, 3.4230639934539795, -0.004878571, 0.01003395, 0.3584156
260, 26206533, -0.46697133779525757, -0.14916950464248657, 3.422295331954956, 0.009831622, 0.0030103528, 0.3464365
261, 26223200, -0.4678792655467987, -0.1504335254430771, 3.4225051403045654, 0.030830413, 1.1416972E-4, 0.35051155
262, 26239867, -0.46752244234085083, -0.15060338377952576, 3.4238126277923584, 0.0087659275, 8.151587E-5, 0.37021446
263, 26256534, -0.46713346242904663, -0.1513025313615799, 3.4245827198028564, -9.1614644E-4, -0.0042446195, 0.369277
264, 26273201, -0.46741747856140137, -0.15007305145263672, 3.422624349594116, 6.9597916E-4, 0.003660999, 0.35743046
265, 26289868, -0.46759822964668274, -0.14981324970722198, 3.4221131801605225, 0.010980874, 0.009699774, 0.33892155
266, 26306535, -0.46766993403434753, -0.1496650129556656, 3.420851945877075, 0.012380012, -4.0174357E-4, 0.34167767
267, 26323202, -0.4677598476409912, -0.1501689851284027, 3.4228153228759766, 0.014177618, -0.0010730508, 0.36051655
268, 26339869, -0.4684731364250183, -0.15121769905090332, 3.4236559867858887, 0.013692602, -0.007691832, 0.35620213
269, 26356536, -0.4683340787887573, -0.1509852558374405, 3.42499041557312, 0.0023894338, 0.004480942, 0.35568333
270, 26373203, -0.46815481781959534, -0.15107685327529907, 3.4272358417510986, -0.0018472804, 0.004872268, 0.35913658
271, 26389870, -0.46877071261405945, -0.15110401809215546, 3.4280898571014404, 0.0026311718, 0.0065074507, 0.3497162
272, 26406537, -0.4693053364753723, -0.15127862989902496, 3.4277570247650146, 8.33561E-4, 0.0032878302, 0.3527212
273, 26423204, -0.4702424108982086, -0.1520320475101471, 3.4267191886901855, -9.813275E-4, 0.007611325, 0.3442316
274, 26439871, -0.469892680644989, -0.1524449586868286, 3.4264092445373535, -6.205191E-4, -0.0047655688, 0.3507433
275, 26456538, -0.46918785572052, -0.15332914888858795, 3.4256186485290527, -0.0025607941, 0.00581616, 0.34301376
276, 26473205, -0.46911686658859253, -0.1546090841293335, 3.424992084503174, 0.00950862, 0.0037192835, 0.34085846
277, 26489872, -0.4693308472633362, -0.15417511761188507, 3.424837350845337, 0.0122842165, 0.0029319872, 0.3620224
278, 26506539, -0.47024792432785034, -0.15441454946994781, 3.424912691116333, 0.0035502939, -0.001934784, 0.3523407
279, 26523206, -0.4703586995601654, -0.1532473862171173, 3.4256365299224854, -0.0033565788, -0.0151322745, 0.3729
280, 26539873, -0.47025132179260254, -0.15250103175640106, 3.4264426231384277, 0.0032473237, 0.0035368865, 0.3445797
281, 26556540, -0.47036680579185486, -0.15269799530506134, 3.424654960632324, 0.0019373387, 0.0028769434, 0.36028004
282, 26573207, -0.4694036841392517, -0.15216445922851562, 3.423480749130249, 0.0109508885, 0.003160784, 0.34764576
283, 26589874, -0.4694249927997589, -0.1520252525806427, 3.4227347373962402, 0.006703166, -0.0042007654, 0.35984612
284, 26606541, -0.4695103168487549, -0.15232893824577332, 3.4223086833953857, 0.015525527, -0.0054108542, 0.33757114
285, 26623208, -0.47087085247039795, -0.15344545245170593, 3.422123908996582, -0.0130322445, 0.008835237, 0.34744835
286, 26639875, -0.47115540504455566, -0.1535213142633438, 3.422471046447754, 0.0016808768, 0.014395228, 0.38224602
287, 26656542, -0.47143930196762085, -0.15387217700481415, 3.4228897094726562, 0.0064836587, 0.009793594, 0.35890293
288, 26673209, -0.47165894508361816, -0.1538093090057373, 3.4245553016662598, 0.011147064, 0.011145669, 0.35258293
289, 26689876, -0.47090473771095276, -0.15444603562355042, 3.424752950668335, 0.00498974, 0.004215475, 0.35455132
290, 26706543, -0.4712996482849121, -0.1544126272201538, 3.4244778156280518, -0.016305694, -0.00388132, 0.35024738
291, 26723210, -0.472189724445343, -0.15356865525245667, 3.4248929023742676, -6.934236E-4, 0.0061302166, 0.34591484
292, 26739877, -0.47267162799835205, -0.15411289036273956, 3.423985719680786, 0.0074543264, -5.808124E-4, 0.37615585
293, 26756544, -0.4734189808368683, -0.15299656987190247, 3.423255443572998, 0.0081633935, -0.010395151, 0.35874844
294, 26773211, -0.4733337163925171, -0.15314754843711853, 3.4233107566833496, -5.9294497E-4, -0.0046225344, 0.37098217
295, 26789878, -0.47326499223709106, -0.15114934742450714, 3.4234824180603027, -0.009790114, -0.005612955, 0.36461067
296, 26806545, -0.4723100960254669, -0.15023007988929749, 3.424370288848877, -0.007628044, -0.0022469407, 0.35456848
297, 26823212, -0.4728606045246124, -0.1495780050754547, 3.425938606262207, -0.0051585427, 0.0045235776, 0.36452293
298, 26839879, -0.47241249680519104, -0.14985115826129913, 3.4241838455200195, 0.00464892, 0.015871238, 0.35941982
299, 26856546, -0.4716387093067169, -0.15120857954025269, 3.426135301589966, -0.004463174, 0.005737644, 0.36375904
300, 26873213, -0.4711253345012665, -0.15082140266895294, 3.4268414974212646, 0.0064087887, 6.217607E-4, 0.34808254
301, 26889880, -0.47212883830070496, -0.1504751592874527, 3.4264094829559326, -0.008537201, -0.0035920208, 0.35678005
302, 26906547, -0.4712470471858978, -0.1510034054517746, 3.424452543258667, 0.006292719, 0.01131029, 0.37021065
303, 26923214, -0.47112831473350525, -0.15230423212051392, 3.4234375953674316, 0.013714959, -0.0042514433, 0.36341476
304, 26939881, -0.4716842770576477, -0.15218128263950348, 3.4259049892425537, 0.017087424, -0.0037112127, 0.35399914
305, 26956548, -0.47216084599494934, -0.15332087874412537, 3.427288055419922, 0.008701317, -0.0012002995, 0.35929585
306, 26973215, -0.47313249111175537, -0.1526728719472885, 3.4273853302001953, -0.01318053, -0.015244621, 0.3496828
307, 26989882, -0.47314587235450745, -0.1534103900194168, 3.4267680644989014, -0.0012880921, 4.6923052E-4, 0.34582996
308, 27006549, -0.4733501970767975, -0.15429623425006866, 3.425499200820923, -0.004702873, -1.06402644E-4, 0.36215496
309, 27023216, -0.4750828444957733, -0.15492264926433563, 3.4248955249786377, 0.0046448875, 1.5343117E-4, 0.3535967
310, 27039883, -0.4755803048610687, -0.1549830585718155, 3.4246132373809814, 0.008905828, -0.015863724, 0.3524065
311, 27056550, -0.4759535789489746, -0.1558903157711029, 3.426088571548462, 0.009574356, -0.023530575, 0.36236954
312, 27073217, -0.475894570350647, -0.15755508840084076, 3.425523281097412, -0.0070452453, -0.008958018, 0.33929825
313, 27089884, -0.47604984045028687, -0.15698911249637604, 3.4238650798797607, -0.0017415894, 9.066349E-4, 0.37877274
314, 27106551, -0.47607487440109253, -0.15729676187038422, 3.4243016242980957, -0.004387706, 0.009542879, 0.3546505
315, 27123218, -0.4752674698829651, -0.15844616293907166, 3.4237160682678223, -2.8384398E-5, 0.0041343784, 0.3746214
316, 27139885, -0.47532546520233154, -0.15863992273807526, 3.4235739707946777, 0.0029853806, 0.0010792498, 0.31990433
317, 27156552, -0.4747636914253235, -0.15855000913143158, 3.4226481914520264, 0.0057444787, -0.0063423826, 0.36541748
318, 27173219, -0.4751821756362915, -0.15712809562683105, 3.4219017028808594, -0.0052986364, 0.010378014, 0.34432888
319, 27189886, -0.4752558171749115, -0.1571616232395172, 3.423569679260254, 0.011202192, 0.011621315, 0.35207844
320, 27206553, -0.47458624839782715, -0.15816646814346313, 3.423208713531494, 0.015423678, 0.0026794104, 0.3589754
321, 27223220, -0.47410887479782104, -0.15982772409915924, 3.4238057136535645, 0.005193769, 0.014220486, 0.35349655
322, 27239887, -0.4743443727493286, -0.16006909310817719, 3.4237112998962402, -4.815674E-4, -0.0133937625, 0.340456
323, 27256554, -0.47369182109832764, -0.1600584089756012, 3.42317795753479, 0.015116075, -0.0010408266, 0.34815788
324, 27273221, -0.4727047383785248, -0.15973986685276031, 3.424204111099243, 0.0026041756, 0.010574104, 0.364666
325, 27289888, -0.4733582139015198, -0.15911391377449036, 3.4259769916534424, 0.008182663, -0.0022711675, 0.34582806
326, 27306555, -0.4741359353065491, -0.15914028882980347, 3.425992488861084, 0.0037255331, -0.0052530817, 0.34959316
327, 27323222, -0.47405946254730225, -0.1594485342502594, 3.42509388923645, 0.0011500824, 4.5477203E-4, 0.36410522
328, 27339889, -0.47455307841300964, -0.1594456285238266, 3.4255239963531494, -0.008996374, 0.0030924205, 0.3521967
329, 27356556, -0.47499141097068787, -0.1601753681898117, 3.4259958267211914, 0.006743381, -0.010879371, 0.34869766
330, 27373223, -0.4744899868965149, -0.15971195697784424, 3.424740791320801, -0.0012787194, 0.009010957, 0.34952068
331, 27389890, -0.4742929935455322, -0.16027553379535675, 3.424349784851074, 0.0040087276, -0.0039921403, 0.3448696
332, 27406557, -0.4748486280441284, -0.16024631261825562, 3.4250004291534424, -0.00289414, 0.005407938, 0.36376095
333, 27423224, -0.47523847222328186, -0.1599678248167038, 3.4244861602783203, -3.9388746E-4, 0.00941506, 0.35692215
334, 27439891, -0.4761006832122803, -0.15922987461090088, 3.4258615970611572, 0.0015164324, -0.011015295, 0.36696434
335, 27456558, -0.47641369700431824, -0.15862180292606354, 3.425708055496216, 0.0042975936, -7.5539347E-4, 0.3335657
336, 27473225, -0.47641807794570923, -0.1576574295759201, 3.4251327514648438, 0.017452931, 0.0069066933, 0.37887573
337, 27489892, -0.47592422366142273, -0.1572633534669876, 3.423910140991211, -0.0037694473, -0.003503929, 0.3498392
338, 27506559, -0.4770737886428833, -0.1553865522146225, 3.4256091117858887, 0.018386846, -0.006035716, 0.33341122
339, 27523226, -0.4769209623336792, -0.15517866611480713, 3.425382614135742, -0.0056347423, 0.018811807, 0.33191872
340, 27539893, -0.4776388108730316, -0.15638184547424316, 3.4254724979400635, -6.2543375E-4, 0.006274208, 0.3510456
341, 27556560, -0.4768408536911011, -0.15765780210494995, 3.4256412982940674, 0.0047300546, 0.0055779577, 0.37748146
342, 27573227, -0.47675877809524536, -0.15618747472763062, 3.428304433822632, -0.011608149, -0.009455503, 0.3841486
343, 27589894, -0.47767311334609985, -0.15594114363193512, 3.426821708679199, -0.013370097, 0.005684144, 0.3657856
344, 27606561, -0.47746092081069946, -0.15587463974952698, 3.426668882369995, 6.855684E-4, 0.016546082, 0.34926033
345, 27623228, -0.4785417318344116, -0.15519723296165466, 3.42612624168396, 0.011410956, -0.0051978184, 0.34679985
346, 27639895, -0.47831296920776367, -0.1551946997642517, 3.425352096557617, 0.017827932, 0.0099533815, 0.3601532
347, 27656562, -0.4786061942577362, -0.1560780107975006, 3.4261081218719482, -0.0015162892, -0.0019134351, 0.37055874
348, 27673229, -0.4783104658126831, -0.15603181719779968, 3.4254024028778076, -0.011345909, 0.001401531, 0.36580563
349, 27689896, -0.4787359833717346, -0.1560508906841278, 3.4250056743621826, -0.007158989, -0.01919233, 0.35363197
350, 27706563, -0.47871243953704834, -0.1555996835231781, 3.4250996112823486, -0.0013324742, -0.0036490131, 0.3668852
351, 27723230, -0.4782176613807678, -0.15567760169506073, 3.426095485687256, 0.015163045, -0.005328755, 0.35526562
352, 27739897, -0.47813183069229126, -0.15633882582187653, 3.425224542617798, 0.0032278483, 0.021519925, 0.35515785
353, 27756564, -0.47778406739234924, -0.15671995282173157, 3.426266670227051, -0.009587498, -0.0071129124, 0.33778667
354, 27773231, -0.4778701961040497, -0.15547765791416168, 3.425905704498291, 0.007961311, -0.00828427, 0.3421383
355, 27789898, -0.47831490635871887, -0.15603767335414886, 3.425532102584839, 0.0062189423, -0.003129901, 0.33803082
356, 27806565, -0.4785960614681244, -0.15711438655853271, 3.4257709980010986, 0.018568443, -0.008413978, 0.34651852
357, 27823232, -0.4784661829471588, -0.15778744220733643, 3.4268200397491455, 0.0023742856, 0.0036240355, 0.34075928
358, 27839899, -0.4794575572013855, -0.15803436934947968, 3.427964210510254, -0.015945425, 0.0017081489, 0.3552494
359, 27856566, -0.4784415364265442, -0.1591498702764511, 3.428602695465088, 8.138229E-4, 0.0024090505, 0.35668087
360, 27873233, -0.4695182144641876, -0.15590119361877441, 3.442046880722046, 0.009327196, 0.011937081, 0.33817673
361, 27889900, -0.46940091252326965, -0.15562662482261658, 3.4414987564086914, 0.0015866574, 0.005764553, 0.35204983
362, 27906567, -0.468997985124588, -0.15553389489650726, 3.439065456390381, -6.0939934E-4, 0.012904747, 0.35318756
363, 27923234, -0.4682562053203583, -0.15639036893844604, 3.4386000633239746, 6.753496E-4, 0.008896368, 0.3587246
364, 27939901, -0.469095379114151, -0.15554293990135193, 3.4370148181915283, 0.0065019047, -0.0138783315, 0.35236263
365, 27956568, -0.468439519405365, -0.15370267629623413, 3.4363186359405518, 2.7235403E-5, 0.018357608, 0.32194805
366, 27973235, -0.46992966532707214, -0.15196050703525543, 3.436715602874756, 0.0074762586, -1.7514685E-4, 0.36391354
367, 27989902, -0.4697440266609192, -0.15155522525310516, 3.4380249977111816, 0.006393136, -7.327104E-4, 0.36018562
368, 28006569, -0.4690975546836853, -0.15199781954288483, 3.4384844303131104, 0.00848408, -0.0076507507, 0.34458542
369, 28023236, -0.4680382311344147, -0.15348970890045166, 3.4372971057891846, 0.02033026, 0.008431593, 0.37394238
370, 28039903, -0.46778300404548645, -0.15228991210460663, 3.438136339187622, 0.005385845, -0.010211696, 0.35758877
371, 28056570, -0.4671091139316559, -0.15298770368099213, 3.4378414154052734, 0.0051380075, 0.009733986, 0.36324215
372, 28073237, -0.46826043725013733, -0.15183928608894348, 3.4372928142547607, 0.009220637, 0.004441433, 0.3372898
373, 28089904, -0.4684441089630127, -0.1519363522529602, 3.4379308223724365, 0.008564599, 0.011404857, 0.36730385
374, 28106571, -0.4689490497112274, -0.15104131400585175, 3.436814069747925, 0.014477362, 0.004543044, 0.3657608
375, 28123238, -0.4687444567680359, -0.15037673711776733, 3.436988592147827, -5.6899677E-4, 0.0040407265, 0.3530693
376, 28139905, -0.4697173833847046, -0.1508100926876068, 3.4366626739501953, 0.01350678, 0.012989691, 0.36272144
377, 28156572, -0.4701821208000183, -0.15091437101364136, 3.436406135559082, 0.0011136638, 0.013530734, 0.3676939
378, 28173239, -0.4694637656211853, -0.15018025040626526, 3.4372286796569824, 0.0112646865, 0.010835964, 0.3710184
379, 28189906, -0.4703757166862488, -0.150832399725914, 3.43789005279541, 0.017935675, 0.0033916484, 0.37282848
380, 28206573, -0.4701674282550812, -0.1508360505104065, 3.4376978874206543, -0.0040106503, -0.0049122665, 0.36530876
381, 28223240, -0.4708597958087921, -0.1502538025379181, 3.437520980834961, -0.0038922231, 0.00734122, 0.3563528
382, 28239907, -0.4707210063934326, -0.15128882229328156, 3.4361608028411865, 0.0021988584, 0.012336836, 0.35763645
383, 28256574, -0.47105643153190613, -0.15085479617118835, 3.4361934661865234, 0.013389093, 0.004836066, 0.34537506
384, 28273241, -0.47090503573417664, -0.15147726237773895, 3.437016010284424, 0.013235171, -0.0021809381, 0.3468504
385, 28289908, -0.4703463613986969, -0.15160608291625977, 3.4387454986572266, -8.7267667E-4, 0.015564288, 0.36636066
386, 28306575, -0.4698323905467987, -0.15086959302425385, 3.439197063446045, -0.004203693, 9.534469E-4, 0.34526253
387, 28323242, -0.4699017107486725, -0.15017850697040558, 3.440070867538452, 0.012931439, 0.001180372, 0.36553383
388, 28339909, -0.4692259430885315, -0.1503915637731552, 3.438636064529419, 0.015617273, -7.7288685E-4, 0.34561348
389, 28356576, -0.4698651134967804, -0.15157179534435272, 3.4414660930633545, 0.009996305, -5.7816866E-4, 0.35394478
390, 28373243, -0.4693049192428589, -0.1516912877559662, 3.442275285720825, -0.009636028, 0.0041403295, 0.36077785
391, 28389910, -0.4696231484413147, -0.15150140225887299, 3.442002534866333, -0.0019589567, -0.0066344375, 0.34880733
392, 28406577, -0.46893763542175293, -0.15148544311523438, 3.4410557746887207, -0.004154093, -9.777644E-5, 0.33856392
393, 28423244, -0.4685707688331604, -0.15110601484775543, 3.4421958923339844, 0.0053473064, -0.0019170182, 0.33757687
394, 28439911, -0.46897488832473755, -0.1519806832075119, 3.443528413772583, 0.01436698, -0.0041993856, 0.35189152
395, 28456578, -0.46748828887939453, -0.15193015336990356, 3.444434404373169, 0.00569708, -7.8859564E-4, 0.37653637
396, 28473245, -0.46890518069267273, -0.15167482197284698, 3.445986032485962, 1.6878196E-4, -0.0109667955, 0.3826208
397, 28489912, -0.46918705105781555, -0.15130826830863953, 3.4474565982818604, 0.012319053, -0.013054952, 0.36841297
398, 28506579, -0.468759149312973, -0.14965884387493134, 3.4491121768951416, -8.46826E-4, -0.008239721, 0.34971142
399, 28523246, -0.46838289499282837, -0.1507275551557541, 3.4498159885406494, 0.002712081, 0.011899397, 0.38092327
400, 28539913, -0.46760228276252747, -0.1517452448606491, 3.4502570629119873, 0.014976501, -0.014834202, 0.36114788
401, 28556580, -0.46891355514526367, -0.1512996107339859, 3.451052188873291, 0.005425309, -0.0031127776, 0.3558693
402, 28573247, -0.4675561189651489, -0.1517394483089447, 3.451245069503784, 0.006690062, -0.006182906, 0.3203516
403, 28589914, -0.4693823456764221, -0.1512337476015091, 3.4516868591308594, -0.0017233617, 0.0075942264, 0.31860447
404, 28606581, -0.46977439522743225, -0.15089724957942963, 3.4518723487854004, 0.013521143, 0.010497733, 0.33368683
405, 28623248, -0.46916261315345764, -0.15120428800582886, 3.4519708156585693, 0.005881211, 0.009649411, 0.37616825
406, 28639915, -0.46912217140197754, -0.1515527218580246, 3.451923131942749, 0.005673528, -0.008357866, 0.3368349
407, 28656582, -0.46877044439315796, -0.1518489420413971, 3.451284885406494, 0.0037463862, 0.004256518, 0.34786415
408, 28673249, -0.46936964988708496, -0.15061156451702118, 3.450547933578491, -0.006985956, 0.0016568736, 0.35155773
409, 28689916, -0.4706510603427887, -0.15038079023361206, 3.451599597930908, -0.003582387, 0.0061129606, 0.34532166
410, 28706583, -0.4702781140804291, -0.148189976811409, 3.4518425464630127, 0.0017724682, -2.1056317E-4, 0.34029007
411, 28723250, -0.4706443250179291, -0.14809289574623108, 3.452679395675659, 0.0065049394, -9.951809E-4, 0.33586025
412, 28739917, -0.47128167748451233, -0.14822763204574585, 3.452448844909668, -0.003350612, -0.0039946586, 0.36526203
413, 28756584, -0.47046712040901184, -0.14752650260925293, 3.4519619941711426, -0.0028803356, -0.009586069, 0.33213997
414, 28773251, -0.47084978222846985, -0.14753784239292145, 3.451425552368164, -0.0067561, -0.010463542, 0.33676434
415, 28789918, -0.469929039478302, -0.1479218453168869, 3.4526255130767822, 0.007943018, -9.157291E-4, 0.37832928
416, 28806585, -0.4690527319908142, -0.1487477719783783, 3.453437566757202, 0.019362152, -8.667169E-4, 0.34485054
417, 28823252, -0.46907028555870056, -0.1478232443332672, 3.4532198905944824, 0.0024111154, -0.0026297, 0.34908676
418, 28839919, -0.4694337844848633, -0.14776483178138733, 3.4531149864196777, 4.5700543E-4, -2.173454E-4, 0.34443092
419, 28856586, -0.469963014125824, -0.1476631611585617, 3.4528331756591797, 0.008980185, 0.004962581, 0.35372543
420, 28873253, -0.47033095359802246, -0.1483258605003357, 3.453457832336426, 0.0017531806, 0.023989461, 0.35633087
421, 28889920, -0.4703863263130188, -0.14804275333881378, 3.4539778232574463, 4.937934E-4, 0.012449251, 0.3423891
422, 28906587, -0.4704408049583435, -0.1482124924659729, 3.453401803970337, 0.0046555838, 0.012140665, 0.36114502
423, 28923254, -0.4711102247238159, -0.15041691064834595, 3.453909397125244, 0.001185332, -0.010105248, 0.3553667
424, 28939921, -0.47160908579826355, -0.15136612951755524, 3.4540867805480957, -0.007645161, -0.0056790593, 0.3592043
425, 28956588, -0.47135743498802185, -0.15142440795898438, 3.453019142150879, 0.00453951, 0.012120102, 0.3635435
426, 28973255, -0.47136443853378296, -0.15055635571479797, 3.4510679244995117, 0.020701095, 0.00258338, 0.36859798
427, 28989922, -0.47089076042175293, -0.15106260776519775, 3.451930284500122, -0.003155871, -0.0060451766, 0.35947227
428, 29006589, -0.47103166580200195, -0.15103062987327576, 3.4521822929382324, -0.0070005716, 9.115138E-5, 0.35637093
429, 29023256, -0.4704066514968872, -0.15056689083576202, 3.451984167098999, 0.0020239395, -0.010062441, 0.3586197
430, 29039923, -0.4699605107307434, -0.15056917071342468, 3.4519901275634766, 0.005111447, 0.010695919, 0.34202576
431, 29056590, -0.4705083668231964, -0.1514710932970047, 3.453226327896118, 0.00735758, 0.011827247, 0.37169266
432, 29073257, -0.4710288941860199, -0.151689812541008, 3.4527406692504883, 0.0028331473, 0.004647987, 0.3769951
433, 29089924, -0.47057121992111206, -0.15248741209506989, 3.452794075012207, -0.0015009585, -0.0075720707, 0.35626507
434, 29106591, -0.47021350264549255, -0.15285541117191315, 3.4528114795684814, -0.011931101, 0.0025661243, 0.34274006
435, 29123258, -0.4693475663661957, -0.1535165160894394, 3.4526138305664062, 0.018527588, 0.0050355513, 0.34895325
436, 29139925, -0.47015970945358276, -0.15342143177986145, 3.452284336090088, 0.018049816, -0.0020292392, 0.33501244
437, 29156592, -0.4695974886417389, -0.15393762290477753, 3.451655149459839, 0.016484775, -0.0016410461, 0.37098694
438, 29173259, -0.4684145450592041, -0.15530738234519958, 3.45227313041687, -0.0057408568, 0.00974256, 0.35803604
439, 29189926, -0.4692980945110321, -0.15424086153507233, 3.453115701675415, -0.015199751, 0.011352481, 0.37390232
440, 29206593, -0.47014790773391724, -0.1530960649251938, 3.4523675441741943, 0.009726167, -0.007804678, 0.3544941
441, 29223260, -0.4707854688167572, -0.15325221419334412, 3.451105833053589, 0.0020418956, 0.006182742, 0.35720825
442, 29239927, -0.47086989879608154, -0.15326255559921265, 3.449838638305664, 0.018063258, 0.012360373, 0.36858654
443, 29256594, -0.47067004442214966, -0.15239429473876953, 3.449908494949341, 0.0040569627, 0.002672024, 0.35784817
444, 29273261, -0.47167786955833435, -0.15309034287929535, 3.449695110321045, -0.0019793792, -0.008119328, 0.361104
445, 29289928, -0.47117510437965393, -0.15451401472091675, 3.448112726211548, 4.1815956E-4, -0.0075642127, 0.337018
446, 29306595, -0.4703795611858368, -0.15434911847114563, 3.4470791816711426, -4.0610033E-4, 0.0077659925, 0.35118198
447, 29323262, -0.47020211815834045, -0.15446893870830536, 3.446131706237793, 0.010179315, 0.0025263843, 0.34950352
448, 29339929, -0.46975746750831604, -0.1542564332485199, 3.4457781314849854, -0.007051695, -0.013158044, 0.35501575
449, 29356596, -0.4694931209087372, -0.15318167209625244, 3.4462730884552, -0.005263711, -0.0069922744, 0.36022472
450, 29373263, -0.46931192278862, -0.1533481329679489, 3.4466359615325928, -0.0039026428, 0.003934935, 0.34937763
451, 29389930, -0.4699070453643799, -0.154334157705307, 3.4476869106292725, 0.014975817, 0.008227676, 0.34016132
452, 29406597, -0.46966269612312317, -0.1556224524974823, 3.448687791824341, 0.017039772, 0.0012201049, 0.35055256
453, 29423264, -0.4697410762310028, -0.15589559078216553, 3.4492902755737305, 0.016608298, 0.009458789, 0.33739662
454, 29439931, -0.4694201350212097, -0.15645918250083923, 3.4485714435577393, 0.004718793, 0.002677685, 0.36502647
455, 29456598, -0.4682525396347046, -0.15658706426620483, 3.44812273979187, -0.011309902, 4.7232828E-4, 0.37546444
456, 29473265, -0.4688747227191925, -0.15565159916877747, 3.4485201835632324, 0.0035001326, 0.012533686, 0.36124516
457, 29489932, -0.46823984384536743, -0.15525616705417633, 3.448274612426758, 0.0064538512, 0.016900398, 0.33427048
458, 29506599, -0.4689461290836334, -0.15388190746307373, 3.44689679145813, 0.0067911707, -0.005144147, 0.36749744
459, 29523266, -0.4689825177192688, -0.15512345731258392, 3.446333885192871, 8.141634E-4, -0.003154805, 0.34767532
460, 29539933, -0.4695691466331482, -0.15520533919334412, 3.4465770721435547, -0.0014305606, 0.0010402119, 0.36811733
461, 29556600, -0.470418781042099, -0.15589050948619843, 3.4464688301086426, -0.0010636152, 0.008116583, 0.35187054
462, 29573267, -0.4708021581172943, -0.15572626888751984, 3.4465274810791016, 0.0028849847, -0.0053233383, 0.36201954
463, 29589934, -0.4703669548034668, -0.15648065507411957, 3.4463419914245605, 0.006990881, -0.011411398, 0.36798096
464, 29606601, -0.4700225293636322, -0.15766648948192596, 3.4472365379333496, -0.008442291, -0.0052717417, 0.3599491
465, 29623268, -0.46944621205329895, -0.15657442808151245, 3.4459121227264404, -0.010985828, -7.850334E-4, 0.363513
466, 29639935, -0.46965304017066956, -0.15616028010845184, 3.4472477436065674, -0.012115744, -8.046676E-4, 0.34522343
467, 29656602, -0.46984338760375977, -0.15541206300258636, 3.446878671646118, -0.00216674, 0.0036390738, 0.37658405
468, 29673269, -0.46865737438201904, -0.15448051691055298, 3.4474709033966064, -0.0018366907, 0.0047762133, 0.34491444
469, 29689936, -0.4685179591178894, -0.15422892570495605, 3.447993278503418, 0.0031155627, 6.54439E-4, 0.3663826
470, 29706603, -0.4697731137275696, -0.15320077538490295, 3.4477906227111816, -0.0069540627, 0.010387181, 0.34177113
471, 29723270, -0.4698701798915863, -0.15271006524562836, 3.4489974975585938, 0.003848212, -0.003401696, 0.3346138
472, 29739937, -0.47097325325012207, -0.152757927775383, 3.449340343475342, 0.009574782, 0.012137275, 0.3393898
473, 29756604, -0.47098952531814575, -0.15170809626579285, 3.4498074054718018, 0.0083749, 0.007245368, 0.3472824
474, 29773271, -0.4710397720336914, -0.15082064270973206, 3.451056480407715, -0.003930388, 0.008259352, 0.36954784
475, 29789938, -0.470579594373703, -0.15062998235225677, 3.4511256217956543, -4.724182E-4, 0.010703414, 0.35975742
476, 29806605, -0.47053632140159607, -0.14956976473331451, 3.4507758617401123, -0.009425266, 0.008027108, 0.3643427
477, 29823272, -0.4697726368904114, -0.14984381198883057, 3.4494614601135254, 0.006897966, 0.0027639472, 0.33582783
478, 29839939, -0.47009891271591187, -0.14924487471580505, 3.4495255947113037, -0.005002061, 0.009464356, 0.34025097
479, 29856606, -0.46884259581565857, -0.14992651343345642, 3.449916362762451, 0.0014258432, -0.0061837444, 0.35515213
480, 29873273, -0.46907275915145874, -0.1540689319372177, 3.4492831230163574, 0.0012183412, 0.004557981, 0.35628414
481, 29889940, -0.4706019163131714, -0.15359681844711304, 3.448279857635498, -0.007053138, -0.010020672, 0.34580803
482, 29906607, -0.471208781003952, -0.1542191356420517, 3.4475767612457275, -0.0028145765, 0.0028915172, 0.34745502
483, 29923274, -0.4717671871185303, -0.15487077832221985, 3.4477298259735107, 0.0022759782, -7.213741E-4, 0.35395336
484, 29939941, -0.47137776017189026, -0.1529003381729126, 3.4474453926086426, 0.011623842, -0.00399857, 0.37327766
485, 29956608, -0.4728713035583496, -0.15274514257907867, 3.4483416080474854, -0.008692147, -1.4188532E-4, 0.36078644
486, 29973275, -0.4734199345111847, -0.15535135567188263, 3.4483084678649902, -6.683736E-5, 1.3324864E-4, 0.36842823
487, 29989942, -0.4730265140533447, -0.1547844409942627, 3.448993682861328, 0.0072679394, -0.012976454, 0.35474396
488, 30006609, -0.47371363639831543, -0.15473969280719757, 3.4484565258026123, -1.0756561E-5, -0.0077064927, 0.35768604
489, 30023276, -0.47314032912254333, -0.15562674403190613, 3.4475483894348145, -6.691245E-4, 0.0024775644, 0.34920883
490, 30039943, -0.4724699556827545, -0.15546812117099762, 3.4463584423065186, -0.0067489212, 0.008501958, 0.34231663
491, 30056610, -0.4747498035430908, -0.15447098016738892, 3.4468894004821777, -0.014541245, 0.0016365094, 0.34400654
492, 30073277, -0.47481730580329895, -0.15341870486736298, 3.447456121444702, -0.00556968, -0.0038810929, 0.3600855
493, 30089944, -0.4757086932659149, -0.15383657813072205, 3.447293281555176, -0.0059669255, 0.0018020942, 0.34480095
494, 30106611, -0.4755365550518036, -0.1542687863111496, 3.4469897747039795, 0.02469157, 0.010212831, 0.34955692
495, 30123278, -0.4764282703399658, -0.1538875699043274, 3.447279214859009, 0.0036727055, 0.009095877, 0.34829998
496, 30139945, -0.47758951783180237, -0.1549331545829773, 3.446702718734741, -0.0034968061, -0.0039906385, 0.37225437
497, 30156612, -0.47628340125083923, -0.15515698492527008, 3.4468212127685547, -4.71071E-5, 0.0012217392, 0.35729694
498, 30173279, -0.4769732356071472, -0.15571384131908417, 3.446748733520508, -7.1019144E-4, 0.003187026, 0.3398676
499, 30189946, -0.4768413305282593, -0.15657907724380493, 3.448126792907715, -0.00713004, -2.4540327E-4, 0.35176086
500, 30206613, -0.4766157269477844, -0.15631809830665588, 3.448460817337036, 7.0494064E-4, 0.007037784, 0.34217548
501, 30223280, -0.4766523838043213, -0.15689240396022797, 3.448406219482422, -0.007630945, -5.026562E-4, 0.34937572
502, 30239947, -0.4772576689720154, -0.1569521129131317, 3.448434591293335, 9.1353065E-4, -0.007057446, 0.35968494
503, 30256614, -0.47804030776023865, -0.15639886260032654, 3.447122097015381, 0.0031133888, 0.001808838, 0.3294716
504, 30273281, -0.4777277708053589, -0.15571880340576172, 3.445812463760376, 0.004865388, 0.00682384, 0.36358833
505, 30289948, -0.4770534038543701, -0.15498049557209015, 3.4452133178710938, -0.003954742, 0.016907088, 0.34946823
506, 30306615, -0.47716599702835083, -0.15590836107730865, 3.4463319778442383, 0.00410539, -0.012749273, 0.3445816
507, 30323282, -0.47727516293525696, -0.1553828865289688, 3.447216033935547, -0.009930502, -0.007430636, 0.34618092
508, 30339949, -0.4762384593486786, -0.15576866269111633, 3.446476936340332, -0.0034642073, 0.0037924107, 0.35494423
509, 30356616, -0.47597047686576843, -0.15577515959739685, 3.4462993144989014, 1.9560702E-4, 0.008703692, 0.3466568
510, 30373283, -0.47594380378723145, -0.15507829189300537, 3.445624828338623, 0.0034835506, -7.953918E-5, 0.36454964
511, 30389950, -0.4753675162792206, -0.154562845826149, 3.4462761878967285, -0.0019236223, 0.004950777, 0.347826
512, 30406617, -0.47479522228240967, -0.1546623855829239, 3.445794105529785, -7.3866494E-4, -0.0038291123, 0.3616743
513, 30423284, -0.47552838921546936, -0.15487730503082275, 3.445711612701416, 0.0032191104, -0.015934845, 0.3586712
514, 30439951, -0.4748784601688385, -0.154250830411911, 3.448025703430176, 0.0044212746, 0.007954163, 0.3419075
515, 30456618, -0.4749547243118286, -0.15328797698020935, 3.4478092193603516, 0.0068509514, 0.004894204, 0.33166504
516, 30473285, -0.47518229484558105, -0.15386727452278137, 3.448425054550171, 0.0061010933, 0.014808077, 0.37475586
517, 30489952, -0.47577962279319763, -0.1524919718503952, 3.447294235229492, 0.013652166, -7.362621E-4, 0.34809303
518, 30506619, -0.47586679458618164, -0.1519540548324585, 3.447007179260254, -0.0023619889, -0.0035610888, 0.3447256
519, 30523286, -0.4763029217720032, -0.15121318399906158, 3.4465110301971436, -2.508121E-4, 6.8938034E-4, 0.33934975
520, 30539953, -0.4751085638999939, -0.15254251658916473, 3.446028709411621, -0.0015696844, -0.0062623653, 0.35108185
521, 30556620, -0.4745844900608063, -0.1531621813774109, 3.4452483654022217, -0.007781158, 0.00949768, 0.35081863
522, 30573287, -0.4736890494823456, -0.15374991297721863, 3.445420742034912, 0.0050138654, 2.496116E-4, 0.35808372
523, 30589954, -0.47340890765190125, -0.15257056057453156, 3.4450480937957764, -0.016161907, -0.007513091, 0.34747505
524, 30606621, -0.47286558151245117, -0.15353554487228394, 3.4450550079345703, -0.0059707174, -0.0046205297, 0.36782455
525, 30623288, -0.47303488850593567, -0.153903990983963, 3.4456639289855957, 0.017769514, -0.00994794, 0.35755157
526, 30639955, -0.47342079877853394, -0.15448234975337982, 3.445291042327881, -0.001413723, -0.0058939457, 0.3494587
527, 30656622, -0.4728965163230896, -0.15592367947101593, 3.4448647499084473, 0.011786631, 0.0033309925, 0.37061882
528, 30673289, -0.4722648859024048, -0.1546574831008911, 3.4457430839538574, 0.0029074776, 2.121557E-4, 0.34969425
529, 30689956, -0.4724864661693573, -0.15446163713932037, 3.445732831954956, -0.0047821477, -0.0041799857, 0.35082054
530, 30706623, -0.4733966290950775, -0.15399444103240967, 3.444310188293457, -0.016590083, 0.003231243, 0.34819126
531, 30723290, -0.47324010729789734, -0.15523740649223328, 3.4413888454437256, -0.001353474, -0.002653036, 0.35924244
532, 30739957, -0.4729219973087311, -0.15711356699466705, 3.440326690673828, -0.0019690732, 0.010925076, 0.34879494
533, 30756624, -0.4736616611480713, -0.1594124138355255, 3.4425485134124756, 0.0077329073, -0.010853768, 0.3480587
534, 30773291, -0.4731510579586029, -0.1586007922887802, 3.440796136856079, -0.006509789, 0.0035590876, 0.39005947
535, 30789958, -0.4737810790538788, -0.15859568119049072, 3.4404072761535645, -0.019961165, -0.007273751, 0.3612337
536, 30806625, -0.47400543093681335, -0.15926383435726166, 3.4403393268585205, -9.2012255E-5, -3.5292347E-4, 0.3383503
537, 30823292, -0.4731046259403229, -0.16002996265888214, 3.440016031265259, 0.01763706, -0.001814335, 0.3511753
538, 30839959, -0.47253111004829407, -0.15973398089408875, 3.441110610961914, 0.0075581744, -0.0038521236, 0.37842846
539, 30856626, -0.4725402891635895, -0.159434974193573, 3.440298557281494, -7.0810475E-4, -0.009427096, 0.36894226
540, 30873293, -0.47257375717163086, -0.15930864214897156, 3.4389665126800537, -0.0019910806, -0.0062999185, 0.34764385
541, 30889960, -0.47195619344711304, -0.16059036552906036, 3.4378256797790527, 0.004701436, 0.001196636, 0.34439468
542, 30906627, -0.4727044701576233, -0.16098132729530334, 3.4369232654571533, -0.006631446, 0.0027756118, 0.34104252
543, 30923294, -0.4725562334060669, -0.16102905571460724, 3.4354512691497803, 0.0109719, -0.003538954, 0.36378765
544, 30939961, -0.4725273847579956, -0.16116397082805634, 3.4336628913879395, -0.0017556287, 0.007847931, 0.35027504
545, 30956628, -0.47342249751091003, -0.160819411277771, 3.433532238006592, 0.0023338925, -0.0014431429, 0.3432064
546, 30973295, -0.47380757331848145, -0.1597178727388382, 3.4339845180511475, 2.5605678E-4, 0.0041467976, 0.33872128
547, 30989962, -0.4743744134902954, -0.1581660509109497, 3.4336416721343994, -3.4123968E-4, -0.0040382436, 0.36741447
548, 31006629, -0.4746958017349243, -0.15911734104156494, 3.433051824569702, -0.0015979735, 0.0067782816, 0.35789585
549, 31023296, -0.4752618670463562, -0.15920127928256989, 3.43375563621521, 0.010054372, -0.011607136, 0.3403263
550, 31039963, -0.476810485124588, -0.1602950543165207, 3.4350810050964355, -0.0035350965, -0.0109631745, 0.37016296
551, 31056630, -0.4764043092727661, -0.1608061045408249, 3.4345033168792725, 0.0043562604, 0.003499518, 0.34938812
552, 31073297, -0.4764014184474945, -0.15998858213424683, 3.4337551593780518, 0.00197894, 0.0029049106, 0.3700199
553, 31089964, -0.476803183555603, -0.159363254904747, 3.4333391189575195, -0.0064787185, 5.8294972E-5, 0.36496162
554, 31106631, -0.4769243001937866, -0.1591125726699829, 3.4327616691589355, -0.010993494, -0.0072210957, 0.32920742
555, 31123298, -0.4772627353668213, -0.15912994742393494, 3.4325475692749023, 0.0072477763, 0.007469548, 0.37520313
556, 31139965, -0.47744378447532654, -0.15878227353096008, 3.43198561668396, 0.009814459, 0.010646397, 0.3721695
557, 31156632, -0.47804340720176697, -0.1571134626865387, 3.4329428672790527, -0.0026572112, 0.0017949871, 0.33533478
558, 31173299, -0.4775804877281189, -0.15681365132331848, 3.43211030960083, -0.0026252312, 0.007825573, 0.34818935
559, 31189966, -0.4775881767272949, -0.1578957587480545, 3.4342968463897705, -0.013038224, -0.005762384, 0.37421417
560, 31206633, -0.47760215401649475, -0.1570294201374054, 3.435678243637085, 0.0033153642, -0.0013235459, 0.38357353
561, 31223300, -0.47749873995780945, -0.15648099780082703, 3.4354329109191895, 0.004512199, 0.010921021, 0.35991
562, 31239967, -0.47773033380508423, -0.15509957075119019, 3.4352028369903564, 0.0044618635, -0.0028845116, 0.35548306
563, 31256634, -0.47718262672424316, -0.1540127992630005, 3.435619354248047, -0.002898157, 0.014674002, 0.3484516
564, 31273301, -0.4763071835041046, -0.15457527339458466, 3.435901641845703, 0.0066669076, 0.0090920115, 0.40124226
565, 31289968, -0.47675079107284546, -0.15573249757289886, 3.435458183288574, -0.01030275, -0.00710986, 0.37876225
566, 31306635, -0.47710755467414856, -0.1548003852367401, 3.436583995819092, 0.0017111978, 0.00360979, 0.3648796
567, 31323302, -0.4782135784626007, -0.15475912392139435, 3.436647415161133, -9.849675E-4, 0.013051402, 0.34715843
568, 31339969, -0.4786032736301422, -0.15462876856327057, 3.436211347579956, 0.005332352, 0.007862875, 0.3506317
569, 31356636, -0.47844743728637695, -0.15567882359027863, 3.435511589050293, 0.009285659, -0.0036156154, 0.36976528
570, 31373303, -0.4785189926624298, -0.15673117339611053, 3.4350249767303467, 0.0022068499, -0.0072136326, 0.35522747
571, 31389970, -0.4794524312019348, -0.1559022068977356, 3.4348933696746826, -0.0029625813, -0.010532716, 0.3452072
572, 31406637, -0.479968398809433, -0.15677890181541443, 3.435709238052368, 0.011643655, 9.4763556E-4, 0.36849785
573, 31423304, -0.4794376492500305, -0.15574553608894348, 3.43699049949646, 0.013307044, 0.0053162975, 0.36453342
574, 31439971, -0.4790585935115814, -0.15592242777347565, 3.436391830444336, 0.0049525807, 0.01657159, 0.36786747
575, 31456638, -0.47971656918525696, -0.1559528261423111, 3.435925245285034, -0.009453907, 0.0042176894, 0.3409691
576, 31473305, -0.48002079129219055, -0.15627340972423553, 3.435959577560425, -0.009751007, 0.009619425, 0.36703873
577, 31489972, -0.480543315410614, -0.15658704936504364, 3.436108112335205, -0.015077571, 0.010756658, 0.35363102
578, 31506639, -0.48077553510665894, -0.15598174929618835, 3.4356255531311035, 0.005446663, 0.013300179, 0.35114956
579, 31523306, -0.4802505075931549, -0.1554325371980667, 3.4354538917541504, 0.0071401214, -4.635484E-4, 0.3577566
580, 31539973, -0.4802802801132202, -0.1558632105588913, 3.4361002445220947, 9.035913E-4, -0.010085558, 0.35940933
581, 31556640, -0.48140257596969604, -0.15562373399734497, 3.4362337589263916, 0.002695739, 0.012018239, 0.3568182
582, 31573307, -0.48117104172706604, -0.15565967559814453, 3.436384677886963, -0.005197991, 0.005872101, 0.33856678
583, 31589974, -0.4817200005054474, -0.15567652881145477, 3.4363930225372314, 0.010196738, 0.010580293, 0.36398983
584, 31606641, -0.48183345794677734, -0.15495668351650238, 3.4353983402252197, 0.0024751755, 0.011612769, 0.33772182
585, 31623308, -0.4814656376838684, -0.15523695945739746, 3.436004161834717, -0.001132513, -4.521702E-4, 0.3812523
586, 31639975, -0.48292896151542664, -0.1556352972984314, 3.436997413635254, -0.009043851, 0.0026551452, 0.36300373
587, 31656642, -0.483903169631958, -0.15567263960838318, 3.4374806880950928, -0.005393873, 4.9262604E-4, 0.33103275
588, 31673309, -0.48487111926078796, -0.1547466665506363, 3.4364612102508545, -4.0845596E-4, 6.59936E-4, 0.33861732
589, 31689976, -0.48444610834121704, -0.1542089581489563, 3.436823606491089, 0.008358941, 0.01426163, 0.37138462
590, 31706643, -0.48481276631355286, -0.1553262174129486, 3.4380667209625244, -0.0015566918, -0.002772706, 0.38058376
591, 31723310, -0.48461809754371643, -0.15461045503616333, 3.4367713928222656, -0.0045495033, 0.007971687, 0.3695326
592, 31739977, -0.48458346724510193, -0.15495716035366058, 3.43639874458313, -0.012409609, 0.007392684, 0.36181545
593, 31756644, -0.48564252257347107, -0.1539357602596283, 3.436253786087036, 0.004128386, 0.0212028, 0.35302448
594, 31773311, -0.48723742365837097, -0.15533040463924408, 3.4365556240081787, 0.0075019663, 3.4096203E-5, 0.3447857
595, 31789978, -0.488009512424469, -0.1547577679157257, 3.4357962608337402, -0.0020457485, -0.003308519, 0.35905647
596, 31806645, -0.487664133310318, -0.15506835281848907, 3.4355432987213135, 0.0015298851, -0.012224241, 0.35624123
597, 31823312, -0.48769205808639526, -0.15523740649223328, 3.4344406127929688, -0.016128268, -0.012332247, 0.34184456
598, 31839979, -0.4882274866104126, -0.1558154672384262, 3.436264991760254, -0.0025460517, -0.002188775, 0.34783745
599, 31856646, -0.48781317472457886, -0.15723544359207153, 3.435155153274536, -0.0036758732, 0.008159881, 0.35743904
600, 31873313, -0.47539228200912476, -0.15614131093025208, 3.4467341899871826, 0.007124486, -0.0026240596, 0.34274006
601, 31889980, -0.47594738006591797, -0.1555105745792389, 3.4466354846954346, 0.0067978394, 1.610341E-5, 0.3728876
602, 31906647, -0.47597795724868774, -0.15468652546405792, 3.4462430477142334, 0.008249709, -0.0015045076, 0.36065102
603, 31923314, -0.47580090165138245, -0.15452030301094055, 3.4462761878967285, 0.0154494075, -0.00831209, 0.35095692
604, 31939981, -0.4765463173389435, -0.1555982232093811, 3.446528673171997, 0.0059916456, -0.01508863, 0.3497858
605, 31956648, -0.4769279360771179, -0.15570233762264252, 3.4464221000671387, 0.0058739954, 0.011752091, 0.34743118
606, 31973315, -0.4763966202735901, -0.1554781198501587, 3.4469709396362305, 6.802425E-4, -0.0026487298, 0.35985756
607, 31989982, -0.4763798713684082, -0.1551903635263443, 3.4464049339294434, -0.0018196093, -0.0075851497, 0.35322666
608, 32006649, -0.4771266579627991, -0.153904527425766, 3.447214365005493, -0.00998424, -0.012479105, 0.36184978
609, 32023316, -0.4774705171585083, -0.1531476229429245, 3.4471683502197266, -0.0038743927, -0.005598245, 0.36690712
610, 32039983, -0.4782332479953766, -0.15360528230667114, 3.4455392360687256, 0.014078382, -0.00143825, 0.3704605
611, 32056650, -0.4779970943927765, -0.15432286262512207, 3.446187973022461, -0.011832769, -0.0018829325, 0.36248207
612, 32073317, -0.4784839451313019, -0.15374094247817993, 3.444929599761963, -0.0142618185, -0.0026152413, 0.3766966
613, 32089984, -0.47842663526535034, -0.1560041904449463, 3.4448838233947754, 0.0049182945, 0.013025549, 0.35488796
614, 32106651, -0.4785138666629791, -0.15660984814167023, 3.444854736328125, -0.008819715, -0.01205119, 0.37004566
615, 32123318, -0.4783143699169159, -0.15499219298362732, 3.4443938732147217, 0.0070204968, -0.0071724504, 0.3380823
616, 32139985, -0.47690773010253906, -0.1554659903049469, 3.4448719024658203, 0.016016923, 0.011941616, 0.35512066
617, 32156652, -0.47736656665802, -0.15464317798614502, 3.4453887939453125, 0.001781428, -0.009909807, 0.36452484
618, 32173319, -0.47762948274612427, -0.15294572710990906, 3.447360038757324, -0.00837972, -0.008665677, 0.36330318
619, 32189986, -0.4772661030292511, -0.1530107706785202, 3.4464590549468994, -0.0075119003, -2.5738563E-4, 0.34967518
620, 32206653, -0.4772029519081116, -0.151829794049263, 3.4466702938079834, -0.004350456, 0.012379852, 0.35356998
621, 32223320, -0.47774526476860046, -0.15024656057357788, 3.4464144706726074, 0.008954488, -0.013795122, 0.35478687
622, 32239987, -0.47638964653015137, -0.14911286532878876, 3.445742130279541, 0.0055237925, -0.011742767, 0.3679304
623, 32256654, -0.4764915108680725, -0.14953692257404327, 3.445019483566284, -0.016490579, 0.0057581547, 0.3497944
624, 32273321, -0.47639572620391846, -0.14886553585529327, 3.4447267055511475, -0.0034313605, 0.016399663, 0.3500967
625, 32289988, -0.47655346989631653, -0.14850109815597534, 3.4436917304992676, 0.01079254, 0.015012473, 0.3589821
626, 32306655, -0.47717106342315674, -0.14943096041679382, 3.443587064743042, 0.011315961, -0.004140504, 0.3764696
627, 32323322, -0.4769006669521332, -0.15015485882759094, 3.4430932998657227, 0.016649773, 0.010794373, 0.37529087
628, 32339989, -0.47787100076675415, -0.15115705132484436, 3.443181276321411, -0.008730255, -0.0044056885, 0.34995556
629, 32356656, -0.4770870506763458, -0.15135933458805084, 3.442674398422241, -0.0019043086, 0.0176659, 0.34768772
630, 32373323, -0.4773879647254944, -0.15231353044509888, 3.4438934326171875, 0.0037750134, 0.0118463645, 0.35638618
631, 32389990, -0.4780922830104828, -0.15174175798892975, 3.4427249431610107, 0.015958495, -0.0044119433, 0.3605318
632, 32406657, -0.4791082739830017, -0.1520557850599289, 3.443499803543091, 0.0069061643, -0.004650208, 0.37147045
633, 32423324, -0.47915762662887573, -0.15286242961883545, 3.44376802444458, 0.004996178, 0.0025709788, 0.36763382
634, 32439991, -0.4781961739063263, -0.15275700390338898, 3.4440135955810547, -0.0061103352, 0.005871584, 0.35236835
635, 32456658, -0.47889694571495056, -0.15347500145435333, 3.4447526931762695, 0.0039883005, -0.0022357441, 0.32634735
636, 32473325, -0.4791830778121948, -0.15446016192436218, 3.4437625408172607, 4.517127E-4, 0.004754889, 0.3626585
637, 32489992, -0.4783060550689697, -0.1554660201072693, 3.4438223838806152, 0.010571388, -0.0052183676, 0.35336304
638, 32506659, -0.47807568311691284, -0.15509986877441406, 3.44394850730896, 0.011614552, -0.0030886242, 0.3642416
639, 32523326, -0.47874489426612854, -0.1558235138654709, 3.4447240829467773, -0.0049538347, -0.014183165, 0.36298466
640, 32539993, -0.4787585437297821, -0.15530209243297577, 3.445120096206665, -0.0074134218, 0.015647912, 0.35966587
641, 32556660, -0.47930672764778137, -0.1551748812198639, 3.4453184604644775, 0.0062638614, 0.0018020208, 0.36612034
642, 32573327, -0.4797534644603729, -0.1556864231824875, 3.445422410964966, 0.004672519, -0.008665098, 0.36269283
643, 32589994, -0.47886359691619873, -0.15547215938568115, 3.4457099437713623, 0.016226245, 0.004455001, 0.3446064
644, 32606661, -0.4791105091571808, -0.15620221197605133, 3.4454092979431152, 0.0030427256, -0.006247732, 0.36189175
645, 32623328, -0.47970202565193176, -0.15627019107341766, 3.4459874629974365, -0.016506795, -0.009551847, 0.35928822
646, 32639995, -0.47917118668556213, -0.15627767145633698, 3.4461328983306885, -0.009920037, 0.014815821, 0.34830666
647, 32656662, -0.4789201617240906, -0.1565471589565277, 3.4457974433898926, 0.005381476, 0.013962484, 0.36928082
648, 32673329, -0.4790986478328705, -0.15637293457984924, 3.4459102153778076, -0.010941036, 0.010631523, 0.37526894
649, 32689996, -0.47951823472976685, -0.15612085163593292, 3.445833444595337, 0.011839267, -0.019366898, 0.3562622
650, 32706663, -0.48045679926872253, -0.15586771070957184, 3.445293664932251, 0.008106883, -0.0031199125, 0.35907078
651, 32723330, -0.48075050115585327, -0.1576312929391861, 3.4449517726898193, -0.0013295641, -0.004420255, 0.3701601
652, 32739997, -0.4815879464149475, -0.1562463939189911, 3.444120407104492, 7.71881E-4, 0.005224811, 0.34379387
653, 32756664, -0.4812696576118469, -0.1568557471036911, 3.444227695465088, 0.005892982, 0.0011523629, 0.3458557
654, 32773331, -0.4821661710739136, -0.15801122784614563, 3.4434571266174316, -0.005731836, -0.008566951, 0.35615635
655, 32789998, -0.4838435649871826, -0.1579483151435852, 3.4444127082824707, -0.0036611876, -0.0049317577, 0.35163975
656, 32806665, -0.4836512506008148, -0.1574486494064331, 3.443800687789917, -0.009514226, 7.0560246E-4, 0.35949898
657, 32823332, -0.48342740535736084, -0.15753333270549774, 3.4441068172454834, 0.010911186, 0.00608382, 0.36529064
658, 32839999, -0.4841679334640503, -0.1580740362405777, 3.445572853088379, -3.7378178E-4, -0.007914831, 0.36631393
659, 32856666, -0.4836443066596985, -0.15741263329982758, 3.445014476776123, -0.017521402, 0.014486465, 0.36999893
660, 32873333, -0.4840363562107086, -0.15677762031555176, 3.4445180892944336, -0.0048298864, 0.010515883, 0.36262703
661, 32890000, -0.48369187116622925, -0.15700960159301758, 3.4447600841522217, -0.014855183, -0.011282089, 0.3481722
662, 32906667, -0.4841436743736267, -0.15685956180095673, 3.4436798095703125, 0.005075071, 0.0036886588, 0.3455553
663, 32923334, -0.4838658571243286, -0.15694227814674377, 3.443063497543335, 0.010974862, -0.0010467286, 0.3421421
664, 32940001, -0.48373258113861084, -0.1573738306760788, 3.444030523300171, 0.0131732235, 0.02084299, 0.37032127
665, 32956668, -0.48450422286987305, -0.15688380599021912, 3.444678544998169, -0.0026825238, -0.008642813, 0.34362411
666, 32973335, -0.4858216643333435, -0.1572697013616562, 3.443760395050049, 0.005911834, 0.001965531, 0.36617947
667, 32990002, -0.48575371503829956, -0.1582690179347992, 3.4447388648986816, -0.012740524, -0.003866987, 0.35303783
668, 33006669, -0.48631757497787476, -0.15746785700321198, 3.4457149505615234, 0.0015609498, 0.0060934625, 0.3548565
669, 33023336, -0.48647329211235046, -0.15778790414333344, 3.4450151920318604, 0.00486722, -1.4867104E-5, 0.3711033
670, 33040003, -0.4873659014701843, -0.15724246203899384, 3.445918560028076, -0.015342298, 0.0051402114, 0.3624878
671, 33056670, -0.48862287402153015, -0.15718410909175873, 3.4467430114746094, -0.005123245, 0.006556676, 0.3832655
672, 33073337, -0.4882076382637024, -0.15736451745033264, 3.447976589202881, -0.00846284, 0.01091762, 0.34123898
673, 33090004, -0.4869651198387146, -0.1560131013393402, 3.4488229751586914, 0.005773764, 0.008422963, 0.36223888
674, 33106671, -0.4869602620601654, -0.15598802268505096, 3.449448585510254, -0.0061776238, 0.0066957916, 0.3662691
675, 33123338, -0.4866423010826111, -0.1555410921573639, 3.450410842895508, 0.007518071, 0.0037132837, 0.3500538
676, 33140005, -0.48588791489601135, -0.15527234971523285, 3.4506542682647705, 0.006691016, 0.01178843, 0.3738432
677, 33156672, -0.48676154017448425, -0.15565796196460724, 3.4505743980407715, 0.0036957972, 0.0012456796, 0.35120487
678, 33173339, -0.4865857660770416, -0.15616647899150848, 3.4512076377868652, 0.010791934, 0.013057938, 0.342453
679, 33190006, -0.486453652381897, -0.1553955376148224, 3.452221632003784, 0.0067235646, 0.0117390435, 0.3588972
680, 33206673, -0.48686084151268005, -0.1555386632680893, 3.45249605178833, 0.0049330234, 0.008014438, 0.35724926
681, 33223340, -0.48817652463912964, -0.15398214757442474, 3.4535930156707764, -2.7549718E-4, 0.00543609, 0.34663486
682, 33240007, -0.48872432112693787, -0.15464982390403748, 3.4542295932769775, 0.011235509, 0.0036115013, 0.3666582
683, 33256674, -0.48841726779937744, -0.15482394397258759, 3.4538018703460693, 0.0037469678, 0.0012056743, 0.36348057
684, 33273341, -0.48924726247787476, -0.15431968867778778, 3.4533848762512207, 1.4799875E-4, 0.011665413, 0.3576994
685, 33290008, -0.4899499714374542, -0.1545621007680893, 3.453807830810547, -0.013383785, 0.021387337, 0.36991215
686, 33306675, -0.48971426486968994, -0.15547573566436768, 3.4540867805480957, 2.3324275E-4, -0.0072014933, 0.35379028
687, 33323342, -0.49034562706947327, -0.15486569702625275, 3.4552688598632812, -0.0022179522, 0.007902413, 0.37788105
688, 33340009, -0.49115222692489624, -0.15396817028522491, 3.4563984870910645, 0.020351376, -0.0037202334, 0.3391962
689, 33356676, -0.4916422963142395, -0.1541772186756134, 3.4562976360321045, 0.0067865727, 0.01483466, 0.3564253
690, 33373343, -0.490906298160553, -0.15540048480033875, 3.4558656215667725, 0.003943987, 0.007855272, 0.34793758
691, 33390010, -0.4904516041278839, -0.1550626903772354, 3.456308603286743, -0.009265152, 0.0011040493, 0.35993862
692, 33406677, -0.49059492349624634, -0.154031902551651, 3.4561450481414795, 0.005824397, 0.013047391, 0.36738014
693, 33423344, -0.49111664295196533, -0.15358904004096985, 3.456371545791626, 0.016426565, 0.011989147, 0.35392857
694, 33440011, -0.4917028248310089, -0.15296892821788788, 3.4570796489715576, 0.015420657, 0.007982043, 0.37551403
695, 33456678, -0.4918964207172394, -0.15280336141586304, 3.457253932952881, 0.015593163, 0.014063476, 0.33016777
696, 33473345, -0.49092426896095276, -0.15233971178531647, 3.457698345184326, -9.143714E-4, -0.0040487135, 0.3799162
697, 33490012, -0.4910602569580078, -0.15346047282218933, 3.4580276012420654, 0.0073910863, -0.020015655, 0.36943722
698, 33506679, -0.4910149872303009, -0.15348687767982483, 3.4571943283081055, -0.006592436, -0.0015802296, 0.35123825
699, 33523346, -0.491141676902771, -0.15381762385368347, 3.45666241645813, -0.003192433, 0.013099797, 0.34216404
700, 33540013, -0.4907722473144531, -0.15393485128879547, 3.456312656402588, 0.02003703, 0.0072631375, 0.34517097
701, 33556680, -0.4902973473072052, -0.1525219827890396, 3.456646203994751, 0.012235738, 0.006297174, 0.35444546
702, 33573347, -0.49045026302337646, -0.15157367289066315, 3.4565443992614746, -0.0019784563, 0.0032845926, 0.35078526
703, 33590014, -0.4916519522666931, -0.15067972242832184, 3.4566521644592285, 0.009633447, 0.006227759, 0.36757755
704, 33606681, -0.4912855327129364, -0.1510431170463562, 3.455505847930908, 0.0030181392, 0.011306424, 0.34059906
705, 33623348, -0.49107930064201355, -0.15115411579608917, 3.4555327892303467, 0.002888341, 0.010587673, 0.34924603
706, 33640015, -0.49091434478759766, -0.15196551382541656, 3.455129384994507, -0.0012354897, 0.007825729, 0.34960365
707, 33656682, -0.4911196827888489, -0.15312784910202026, 3.4535553455352783, 0.011230045, -4.360249E-4, 0.35307407
708, 33673349, -0.491226464509964, -0.15240643918514252, 3.453282594680786, -0.008468625, -0.0049152384, 0.349041
709, 33690016, -0.49123415350914, -0.15343937277793884, 3.4525580406188965, 0.0020989787, 0.013006404, 0.35191154
710, 33706683, -0.49199768900871277, -0.1539093405008316, 3.4533674716949463, 0.002697356, -0.0035733855, 0.37485886
711, 33723350, -0.4921727776527405, -0.15498749911785126, 3.4543051719665527, 0.010737469, -0.017927565, 0.35789967
712, 33740017, -0.490901380777359, -0.15441711246967316, 3.4540934562683105, -0.002261581, -0.012069336, 0.3288555
713, 33756684, -0.49036240577697754, -0.15507124364376068, 3.4550862312316895, 0.0058229403, 0.006267876, 0.3617735
714, 33773351, -0.4912312626838684, -0.15587453544139862, 3.4552040100097656, -0.0020538596, 0.014522, 0.34054375
715, 33790018, -0.4919887185096741, -0.1561724841594696, 3.4552366733551025, 0.008082742, 0.004595042, 0.38162136
716, 33806685, -0.49198710918426514, -0.15624025464057922, 3.455900192260742, 0.0030270568, -0.006493338, 0.3490095
717, 33823352, -0.4919394254684448, -0.15625984966754913, 3.4559597969055176, -0.0015988833, -4.741967E-4, 0.34816074
718, 33840019, -0.4934043288230896, -0.15426574647426605, 3.4571285247802734, -0.009378132, -0.0019629223, 0.3802185
719, 33856686, -0.49365362524986267, -0.15498700737953186, 3.455871343612671, 8.62423E-4, 0.02402106, 0.38390255
720, 33873353, -0.4827080965042114, -0.15549162030220032, 3.4545845985412598, 0.016620126, -0.0011502431, 0.36098862
721, 33890020, -0.48279309272766113, -0.1547642946243286, 3.453998327255249, -0.0036893415, -0.011570948, 0.3688984
722, 33906687, -0.4827289581298828, -0.15451210737228394, 3.4554173946380615, 3.523088E-4, 0.010031897, 0.38471127
723, 33923354, -0.4827338755130768, -0.15485388040542603, 3.455305814743042, -0.0033578754, -0.0023656192, 0.3568802
724, 33940021, -0.48303839564323425, -0.15486757457256317, 3.4561259746551514, -0.013059217, 0.008253422, 0.34883976
725, 33956688, -0.4816017150878906, -0.15583741664886475, 3.4565069675445557, -0.0026384997, -0.001713597, 0.35243893
726, 33973355, -0.4833156168460846, -0.1544118970632553, 3.456066370010376, 0.0069402815, 0.009690446, 0.34045887
727, 33990022, -0.4840545654296875, -0.1538117676973343, 3.456200122833252, -0.0026171578, -0.007512721, 0.3635769
728, 34006689, -0.48441648483276367, -0.15349386632442474, 3.456291675567627, 0.0014134698, -0.0032665161, 0.34644794
729, 34023356, -0.48418480157852173, -0.15230055153369904, 3.4560422897338867, 0.0011319447, 0.0053339656, 0.35248184
730, 34040023, -0.48340094089508057, -0.15239956974983215, 3.4573099613189697, -0.0010703948, 0.01974354, 0.35097408
731, 34056690, -0.48356443643569946, -0.1529361754655838, 3.457974433898926, -0.008157949, -0.003976722, 0.35134602
732, 34073357, -0.48375701904296875, -0.1531335413455963, 3.457709550857544, 0.006663723, 0.0011107582, 0.36023903
733, 34090024, -0.4834105968475342, -0.15332604944705963, 3.45743727684021, 0.0026158332, -0.0017212384, 0.37347507
734, 34106691, -0.4837687909603119, -0.15171077847480774, 3.455501079559326, -0.0057108067, -0.010402247, 0.3411188
735, 34123358, -0.4840354919433594, -0.1523858606815338, 3.4562604427337646, -0.003490794, 3.9775876E-4, 0.3589754
736, 34140025, -0.4844851791858673, -0.15288478136062622, 3.4546968936920166, -0.0075777974, 0.0066026985, 0.33840847
737, 34156692, -0.48429057002067566, -0.15193016827106476, 3.45624041557312, 0.003634146, 0.0035959568, 0.34461308
738, 34173359, -0.4826056957244873, -0.15164639055728912, 3.4569332599639893, 0.0025239922, 0.0106801195, 0.3414669
739, 34190026, -0.4825046956539154, -0.15108078718185425, 3.457961082458496, 0.00978183, 0.0051311487, 0.368392
740, 34206693, -0.48242875933647156, -0.15157760679721832, 3.4590036869049072, -0.011223878, -0.004307702, 0.3470049
741, 34223360, -0.4823283851146698, -0.15238340198993683, 3.459023952484131, 0.005829602, -0.010079854, 0.35218525
742, 34240027, -0.48203206062316895, -0.1533590704202652, 3.458716869354248, 0.0032098643, 0.021442937, 0.35406113
743, 34256694, -0.4819502532482147, -0.1524735987186432, 3.4587502479553223, 0.009779458, 0.022700088, 0.3684311
744, 34273361, -0.4829598665237427, -0.15263523161411285, 3.458022117614746, 0.014287016, -0.0032250648, 0.3553238
745, 34290028, -0.4828517436981201, -0.1516430824995041, 3.4579339027404785, 0.013728546, -0.014737027, 0.3660698
746, 34306695, -0.48246750235557556, -0.15160907804965973, 3.4576501846313477, 0.010165449, -0.01123484, 0.36008835
747, 34323362, -0.48274779319763184, -0.150474414229393, 3.4582936763763428, -0.004774297, 0.010610883, 0.35380268
748, 34340029, -0.4826315641403198, -0.15058527886867523, 3.4578793048858643, -0.002866813, -0.0030267565, 0.38081455
749, 34356696, -0.4809875190258026, -0.1504306197166443, 3.4573936462402344, 0.0062395385, -0.016510084, 0.3442707
750, 34373363, -0.48241493105888367, -0.1509089469909668, 3.456940174102783, -0.006970366, 0.016338862, 0.36154938
751, 34390030, -0.48248589038848877, -0.1519005000591278, 3.457901954650879, -8.2282105E-4, 0.012207339, 0.34003544
752, 34406697, -0.48257553577423096, -0.1516062170267105, 3.4581243991851807, -4.4701193E-4, 0.008140119, 0.35829353
753, 34423364, -0.48321470618247986, -0.15266208350658417, 3.4568722248077393, 0.0021606106, 0.0056571336, 0.35513592
754, 34440031, -0.48214519023895264, -0.15219299495220184, 3.456334352493286, -0.00205727, -0.001400602, 0.37528038
755, 34456698, -0.4828442335128784, -0.15265271067619324, 3.4563918113708496, -0.02010407, -0.008493108, 0.37261868
756, 34473365, -0.4826914370059967, -0.15277257561683655, 3.455876111984253, 0.011254688, 0.01573471, 0.34036064
757, 34490032, -0.4829007387161255, -0.15302471816539764, 3.4559271335601807, 0.018717244, 0.008524903, 0.3452549
758, 34506699, -0.48169514536857605, -0.15248441696166992, 3.4565021991729736, -0.0076527097, -0.008407171, 0.35886478
759, 34523366, -0.48095881938934326, -0.15197055041790009, 3.4579155445098877, 0.012114294, 0.003829238, 0.326972
760, 34540033, -0.48121991753578186, -0.1514064520597458, 3.458223819732666, 0.009029787, 0.010611707, 0.3565216
761, 34556700, -0.48290643095970154, -0.15105727314949036, 3.458991289138794, 0.011680662, -6.353146E-4, 0.36173344
762, 34573367, -0.4837888777256012, -0.15124142169952393, 3.4586753845214844, 0.006508271, 0.007855988, 0.369565
763, 34590034, -0.4847414791584015, -0.15000322461128235, 3.4579954147338867, 0.006620759, 0.012375811, 0.3631115
764, 34606701, -0.48538723587989807, -0.1508418768644333, 3.4583580493927, 0.0068929135, 0.009734517, 0.36055756
765, 34623368, -0.4855858385562897, -0.15123960375785828, 3.4595911502838135, -0.010032272, 0.004339298, 0.3814373
766, 34640035, -0.4856204688549042, -0.15137776732444763, 3.459893226623535, -0.003935545, 0.005493917, 0.3529892
767, 34656702, -0.48624923825263977, -0.15122424066066742, 3.4588000774383545, 0.012941297, 0.0071295253, 0.32856655
768, 34673369, -0.48662227392196655, -0.15323512256145477, 3.4577579498291016, 0.00839043, -5.4031116E-4, 0.34246826
769, 34690036, -0.485994428396225, -0.15346339344978333, 3.4585349559783936, 0.007264482, 0.011872048, 0.35085392
770, 34706703, -0.48500746488571167, -0.15161368250846863, 3.4588558673858643, 0.011383204, -0.005002807, 0.3410511
771, 34723370, -0.48648786544799805, -0.15175694227218628, 3.4583537578582764, 1.0207383E-4, 0.0056009134, 0.35656166
772, 34740037, -0.4877825677394867, -0.15146227180957794, 3.458646774291992, -0.0035695937, 0.01340549, 0.37288284
773, 34756704, -0.48657745122909546, -0.15166115760803223, 3.457402467727661, -0.0057282033, 1.487793E-4, 0.3535614
774, 34773371, -0.4858704209327698, -0.15202200412750244, 3.457874059677124, 0.016523216, 0.0026310897, 0.3339939
775, 34790038, -0.4861862063407898, -0.1515592634677887, 3.4585015773773193, 0.0031547595, 0.0070164036, 0.3442583
776, 34806705, -0.48650649189949036, -0.15178771317005157, 3.4604403972625732, 0.0063498514, 0.0014952039, 0.36761665
777, 34823372, -0.4862959682941437, -0.1525990217924118, 3.459686040878296, -0.0020523493, -5.2240916E-4, 0.3405199
778, 34840039, -0.48694804310798645, -0.15226271748542786, 3.458897352218628, 0.0018095993, 0.008809284, 0.3421316
779, 34856706, -0.4874122440814972, -0.1515928953886032, 3.4602668285369873, 0.0049859434, 0.0039111483, 0.35813713
780, 34873373, -0.501183271408081, -0.14995348453521729, 3.4608943462371826, 0.0099786995, 0.06431866, 0.37443542
781, 34890040, -0.5486476421356201, -0.12901188433170319, 3.461953639984131, 0.007369706, -0.051505104, 0.34554195
782, 34906707, -0.5683692693710327, -0.11597748100757599, 3.461230516433716, -0.0037895234, 0.0057424633, 0.35577488
783, 34923374, -0.5814622640609741, -0.10629329830408096, 3.460334062576294, 0.002056947, -0.015588736, 0.32767677
784, 34940041, -0.6007433533668518, -0.09526766091585159, 3.4582788944244385, 0.0160879, 0.013666197, 0.37433815
785, 34956708, -0.6187799572944641, -0.09845954924821854, 3.442030191421509, -0.00742465, 0.0067040827, 0.33441448
786, 34973375, -0.6198663711547852, -0.11210738122463226, 3.1976726055145264, -0.04426968, -0.023877222, 0.353364
787, 34990042, -0.6119436025619507, -0.17710697650909424, 2.5486748218536377, 0.12105628, -0.18562102, 0.33726597
788, 35006709, -0.5760239958763123, -0.21386806666851044, 2.323669910430908, -0.04201614, 0.18661378, 0.3630581
789, 35023376, -0.5462448000907898, -0.23189924657344818, 2.278010845184326, -0.026738925, -0.15073125, 0.34799767
790, 35040043, -0.5583372116088867, -0.27176934480667114, 1.7946224212646484, -0.028412051, -0.07903822, 0.33302498
791, 35056710, -0.5495341420173645, -0.29805031418800354, 1.536496639251709, 0.022009129, 0.18398002, 0.34845734
792, 35073377, -0.5690034031867981, -0.3168267011642456, 1.0671237707138062, -0.10034298, -0.19485582, 0.37876892
793, 35090044, -0.5840263366699219, -0.336521178483963, 0.4403490126132965, 0.045299616, 0.089128055, 0.34431458
794, 35106711, -0.5708714723587036, -0.35315003991127014, -0.14395268261432648, -0.031686924, -0.010604952, 0.34992027
795, 35123378, -0.5472350120544434, -0.3845739960670471, -0.7518230080604553, -0.014925923, -0.035800986, 0.34167862
796, 35140045, -0.5183236598968506, -0.414138525724411, -1.0434489250183105, -0.00794262, -0.010985299, 0.36818886
797, 35156712, -0.5066104531288147, -0.43439921736717224, -1.4198455810546875, -0.029015006, -0.09612895, 0.36711502
798, 35173379, -0.5034171938896179, -0.4497595429420471, -1.7781723737716675, 0.05498599, 0.067936175, 0.36466503
799, 35190046, -0.5173284411430359, -0.45805180072784424, -2.076090097427368, -0.017216407, 0.042502005, 0.37980843
800, 35206713, -0.5429080128669739, -0.4695417284965515, -2.4049289226531982, -9.257592E-4, 0.041583035, 0.3550825
801, 35223380, -0.5488272309303284, -0.4815673530101776, -2.6432089805603027, -0.024905374, 0.008093048, 0.35541058
802, 35240047, -0.5413573980331421, -0.4885808825492859, -2.9737465381622314, -0.04140389, -0.082966425, 0.34668636
803, 35256714, -0.5305553674697876, -0.49764305353164673, -3.3881659507751465, -0.019288398, -0.048264373, 0.38245106
804, 35273381, -0.5256330370903015, -0.5032534003257751, -3.791285991668701, -0.0037196537, -0.0016890664, 0.37232685
805, 35290048, -0.5227409601211548, -0.5131338238716125, -4.173388481140137, -0.022300724, 0.052449577, 0.351799
806, 35306715, -0.5301234126091003, -0.5240158438682556, -4.520420074462891, -0.056449573, -0.03526518, 0.34335518
807, 35323382, -0.5260865092277527, -0.5363965630531311, -4.899609565734863, 6.0910074E-4, -0.0018629631, 0.35869408
808, 35340049, -0.5081835389137268, -0.5430552363395691, -5.319723606109619, 0.006830874, -0.13369922, 0.3568573
809, 35356716, -0.4867718517780304, -0.5509927272796631, -5.938091278076172, 0.019576158, -0.07755601, 0.35490036
810, 35373383, -0.47888240218162537, -0.5586439371109009, -6.583993911743164, 0.018362008, 0.09139245, 0.34929085
811, 35390050, -0.48210448026657104, -0.5708688497543335, -6.934397220611572, -0.009246476, 0.25074917, 0.36688137
812, 35406717, -0.5009512901306152, -0.5864313244819641, -7.181260108947754, -0.090027794, -0.059905257, 0.35170078
813, 35423384, -0.48871076107025146, -0.5937582850456238, -7.399955749511719, 0.06101419, 0.048671756, 0.32918072
814, 35440051, -0.46324846148490906, -0.5931037068367004, -7.522175312042236, -0.048536856, -0.122269385, 0.37771797
815, 35456718, -0.45333337783813477, -0.5874117612838745, -7.812198162078857, -0.025193175, -0.08367559, 0.36812115
816, 35473385, -0.4562016725540161, -0.5907339453697205, -8.213345527648926, -0.06328004, -0.07118054, 0.3543272
817, 35490052, -0.46400827169418335, -0.6069477200508118, -8.819969177246094, -0.17486857, -0.10811161, 0.34321785
818, 35506719, -0.4636378288269043, -0.6274319291114807, -9.587933540344238, -0.088970646, -0.015528604, 0.35952568
819, 35523386, -0.4535142779350281, -0.6369420886039734, -10.11723518371582, 0.1969354, 0.2570736, 0.35068226
820, 35540053, -0.43683645129203796, -0.6375060081481934, -10.354143142700195, -0.0035986004, -0.024765166, 0.3524084
821, 35556720, -0.420935720205307, -0.6283212304115295, -10.621588706970215, 0.015521316, -0.0073226653, 0.33949757
822, 35573387, -0.41574499011039734, -0.6240572929382324, -10.871075630187988, -0.03791065, -0.015934246, 0.36833668
823, 35590054, -0.44153767824172974, -0.6389020681381226, -11.32468032836914, -0.20679702, -0.088063635, 0.36650658
824, 35606721, -0.44970136880874634, -0.6521728038787842, -11.905001640319824, -0.11098462, 0.00816694, 0.346097
825, 35623388, -0.4338446259498596, -0.6477056741714478, -12.48200798034668, 0.05669959, -0.013346856, 0.36004066
826, 35640055, -0.40599867701530457, -0.6427194476127625, -12.961965560913086, 0.07353892, -0.035104707, 0.35263062
827, 35656722, -0.383774995803833, -0.6416504979133606, -13.341596603393555, 0.061383, 0.04574219, 0.3492241
828, 35673389, -0.37144139409065247, -0.6376924514770508, -13.644944190979004, -0.009608299, -0.0042169807, 0.35862827
829, 35690056, -0.36061373353004456, -0.6360126733779907, -13.909046173095703, -0.02892972, 0.02307316, 0.38732815
830, 35706723, -0.35454660654067993, -0.637973427772522, -14.195680618286133, -0.043842543, -0.045015827, 0.37059116
831, 35723390, -0.35229018330574036, -0.6431795358657837, -14.483097076416016, -0.027856555, -0.0024519127, 0.3491621
832, 35740057, -0.3564412295818329, -0.6520569324493408, -14.801044464111328, -0.059085246, -0.05946906, 0.32187843
833, 35756724, -0.3391488790512085, -0.6576720476150513, -15.012642860412598, 0.033835288, 0.047990732, 0.34465504
834, 35773391, -0.3206670582294464, -0.6547912955284119, -15.170656204223633, -0.016957827, -0.047253173, 0.35756397
835, 35790058, -0.3045152425765991, -0.6444512605667114, -15.385964393615723, -0.030792514, -0.07082602, 0.36505413
836, 35806725, -0.30151650309562683, -0.6417860984802246, -15.621724128723145, -0.05385676, -0.043433484, 0.37152195
837, 35823392, -0.3166450560092926, -0.6513157486915588, -15.890802383422852, -0.057033174, 0.03444904, 0.3335209
838, 35840059, -0.3340860903263092, -0.6690552830696106, -16.124591827392578, -0.053525187, -0.022053108, 0.34976482
839, 35856726, -0.33411771059036255, -0.6729516386985779, -16.321733474731445, 0.0068877786, -0.003330811, 0.35689545
840, 35873393, -0.32406872510910034, -0.6665935516357422, -16.448760986328125, 0.019449312, 0.015017259, 0.350626
841, 35890060, -0.3211797773838043, -0.663338840007782, -16.556306838989258, -0.11613922, -0.09519109, 0.36744976
842, 35906727, -0.3343529999256134, -0.6621535420417786, -16.790374755859375, 0.010681328, 0.03433269, 0.34685326
843, 35923394, -0.3465974032878876, -0.6653110980987549, -16.931344985961914, -0.057682745, -0.0374466, 0.34605598
844, 35940061, -0.3372684717178345, -0.6619481444358826, -17.049135208129883, 0.03399293, 0.060170986, 0.34802246
845, 35956728, -0.3331179618835449, -0.6636435985565186, -17.05276870727539, -0.03695365, -0.026198192, 0.35123634
846, 35973395, -0.3365171253681183, -0.6655581593513489, -17.058704376220703, -0.025954686, -0.0024943138, 0.3500328
847, 35990062, -0.34649863839149475, -0.6771869659423828, -17.16962432861328, -0.20239411, -0.15319514, 0.35244846
848, 36006729, -0.3475976586341858, -0.6764412522315979, -17.578781127929688, 0.021626985, 0.021759905, 0.32758904
849, 36023396, -0.33245038986206055, -0.6768990159034729, -17.73495864868164, 0.054329585, 0.027913766, 0.3476019
850, 36040063, -0.29888716340065, -0.6748683452606201, -17.85129737854004, -0.014891306, -0.017745657, 0.34014606
851, 36056730, -0.2609514594078064, -0.6688149571418762, -17.90733528137207, -0.045765273, -0.038289864, 0.38937283
852, 36073397, -0.24621154367923737, -0.6684021353721619, -18.105131149291992, -0.08933814, -0.094142035, 0.3642683
853, 36090064, -0.24102838337421417, -0.6716341376304626, -18.303251266479492, -0.03667531, 0.01322402, 0.3894415
854, 36106731, -0.23618856072425842, -0.6729955673217773, -18.434837341308594, -0.0034413661, 0.025047705, 0.36941433
855, 36123398, -0.22590336203575134, -0.6668738126754761, -18.522964477539062, -0.027921915, -0.033403218, 0.3590088
856, 36140065, -0.22164954245090485, -0.6547829508781433, -18.71587371826172, -0.048663445, -0.049659383, 0.35509396
857, 36156732, -0.21596753597259521, -0.6503923535346985, -18.931724548339844, -0.03432251, -0.021798654, 0.3642454
858, 36173399, -0.20743389427661896, -0.6498203873634338, -19.222230911254883, -0.03491333, -0.05296275, 0.35303688
859, 36190066, -0.19628919661045074, -0.6422542333602905, -19.48146629333496, -0.02659195, 0.023317493, 0.35343647
860, 36206733, -0.17267662286758423, -0.6428704857826233, -19.63885498046875, -0.05454783, -0.023449987, 0.3268032
861, 36223400, -0.14727869629859924, -0.653822660446167, -19.778541564941406, -0.019353878, 0.043657213, 0.34451675
862, 36240067, -0.12718549370765686, -0.6707344651222229, -19.806650161743164, -0.030075481, -0.013513375, 0.35014725
863, 36256734, -0.1378711313009262, -0.6776084899902344, -19.986085891723633, -0.09146032, -0.13975988, 0.3814764
864, 36273401, -0.16835804283618927, -0.6767481565475464, -20.36726188659668, -0.04459707, -0.104578935, 0.34615612
865, 36290068, -0.1631649285554886, -0.6662096977233887, -20.7200927734375, -0.017193796, -0.011078987, 0.35079193
866, 36306735, -0.15536215901374817, -0.6540675759315491, -21.028684616088867, -0.0010009119, -0.041753765, 0.3689127
867, 36323402, -0.1478884518146515, -0.6500654220581055, -21.335384368896484, -0.031034965, -3.329767E-4, 0.358469
868, 36340069, -0.1584986001253128, -0.662589967250824, -21.621410369873047, -0.13002573, -0.0011846082, 0.36317253
869, 36356736, -0.17166396975517273, -0.6821748614311218, -21.889951705932617, -0.075937554, -0.015529439, 0.33965397
870, 36373403, -0.169408917427063, -0.6880561113357544, -22.162052154541016, -0.027752532, -0.04098848, 0.35595894
871, 36390070, -0.15992452204227448, -0.6750994920730591, -22.532114028930664, -0.03926044, -0.12942229, 0.35395336
872, 36406737, -0.17200340330600739, -0.6625347137451172, -23.183998107910156, -0.057727277, -0.14115526, 0.36719894
873, 36423404, -0.16889238357543945, -0.6663800477981567, -23.84349822998047, -0.050430767, 0.08734908, 0.36732292
874, 36440071, -0.15752144157886505, -0.6892029047012329, -24.367570877075195, -0.073960505, 0.04414001, 0.3572054
875, 36456738, -0.12866465747356415, -0.7093899250030518, -24.761714935302734, -0.04634665, -0.0058940104, 0.3585167
876, 36473405, -0.10160969197750092, -0.7270632386207581, -25.005084991455078, -0.053007968, 0.0050812126, 0.35599613
877, 36490072, -0.08956927806138992, -0.7353606224060059, -25.26070785522461, -0.054445, -0.042314738, 0.37314892
878, 36506739, -0.09433803707361221, -0.7320646643638611, -25.592859268188477, -0.11002074, -0.08556949, 0.36322308
879, 36523406, -0.09173677116632462, -0.7260148525238037, -26.11201286315918, -0.124956176, -0.083808474, 0.33600903
880, 36540073, -0.07747267931699753, -0.7205917239189148, -26.733633041381836, -0.0743053, -0.07649686, 0.33742714
881, 36556740, -0.041394881904125214, -0.7180981040000916, -27.31688690185547, -0.06177404, -0.03912669, 0.34484386
882, 36573407, -0.009844073094427586, -0.7228106260299683, -27.826753616333008, -0.065961964, -0.03369703, 0.3732729
883, 36590074, 0.015967294573783875, -0.7316011190414429, -28.217021942138672, 0.009132613, 0.013493377, 0.3522663
884, 36606741, 0.02235512249171734, -0.7379189133644104, -28.538076400756836, -0.024279999, 0.03049271, 0.36040878
885, 36623408, 0.006717550102621317, -0.7367157936096191, -28.84320640563965, -0.053036433, -0.0021583266, 0.35562706
886, 36640075, -0.018773794174194336, -0.7396637797355652, -29.23943519592285, -0.10316163, -0.0015270265, 0.36462307
887, 36656742, -0.025890743359923363, -0.7459093928337097, -29.545394897460938, 0.016483648, 0.02851167, 0.3674059
888, 36673409, -0.038889795541763306, -0.7494000792503357, -29.784151077270508, -0.05880681, -0.004738897, 0.35987473
889, 36690076, -0.05538865923881531, -0.7479109764099121, -30.019939422607422, -0.08582367, -0.007863397, 0.35247993
890, 36706743, -0.06491654366254807, -0.7377459406852722, -30.334182739257812, -0.04933863, -0.022447012, 0.36812878
891, 36723410, -0.06093665957450867, -0.7253110408782959, -30.604400634765625, -0.01773581, -0.0676682, 0.34111786
892, 36740077, -0.04747527465224266, -0.7181957364082336, -30.909351348876953, -0.1125182, -0.04833766, 0.35853004
893, 36756744, -0.04063168913125992, -0.7260358333587646, -31.237218856811523, -0.12006387, -0.028093178, 0.3667307
894, 36773411, -0.03323403373360634, -0.7348061203956604, -31.537742614746094, -0.06949699, -0.024721647, 0.3656025
895, 36790078, -0.030388345941901207, -0.7360085248947144, -31.824615478515625, -0.022221763, -0.02693158, 0.3456974
896, 36806745, -0.03359350934624672, -0.7315534949302673, -32.0734977722168, -0.01201519, 0.0045484626, 0.3696375
897, 36823412, -0.047097478061914444, -0.7258257269859314, -32.37187576293945, -0.13073511, 0.014472441, 0.35451794
898, 36840079, -0.05707065388560295, -0.7265310287475586, -32.76248550415039, -0.15995981, -0.0040378296, 0.36964512
899, 36856746, -0.046806465834379196, -0.7278987765312195, -33.16665267944336, -0.08073804, -0.06582637, 0.34744167
900, 36873413, -0.024579918012022972, -0.7236921787261963, -33.57506561279297, -0.060190823, -0.08464769, 0.34274197
901, 36890080, -0.004083950538188219, -0.7224389314651489, -33.93638610839844, 0.0046403175, -0.038961984, 0.3724842
902, 36906747, -6.386604509316385E-4, -0.725618302822113, -34.205814361572266, -0.03400759, -5.646129E-4, 0.36165905
903, 36923414, -0.0032441457733511925, -0.7280173301696777, -34.50951385498047, -0.10392581, -0.00253211, 0.3411932
904, 36940081, -0.009120063856244087, -0.7294699549674988, -34.84193420410156, -0.09641818, -0.0042906054, 0.34312248
905, 36956748, -0.019650153815746307, -0.7272242307662964, -35.27411651611328, -0.16054942, 0.06819197, 0.3475504
906, 36973415, -0.028903307393193245, -0.7216564416885376, -35.62517547607422, 0.07273063, -0.062664755, 0.34599972
907, 36990082, -0.0349472351372242, -0.711525559425354, -35.91271209716797, -0.036789253, -0.055784035, 0.34283924
908, 37006749, -0.02933105081319809, -0.7071489095687866, -36.06085968017578, -0.0021649778, -0.1106467, 0.37297058
909, 37023416, -0.015185834839940071, -0.7097983956336975, -36.09754180908203, -0.06744302, -0.036645085, 0.37779045
910, 37040083, -0.0017156548565253615, -0.7080103158950806, -36.20319747924805, -0.16943166, -0.040154655, 0.35897446
911, 37056750, 0.006308245472609997, -0.7023154497146606, -36.37156295776367, -0.037708085, -0.055618264, 0.357769
912, 37073417, 0.006666531320661306, -0.6982117295265198, -36.52729797363281, -0.12637325, -0.017862579, 0.34934425
913, 37090084, 0.001025096862576902, -0.6940861344337463, -36.7116813659668, 1.9342602E-4, -0.014924276, 0.35318184
914, 37106751, -0.0014892362523823977, -0.6920158863067627, -36.82842254638672, -0.11039343, -0.02275806, 0.36101532
915, 37123418, -0.0026278262957930565, -0.6921325922012329, -36.969482421875, -0.061022334, -0.020649383, 0.37965584
916, 37140085, -0.005568276159465313, -0.6924765110015869, -37.1704216003418, -0.12015028, -0.03203331, 0.3357582
917, 37156752, -0.004802383482456207, -0.6912139058113098, -37.352970123291016, -0.03477877, -0.028979938, 0.35302162
918, 37173419, 0.003350061597302556, -0.6883721351623535, -37.53206253051758, -0.05370234, -0.053909652, 0.3585863
919, 37190086, 0.014969119802117348, -0.6867907643318176, -37.67304229736328, -0.04598309, -0.053319316, 0.36313725
920, 37206753, 0.028806470334529877, -0.6850296258926392, -37.78154373168945, -0.099289134, -0.05568676, 0.34711838
921, 37223420, 0.042133450508117676, -0.6836072206497192, -37.922935485839844, -0.09418428, -0.042767253, 0.38094997
922, 37240087, 0.04396864399313927, -0.6825718283653259, -38.09682846069336, -0.07588602, -0.03762739, 0.3650694
923, 37256754, 0.039638545364141464, -0.6823140382766724, -38.28859329223633, -0.09313501, -0.029743902, 0.36120605
924, 37273421, 0.03742748126387596, -0.6813271045684814, -38.44486618041992, -0.0781937, -0.03840817, 0.36175346
925, 37290088, 0.04039376601576805, -0.6768559813499451, -38.61392593383789, -0.057381727, -0.04135074, 0.34161758
926, 37306755, 0.04478751868009567, -0.6732461452484131, -38.76917266845703, -0.11562205, -0.046838965, 0.34930992
927, 37323422, 0.049757979810237885, -0.6744311451911926, -38.91701889038086, -0.06720876, -0.023846326, 0.3647194
928, 37340089, 0.05599834769964218, -0.6787376999855042, -39.07856750488281, -0.11101852, -0.039430752, 0.34599113
929, 37356756, 0.05837911367416382, -0.6793820261955261, -39.25230026245117, -0.05213195, -0.032599688, 0.35722828
930, 37373423, 0.06543013453483582, -0.6760669946670532, -39.383995056152344, -0.07634241, -0.045357652, 0.3775196
931, 37390090, 0.06984491646289825, -0.6710176467895508, -39.54755783081055, -0.07976366, -0.059278242, 0.36320496
932, 37406757, 0.07119452953338623, -0.6684817671775818, -39.74796676635742, -0.10964341, -0.037980124, 0.33040237
933, 37423424, 0.07391361892223358, -0.6680576801300049, -39.919700622558594, -0.062199082, -0.019141922, 0.34187126
934, 37440091, 0.08046004921197891, -0.6732922792434692, -40.04756546020508, -0.08885532, -0.025352288, 0.35077572
935, 37456758, 0.08707914501428604, -0.6817570328712463, -40.15712356567383, -0.12419077, -0.0298352, 0.35021782
936, 37473425, 0.09056514501571655, -0.684266209602356, -40.3344612121582, -0.09199363, -0.049677838, 0.3612995
937, 37490092, 0.09186282008886337, -0.6757305264472961, -40.55348205566406, -0.096328326, -0.070214696, 0.3517723
938, 37506759, 0.0954841673374176, -0.6588446497917175, -40.885498046875, -0.06877412, -0.08498542, 0.3786726
939, 37523426, 0.1060846745967865, -0.6542882323265076, -41.26573181152344, -0.08304719, -0.036780745, 0.3349619
940, 37540093, 0.13085684180259705, -0.6575825810432434, -41.53166198730469, -0.10605977, -0.017872881, 0.35733223
941, 37556760, 0.15499185025691986, -0.6621575355529785, -41.758148193359375, -0.09606609, -0.03904013, 0.36106396
942, 37573427, 0.1719236671924591, -0.6642658114433289, -42.01786804199219, -0.1083591, -0.03484058, 0.38304234
943, 37590094, 0.17628690600395203, -0.6645380854606628, -42.287967681884766, -0.08862223, -0.028870767, 0.36271286
944, 37606761, 0.17722773551940918, -0.6630541682243347, -42.58884811401367, -0.057393905, -0.0026738937, 0.35330582
945, 37623428, 0.1765415221452713, -0.6557431817054749, -42.85805892944336, -0.05468004, -0.040578704, 0.3760252
946, 37640095, 0.17745371162891388, -0.6465291976928711, -43.099937438964844, -0.07546746, -0.034347802, 0.355484
947, 37656762, 0.18334874510765076, -0.6427568197250366, -43.284889221191406, -0.07025713, -0.027084263, 0.3484249
948, 37673429, 0.19368872046470642, -0.6455256938934326, -43.402400970458984, -0.065261774, 0.014229599, 0.33367634
949, 37690096, 0.2044830471277237, -0.6509160995483398, -43.464935302734375, -0.09692203, -0.036765024, 0.3431673
950, 37706763, 0.20264004170894623, -0.6552724838256836, -43.55917739868164, -0.1072839, -0.023505472, 0.37517548
951, 37723430, 0.18722744286060333, -0.6614507436752319, -43.690277099609375, -0.08606822, -0.031196758, 0.3523836
952, 37740097, 0.17770922183990479, -0.6656320095062256, -43.80445861816406, -0.076827615, -0.037742555, 0.34199715
953, 37756764, 0.17652462422847748, -0.6661959290504456, -43.90848922729492, -0.08839796, -0.033571586, 0.3441534
954, 37773431, 0.17834033071994781, -0.668556272983551, -44.01111602783203, -0.11814843, -0.032274805, 0.3515253
955, 37790098, 0.18035633862018585, -0.6724859476089478, -44.16635513305664, -0.10262586, -0.03592289, 0.37025547
956, 37806765, 0.18482843041419983, -0.6743981838226318, -44.34389114379883, -0.07723546, -0.042092804, 0.3504038
957, 37823432, 0.18879105150699615, -0.6772566437721252, -44.50552749633789, -0.13176624, -0.030091967, 0.36488533
958, 37840099, 0.18664495646953583, -0.6784201264381409, -44.71390914916992, -0.116357505, -0.026067689, 0.35925293
959, 37856766, 0.18849016726016998, -0.6739773750305176, -44.92266845703125, -0.040587157, -0.026416576, 0.34260464
960, 37873433, 0.1924150437116623, -0.6770108938217163, -45.12118911743164, -0.17601009, -0.02867152, 0.36187935
961, 37890100, 0.20314301550388336, -0.6800745725631714, -45.36790084838867, -0.12083474, -0.043878444, 0.34370804
962, 37906767, 0.21313194930553436, -0.6834914684295654, -45.63493347167969, -0.10559607, -0.049776316, 0.35836124
963, 37923434, 0.22224734723567963, -0.678868293762207, -45.904258728027344, -0.09686034, -0.05551383, 0.33801556
964, 37940101, 0.23507121205329895, -0.6714808344841003, -46.17817306518555, -0.07508235, -0.07984668, 0.35955238
965, 37956768, 0.2422884702682495, -0.666889488697052, -46.5152587890625, -0.15448502, -0.030867662, 0.37545586
966, 37973435, 0.24568606913089752, -0.6647513508796692, -46.90254592895508, -0.08206497, -0.008557372, 0.35051918
967, 37990102, 0.2525908946990967, -0.6630753874778748, -47.27293014526367, -0.06546341, -0.02923689, 0.3445406
968, 38006769, 0.264634370803833, -0.6582059860229492, -47.538780212402344, -0.027850356, -0.054582696, 0.35083294
969, 38023436, 0.28711777925491333, -0.6531035900115967, -47.649539947509766, -0.066824324, -0.017149605, 0.35683918
970, 38040103, 0.3044809401035309, -0.6505761742591858, -47.7972526550293, -0.125073, -0.054171663, 0.36041927
971, 38056770, 0.30790001153945923, -0.6436747312545776, -47.9755859375, -0.10295206, -0.05544686, 0.35975933
972, 38073437, 0.2997809946537018, -0.6365074515342712, -48.17464828491211, -0.09966388, -0.04561248, 0.35881805
973, 38090104, 0.3007418215274811, -0.6310625076293945, -48.36094665527344, -0.07159955, 1.0789029E-4, 0.3508997
974, 38106771, 0.30349448323249817, -0.634949803352356, -48.49940872192383, -0.11859529, -0.02080365, 0.35857964
975, 38123438, 0.3016342222690582, -0.643608033657074, -48.67577362060547, -0.13912445, -0.024635864, 0.34339905
976, 38140105, 0.29316267371177673, -0.6513251066207886, -48.86915588378906, -0.088703446, 0.005523392, 0.37134647
977, 38156772, 0.28351908922195435, -0.6577815413475037, -49.11394500732422, -0.13941999, -0.0010822595, 0.37371445
978, 38173439, 0.2890496551990509, -0.6548003554344177, -49.33645248413086, -0.0811291, -0.05529103, 0.33484268
979, 38190106, 0.3034728765487671, -0.6539524793624878, -49.500953674316406, -0.054062802, -0.05658718, 0.36157703
980, 38206773, 0.31524261832237244, -0.6555425524711609, -49.6300163269043, -0.16333918, -0.049605917, 0.33930206
981, 38223440, 0.3176620304584503, -0.6561089158058167, -49.79114532470703, -0.10927173, -0.025625022, 0.3519268
982, 38240107, 0.31785711646080017, -0.6539497375488281, -49.95259094238281, -0.08802069, -0.023952043, 0.37864685
983, 38256774, 0.315294474363327, -0.6519622802734375, -50.120628356933594, -0.077524856, -0.040745974, 0.36687374
984, 38273441, 0.31974297761917114, -0.6547282338142395, -50.221771240234375, -0.09343896, -0.035009347, 0.34780884
985, 38290108, 0.3348005712032318, -0.6562257409095764, -50.269020080566406, -0.07365318, -0.042835202, 0.35313606
986, 38306775, 0.3423546850681305, -0.6555679440498352, -50.36405944824219, -0.13437419, -0.050963223, 0.36053467
987, 38323442, 0.3435843586921692, -0.6558212637901306, -50.49953842163086, -0.10343717, -0.018794442, 0.3710003
988, 38340109, 0.3401045501232147, -0.6579208374023438, -50.60010528564453, -0.0965122, -0.019743681, 0.3660965
989, 38356776, 0.3379282057285309, -0.6615357995033264, -50.70013427734375, -0.093278855, -0.032663576, 0.3529215
990, 38373443, 0.342170774936676, -0.6590518355369568, -50.805660247802734, -0.13623646, -0.021593068, 0.3483982
991, 38390110, 0.34713178873062134, -0.6601327657699585, -50.92060470581055, -0.12147943, -0.03160534, 0.36759567
992, 38406777, 0.3489648401737213, -0.6632511019706726, -51.05037307739258, -0.11516087, -0.018511392, 0.3528614
993, 38423444, 0.34488096833229065, -0.6649253368377686, -51.20309829711914, -0.15108249, -0.0025945902, 0.37460423
994, 38440111, 0.3414144515991211, -0.6618410348892212, -51.33527374267578, -0.056015715, -0.037304882, 0.35643196
995, 38456778, 0.344254732131958, -0.6562973856925964, -51.48878860473633, -0.10034531, -0.03074259, 0.3519001
996, 38473445, 0.3479096591472626, -0.656754732131958, -51.65618133544922, -0.15777777, -0.013090089, 0.34698868
997, 38490112, 0.3491573631763458, -0.6594006419181824, -51.90640640258789, -0.1751536, 0.03942512, 0.36546326
998, 38506779, 0.3549058437347412, -0.6567311882972717, -52.15946578979492, -0.037621766, -0.09717878, 0.32212543
999, 38523446, 0.3579009771347046, -0.6472346186637878, -52.406009674072266, -0.12294526, -0.019759467, 0.33295155
1000, 38540113, 0.36110919713974, -0.6386606693267822, -52.66378402709961, -0.09522388, -0.03887811, 0.36695194
1001, 38556780, 0.36542782187461853, -0.6359097361564636, -52.88427734375, -0.08166582, -0.048559796, 0.34627914
1002, 38573447, 0.37255895137786865, -0.6379746794700623, -53.02947235107422, -0.10571481, -0.051560815, 0.345685
1003, 38590114, 0.38407576084136963, -0.6344841122627258, -53.17556381225586, -0.08756351, -0.053875495, 0.38472652
1004, 38606781, 0.39489996433258057, -0.6275421977043152, -53.34266662597656, -0.15164638, -0.03342893, 0.3461008
1005, 38623448, 0.4002196490764618, -0.6227797865867615, -53.542816162109375, -0.13172457, -0.027846416, 0.3579836
1006, 38640115, 0.4026695787906647, -0.6204527616500854, -53.81000900268555, -0.13683742, -0.008784355, 0.36828518
1007, 38656782, 0.4101117253303528, -0.6241967678070068, -54.0760612487793, -0.12761532, -0.022306688, 0.3573799
1008, 38673449, 0.4225319027900696, -0.6287685036659241, -54.230873107910156, -0.047626138, -0.06325393, 0.3566246
1009, 38690116, 0.4336569607257843, -0.6249430179595947, -54.29715347290039, -0.06400721, -0.054924954, 0.38518906
1010, 38706783, 0.43440383672714233, -0.6211101412773132, -54.37920379638672, -0.14288448, -0.0141401, 0.34432507
1011, 38723450, 0.42673778533935547, -0.6152161359786987, -54.50879669189453, -0.10894465, -0.023768922, 0.36602688
1012, 38740117, 0.41965925693511963, -0.6113626956939697, -54.68560028076172, -0.11048185, -0.028266238, 0.3419037
1013, 38756784, 0.4200877845287323, -0.6068823933601379, -54.84808349609375, -0.10584588, -0.027417166, 0.33711338
1014, 38773451, 0.4246290922164917, -0.6021431684494019, -54.98921585083008, -0.12857178, -0.035913058, 0.36000633
1015, 38790118, 0.4314989447593689, -0.6002941131591797, -55.13262939453125, -0.12003236, -0.030593747, 0.34126568
1016, 38806785, 0.4329549968242645, -0.6021535396575928, -55.28999710083008, -0.14108166, -0.023939243, 0.37465
1017, 38823452, 0.4289878308773041, -0.602216362953186, -55.51823806762695, -0.17996486, 0.010241572, 0.34758854
1018, 38840119, 0.4276158809661865, -0.5971093773841858, -55.81276321411133, -0.10093928, -0.03688278, 0.3599491
1019, 38856786, 0.42725104093551636, -0.5878494381904602, -56.099361419677734, -0.068542734, -0.042575214, 0.37653732
1020, 38873453, 0.4334726631641388, -0.5809614658355713, -56.3470344543457, -0.1161085, -0.06494776, 0.35537052
1021, 38890120, 0.44218701124191284, -0.5830888152122498, -56.474586486816406, -0.091121145, -0.03755986, 0.34879398
1022, 38906787, 0.44531774520874023, -0.5873183608055115, -56.58942413330078, -0.13756078, -0.012803957, 0.35847092
1023, 38923454, 0.45205458998680115, -0.5890633463859558, -56.7225341796875, -0.11115109, -0.031886324, 0.33018017
1024, 38940121, 0.46367108821868896, -0.58615642786026, -56.83552169799805, -0.1068724, -0.05582436, 0.36097527
1025, 38956788, 0.4732803404331207, -0.5839492678642273, -56.95170593261719, -0.15898247, -0.028718388, 0.38347244
1026, 38973455, 0.48005226254463196, -0.5835099816322327, -57.089805603027344, -0.102711864, -0.043036833, 0.35798264
1027, 38990122, 0.4876323342323303, -0.5895367860794067, -57.21514892578125, -0.14304695, -0.024903199, 0.34434986
1028, 39006789, 0.5070915818214417, -0.594967246055603, -57.265682220458984, -0.080268234, -0.052910075, 0.3644762
1029, 39023456, 0.5215726494789124, -0.592978835105896, -57.30778121948242, -0.16601561, -0.034377754, 0.37757492
1030, 39040123, 0.5230712294578552, -0.582381010055542, -57.41496658325195, -0.108234316, -0.029589245, 0.37549973
1031, 39056790, 0.5151301026344299, -0.5732429623603821, -57.57359313964844, -0.14192379, -0.021303713, 0.35513783
1032, 39073457, 0.5205351114273071, -0.5720144510269165, -57.73828125, -0.14475417, -0.016029565, 0.36088848
1033, 39090124, 0.5323145985603333, -0.5735552310943604, -57.96529006958008, -0.17622666, -0.009941241, 0.3496399
1034, 39106791, 0.5387988090515137, -0.5749590992927551, -58.23885726928711, -0.0875555, -0.032641172, 0.36635113
1035, 39123458, 0.5399717688560486, -0.572480320930481, -58.42787551879883, -0.096466914, -0.038461752, 0.36482143
1036, 39140125, 0.5360755920410156, -0.5650919675827026, -58.626129150390625, -0.10015191, -0.029458623, 0.36516
1037, 39156792, 0.5344269275665283, -0.560130774974823, -58.810115814208984, -0.1162328, -0.043786936, 0.37198067
1038, 39173459, 0.5384727716445923, -0.5626598000526428, -58.97710037231445, -0.14953218, -0.01637928, 0.3286686
