sep=,
DeviceTag:,Movella DOT,,,,,,,,,,,,,,,,,
FirmwareVersion:,3.0.0,,,,,,,,,,,,,,,,,
AppVersion:,2023.6.1,,,,,,,,,,,,,,,,,
SyncStatus:,Un-synced,,,,,,,,,,,,,,,,,
OutputRate:,60Hz,,,,,,,,,,,,,,,,,
FilterProfile:,Dynamic,,,,,,,,,,,,,,,,,
Measurement Mode:,Sensor fusion Mode - Complete (Euler),,,,,,,,,,,,,,,,,
StartTime:,2024-11-05 10:12:20.481 +0700,,,,,,,,,,,,,,,,,
 2024,,,,,,,,,,,,,,,,,,,

PacketCounter,SampleTimeFine,Euler_X,Euler_Y,Euler_Z,FreeAcc_X,FreeAcc_Y,FreeAcc_Z
1, 369452460, -0.746164858341217, -0.7325659990310669, 17.00786781311035, 0.01429195, 0.001120453, 0.3317051
2, 369469127, -0.7534450888633728, -0.7665393948554993, 16.94575309753418, -6.438011E-4, 0.011761374, 0.35813618
3, 369485794, -0.7468356490135193, -0.7941175103187561, 16.914875030517578, -0.012684465, -0.0030937756, 0.32699203
4, 369502461, -0.7467631101608276, -0.8062626719474792, 16.924362182617188, -0.0052824914, 7.5083936E-4, 0.34914112
5, 369519128, -0.7478237748146057, -0.8204886317253113, 16.923200607299805, 0.004562472, 0.006176316, 0.34618568
6, 369535795, -0.7487672567367554, -0.8425382971763611, 16.946231842041016, -0.004217012, -0.015983824, 0.35613537
7, 369552462, -0.7571412324905396, -0.8613661527633667, 16.96205711364746, -0.021024166, -0.0015632391, 0.34520054
8, 369569129, -0.7627713680267334, -0.876594603061676, 16.99184799194336, -0.026119053, -0.008242459, 0.34157562
9, 369585796, -0.7669962048530579, -0.8894330263137817, 17.004196166992188, -0.025380084, 0.0026269478, 0.35342503
10, 369602463, -0.7708957195281982, -0.9014118909835815, 17.03022003173828, -0.031245474, 0.010387345, 0.33437443
11, 369619130, -0.7738433480262756, -0.9140490293502808, 17.035930633544922, -0.023199625, -0.0053285663, 0.34793663
12, 369635797, -0.7757015228271484, -0.9263659715652466, 17.040386199951172, -0.029738175, -0.014590664, 0.36956787
13, 369652464, -0.7803926467895508, -0.938752293586731, 17.051509857177734, -0.04211593, -4.7729796E-4, 0.34877968
14, 369669131, -0.7828654646873474, -0.9506324529647827, 17.071184158325195, -0.033461574, -5.608953E-4, 0.35471058
15, 369685798, -0.7864863872528076, -0.9644815325737, 17.069957733154297, -0.039955087, 5.2232182E-5, 0.33843803
16, 369702465, -0.7880058884620667, -0.9766387343406677, 17.080881118774414, -0.03753922, 0.008199898, 0.33624935
17, 369719132, -0.7914915084838867, -0.9888631701469421, 17.091575622558594, -0.04357731, 8.755841E-4, 0.34190655
18, 369735799, -0.7938710451126099, -1.0011874437332153, 17.100597381591797, -0.046278253, 0.009444453, 0.34989262
19, 369752466, -0.7974822521209717, -1.0143369436264038, 17.10973358154297, -0.049348615, -0.01037933, 0.33921814
20, 369769133, -0.8010112047195435, -1.0294208526611328, 17.122844696044922, -0.047253195, 2.9521172E-5, 0.32698154
21, 369785800, -0.8044154644012451, -1.043499231338501, 17.13216781616211, -0.050490662, -0.0074845864, 0.32759762
22, 369802467, -0.8083152770996094, -1.0569835901260376, 17.146120071411133, -0.061431494, 1.9005935E-4, 0.35395145
23, 369819134, -0.811342716217041, -1.0690861940383911, 17.153541564941406, -0.06570772, -0.0017916485, 0.3327074
24, 369835801, -0.8141990900039673, -1.0823513269424438, 17.16206932067871, -0.06338455, -0.01655322, 0.35303593
25, 369852468, -0.8185610175132751, -1.0974305868148804, 17.16147804260254, -0.077640876, 4.916167E-4, 0.3653183
26, 369869135, -0.8211410045623779, -1.1119890213012695, 17.158336639404297, -0.060599588, -0.0101588, 0.33504295
27, 369885802, -0.8254709243774414, -1.1263405084609985, 17.168609619140625, -0.074889734, 0.0023663351, 0.33042145
28, 369902469, -0.8293659687042236, -1.1389113664627075, 17.184383392333984, -0.08018027, -0.010908232, 0.32631016
29, 369919136, -0.8328574895858765, -1.1536483764648438, 17.17940902709961, -0.08073243, -0.0036657837, 0.36017323
30, 369935803, -0.8355269432067871, -1.1679021120071411, 17.183073043823242, -0.07463054, -0.0042961985, 0.35016918
31, 369952470, -0.8384853005409241, -1.1806198358535767, 17.192983627319336, -0.07070933, 0.0024226708, 0.33708763
32, 369969137, -0.8410543203353882, -1.1935720443725586, 17.197824478149414, -0.0683859, 0.0027941703, 0.34892178
33, 369985804, -0.8442923426628113, -1.2088338136672974, 17.202207565307617, -0.074068196, -0.0031569772, 0.32823372
34, 370002471, -0.8474592566490173, -1.2224677801132202, 17.210880279541016, -0.09588594, -0.0049695033, 0.33413792
35, 370019138, -0.8521296977996826, -1.2357535362243652, 17.217601776123047, -0.079415455, -0.011542317, 0.362545
36, 370035805, -0.8558831810951233, -1.250109076499939, 17.21978759765625, -0.0992566, -0.015336977, 0.33790588
37, 370052472, -0.8604995608329773, -1.2639578580856323, 17.22199821472168, -0.09699554, -9.882137E-4, 0.35179138
38, 370069139, -0.8639019131660461, -1.2770413160324097, 17.225080490112305, -0.08477995, -0.01807878, 0.3416605
39, 370085806, -0.86668860912323, -1.2906967401504517, 17.228073120117188, -0.096156724, -0.0232399, 0.361763
40, 370102473, -0.870484471321106, -1.3044270277023315, 17.2398624420166, -0.109797105, -0.010064383, 0.3444414
41, 370119140, -0.8744620680809021, -1.3184194564819336, 17.240230560302734, -0.10194362, 0.006557535, 0.3767357
42, 370135807, -0.8777958750724792, -1.3327851295471191, 17.235408782958984, -0.11421469, -0.007835125, 0.32408524
43, 370152474, -0.8806024193763733, -1.3467082977294922, 17.232933044433594, -0.10061748, -0.008281675, 0.33716488
44, 370169141, -0.8835873603820801, -1.3617007732391357, 17.2409610748291, -0.11789114, -0.0015321533, 0.36036396
45, 370185808, -0.8870415091514587, -1.3748829364776611, 17.22631072998047, -0.118144885, -0.008334424, 0.33222008
46, 370202475, -0.891875684261322, -1.387863039970398, 17.230491638183594, -0.12024565, -0.00970721, 0.34679413
47, 370219142, -0.8959022760391235, -1.4010038375854492, 17.233564376831055, -0.10794938, -0.0034486162, 0.33742428
48, 370235809, -0.8986251354217529, -1.4139666557312012, 17.240467071533203, -0.13270487, 0.0072388584, 0.33651257
49, 370252476, -0.9018682241439819, -1.4262043237686157, 17.240924835205078, -0.11334541, -0.008508887, 0.346323
50, 370269143, -0.9047271013259888, -1.441494345664978, 17.24180793762207, -0.114861615, -0.014272176, 0.36433697
51, 370285810, -0.9091874361038208, -1.4548777341842651, 17.242502212524414, -0.11937472, -0.008353406, 0.33932114
52, 370302477, -0.9130776524543762, -1.4686049222946167, 17.245025634765625, -0.1400304, -0.004611561, 0.3581009
53, 370319144, -0.9163711667060852, -1.4815298318862915, 17.249067306518555, -0.12382886, -0.02222955, 0.35404873
54, 370335811, -0.9194285273551941, -1.4957036972045898, 17.250633239746094, -0.12629431, -0.0058725164, 0.350976
55, 370352478, -0.9227567315101624, -1.5089327096939087, 17.25265121459961, -0.12221065, -0.004805424, 0.3495407
56, 370369145, -0.9271355271339417, -1.5236356258392334, 17.25855255126953, -0.13338332, 0.0020004618, 0.34044266
57, 370385812, -0.9303979277610779, -1.536604404449463, 17.259672164916992, -0.14198427, -0.0061496585, 0.3714409
58, 370402479, -0.9348230361938477, -1.5520256757736206, 17.263992309570312, -0.14591005, -0.006570198, 0.34940338
59, 370419146, -0.9383066296577454, -1.5655356645584106, 17.267507553100586, -0.14835149, -0.013917929, 0.33235073
60, 370435813, -0.9414756298065186, -1.5791016817092896, 17.271728515625, -0.1453859, -0.0062195202, 0.3492384
61, 370452480, -0.9456026554107666, -1.593807578086853, 17.27002716064453, -0.14900155, -0.0029268463, 0.3442545
62, 370469147, -0.9487731456756592, -1.6072920560836792, 17.27467155456543, -0.1428967, -0.007784467, 0.33130455
63, 370485814, -0.952239990234375, -1.6208584308624268, 17.276641845703125, -0.15858681, -0.008866256, 0.35210514
64, 370502481, -0.9557664394378662, -1.633758544921875, 17.282148361206055, -0.17138425, 0.001513937, 0.355052
65, 370519148, -0.9588350057601929, -1.6464446783065796, 17.2818660736084, -0.16014777, -0.006896911, 0.36166286
66, 370535815, -0.9623886346817017, -1.6606941223144531, 17.288326263427734, -0.16675676, -0.014084229, 0.35654545
67, 370552482, -0.9656556844711304, -1.6744747161865234, 17.295835494995117, -0.16594823, -0.01562535, 0.35475636
68, 370569149, -0.9692888855934143, -1.6861072778701782, 17.299468994140625, -0.17436153, -0.008895676, 0.3525896
69, 370585816, -0.9738210439682007, -1.700212836265564, 17.301408767700195, -0.169357, -0.00674435, 0.34605408
70, 370602483, -0.9768630862236023, -1.7140451669692993, 17.30574607849121, -0.15201484, -0.007265694, 0.3418808
71, 370619150, -0.9803557395935059, -1.7273637056350708, 17.313467025756836, -0.16839543, -0.012093469, 0.3276081
72, 370635817, -0.9837306141853333, -1.7397874593734741, 17.314208984375, -0.17044093, -0.0061317915, 0.33049965
73, 370652484, -0.987423300743103, -1.7527520656585693, 17.317964553833008, -0.18584843, 0.0021467651, 0.34327412
74, 370669151, -0.9912582039833069, -1.7665607929229736, 17.319150924682617, -0.18696101, -0.00150844, 0.34344673
75, 370685818, -0.9947841167449951, -1.7795164585113525, 17.324201583862305, -0.19056937, -0.0010086162, 0.33906937
76, 370702485, -0.9983391165733337, -1.7913061380386353, 17.32598876953125, -0.19835518, 0.004389648, 0.31790066
77, 370719152, -1.0011404752731323, -1.8022822141647339, 17.330360412597656, -0.19443206, -0.0050611016, 0.3423195
78, 370735819, -1.004848599433899, -1.8151116371154785, 17.33260154724121, -0.19637814, -0.007700706, 0.34942245
79, 370752486, -1.0068804025650024, -1.8273158073425293, 17.333763122558594, -0.19803873, -0.016291063, 0.3415966
80, 370769153, -1.0100361108779907, -1.839077115058899, 17.3378963470459, -0.20160338, -0.002935682, 0.35499477
81, 370785820, -1.012379765510559, -1.8504127264022827, 17.343507766723633, -0.20284632, -0.016026193, 0.33217812
82, 370802487, -1.0152978897094727, -1.8626692295074463, 17.34662628173828, -0.20119436, -0.010839379, 0.32307243
83, 370819154, -1.019619107246399, -1.8739010095596313, 17.35062026977539, -0.2114226, -0.020321421, 0.35289478
84, 370835821, -1.023048758506775, -1.885611653327942, 17.352371215820312, -0.20765075, -0.010232368, 0.33786774
85, 370852488, -1.024875521659851, -1.8964483737945557, 17.353906631469727, -0.21132497, -0.023016078, 0.3574028
86, 370869155, -1.027321457862854, -1.9077813625335693, 17.359268188476562, -0.19301336, 0.00335106, 0.34492016
87, 370885822, -1.0303868055343628, -1.9198287725448608, 17.362932205200195, -0.20863883, -8.495239E-4, 0.33973122
88, 370902489, -1.0335166454315186, -1.9298100471496582, 17.365318298339844, -0.21595258, -0.025154281, 0.34226704
89, 370919156, -1.036336064338684, -1.9400309324264526, 17.364225387573242, -0.22179061, -0.008024722, 0.35927582
90, 370935823, -1.038689136505127, -1.9520378112792969, 17.367145538330078, -0.22022066, -0.010421913, 0.33879375
91, 370952490, -1.040460467338562, -1.961647868156433, 17.365318298339844, -0.2247805, -0.0062554223, 0.35864258
92, 370969157, -1.0435547828674316, -1.9720630645751953, 17.362802505493164, -0.22751868, -0.009609674, 0.34056473
93, 370985824, -1.0459715127944946, -1.9830347299575806, 17.36383056640625, -0.21279278, -0.0102993725, 0.34488297
94, 371002491, -1.048130989074707, -1.9938201904296875, 17.358789443969727, -0.22438309, -0.017703861, 0.35009003
95, 371019158, -1.0504498481750488, -2.0041613578796387, 17.35709571838379, -0.23079664, -0.016757682, 0.32865906
96, 371035825, -1.0531386137008667, -2.0137412548065186, 17.355545043945312, -0.23683625, -0.009437604, 0.3265667
97, 371052492, -1.0544383525848389, -2.0250184535980225, 17.354413986206055, -0.22060782, -0.0138572445, 0.33250523
98, 371069159, -1.057497501373291, -2.0335023403167725, 17.354265213012695, -0.2290166, -0.0075118514, 0.3531046
99, 371085826, -1.0603042840957642, -2.042668342590332, 17.355066299438477, -0.24079235, -0.0073306384, 0.35330868
100, 371102493, -1.0627843141555786, -2.0511555671691895, 17.355911254882812, -0.21850844, -0.019211609, 0.32248974
101, 371119160, -1.0643211603164673, -2.059377431869507, 17.356155395507812, -0.23806036, -0.016599009, 0.35434628
102, 371135827, -1.0662912130355835, -2.0689175128936768, 17.3568115234375, -0.22491252, -0.013198266, 0.3249712
103, 371152494, -1.068560004234314, -2.076986312866211, 17.357507705688477, -0.2350593, -0.0020643866, 0.34687233
104, 371169161, -1.072077751159668, -2.085841178894043, 17.357624053955078, -0.23685023, -0.018844014, 0.34976292
105, 371185828, -1.0743340253829956, -2.0931475162506104, 17.356857299804688, -0.2627091, -0.012776671, 0.36364174
106, 371202495, -1.0767747163772583, -2.101125955581665, 17.35369300842285, -0.23890613, -0.017474592, 0.335289
107, 371219162, -1.0789307355880737, -2.109933853149414, 17.355066299438477, -0.24654624, -0.011434538, 0.34125614
108, 371235829, -1.0816289186477661, -2.118434429168701, 17.352130889892578, -0.23828906, -0.0075879716, 0.3160019
109, 371252496, -1.084252953529358, -2.1266229152679443, 17.352758407592773, -0.24775992, -0.00816513, 0.37429428
110, 371269163, -1.086523413658142, -2.1329822540283203, 17.355859756469727, -0.25917974, -0.01396319, 0.35476875
111, 371285830, -1.088765263557434, -2.1397814750671387, 17.35464096069336, -0.25246784, 3.2178182E-4, 0.33735085
112, 371302497, -1.0899848937988281, -2.1474404335021973, 17.350858688354492, -0.2607307, -0.030616282, 0.36079216
113, 371319164, -1.0927687883377075, -2.1557748317718506, 17.348636627197266, -0.23918596, -0.012760096, 0.35133934
114, 371335831, -1.0949982404708862, -2.162675619125366, 17.348722457885742, -0.2553879, -0.012619101, 0.34521294
115, 371352498, -1.0970739126205444, -2.1702122688293457, 17.34861183166504, -0.26853737, -0.014528091, 0.3610363
116, 371369165, -1.097861409187317, -2.177398681640625, 17.348787307739258, -0.23870994, -0.028932586, 0.33331108
117, 371385832, -1.0993287563323975, -2.1838417053222656, 17.34869384765625, -0.2710024, -0.018493678, 0.34215736
118, 371402499, -1.1006269454956055, -2.190709114074707, 17.351119995117188, -0.24600364, -0.006797176, 0.34340572
119, 371419166, -1.1018996238708496, -2.1962366104125977, 17.351980209350586, -0.25972283, -0.010734286, 0.34113884
120, 371435833, -0.7271228432655334, -0.7208848595619202, 16.89311981201172, 4.4958235E-4, -0.0022990927, 0.35350704
121, 371452500, -0.7256191372871399, -0.7214644551277161, 16.89253807067871, 7.783699E-4, 0.0027352222, 0.34088993
122, 371469167, -0.7247986793518066, -0.7217228412628174, 16.893693923950195, 0.005187792, -0.0032877882, 0.346529
123, 371485834, -0.7241595983505249, -0.7205751538276672, 16.896181106567383, 0.012374927, 0.004493522, 0.33428955
124, 371502501, -0.7235415577888489, -0.7200440168380737, 16.89690399169922, 0.0031896697, 0.016434614, 0.33353806
125, 371519168, -0.723712682723999, -0.7204233407974243, 16.899656295776367, 0.0015535967, -0.0059932694, 0.38262653
126, 371535835, -0.7232130765914917, -0.7201247811317444, 16.9005069732666, -0.0025743593, -0.0076956665, 0.3489933
127, 371552502, -0.7233408689498901, -0.7194933295249939, 16.903348922729492, -0.007173739, -2.4257791E-4, 0.33832455
128, 371569169, -0.7241286039352417, -0.7194651961326599, 16.903772354125977, -0.0059486926, 0.012765942, 0.35799122
129, 371585836, -0.7233972549438477, -0.7192831039428711, 16.90540885925293, -0.002975621, 0.015309052, 0.3084545
130, 371602503, -0.7229267358779907, -0.7183482646942139, 16.90534019470215, -0.004343241, 0.0021604449, 0.3577032
131, 371619170, -0.7227080464363098, -0.7187952995300293, 16.904394149780273, 0.0071299654, -0.010118581, 0.33926582
132, 371635837, -0.7218641638755798, -0.7187092900276184, 16.905574798583984, -0.0064246496, -0.004138674, 0.34887505
133, 371652504, -0.7225195169448853, -0.7187153100967407, 16.906105041503906, -0.0012896069, 0.0030946208, 0.3604107
134, 371669171, -0.7216079831123352, -0.7174164652824402, 16.905851364135742, 0.0058196415, 0.014757034, 0.37823105
135, 371685838, -0.722316563129425, -0.7175368070602417, 16.907779693603516, 0.0035314837, 9.842009E-4, 0.34806156
136, 371702505, -0.723289966583252, -0.7182823419570923, 16.909326553344727, 0.0014107998, -2.0076703E-4, 0.33165646
137, 371719172, -0.7229776382446289, -0.717700719833374, 16.91060447692871, 0.010423953, 0.0020214198, 0.35110188
138, 371735839, -0.7236425876617432, -0.7175688743591309, 16.911319732666016, -0.005955873, -0.0071849986, 0.34117413
139, 371752506, -0.7228268980979919, -0.7164397835731506, 16.912734985351562, 1.14634204E-4, 0.018613439, 0.33667374
140, 371769173, -0.7221781611442566, -0.7171026468276978, 16.91398048400879, 0.0016021059, 0.007474839, 0.3380661
141, 371785840, -0.7201151847839355, -0.7156676650047302, 16.915773391723633, 0.01752913, -0.0010418916, 0.35843086
142, 371802507, -0.7215048670768738, -0.7153167128562927, 16.917003631591797, 3.9578558E-4, 0.0053437967, 0.35833073
143, 371819174, -0.7216339707374573, -0.7157472968101501, 16.917638778686523, 0.0047924253, 0.00274908, 0.32662964
144, 371835841, -0.721641480922699, -0.7156007885932922, 16.91805076599121, -7.309013E-4, 0.017380081, 0.3688879
145, 371852508, -0.7210087180137634, -0.7157219052314758, 16.918960571289062, 0.007405089, 0.00839347, 0.34053707
146, 371869175, -0.7198704481124878, -0.7162812948226929, 16.919588088989258, 0.0078591695, -0.010018503, 0.3561592
147, 371885842, -0.7204662561416626, -0.7166928648948669, 16.919599533081055, 0.014581636, -0.0035142768, 0.34917545
148, 371902509, -0.7195035219192505, -0.7160294055938721, 16.921297073364258, -0.0031465315, -0.0044389325, 0.34115696
149, 371919176, -0.7197126746177673, -0.7162607312202454, 16.92123794555664, 0.018870758, 0.008533152, 0.3579378
150, 371935843, -0.7183941602706909, -0.715873658657074, 16.923355102539062, 0.008962199, -0.0017146622, 0.32067966
151, 371952510, -0.7188677787780762, -0.7155978679656982, 16.923995971679688, 9.489592E-4, -0.0068395, 0.34978294
152, 371969177, -0.7189713716506958, -0.7159909009933472, 16.92365074157715, 0.0050757695, 1.2620799E-4, 0.36632538
153, 371985844, -0.7194781303405762, -0.7154045701026917, 16.924785614013672, -0.0037371856, -0.022470811, 0.35091686
154, 372002511, -0.719740629196167, -0.71486896276474, 16.926198959350586, 0.0072525274, 0.015243423, 0.32876015
155, 372019178, -0.719832181930542, -0.7142226696014404, 16.92821502685547, 0.015364602, 0.015461397, 0.35930347
156, 372035845, -0.719015896320343, -0.7140742540359497, 16.927194595336914, 0.011750894, -0.010600888, 0.34932137
157, 372052512, -0.718254029750824, -0.7128187417984009, 16.927518844604492, 0.016748378, 4.8011282E-4, 0.36406517
158, 372069179, -0.7192549109458923, -0.7122738361358643, 16.9293155670166, 0.011358195, -2.736497E-4, 0.3417387
159, 372085846, -0.7187514901161194, -0.7117284536361694, 16.931447982788086, 0.009502521, -0.002494003, 0.35095215
160, 372102513, -0.7183390855789185, -0.7110601663589478, 16.931089401245117, 0.008746509, 0.005299237, 0.3332777
161, 372119180, -0.7173190116882324, -0.7126952409744263, 16.93130111694336, 0.014474476, 0.0029955485, 0.32043552
162, 372135847, -0.7161406874656677, -0.7124053835868835, 16.93065071105957, 0.007981382, 2.2559093E-4, 0.35157108
163, 372152514, -0.7167239189147949, -0.7117712497711182, 16.93169403076172, 0.010382763, 0.0039894967, 0.31173134
164, 372169181, -0.7150753140449524, -0.7108260989189148, 16.93056297302246, 0.010610845, -3.5430296E-4, 0.34452438
165, 372185848, -0.7157727479934692, -0.7089633345603943, 16.93222999572754, 0.0035009184, -6.4555084E-4, 0.35007286
166, 372202515, -0.7150710821151733, -0.7089183926582336, 16.93253517150879, -0.00531657, -0.002605508, 0.3265257
167, 372219182, -0.7159300446510315, -0.7063004374504089, 16.932580947875977, 0.011200653, 0.0018118623, 0.37609386
168, 372235849, -0.7164497375488281, -0.7065905332565308, 16.93488883972168, -0.0037260938, 0.016988277, 0.33480835
169, 372252516, -0.7166956067085266, -0.706679105758667, 16.934478759765625, -7.33346E-4, 0.004263726, 0.34828377
170, 372269183, -0.7168126702308655, -0.7065669298171997, 16.933374404907227, -0.0013958804, 0.003975433, 0.35591316
171, 372285850, -0.7170419096946716, -0.7060905694961548, 16.933494567871094, 0.0018973666, -0.012202955, 0.32147694
172, 372302517, -0.717223048210144, -0.7048842310905457, 16.935829162597656, 0.014185955, -0.013236283, 0.33713245
173, 372319184, -0.7172126173973083, -0.7050973176956177, 16.937204360961914, 0.01030591, -0.0047264956, 0.36080933
174, 372335851, -0.7172269821166992, -0.7058691382408142, 16.93783187866211, 0.0029899958, 0.012662449, 0.35434437
175, 372352518, -0.7169535756111145, -0.7059077024459839, 16.93606948852539, 0.004315211, -0.0038884096, 0.31759357
176, 372369185, -0.7163386940956116, -0.7050870656967163, 16.93650245666504, 0.004755636, -3.1664103E-4, 0.35019207
177, 372385852, -0.7152649164199829, -0.7052361369132996, 16.935287475585938, 0.0038698125, 0.0057144337, 0.3215313
178, 372402519, -0.7147543430328369, -0.7057275176048279, 16.93423080444336, 6.9987494E-5, 0.0030238929, 0.3764801
179, 372419186, -0.7155283689498901, -0.7065141797065735, 16.933822631835938, -0.0041197417, -0.011116843, 0.33087158
180, 372435853, -0.7158529758453369, -0.7077541947364807, 16.935277938842773, 0.011698361, -5.7663897E-4, 0.34616566
181, 372452520, -0.7158288359642029, -0.707291841506958, 16.933752059936523, 0.002647015, -0.002935158, 0.35183144
182, 372469187, -0.7148414254188538, -0.707609236240387, 16.933807373046875, 0.010493116, 0.0150219705, 0.3294897
183, 372485854, -0.7146680355072021, -0.7081180810928345, 16.93499755859375, 0.003755269, -5.827262E-4, 0.3590765
184, 372502521, -0.7148224711418152, -0.7083600759506226, 16.935598373413086, 0.00426323, -0.0022801673, 0.3585558
185, 372519188, -0.7157018780708313, -0.709243893623352, 16.935632705688477, 0.0019045539, -0.01392785, 0.36018085
186, 372535855, -0.7167661190032959, -0.708767831325531, 16.934532165527344, -0.0057801497, -0.009217364, 0.3260393
187, 372552522, -0.7167096138000488, -0.7088323831558228, 16.93551254272461, 0.010788538, 0.014703918, 0.34155655
188, 372569189, -0.7158043384552002, -0.7096303701400757, 16.93648910522461, -0.0051683527, 0.0013907744, 0.35748768
189, 372585856, -0.7156235575675964, -0.7099781036376953, 16.9388427734375, 0.03002154, -0.0038034397, 0.34335423
190, 372602523, -0.7162469029426575, -0.7085599899291992, 16.93868064880371, 0.0050251093, -7.1864657E-4, 0.3731432
191, 372619190, -0.7163347601890564, -0.7092048525810242, 16.93824005126953, 0.022960173, -0.012244336, 0.3341627
192, 372635857, -0.7159537076950073, -0.7088009119033813, 16.93838119506836, 0.0101200035, -0.00900321, 0.3513031
193, 372652524, -0.7159091234207153, -0.7108003497123718, 16.93902015686035, 0.011808615, -0.0018814622, 0.32361603
194, 372669191, -0.7162374258041382, -0.7098407745361328, 16.94038200378418, 0.011303853, 0.002389088, 0.3766985
195, 372685858, -0.7169129848480225, -0.7095085978507996, 16.940811157226562, -0.007601375, 0.0045290045, 0.3327999
196, 372702525, -0.7163998484611511, -0.7101782560348511, 16.939041137695312, -0.0019610818, 0.008669034, 0.3630104
197, 372719192, -0.7165643572807312, -0.7124737501144409, 16.93848419189453, 0.002167943, -0.0032560704, 0.3511591
198, 372735859, -0.7165985107421875, -0.7129629254341125, 16.939579010009766, 0.0146164065, 0.009703061, 0.3419075
199, 372752526, -0.7163656949996948, -0.7132185101509094, 16.940044403076172, 0.007577522, 0.0011816047, 0.37166214
200, 372769193, -0.7158409953117371, -0.7139149904251099, 16.939884185791016, 0.012141881, 7.6076476E-4, 0.34916973
201, 372785860, -0.7157663702964783, -0.7135692238807678, 16.940641403198242, -0.0019694634, -0.0035156005, 0.3443508
202, 372802527, -0.7155991792678833, -0.7139387726783752, 16.941423416137695, 0.001999526, -0.007937438, 0.33568
203, 372819194, -0.7151665091514587, -0.7131401896476746, 16.94101905822754, 0.011098711, -0.006003198, 0.34128666
204, 372835861, -0.7156688570976257, -0.7134238481521606, 16.94149398803711, 0.02355214, 0.00464945, 0.3420391
205, 372852528, -0.7154294848442078, -0.7139702439308167, 16.94173240661621, 0.014219524, -0.0050789127, 0.36921597
206, 372869195, -0.7160483002662659, -0.7126702666282654, 16.94330596923828, 0.0018288319, -0.0050908043, 0.3413496
207, 372885862, -0.7155976295471191, -0.7130289077758789, 16.943513870239258, -0.0046305875, 0.017074166, 0.34737587
208, 372902529, -0.7145848274230957, -0.712822675704956, 16.945528030395508, 0.005295539, 0.0012376367, 0.36830807
209, 372919196, -0.7140432596206665, -0.7131575345993042, 16.94731330871582, 0.004793654, 0.0032721108, 0.3202219
210, 372935863, -0.7126125693321228, -0.7135270237922668, 16.947099685668945, 0.011682135, 0.0024827016, 0.3438797
211, 372952530, -0.7120097875595093, -0.7148309350013733, 16.945804595947266, 0.00239191, 0.0033644114, 0.3348484
212, 372969197, -0.7120307087898254, -0.7151116132736206, 16.944122314453125, 0.006358273, -9.2027267E-4, 0.33535957
213, 372985864, -0.7119045853614807, -0.7150447368621826, 16.94386100769043, 0.006940943, 0.0077240383, 0.34591675
214, 373002531, -0.712279736995697, -0.7153118848800659, 16.94428253173828, 0.006289906, 0.002202109, 0.34658813
215, 373019198, -0.7122095823287964, -0.7163483500480652, 16.94478416442871, 0.004324536, -0.005260751, 0.36336327
216, 373035865, -0.7128357291221619, -0.7176043391227722, 16.944433212280273, 0.018478934, -0.014383778, 0.3562765
217, 373052532, -0.7121687531471252, -0.717937707901001, 16.945096969604492, 0.0040065045, -0.0042462186, 0.36179066
218, 373069199, -0.7136104106903076, -0.7180690765380859, 16.94570541381836, 0.0017136319, -0.01768137, 0.3425703
219, 373085866, -0.714563250541687, -0.7186563611030579, 16.94411277770996, 0.007128771, 0.0034961267, 0.36321163
220, 373102533, -0.7157213091850281, -0.7179453372955322, 16.945249557495117, 0.01166658, -0.0049209, 0.3250084
221, 373119200, -0.7165083289146423, -0.7186152338981628, 16.943756103515625, 0.001214318, 4.2207277E-4, 0.35080528
222, 373135867, -0.7166793346405029, -0.717685341835022, 16.945556640625, 0.004628164, 0.005393399, 0.34355736
223, 373152534, -0.7158686518669128, -0.7179545164108276, 16.946081161499023, 0.0048302338, -0.005154401, 0.32490444
224, 373169201, -0.7156619429588318, -0.7194617390632629, 16.947935104370117, 0.003941595, -0.0066798525, 0.34821606
225, 373185868, -0.7158733606338501, -0.7194826602935791, 16.94854164123535, 0.00625091, 7.4392447E-4, 0.3432703
226, 373202535, -0.7156552672386169, -0.7200320363044739, 16.948625564575195, 0.004378479, 0.007574655, 0.33642864
227, 373219202, -0.7160892486572266, -0.7205608487129211, 16.948801040649414, -0.004457449, 0.008615192, 0.34673595
228, 373235869, -0.7160030007362366, -0.7204985022544861, 16.949554443359375, -0.0027101156, -0.0028594467, 0.33216095
229, 373252536, -0.7161454558372498, -0.7186153531074524, 16.94942283630371, 0.012102689, -9.61647E-4, 0.36363792
230, 373269203, -0.7146400809288025, -0.7187404632568359, 16.948827743530273, 0.026009923, 0.010013894, 0.33574486
231, 373285870, -0.7147417664527893, -0.7194929718971252, 16.951663970947266, -0.012027938, -0.003026348, 0.3528986
232, 373302537, -0.714591383934021, -0.7179215550422668, 16.951072692871094, 0.0054043196, -0.0069677336, 0.36592388
233, 373319204, -0.7148212790489197, -0.7182039022445679, 16.951778411865234, -0.0057214918, 0.007820631, 0.35426044
234, 373335871, -0.7153065800666809, -0.7170823216438293, 16.952505111694336, -6.44765E-5, -0.0042314287, 0.31791115
235, 373352538, -0.7161300182342529, -0.7177466750144958, 16.952476501464844, 0.020422036, -0.0029573243, 0.32174397
236, 373369205, -0.7158377766609192, -0.7173303961753845, 16.951696395874023, 0.0066284654, -0.007358836, 0.32545948
237, 373385872, -0.7151352763175964, -0.7181407809257507, 16.953115463256836, 0.008810308, 0.0034902317, 0.34561825
238, 373402539, -0.7153737545013428, -0.7172538042068481, 16.952709197998047, -0.008593598, -0.0070844735, 0.352664
239, 373419206, -0.7153277397155762, -0.7177698612213135, 16.951753616333008, 0.001698447, -0.007132857, 0.33305836
240, 373435873, -0.7216150164604187, -0.7195982933044434, 16.953115463256836, 0.018711653, 0.009278047, 0.35525608
241, 373452540, -0.721836507320404, -0.7202398180961609, 16.951894760131836, 0.0065897554, 0.006620684, 0.33093166
242, 373469207, -0.7220475077629089, -0.7193365693092346, 16.95208168029785, 7.584074E-5, -0.0022142066, 0.35302448
243, 373485874, -0.7224957942962646, -0.7190325856208801, 16.952932357788086, -8.5224793E-4, 3.0722204E-4, 0.3588581
244, 373502541, -0.7221997976303101, -0.7187995314598083, 16.95327377319336, -6.644621E-5, 0.0054127225, 0.32943726
245, 373519208, -0.7213413715362549, -0.7187083959579468, 16.953657150268555, 0.023194345, 7.7204517E-4, 0.34332657
246, 373535875, -0.7202909588813782, -0.7182549238204956, 16.95400619506836, 0.0054215095, -0.0017522683, 0.34265137
247, 373552542, -0.7199667096138, -0.7187516093254089, 16.95510482788086, 0.00513674, -0.004257677, 0.36544895
248, 373569209, -0.720988392829895, -0.7177910208702087, 16.954984664916992, -0.0046999957, 0.0044283783, 0.3511877
249, 373585876, -0.7202703356742859, -0.7173253893852234, 16.956876754760742, 0.0074813277, 0.016153285, 0.34480572
250, 373602543, -0.7208297848701477, -0.7173435688018799, 16.95624351501465, 0.005479392, 0.0024453888, 0.36173153
251, 373619210, -0.7204197645187378, -0.7166153192520142, 16.95658302307129, 0.03343874, 0.011939783, 0.3446417
252, 373635877, -0.7210249304771423, -0.717217743396759, 16.95711326599121, 0.008994692, 0.0012179221, 0.34573174
253, 373652544, -0.7220587134361267, -0.7180309295654297, 16.956802368164062, 0.012859699, 0.006677949, 0.3540764
254, 373669211, -0.72162264585495, -0.7178516387939453, 16.958267211914062, -9.330199E-4, 0.0022075572, 0.36748028
255, 373685878, -0.7212377190589905, -0.7170872688293457, 16.959102630615234, 0.008272089, -0.007627844, 0.34697628
256, 373702545, -0.7219240069389343, -0.717700719833374, 16.959089279174805, 0.0066678664, -0.0072103636, 0.37551498
257, 373719212, -0.7210839986801147, -0.7174166440963745, 16.959888458251953, 0.010856059, 0.008366506, 0.35495853
258, 373735879, -0.721122682094574, -0.7167205810546875, 16.96025848388672, 0.006113701, -0.012675018, 0.3508482
259, 373752546, -0.721263587474823, -0.7161261439323425, 16.960315704345703, -0.007078418, 0.0062985984, 0.34175873
260, 373769213, -0.7216149568557739, -0.7156364917755127, 16.960453033447266, 0.008814708, -0.01173574, 0.34859562
261, 373785880, -0.7221609950065613, -0.715325117111206, 16.958847045898438, 0.005511215, 0.0022339316, 0.34096622
262, 373802547, -0.7209480404853821, -0.7159653306007385, 16.957393646240234, 0.0067411438, -0.008014113, 0.35793114
263, 373819214, -0.7200086712837219, -0.716090977191925, 16.95563316345215, 0.003943872, 0.004013262, 0.339468
264, 373835881, -0.7202115654945374, -0.7164400815963745, 16.95547103881836, 0.013498241, -0.0043037105, 0.3745861
265, 373852548, -0.7198642492294312, -0.717595636844635, 16.955078125, -0.002169787, -0.012808812, 0.34784985
266, 373869215, -0.7209550738334656, -0.71778404712677, 16.954076766967773, 0.016835177, -0.001550216, 0.33350563
267, 373885882, -0.7197375297546387, -0.7171710729598999, 16.954837799072266, 0.016425388, 0.007776138, 0.34544086
268, 373902549, -0.7183459401130676, -0.7179756164550781, 16.95580291748047, 0.008249032, -6.177898E-4, 0.33730888
269, 373919216, -0.7197216153144836, -0.7167534232139587, 16.955678939819336, 0.002669464, -0.008896382, 0.35483932
270, 373935883, -0.7186121344566345, -0.7175794839859009, 16.956396102905273, -0.005814969, -5.732199E-4, 0.36517906
271, 373952550, -0.7196749448776245, -0.7182514071464539, 16.956222534179688, 0.012834903, -0.00961896, 0.3516922
272, 373969217, -0.7196361422538757, -0.7176046967506409, 16.955556869506836, 0.019822037, -0.00410602, 0.34266758
273, 373985884, -0.7187486290931702, -0.7181991338729858, 16.954999923706055, -0.0046930527, 0.009348636, 0.34565067
274, 374002551, -0.7180935144424438, -0.7186253666877747, 16.956384658813477, 5.196397E-4, 0.0052604857, 0.35699654
275, 374019218, -0.7190611958503723, -0.7190867066383362, 16.9559383392334, -0.0038877565, -0.0028744151, 0.33987617
276, 374035885, -0.720368504524231, -0.7203808426856995, 16.956174850463867, -0.0014060152, 0.011577245, 0.32735157
277, 374052552, -0.7203943729400635, -0.7198259830474854, 16.956045150756836, 0.021041168, -0.0036212069, 0.32645988
278, 374069219, -0.7198384404182434, -0.7201737761497498, 16.955209732055664, 0.012317408, -6.3888036E-4, 0.34476566
279, 374085886, -0.7200838923454285, -0.7200103402137756, 16.956754684448242, 0.0028876895, 0.01579251, 0.36921215
280, 374102553, -0.7201949954032898, -0.72148197889328, 16.95756721496582, 0.008046948, -0.009130134, 0.32922363
281, 374119220, -0.7196648120880127, -0.720941960811615, 16.9583797454834, 0.0063061947, 0.001449066, 0.35934162
282, 374135887, -0.7195025086402893, -0.7197047472000122, 16.959362030029297, 3.5513414E-4, -0.0035220613, 0.3641281
283, 374152554, -0.7195649743080139, -0.7205294966697693, 16.961153030395508, 0.015860451, 0.011037765, 0.34681606
284, 374169221, -0.7201035618782043, -0.7214723825454712, 16.961637496948242, 0.0020350437, 0.0029940014, 0.3540926
285, 374185888, -0.7197636365890503, -0.7220365405082703, 16.961870193481445, -0.0022140495, -0.010303231, 0.3484888
286, 374202555, -0.7201301455497742, -0.7211908102035522, 16.961395263671875, 0.02066213, 0.0066040186, 0.37175083
287, 374219222, -0.7203263640403748, -0.7197623252868652, 16.9630069732666, 0.005717224, -0.0047395364, 0.32916164
288, 374235889, -0.7197036147117615, -0.7197200059890747, 16.9620304107666, 0.025416594, 0.0035041873, 0.3493452
289, 374252556, -0.7196696400642395, -0.7200110554695129, 16.962799072265625, 0.0049486677, 0.0044076196, 0.34400082
290, 374269223, -0.7193602323532104, -0.7202243208885193, 16.963043212890625, 0.016334962, 0.007760003, 0.36079216
291, 374285890, -0.7188571691513062, -0.7201464176177979, 16.96404457092285, 0.0071326336, -0.004102018, 0.3462963
292, 374302557, -0.7181995511054993, -0.7196449637413025, 16.96492576599121, 0.015870474, -0.004930378, 0.3245926
293, 374319224, -0.7185459136962891, -0.7191325426101685, 16.965547561645508, 0.008759514, -0.006847312, 0.3610077
294, 374335891, -0.7177058458328247, -0.7199066877365112, 16.966541290283203, 0.0060475413, 0.008881396, 0.34375477
295, 374352558, -0.7179883122444153, -0.7197380661964417, 16.96663475036621, 0.008520006, 0.0033840665, 0.35625362
296, 374369225, -0.7194486856460571, -0.7200648188591003, 16.965002059936523, 0.006454125, 0.0016002271, 0.3589201
297, 374385892, -0.7198213338851929, -0.7199630737304688, 16.965219497680664, -7.968377E-4, -1.525895E-4, 0.3404274
298, 374402559, -0.7197602391242981, -0.720206618309021, 16.964035034179688, 9.985092E-4, 0.0025569883, 0.35204792
299, 374419226, -0.7201337218284607, -0.7204598784446716, 16.962772369384766, 0.017001247, -0.0025888493, 0.3574562
300, 374435893, -0.7199146747589111, -0.7196613550186157, 16.963106155395508, 8.380968E-4, 0.002401486, 0.35261726
301, 374452560, -0.7195842266082764, -0.720899760723114, 16.96385955810547, -0.010236461, -0.0044935253, 0.33092213
302, 374469227, -0.7210869193077087, -0.7202820777893066, 16.965938568115234, 0.001938046, 0.012977372, 0.37798977
303, 374485894, -0.7219445705413818, -0.7209242582321167, 16.966163635253906, 0.015163153, 0.004347397, 0.34209824
304, 374502561, -0.7209188342094421, -0.7204543352127075, 16.967063903808594, 0.0049071084, 0.001161974, 0.3588295
305, 374519228, -0.720862865447998, -0.721403956413269, 16.966970443725586, 0.020650802, -0.0049030394, 0.36163807
306, 374535895, -0.7201035022735596, -0.7212218046188354, 16.968820571899414, 0.012084843, 0.008374192, 0.3673792
307, 374552562, -0.7205057740211487, -0.7201076745986938, 16.967622756958008, -0.006146732, -0.0101186205, 0.34913635
308, 374569229, -0.7202003598213196, -0.7198769450187683, 16.967060089111328, 0.0121574635, 0.008423344, 0.34832287
309, 374585896, -0.7204558849334717, -0.7198632955551147, 16.966999053955078, 7.619487E-4, -0.008246734, 0.35350132
310, 374602563, -0.7208335995674133, -0.7198736667633057, 16.967172622680664, 0.013268462, -0.0112161245, 0.31402016
311, 374619230, -0.7212553024291992, -0.7193953990936279, 16.966262817382812, 0.010046936, 7.774898E-4, 0.35315323
312, 374635897, -0.7209725379943848, -0.7203940749168396, 16.96599578857422, 0.00873059, -0.0024220247, 0.35820675
313, 374652564, -0.7211591005325317, -0.7215911746025085, 16.96705436706543, 0.006472628, 0.005634723, 0.33941746
314, 374669231, -0.7224976420402527, -0.722581148147583, 16.965909957885742, 0.004058611, -0.007662831, 0.3477316
315, 374685898, -0.7220401763916016, -0.722283124923706, 16.966217041015625, -6.8947463E-4, -0.0042710532, 0.3536663
316, 374702565, -0.7225275635719299, -0.7219672203063965, 16.96703338623047, 0.0017736661, -0.0010816037, 0.35702324
317, 374719232, -0.723725438117981, -0.7215279340744019, 16.96653175354004, -0.001783829, -0.005301235, 0.3557291
318, 374735899, -0.7229747176170349, -0.7229981422424316, 16.966203689575195, -0.008299141, 0.008005602, 0.38169765
319, 374752566, -0.7218394875526428, -0.7234930992126465, 16.965604782104492, -0.009726606, 1.8411879E-4, 0.35305214
320, 374769233, -0.722725510597229, -0.7228058576583862, 16.966121673583984, -0.002306018, 0.0011091796, 0.33108425
321, 374785900, -0.723451554775238, -0.7228069305419922, 16.9664306640625, 0.0030074855, -0.004669095, 0.34114265
322, 374802567, -0.7231060266494751, -0.7231044173240662, 16.968233108520508, 0.0071960134, -0.0055784606, 0.3771677
323, 374819234, -0.7242087721824646, -0.7235531210899353, 16.96961212158203, -0.0061369464, 0.002662186, 0.36709404
324, 374835901, -0.7244245409965515, -0.7245117425918579, 16.969017028808594, 0.0066526257, -0.0058921017, 0.3363533
325, 374852568, -0.7255082726478577, -0.72420734167099, 16.96965217590332, 0.01249325, -0.0015298205, 0.35066605
326, 374869235, -0.7257214188575745, -0.7236486077308655, 16.971181869506836, 0.016867034, 0.013594177, 0.35554504
327, 374885902, -0.7260039448738098, -0.7225326299667358, 16.971214294433594, -0.003173856, 2.8403607E-4, 0.36441326
328, 374902569, -0.7268474698066711, -0.7236804962158203, 16.971837997436523, -0.012544728, -0.005703401, 0.3579359
329, 374919236, -0.7249205112457275, -0.7231688499450684, 16.970413208007812, 0.0013446609, 0.005371121, 0.36412525
330, 374935903, -0.7253015637397766, -0.7214003205299377, 16.969642639160156, 0.007957669, 0.0010121819, 0.3410864
331, 374952570, -0.7267070412635803, -0.7222180962562561, 16.969602584838867, 0.011623121, 0.005066106, 0.33299446
332, 374969237, -0.7266740798950195, -0.7227771282196045, 16.971195220947266, 0.01482919, 0.0030382534, 0.33458138
333, 374985904, -0.7266251444816589, -0.7216533422470093, 16.971878051757812, 0.0072717005, -0.0028336064, 0.33475113
334, 375002571, -0.7269755601882935, -0.721571683883667, 16.97042465209961, -0.006560713, -0.0053246515, 0.35126495
335, 375019238, -0.7258032560348511, -0.7208841443061829, 16.971357345581055, -0.0044539985, 0.003054315, 0.34298325
336, 375035905, -0.7262874245643616, -0.7218468189239502, 16.9708194732666, 0.003348769, 0.0071989717, 0.3387642
337, 375052572, -0.726321816444397, -0.7212469577789307, 16.97058868408203, 0.018205179, -0.0027153855, 0.34997082
338, 375069239, -0.7263104915618896, -0.7205994725227356, 16.972274780273438, 0.011567159, 0.007831021, 0.3565426
339, 375085906, -0.7266154885292053, -0.7215810418128967, 16.97227668762207, 7.529174E-4, -0.002596466, 0.3475008
340, 375102573, -0.7259237170219421, -0.7210546135902405, 16.972558975219727, 0.006617897, 0.007448695, 0.3424015
341, 375119240, -0.7259082198143005, -0.7206871509552002, 16.97183609008789, 0.005906672, -0.003185863, 0.3407688
342, 375135907, -0.7256195545196533, -0.7204415202140808, 16.97244644165039, 0.0051842015, 0.0048808875, 0.34305096
343, 375152574, -0.7263332009315491, -0.720030665397644, 16.972265243530273, 0.001917797, 4.7203142E-5, 0.37468147
344, 375169241, -0.7258192300796509, -0.7217581272125244, 16.972240447998047, 0.008154828, -0.015119356, 0.38417912
345, 375185908, -0.7257921695709229, -0.7219329476356506, 16.97202491760254, 0.018821223, 7.245661E-5, 0.358819
346, 375202575, -0.7257120609283447, -0.7218555808067322, 16.971742630004883, -0.0071470924, 0.005182644, 0.34145164
347, 375219242, -0.7245436906814575, -0.7220079898834229, 16.971385955810547, -7.7278906E-4, 5.674295E-4, 0.33487415
348, 375235909, -0.7244786620140076, -0.7220423221588135, 16.971555709838867, -0.0049850442, -0.0040321318, 0.3363924
349, 375252576, -0.725029468536377, -0.7224454283714294, 16.971599578857422, -3.9606495E-4, -5.9607415E-4, 0.35048962
350, 375269243, -0.7251234650611877, -0.7229671478271484, 16.970901489257812, -0.013847096, 0.008503386, 0.34157276
351, 375285910, -0.7253418564796448, -0.7236630916595459, 16.971487045288086, 0.022843674, -0.012663018, 0.35620022
352, 375302577, -0.725799024105072, -0.724194347858429, 16.971397399902344, 0.0052357283, 5.60808E-4, 0.3468609
353, 375319244, -0.7255099415779114, -0.7220755219459534, 16.970684051513672, 0.007832907, 8.114603E-4, 0.3320446
354, 375335911, -0.7259178161621094, -0.7221553921699524, 16.970373153686523, 0.0032920525, -0.005485483, 0.35934258
355, 375352578, -0.7267753481864929, -0.7226375341415405, 16.971179962158203, -0.006757097, -0.0024093962, 0.34639072
356, 375369245, -0.7261875867843628, -0.7216451168060303, 16.970796585083008, 0.0047923764, -0.010518886, 0.35586548
357, 375385912, -0.7263727784156799, -0.7216590046882629, 16.970661163330078, 0.0062240046, -0.0024861416, 0.3518238
358, 375402579, -0.7260918021202087, -0.7219231128692627, 16.971399307250977, -0.0037921418, 0.0010645991, 0.31920147
359, 375419246, -0.7255843281745911, -0.7210968732833862, 16.972354888916016, 0.0102592725, -0.0065237912, 0.3573866
360, 375435913, -0.7226719856262207, -0.7241953015327454, 16.969438552856445, 0.008423135, -0.004263328, 0.33392334
361, 375452580, -0.7216092348098755, -0.7246204018592834, 16.971097946166992, 0.004543592, -0.0013608482, 0.3603897
362, 375469247, -0.72138512134552, -0.7253751754760742, 16.9699649810791, -9.960645E-4, 0.01155614, 0.36212826
363, 375485914, -0.7203207015991211, -0.7251375317573547, 16.96962547302246, -0.011445966, 0.013469153, 0.35791588
364, 375502581, -0.7207512855529785, -0.7243817448616028, 16.96839714050293, -0.011687785, -0.010691026, 0.35682106
365, 375519248, -0.7211081385612488, -0.7256453633308411, 16.96792221069336, -0.0059886733, 4.2393422E-4, 0.35947132
366, 375535915, -0.7215024828910828, -0.7247767448425293, 16.968385696411133, -0.001550684, -0.0061688074, 0.3276844
367, 375552582, -0.7223386168479919, -0.7251672744750977, 16.969118118286133, 0.009450016, -0.003820437, 0.33941364
368, 375569249, -0.7230771780014038, -0.7238894701004028, 16.968130111694336, 0.0014702403, -0.005891389, 0.34497547
369, 375585916, -0.7236551642417908, -0.7247938513755798, 16.968727111816406, 0.010691344, 0.012943122, 0.3374586
370, 375602583, -0.7240704298019409, -0.7244768738746643, 16.968021392822266, 0.010945192, -0.0014147531, 0.34588432
371, 375619250, -0.7242975831031799, -0.7246226668357849, 16.966800689697266, -0.017268121, -0.004201181, 0.3541422
372, 375635917, -0.7237162590026855, -0.7262008786201477, 16.96593475341797, 6.176152E-4, -0.007648753, 0.33744812
373, 375652584, -0.7233290076255798, -0.7263441681861877, 16.965866088867188, 0.0127977235, -3.896669E-4, 0.3507614
374, 375669251, -0.7235976457595825, -0.7261935472488403, 16.964149475097656, -0.008128055, -0.0031695254, 0.3406
375, 375685918, -0.7240041494369507, -0.7261028289794922, 16.964826583862305, 0.011892719, -1.9603134E-4, 0.35289288
376, 375702585, -0.7250761985778809, -0.7261194586753845, 16.965129852294922, 0.0053250007, -0.009121829, 0.34586525
377, 375719252, -0.7254807949066162, -0.7248237729072571, 16.965478897094727, -0.0021297082, 0.009120435, 0.35450268
378, 375735919, -0.7268085479736328, -0.7244913578033447, 16.965103149414062, -0.010868451, -0.0053976984, 0.3349247
379, 375752586, -0.7267845869064331, -0.7222140431404114, 16.965023040771484, -0.0022446709, -4.494252E-4, 0.32010555
380, 375769253, -0.7271828055381775, -0.7225326299667358, 16.964406967163086, 0.01470044, 0.012133317, 0.33947277
381, 375785920, -0.726620078086853, -0.7240524291992188, 16.965150833129883, 0.005723657, 0.009271359, 0.3574686
382, 375802587, -0.7260673642158508, -0.7239485383033752, 16.96544647216797, 0.0012050631, -0.0040274276, 0.3325529
383, 375819254, -0.7261095643043518, -0.7246077656745911, 16.96535301208496, -0.006916762, -0.004465866, 0.37019253
384, 375835921, -0.7256501317024231, -0.7243264317512512, 16.966022491455078, -0.006549558, -0.005254241, 0.34878254
385, 375852588, -0.7248974442481995, -0.7237721085548401, 16.96672821044922, 0.01825431, -0.009426819, 0.3409071
386, 375869255, -0.7249996066093445, -0.7249704003334045, 16.96708869934082, 0.0032695755, -0.00845327, 0.3812313
387, 375885922, -0.7244996428489685, -0.7257056832313538, 16.967300415039062, 0.006115489, 0.002005414, 0.33967018
388, 375902589, -0.7244508862495422, -0.7268019914627075, 16.968130111694336, 0.015319564, 0.005225429, 0.35106087
389, 375919256, -0.7236014008522034, -0.726985514163971, 16.96834945678711, -9.2681046E-5, 3.4576058E-4, 0.3653021
390, 375935923, -0.7247477769851685, -0.7268884778022766, 16.969261169433594, 0.004020649, 0.01379771, 0.35067463
391, 375952590, -0.7243365049362183, -0.7259821891784668, 16.968807220458984, 0.0069780187, 0.0018820035, 0.36994457
392, 375969257, -0.7242921590805054, -0.7252321839332581, 16.9676513671875, -0.010595716, -0.0062422734, 0.33541965
393, 375985924, -0.7257077693939209, -0.7264009118080139, 16.96759796142578, -0.011070234, 0.017236866, 0.34708595
394, 376002591, -0.7254487872123718, -0.7264721989631653, 16.96682357788086, 0.0073286896, 0.006645491, 0.35323238
395, 376019258, -0.7253496646881104, -0.7259389162063599, 16.96853256225586, 0.0095514, 0.0063603963, 0.3524847
396, 376035925, -0.7258729934692383, -0.7260696887969971, 16.96754264831543, -0.00174528, -0.0048407773, 0.36025715
397, 376052592, -0.7266162633895874, -0.7255964279174805, 16.968955993652344, 0.0060039912, -0.006527961, 0.34832668
398, 376069259, -0.7269499897956848, -0.7240431904792786, 16.96799087524414, 0.005663916, 2.2373996E-4, 0.374444
399, 376085926, -0.726261556148529, -0.7244495749473572, 16.96812629699707, -0.020096637, 0.002196661, 0.34653473
400, 376102593, -0.7271297574043274, -0.7242957353591919, 16.968605041503906, -0.0020994572, 0.0011988746, 0.36219025
401, 376119260, -0.7274826169013977, -0.7238202095031738, 16.969642639160156, -0.0037321984, 1.5833798E-4, 0.33113098
402, 376135927, -0.7275699973106384, -0.7240939140319824, 16.969846725463867, 0.0031938953, -0.008424346, 0.35937214
403, 376152594, -0.7278077602386475, -0.7251636981964111, 16.970645904541016, -0.0029103342, -0.012449539, 0.34445477
404, 376169261, -0.7270668745040894, -0.7254427671432495, 16.969621658325195, 0.0047990675, 0.0022866947, 0.32994366
405, 376185928, -0.7274420261383057, -0.7259777188301086, 16.968475341796875, 0.00768668, 0.0072140936, 0.33981228
406, 376202595, -0.7275728583335876, -0.7257100343704224, 16.9683895111084, 0.0045383605, 0.0029745838, 0.33569145
407, 376219262, -0.727199912071228, -0.7266823053359985, 16.96849250793457, 0.020608125, -0.008980646, 0.3713417
408, 376235929, -0.7277153134346008, -0.7276108264923096, 16.96784210205078, 0.011438276, -0.006498126, 0.3550892
409, 376252596, -0.7275876402854919, -0.7286849617958069, 16.96841812133789, 0.015260096, 0.006936075, 0.35329628
410, 376269263, -0.7276298403739929, -0.7284216284751892, 16.968101501464844, -0.0018396444, 0.007946584, 0.344903
411, 376285930, -0.7276577353477478, -0.7285964488983154, 16.968656539916992, 6.697356E-4, 0.0049146134, 0.361907
412, 376302597, -0.7271358370780945, -0.7290404438972473, 16.969181060791016, 0.005228492, 0.008405072, 0.35187244
413, 376319264, -0.727587878704071, -0.7264299988746643, 16.969749450683594, 0.0036245768, 0.0043749237, 0.34704113
414, 376335931, -0.7271069884300232, -0.7270295023918152, 16.967565536499023, 0.013153123, 0.0046408274, 0.34295654
415, 376352598, -0.7282679080963135, -0.7286615371704102, 16.966577529907227, 0.006429245, -0.0037732024, 0.34267998
416, 376369265, -0.7269558310508728, -0.7289807200431824, 16.967592239379883, 0.014270031, 0.0019431658, 0.33982182
417, 376385932, -0.7279194593429565, -0.7290428876876831, 16.967172622680664, 0.0032745625, 0.0073522665, 0.33992195
418, 376402599, -0.7273539304733276, -0.7283914685249329, 16.969152450561523, 0.008386946, -0.0036601748, 0.3486824
419, 376419266, -0.7279875874519348, -0.7289472818374634, 16.97039794921875, -0.008148262, 0.008549112, 0.37796116
420, 376435933, -0.727582573890686, -0.729752242565155, 16.96860122680664, 0.012811273, 0.0040578498, 0.34806347
421, 376452600, -0.7267745137214661, -0.7300765514373779, 16.967939376831055, 0.004653777, 1.0753069E-4, 0.35004234
422, 376469267, -0.7262566089630127, -0.7297284603118896, 16.967241287231445, 0.011216558, 0.005932254, 0.34542942
423, 376485934, -0.7266938090324402, -0.7312226891517639, 16.967063903808594, -0.004187068, 0.0034265758, 0.3586321
424, 376502601, -0.7271156907081604, -0.7320691347122192, 16.967477798461914, 0.0018469224, -0.0071419687, 0.3562956
425, 376519268, -0.7276263236999512, -0.7325795888900757, 16.96746826171875, -0.008131485, -0.008948778, 0.37055492
426, 376535935, -0.7278131246566772, -0.7325244545936584, 16.968379974365234, 0.004761783, -0.0021030824, 0.32803822
427, 376552602, -0.7273632287979126, -0.733180820941925, 16.968198776245117, 0.013795499, 0.014253113, 0.36332035
428, 376569269, -0.7262289524078369, -0.7336223721504211, 16.968904495239258, 0.006703992, 0.0024810217, 0.36933804
429, 376585936, -0.7273592352867126, -0.7341046929359436, 16.969066619873047, -0.0076466645, -0.0037303718, 0.34326935
430, 376602603, -0.7276016473770142, -0.7334428429603577, 16.969161987304688, 0.0010577681, -0.008597363, 0.34760094
431, 376619270, -0.7290853261947632, -0.7339515089988708, 16.968717575073242, 0.016255016, 0.01236766, 0.3220997
432, 376635937, -0.7288188934326172, -0.7336897253990173, 16.968660354614258, -0.0048555885, -0.0048613823, 0.35123158
433, 376652604, -0.7296419739723206, -0.7332187294960022, 16.968347549438477, 0.0074691256, -0.0032377073, 0.36254978
434, 376669271, -0.7286795973777771, -0.7335054278373718, 16.9687557220459, 0.009843273, -0.007144571, 0.34305668
435, 376685938, -0.7287856340408325, -0.7334298491477966, 16.968294143676758, -0.009378121, -0.017437814, 0.37020588
436, 376702605, -0.7295336127281189, -0.7334091067314148, 16.966938018798828, 2.0309644E-4, -0.01479683, 0.3369007
437, 376719272, -0.7298733592033386, -0.7335524559020996, 16.96634864807129, -3.3071535E-4, 0.0077738157, 0.3568039
438, 376735939, -0.7304688096046448, -0.7340594530105591, 16.966354370117188, -0.008050685, -0.0062423255, 0.3501091
439, 376752606, -0.7306538224220276, -0.7335091829299927, 16.964902877807617, -0.001794823, 0.0016713495, 0.37586784
440, 376769273, -0.730660080909729, -0.7341059446334839, 16.965343475341797, -0.007949085, -0.0023374218, 0.3594494
441, 376785940, -0.7305384278297424, -0.7344335317611694, 16.96599578857422, 0.0033313767, -0.009715155, 0.3515234
442, 376802607, -0.7305236458778381, -0.7340297698974609, 16.96567726135254, 0.0025696587, -0.01092604, 0.3521576
443, 376819274, -0.7304255962371826, -0.7356101870536804, 16.964656829833984, 0.016753092, 0.005441175, 0.3491993
444, 376835941, -0.7303916215896606, -0.7365802526473999, 16.964162826538086, -0.0010772486, -0.005718083, 0.3591137
445, 376852608, -0.7304202318191528, -0.7367360591888428, 16.963462829589844, -1.5932981E-4, -0.0023387207, 0.3590231
446, 376869275, -0.7297452092170715, -0.737072765827179, 16.962757110595703, -0.007943092, -9.358278E-4, 0.36391354
447, 376885942, -0.7298907041549683, -0.7388175129890442, 16.96355628967285, 0.004007608, -0.005755553, 0.34232235
448, 376902609, -0.7293538451194763, -0.7385640740394592, 16.963735580444336, 0.010258141, 0.010212901, 0.34958935
449, 376919276, -0.7297984957695007, -0.7388390302658081, 16.964323043823242, -2.1814166E-4, 0.0057447753, 0.3251047
450, 376935943, -0.7283177971839905, -0.739008903503418, 16.965103149414062, 0.006697838, -0.0030232118, 0.35151958
451, 376952610, -0.7285491824150085, -0.7393215894699097, 16.96404457092285, -0.0046127974, -0.023430025, 0.35628796
452, 376969277, -0.7294318079948425, -0.738997757434845, 16.964008331298828, 0.0102445, -0.00643286, 0.32953262
453, 376985944, -0.729679524898529, -0.7386747002601624, 16.961353302001953, 0.024232786, -1.437817E-4, 0.33313942
454, 377002611, -0.7298499941825867, -0.738784909248352, 16.96223258972168, -0.0038226163, -0.0021777356, 0.32420826
455, 377019278, -0.72969651222229, -0.7397316694259644, 16.961999893188477, -0.004347879, -0.0037733805, 0.33954334
456, 377035945, -0.7303023338317871, -0.7391279935836792, 16.961748123168945, 5.629034E-4, 0.016984785, 0.3474493
457, 377052612, -0.731433629989624, -0.7385544180870056, 16.96161460876465, -6.4769865E-4, -0.009038556, 0.3445263
458, 377069279, -0.7324905395507812, -0.7389662265777588, 16.96120262145996, 0.0034215504, 0.0032254665, 0.3586092
459, 377085946, -0.7321367263793945, -0.7402215003967285, 16.9606876373291, 0.010057, 0.0077790925, 0.32657337
460, 377102613, -0.7320520281791687, -0.7397469282150269, 16.960491180419922, 0.0044686804, 0.02268711, 0.356349
461, 377119280, -0.7328808903694153, -0.7392074465751648, 16.95866584777832, -0.004096671, 0.008290075, 0.346241
462, 377135947, -0.7324727177619934, -0.738100528717041, 16.956918716430664, -0.00354889, -0.004641072, 0.35566235
463, 377152614, -0.7331947088241577, -0.7382190823554993, 16.9561767578125, -0.009639792, 4.4520988E-4, 0.35903454
464, 377169281, -0.7335160970687866, -0.7383435368537903, 16.95676040649414, -0.0031929524, 0.004609162, 0.3569126
465, 377185948, -0.7334673404693604, -0.7387202978134155, 16.957950592041016, -0.005421656, -0.00184533, 0.35170555
466, 377202615, -0.7332048416137695, -0.7387586236000061, 16.957494735717773, 0.0052507943, -0.0028922996, 0.347394
467, 377219282, -0.7330904006958008, -0.7383829355239868, 16.957704544067383, -0.006632307, -0.002452447, 0.34718037
468, 377235949, -0.73326575756073, -0.7390768527984619, 16.95848274230957, 0.0032935264, -0.0035442624, 0.32807064
469, 377252616, -0.7337439060211182, -0.7404940724372864, 16.957204818725586, 0.0044337567, 0.0097562885, 0.33943558
470, 377269283, -0.7344642281532288, -0.7415432333946228, 16.957595825195312, -0.005987416, -0.003968944, 0.34971333
471, 377285950, -0.7348064184188843, -0.7410098910331726, 16.958698272705078, -0.0034445582, 0.008222036, 0.35435486
472, 377302617, -0.7358927726745605, -0.7413199543952942, 16.957382202148438, -0.012646531, -0.002105471, 0.34597778
473, 377319284, -0.7359921932220459, -0.7413392066955566, 16.957637786865234, 0.011406055, -0.0025169584, 0.340024
474, 377335951, -0.7356013059616089, -0.7413387894630432, 16.95751190185547, -0.008111159, 6.699312E-4, 0.33060837
475, 377352618, -0.7355623245239258, -0.7426910400390625, 16.957439422607422, 0.0022975456, 0.008298068, 0.32983112
476, 377369285, -0.7340397238731384, -0.7432746887207031, 16.958904266357422, 0.0029844288, 0.005935453, 0.36159515
477, 377385952, -0.7342351078987122, -0.7439026236534119, 16.958375930786133, -0.0057362365, -0.0064123073, 0.3674326
478, 377402619, -0.7341667413711548, -0.7427042126655579, 16.957504272460938, -0.008473174, 0.016785197, 0.35256386
479, 377419286, -0.734926164150238, -0.7416253685951233, 16.956302642822266, 0.004256909, 0.009802464, 0.33198166
480, 377435953, -0.7280028462409973, -0.7286304235458374, 16.965280532836914, 0.007714263, 0.009288584, 0.35463428
481, 377452620, -0.728699803352356, -0.7280071973800659, 16.966875076293945, 0.0072435588, -0.0052186083, 0.36171722
482, 377469287, -0.7285017371177673, -0.7270440459251404, 16.968101501464844, 0.0034501879, 0.0060430253, 0.36693573
483, 377485954, -0.7283923625946045, -0.7288147807121277, 16.966983795166016, 0.005790739, 0.0075699333, 0.35858154
484, 377502621, -0.7289164066314697, -0.7286236882209778, 16.96738624572754, 0.018538123, 0.00785962, 0.34406853
485, 377519288, -0.7282808423042297, -0.7290781736373901, 16.96770668029785, 0.009117715, 0.0051135365, 0.3254633
486, 377535955, -0.7275816798210144, -0.7301475405693054, 16.96782684326172, 9.45369E-4, 7.134603E-5, 0.33289528
487, 377552622, -0.7265555262565613, -0.7303390502929688, 16.968339920043945, 0.008486256, -8.762756E-5, 0.35714817
488, 377569289, -0.7270793914794922, -0.731407642364502, 16.96868324279785, -7.5880555E-4, -0.002702488, 0.34377193
489, 377585956, -0.7271631956100464, -0.730918288230896, 16.965900421142578, 0.0038937493, 0.0050442894, 0.35234928
490, 377602623, -0.7267358303070068, -0.7317832708358765, 16.96625518798828, -0.008903499, 0.00802921, 0.3255148
491, 377619290, -0.7262166142463684, -0.73154217004776, 16.967166900634766, 0.017033357, 0.011748519, 0.34463787
492, 377635957, -0.7259844541549683, -0.7314531803131104, 16.966398239135742, -0.008415263, 0.013188225, 0.35143661
493, 377652624, -0.7273836731910706, -0.7323045134544373, 16.967214584350586, -0.004105926, 0.007934203, 0.34605026
494, 377669291, -0.7277600765228271, -0.7330049872398376, 16.966739654541016, 0.0055205743, 0.011471139, 0.350708
495, 377685958, -0.7279828786849976, -0.7334613800048828, 16.9660701751709, 0.0048496095, 0.0059796213, 0.36574078
496, 377702625, -0.7279269099235535, -0.7340425848960876, 16.96689796447754, -0.0019842014, 0.0071569863, 0.35648632
497, 377719292, -0.7280717492103577, -0.734133780002594, 16.967918395996094, -0.0054631946, 0.020651354, 0.3529787
498, 377735959, -0.7282858490943909, -0.7350255846977234, 16.968286514282227, -8.767505E-4, -0.0031564499, 0.354249
499, 377752626, -0.7280323505401611, -0.7355403900146484, 16.968175888061523, -0.016844342, 5.5355777E-4, 0.36406898
500, 377769293, -0.7287589907646179, -0.7364498376846313, 16.96706199645996, -0.011205627, -0.004253319, 0.32696152
501, 377785960, -0.7287401556968689, -0.7362009286880493, 16.96645736694336, 0.0010305414, 0.007822017, 0.3470974
502, 377802627, -0.7296472191810608, -0.7353129386901855, 16.966951370239258, 0.0010682383, 2.7405831E-4, 0.34264755
503, 377819294, -0.7299028635025024, -0.7352573871612549, 16.968101501464844, -0.0030180675, 0.004170455, 0.3638115
504, 377835961, -0.7300000190734863, -0.7349727153778076, 16.9676513671875, -0.009217199, -0.004344837, 0.36002064
505, 377852628, -0.7288824319839478, -0.7372089624404907, 16.966880798339844, 0.0071325777, 0.0058130133, 0.33628273
506, 377869295, -0.728495180606842, -0.7368204593658447, 16.965559005737305, 0.0034400949, 0.007650695, 0.3337555
507, 377885962, -0.7291527390480042, -0.7346715927124023, 16.965953826904297, 0.005945738, -0.007267555, 0.33827877
508, 377902629, -0.7281933426856995, -0.7354085445404053, 16.96470832824707, -0.005798366, 0.010124746, 0.36092854
509, 377919296, -0.7276903390884399, -0.7360231280326843, 16.964691162109375, -0.0073105153, 0.004905917, 0.347744
510, 377935963, -0.7283935546875, -0.7349801063537598, 16.964279174804688, -0.017822808, -4.0855724E-4, 0.3643074
511, 377952630, -0.7283284664154053, -0.734067976474762, 16.962657928466797, -0.0057497798, -0.0019499166, 0.31602287
512, 377969297, -0.7279369235038757, -0.7342623472213745, 16.961637496948242, -0.0011139956, -0.0055681933, 0.35132313
513, 377985964, -0.7279364466667175, -0.7342923283576965, 16.962432861328125, 0.0036232008, 0.009272466, 0.33621883
514, 378002631, -0.7271114587783813, -0.734179675579071, 16.962976455688477, -6.6289055E-4, -5.899834E-4, 0.35333157
515, 378019298, -0.7275720238685608, -0.7343109250068665, 16.9622859954834, -0.013912508, 8.1279787E-4, 0.35851097
516, 378035965, -0.7276422381401062, -0.7337865829467773, 16.962234497070312, 0.0015730143, 6.321051E-4, 0.31605148
517, 378052632, -0.7279698252677917, -0.7338331341743469, 16.96210289001465, 0.007153525, 0.014101936, 0.33607864
518, 378069299, -0.7288843989372253, -0.7333081364631653, 16.963335037231445, 0.0027075103, 0.008343595, 0.3445816
519, 378085966, -0.7285460233688354, -0.7321080565452576, 16.962724685668945, -0.008651391, -0.010053885, 0.35226727
520, 378102633, -0.7277185916900635, -0.7326586842536926, 16.96265983581543, -0.010612179, -0.006841288, 0.36206245
521, 378119300, -0.7273775935173035, -0.7326852679252625, 16.9630184173584, -0.01581505, -0.005514005, 0.34129906
522, 378135967, -0.7266824841499329, -0.7310712933540344, 16.961496353149414, -0.0065324036, 0.0025581198, 0.33059025
523, 378152634, -0.7267692685127258, -0.7317806482315063, 16.960220336914062, 0.0017225376, 0.00628472, 0.34131145
524, 378169301, -0.7270855903625488, -0.73094242811203, 16.960081100463867, -7.4291514E-4, -0.010476706, 0.36550236
525, 378185968, -0.727760910987854, -0.7310685515403748, 16.960115432739258, -0.001059647, 4.184896E-4, 0.3477583
526, 378202635, -0.7272580862045288, -0.7314555644989014, 16.960474014282227, -0.011773035, 0.015736789, 0.33419323
527, 378219302, -0.7287200093269348, -0.73201584815979, 16.96122169494629, 0.0026738925, 0.002353113, 0.33411217
528, 378235969, -0.7281675934791565, -0.7322486639022827, 16.961040496826172, 0.011544339, 0.010758241, 0.32580185
529, 378252636, -0.7277172803878784, -0.7312512397766113, 16.961105346679688, 0.012189894, -4.456569E-4, 0.35428524
530, 378269303, -0.7260671257972717, -0.7312664985656738, 16.961158752441406, 0.0020959158, 0.008866609, 0.33817673
531, 378285970, -0.7272316813468933, -0.7324196100234985, 16.960620880126953, 0.010329155, -0.0019347141, 0.35671902
532, 378302637, -0.7277590036392212, -0.7325536012649536, 16.96072769165039, -0.00460832, -0.003517989, 0.33290672
533, 378319304, -0.7272338271141052, -0.7316032648086548, 16.9606990814209, 0.0039767916, -0.004132608, 0.36857033
534, 378335971, -0.7269085645675659, -0.7326045036315918, 16.958894729614258, 0.0017890745, 8.6370646E-4, 0.31974888
535, 378352638, -0.7268074154853821, -0.7328512668609619, 16.95970916748047, 0.0024576995, -0.0031207786, 0.3470583
536, 378369305, -0.7265501618385315, -0.7312911748886108, 16.959749221801758, -0.0014379426, 1.3437669E-4, 0.34456825
537, 378385972, -0.7266272902488708, -0.7314393520355225, 16.958763122558594, 0.014032723, 0.0035792352, 0.34231377
538, 378402639, -0.7263977527618408, -0.7325526475906372, 16.958717346191406, 0.002438694, -0.00136389, 0.3124771
539, 378419306, -0.726108968257904, -0.7326157093048096, 16.9589786529541, 0.0059959725, -2.4572455E-5, 0.34199524
540, 378435973, -0.7263066172599792, -0.7327096462249756, 16.958633422851562, -0.010041424, 0.0011668075, 0.36039448
541, 378452640, -0.7269026637077332, -0.7319415211677551, 16.95762062072754, 0.001328582, -0.0041301283, 0.35578823
542, 378469307, -0.7272605895996094, -0.7309727072715759, 16.957763671875, -0.0045190686, 0.004909207, 0.35936642
543, 378485974, -0.7263307571411133, -0.7315981984138489, 16.95713233947754, 0.005565577, -0.0034135177, 0.33126068
544, 378502641, -0.726626455783844, -0.7335786819458008, 16.956159591674805, 0.008927519, 0.004497821, 0.35750866
545, 378519308, -0.7264764308929443, -0.7344070672988892, 16.95616912841797, -0.0073648286, 0.009732617, 0.35477734
546, 378535975, -0.7260244488716125, -0.734636664390564, 16.957420349121094, -0.005967719, 0.007874455, 0.33407116
547, 378552642, -0.725706934928894, -0.734751284122467, 16.956707000732422, -0.00998864, -0.010696094, 0.36320496
548, 378569309, -0.725101888179779, -0.7341418266296387, 16.957002639770508, -0.009187843, 0.008293633, 0.33878613
549, 378585976, -0.7237435579299927, -0.7339884042739868, 16.95612144470215, 0.006584119, 0.0024546473, 0.37264252
550, 378602643, -0.724500834941864, -0.7332858443260193, 16.956876754760742, 0.0067008417, 0.0035989042, 0.35227776
551, 378619310, -0.7244204878807068, -0.7343692183494568, 16.95768165588379, -0.009521959, 0.0022224416, 0.3374262
552, 378635977, -0.7254649996757507, -0.7344391942024231, 16.956708908081055, -0.007444972, 0.003917578, 0.36800003
553, 378652644, -0.725728452205658, -0.7337945103645325, 16.956302642822266, 0.010188091, 0.007064431, 0.3328743
554, 378669311, -0.7256462574005127, -0.7330477237701416, 16.956689834594727, 0.0070253056, 0.0034035959, 0.3519621
555, 378685978, -0.7264140248298645, -0.7330477833747864, 16.95621109008789, -0.0045780553, -0.013315198, 0.33731937
556, 378702645, -0.7248199582099915, -0.7314335107803345, 16.95561408996582, -2.332707E-4, 0.013892206, 0.3558569
557, 378719312, -0.7249391674995422, -0.7311517596244812, 16.955045700073242, 0.010529346, 0.0020876634, 0.3427744
558, 378735979, -0.7240714430809021, -0.7309204936027527, 16.954265594482422, -0.001870517, -0.01027165, 0.34306145
559, 378752646, -0.7244964241981506, -0.7311082482337952, 16.953533172607422, 0.020254226, 0.015162095, 0.3401289
560, 378769313, -0.7244543433189392, -0.7297765612602234, 16.953092575073242, 0.01985935, 9.662081E-4, 0.35349274
561, 378785980, -0.7251858711242676, -0.7295054793357849, 16.954097747802734, 0.007567611, 1.2993437E-4, 0.33710957
562, 378802647, -0.7248404026031494, -0.7299293875694275, 16.952741622924805, 0.0024026665, -0.0016471404, 0.3473854
563, 378819314, -0.7247471809387207, -0.7297648191452026, 16.952404022216797, -0.0027638285, 0.003241968, 0.36428738
564, 378835981, -0.7242343425750732, -0.7306351661682129, 16.95225715637207, 0.005022937, -0.001778985, 0.31711674
565, 378852648, -0.7245228886604309, -0.7301783561706543, 16.951337814331055, 0.0011511407, 0.008577701, 0.35529137
566, 378869315, -0.7245098948478699, -0.7306840419769287, 16.950572967529297, 0.0069177607, -0.0043955324, 0.35639572
567, 378885982, -0.7245566248893738, -0.7303716540336609, 16.95076560974121, 0.014110848, -0.006602506, 0.34912777
568, 378902649, -0.7244386672973633, -0.7294760942459106, 16.949939727783203, 0.010218446, -0.011504704, 0.36345863
569, 378919316, -0.7249652147293091, -0.7296989560127258, 16.949100494384766, 0.0070150658, 0.0018768976, 0.33827686
570, 378935983, -0.7257934212684631, -0.7286750078201294, 16.947734832763672, -0.011608376, 0.020847613, 0.35672474
571, 378952650, -0.7265790700912476, -0.7287562489509583, 16.948909759521484, 0.006568361, 0.00701538, 0.3161974
572, 378969317, -0.7267760038375854, -0.7280310392379761, 16.949390411376953, -3.406966E-4, -0.0032966728, 0.35816574
573, 378985984, -0.7282304763793945, -0.7271552085876465, 16.94947052001953, -0.0107547585, 0.0053822375, 0.35054684
574, 379002651, -0.7278352379798889, -0.7265227437019348, 16.949966430664062, -0.0013857035, 0.005548629, 0.3542223
575, 379019318, -0.7282751202583313, -0.727103590965271, 16.95002555847168, 0.003093077, -0.0061035766, 0.32976437
576, 379035985, -0.7276849150657654, -0.7275274991989136, 16.949657440185547, 0.013143805, 0.007988311, 0.34117985
577, 379052652, -0.7274616360664368, -0.7278352975845337, 16.948654174804688, 0.007019508, 0.00830565, 0.36373234
578, 379069319, -0.7267489433288574, -0.7279984354972839, 16.94929313659668, -3.005411E-4, 8.354076E-4, 0.38524628
579, 379085986, -0.7266802191734314, -0.7276439070701599, 16.94881820678711, -0.004533807, 0.01010252, 0.33930206
580, 379102653, -0.7273809313774109, -0.7289568781852722, 16.948219299316406, 0.0027196428, 5.9238967E-4, 0.33642197
581, 379119320, -0.7264912128448486, -0.7285972833633423, 16.949234008789062, 0.0038166025, 8.001904E-4, 0.3574152
582, 379135987, -0.727027177810669, -0.7299304604530334, 16.94894790649414, -0.012155661, 0.009006451, 0.3242092
583, 379152654, -0.7265850901603699, -0.7309597730636597, 16.94867706298828, -0.002529971, 0.004337178, 0.36436844
584, 379169321, -0.7267736196517944, -0.7311050295829773, 16.94993019104004, -0.0044838586, -0.014003506, 0.3605709
585, 379185988, -0.727293848991394, -0.7306433320045471, 16.949691772460938, 0.020480681, -0.0017340904, 0.3223667
586, 379202655, -0.7263142466545105, -0.7313701510429382, 16.9483699798584, 0.0072769183, -0.0013736233, 0.35655499
587, 379219322, -0.7259983420372009, -0.7332059144973755, 16.947839736938477, 0.007059468, -0.011542617, 0.3332739
588, 379235989, -0.7261369228363037, -0.7329837083816528, 16.94854736328125, -0.010352966, 0.005155588, 0.35569477
589, 379252656, -0.7264481782913208, -0.7328530550003052, 16.94780158996582, 0.0076555633, -0.0022932568, 0.3519535
590, 379269323, -0.7262657284736633, -0.7308666706085205, 16.94702911376953, -0.0013452336, -0.015156319, 0.3509102
591, 379285990, -0.7268510460853577, -0.7309111952781677, 16.94841194152832, 0.008300873, 0.0028251794, 0.36100578
592, 379302657, -0.7261288166046143, -0.7334762811660767, 16.948083877563477, -0.0049142814, 0.010588032, 0.3465662
593, 379319324, -0.7260246872901917, -0.7325881719589233, 16.948959350585938, -0.0018135003, -0.002479754, 0.33584595
594, 379335991, -0.7261552810668945, -0.7341036796569824, 16.9481201171875, -0.004976132, -0.013661147, 0.3420744
595, 379352658, -0.7266719937324524, -0.7343927025794983, 16.94809341430664, -0.0028849167, 0.012549816, 0.3524742
596, 379369325, -0.726732075214386, -0.7338537573814392, 16.948993682861328, 0.0035991452, -0.0015832155, 0.337245
597, 379385992, -0.7262551188468933, -0.7330384254455566, 16.949575424194336, -9.024475E-4, 6.6128053E-4, 0.35559082
598, 379402659, -0.7269900441169739, -0.7338634133338928, 16.949186325073242, -0.0035393487, -0.0014837314, 0.34932232
599, 379419326, -0.7267038822174072, -0.7341049313545227, 16.94947624206543, 0.0014838257, -0.0065375445, 0.3497591
600, 379435993, -0.7297905683517456, -0.732842206954956, 16.962539672851562, -2.1992277E-4, -0.0067525115, 0.35369205
601, 379452660, -0.7304699420928955, -0.7322723269462585, 16.96210479736328, -2.139019E-4, 0.0023894128, 0.3340683
602, 379469327, -0.7314339280128479, -0.732048511505127, 16.9622802734375, 0.008249905, 2.5796887E-4, 0.34819508
603, 379485994, -0.7323123216629028, -0.7304723262786865, 16.96039390563965, -4.526137E-6, -0.0043818317, 0.3306036
604, 379502661, -0.7333298921585083, -0.729666531085968, 16.9597225189209, -0.0022985444, 0.0066522066, 0.34419918
605, 379519328, -0.7339925765991211, -0.7301259636878967, 16.95949363708496, 0.012375284, -0.0013099815, 0.3340912
606, 379535995, -0.7348359227180481, -0.7298287749290466, 16.959728240966797, 0.005705636, -0.0041137664, 0.35391808
607, 379552662, -0.7361093163490295, -0.7311503887176514, 16.959592819213867, 0.0015506141, -0.0026739554, 0.32796955
608, 379569329, -0.7380455732345581, -0.7300872206687927, 16.95862579345703, 0.0068776123, -0.004376202, 0.35594177
609, 379585996, -0.7380347847938538, -0.7288346290588379, 16.95909309387207, 5.16734E-5, -3.4831002E-4, 0.35500908
610, 379602663, -0.7383697628974915, -0.729619026184082, 16.958629608154297, 0.01696828, 0.0022619232, 0.32383442
611, 379619330, -0.738721489906311, -0.7289659976959229, 16.957935333251953, -0.004552603, 0.007934965, 0.36516953
612, 379635997, -0.7395873665809631, -0.7292378544807434, 16.957765579223633, -0.0046334094, 0.01236892, 0.3330021
613, 379652664, -0.7404873967170715, -0.7293466925621033, 16.958728790283203, 0.0034017484, -0.006368886, 0.33427906
614, 379669331, -0.7406164407730103, -0.7294277548789978, 16.958452224731445, 0.002036189, -0.0032290602, 0.34965134
615, 379685998, -0.7406179904937744, -0.7291186451911926, 16.95859146118164, 0.0041436367, -0.008390652, 0.36411285
616, 379702665, -0.740039050579071, -0.7283689975738525, 16.958820343017578, -0.0097140055, -0.012119533, 0.35668278
617, 379719332, -0.7394517660140991, -0.7283127307891846, 16.957977294921875, -0.0026793056, 0.008512774, 0.34687996
618, 379735999, -0.7402184009552002, -0.729088306427002, 16.957857131958008, -2.5834606E-4, 0.0013209021, 0.35276318
619, 379752666, -0.7390291690826416, -0.7280115485191345, 16.957956314086914, 0.008377594, 1.14257025E-4, 0.3559246
620, 379769333, -0.7397929430007935, -0.7277464270591736, 16.958803176879883, -0.006260144, 0.00242397, 0.35560226
621, 379786000, -0.7395814657211304, -0.7291722297668457, 16.958354949951172, -0.0014788385, 0.0036013315, 0.3717327
622, 379802667, -0.7391545176506042, -0.7291550636291504, 16.9594669342041, 0.0155433705, -0.0024998598, 0.35101318
623, 379819334, -0.7377903461456299, -0.7292820811271667, 16.958845138549805, 0.006776815, 0.00308524, 0.34340477
624, 379836001, -0.7372915148735046, -0.730634331703186, 16.95849609375, 0.010070558, 0.0012290209, 0.32745838
625, 379852668, -0.7362505793571472, -0.7296215295791626, 16.957624435424805, -0.0076171677, 0.013269252, 0.35934448
626, 379869335, -0.7367939949035645, -0.7295429110527039, 16.95855140686035, -0.004210956, -0.0049689477, 0.37301064
627, 379886002, -0.7368758916854858, -0.7293491363525391, 16.958566665649414, -0.003284411, -0.013900767, 0.34451103
628, 379902669, -0.7368491888046265, -0.7290762662887573, 16.957551956176758, 0.0064763296, -0.0038015153, 0.34131527
629, 379919336, -0.7373064160346985, -0.7275691032409668, 16.957529067993164, 0.0019791303, 0.0027183401, 0.34984875
630, 379936003, -0.7383086681365967, -0.7276144027709961, 16.957700729370117, 0.0010556517, -0.004087591, 0.3604908
631, 379952670, -0.7393712997436523, -0.7274570465087891, 16.9571533203125, -0.00533385, -0.0035062511, 0.34842777
632, 379969337, -0.7402872443199158, -0.7280957698822021, 16.956222534179688, -0.014739765, 0.007146963, 0.34183407
633, 379986004, -0.7406494617462158, -0.7266196012496948, 16.955339431762695, 0.0015031735, -0.009878951, 0.34597683
634, 380002671, -0.7407099604606628, -0.7265602350234985, 16.955644607543945, 0.0042209863, -0.0028504399, 0.35051823
635, 380019338, -0.7407318353652954, -0.7264339327812195, 16.954662322998047, -0.0017494289, -1.9466931E-4, 0.34328556
636, 380036005, -0.7411758899688721, -0.7253182530403137, 16.95514488220215, -0.008367934, 0.005935813, 0.36430454
637, 380052672, -0.7421032786369324, -0.7241020202636719, 16.956323623657227, -0.0066076857, 0.003278516, 0.34599686
638, 380069339, -0.7415236830711365, -0.7242283821105957, 16.956777572631836, 3.526825E-4, -0.0030988604, 0.34876728
639, 380086006, -0.7419513463973999, -0.7247121334075928, 16.95801544189453, 0.0010506227, -0.0013485829, 0.3567934
640, 380102673, -0.7418407797813416, -0.7260957956314087, 16.958101272583008, 0.020080313, 0.0022287, 0.35250282
641, 380119340, -0.7418594360351562, -0.7265511155128479, 16.95893669128418, 0.004206961, 0.008155485, 0.36893177
642, 380136007, -0.7416712641716003, -0.7266228795051575, 16.959152221679688, -0.0033305595, 0.0060798735, 0.33890915
643, 380152674, -0.7419969439506531, -0.7270981669425964, 16.958707809448242, -0.002647001, -0.011613939, 0.34588432
644, 380169341, -0.7430996894836426, -0.7258623242378235, 16.957670211791992, 0.0075944043, 0.0015348181, 0.35714817
645, 380186008, -0.7417896389961243, -0.725845217704773, 16.957233428955078, 0.0062295855, -0.0055893953, 0.3657322
646, 380202675, -0.7413182854652405, -0.7255834341049194, 16.959325790405273, 0.008214367, 0.0015402976, 0.33539963
647, 380219342, -0.7403125166893005, -0.7262077927589417, 16.960817337036133, 0.006777136, 0.018116595, 0.34199047
648, 380236009, -0.7411157488822937, -0.726252019405365, 16.959991455078125, -0.0019582598, 0.007234608, 0.35126114
649, 380252676, -0.7420941591262817, -0.7258421182632446, 16.960649490356445, 0.00424361, -6.306139E-4, 0.3269291
650, 380269343, -0.74220871925354, -0.7250954508781433, 16.96055793762207, -9.512851E-4, -0.0020584357, 0.35320854
651, 380286010, -0.7416826486587524, -0.7258185148239136, 16.961294174194336, 0.025417145, 0.009377332, 0.33038235
652, 380302677, -0.7420195937156677, -0.7257909774780273, 16.96162223815918, -0.007272469, -0.0079633165, 0.35666466
653, 380319344, -0.743728756904602, -0.7266584038734436, 16.962263107299805, -0.0023770812, 0.0106017785, 0.36424732
654, 380336011, -0.7435470223426819, -0.7276971340179443, 16.961999893188477, -0.009116528, 6.3846126E-4, 0.349885
655, 380352678, -0.7443884015083313, -0.7277956008911133, 16.962631225585938, 0.004823214, -0.0036184513, 0.35347462
656, 380369345, -0.7447165846824646, -0.7279966473579407, 16.962631225585938, 0.016634421, 0.00657375, 0.34471893
657, 380386012, -0.7443719506263733, -0.7276192307472229, 16.962825775146484, 0.004080229, -0.011397094, 0.35075474
658, 380402679, -0.7440574169158936, -0.7264211177825928, 16.963130950927734, -0.007668897, 0.009700637, 0.37296486
659, 380419346, -0.7439591884613037, -0.7257192134857178, 16.96291732788086, -8.720498E-5, 0.016380321, 0.36219978
660, 380436013, -0.7433802485466003, -0.7272011041641235, 16.962860107421875, 0.014448604, 0.0018767125, 0.3189001
661, 380452680, -0.7439702749252319, -0.7266634106636047, 16.961990356445312, 0.006614174, -0.002891821, 0.35638046
662, 380469347, -0.7445240616798401, -0.7274958491325378, 16.962583541870117, 0.008318321, -1.4439636E-4, 0.3422327
663, 380486014, -0.7457364201545715, -0.7278826236724854, 16.962757110595703, 0.004823186, -3.1554792E-4, 0.35756874
664, 380502681, -0.746010959148407, -0.7274892330169678, 16.962509155273438, -0.017273465, 0.0023653328, 0.39037704
665, 380519348, -0.7449682950973511, -0.7276031970977783, 16.962190628051758, 0.0041900226, 0.008898931, 0.3386879
666, 380536015, -0.7460314035415649, -0.7286946177482605, 16.962366104125977, 0.0018465662, -0.010775989, 0.34684944
667, 380552682, -0.7462746500968933, -0.7279062271118164, 16.962873458862305, 0.0049165795, -0.012677564, 0.3395462
668, 380569349, -0.7460043430328369, -0.7278856635093689, 16.963088989257812, -6.290772E-4, 0.004686868, 0.36706352
669, 380586016, -0.7467807531356812, -0.7280000448226929, 16.96318817138672, 0.007654816, 3.4719944E-4, 0.35315037
670, 380602683, -0.7475696802139282, -0.7264375686645508, 16.962539672851562, 0.014649199, 0.005894218, 0.3487072
671, 380619350, -0.7483363151550293, -0.7259831428527832, 16.96189308166504, 0.008275434, 0.013776409, 0.3532629
672, 380636017, -0.7493298649787903, -0.7265227437019348, 16.96137046813965, 0.014284608, 5.918693E-4, 0.32530499
673, 380652684, -0.7501046657562256, -0.7262081503868103, 16.961973190307617, 0.002276291, -0.010366388, 0.36551762
674, 380669351, -0.7495592832565308, -0.7265139818191528, 16.962112426757812, -0.006204461, 0.004563778, 0.32371902
675, 380686018, -0.786257803440094, -0.7235923409461975, 16.965913772583008, -0.0417459, 0.11828152, 0.43625832
676, 380702685, -0.9016361832618713, -0.7054697275161743, 16.97945785522461, 0.05046543, -0.09809169, 0.2674904
677, 380719352, -0.8821375370025635, -0.7077538371086121, 16.993608474731445, 0.041378047, -0.038263105, 0.2734661
678, 380736019, -0.8604923486709595, -0.7062132954597473, 17.00460433959961, -0.018967938, 0.012876917, 0.39997864
679, 380752686, -0.8250876069068909, -0.7064775228500366, 17.002803802490234, 0.014952625, -0.0029850993, 0.34406662
680, 380769353, -0.7985126972198486, -0.7055420875549316, 16.999210357666016, 0.011474087, 0.0061570485, 0.34097385
681, 380786020, -0.7757993936538696, -0.707168459892273, 16.99941062927246, 0.0027636748, -0.0047719665, 0.33892918
682, 380802687, -0.7587494850158691, -0.7074517011642456, 17.00052261352539, -0.002077092, -0.0018943002, 0.340271
683, 380819354, -0.7512110471725464, -0.7082098722457886, 17.00098991394043, -0.0035324895, 0.025196716, 0.35369778
684, 380836021, -0.7567929625511169, -0.7067777514457703, 16.99810791015625, -0.0037678697, -9.400222E-4, 0.34560204
685, 380852688, -0.7636675238609314, -0.7068121433258057, 16.994613647460938, -0.010503014, 0.0010458067, 0.34112835
686, 380869355, -0.7761080265045166, -0.7072685956954956, 16.982261657714844, -0.0018740165, -0.011901499, 0.31303024
687, 380886022, -0.7979562282562256, -0.7081197500228882, 16.863693237304688, -0.11451953, -0.17072953, 0.35633183
688, 380902689, -0.8164153099060059, -0.7089692950248718, 16.503746032714844, -0.07722846, -0.026430149, 0.32877254
689, 380919356, -0.831340491771698, -0.7067279815673828, 16.142305374145508, 0.074345626, 0.11128053, 0.3511591
690, 380936023, -0.8354623913764954, -0.7027058005332947, 16.032346725463867, 0.15745336, 0.08916832, 0.33616638
691, 380952690, -0.8246562480926514, -0.7022374868392944, 15.869183540344238, -0.23645183, -0.21119876, 0.34510994
692, 380969357, -0.8090210556983948, -0.7087029218673706, 15.238707542419434, -0.106187835, -0.11595709, 0.34499264
693, 380986024, -0.790819525718689, -0.7173634767532349, 14.621196746826172, 0.04400531, 0.033053953, 0.34614563
694, 381002691, -0.7781398296356201, -0.7254558205604553, 14.01883602142334, 0.020397898, 0.013606969, 0.35307884
695, 381019358, -0.7601374983787537, -0.7368021011352539, 13.644424438476562, 0.18470107, 0.1944629, 0.35361576
696, 381036025, -0.7501549124717712, -0.7425917983055115, 13.416914939880371, -0.050956644, -0.092608795, 0.3717432
697, 381052692, -0.7419530153274536, -0.7430025339126587, 13.055343627929688, -0.0036830534, -0.016119681, 0.33811665
698, 381069359, -0.7375970482826233, -0.7409153580665588, 12.650697708129883, -0.049413633, -0.050789267, 0.3392372
699, 381086026, -0.7286620140075684, -0.7409579753875732, 12.144338607788086, 0.10963945, 0.089489505, 0.33350754
700, 381102693, -0.722178041934967, -0.7388365864753723, 12.077893257141113, 0.1176099, 0.12577319, 0.35643768
701, 381119360, -0.706253707408905, -0.7454226613044739, 12.077836990356445, -0.014955971, -0.01452982, 0.34855747
702, 381136027, -0.6824108362197876, -0.7581802010536194, 12.072783470153809, -0.0030308915, -0.022753514, 0.3441887
703, 381152694, -0.6675751805305481, -0.7656436562538147, 11.866009712219238, -0.13758686, -0.3473292, 0.35973167
704, 381169361, -0.6571837067604065, -0.7722070813179016, 11.377967834472656, -0.024720414, -0.0107826665, 0.33458138
705, 381186028, -0.6570018529891968, -0.7748700380325317, 11.018107414245605, 0.075727075, 0.17920597, 0.3589096
706, 381202695, -0.6664221882820129, -0.7721492052078247, 10.759111404418945, -0.025770562, 0.020458564, 0.34525108
707, 381219362, -0.6755303740501404, -0.7665854096412659, 10.409564971923828, -0.10381438, -0.1097023, 0.35236645
708, 381236029, -0.674387514591217, -0.7699564099311829, 9.742300987243652, -0.20542859, -0.091838844, 0.3403511
709, 381252696, -0.6584238409996033, -0.7791293859481812, 8.909245491027832, -0.09539855, 0.0040373425, 0.34105682
710, 381269363, -0.62802654504776, -0.794044017791748, 8.303913116455078, 0.29094324, 0.100187, 0.31294632
711, 381286030, -0.6024752259254456, -0.8012980818748474, 8.06623649597168, 0.06257044, 0.029174445, 0.34369946
712, 381302697, -0.5865693688392639, -0.8009601831436157, 7.756246089935303, -0.0027613558, -0.049490143, 0.36385918
713, 381319364, -0.5746631622314453, -0.7989068031311035, 7.490349292755127, 0.028437853, 0.019909177, 0.36872005
714, 381336031, -0.5687169432640076, -0.7982496619224548, 7.186911106109619, -0.0509407, -0.06719028, 0.3413515
715, 381352698, -0.5661792159080505, -0.8006527423858643, 6.78197717666626, -0.05365652, -0.10280623, 0.37102604
716, 381369365, -0.560404360294342, -0.8027777075767517, 6.247973918914795, -0.051190425, -0.011539488, 0.36122036
717, 381386032, -0.5500171780586243, -0.8116564154624939, 5.7047834396362305, -0.006690106, 0.022466643, 0.33943653
718, 381402699, -0.5380828976631165, -0.8164685368537903, 5.250913619995117, 0.016149132, 0.024427861, 0.3476162
719, 381419366, -0.5306467413902283, -0.8199408054351807, 4.840904235839844, -0.016954003, -0.004594735, 0.33740997
720, 381436033, -0.5148193836212158, -0.8257821202278137, 4.410097599029541, -0.009909783, -0.05888786, 0.34771252
721, 381452700, -0.49701303243637085, -0.8309812545776367, 3.9018898010253906, -0.093681514, -0.13128392, 0.35720348
722, 381469367, -0.4704933166503906, -0.8378125429153442, 3.2555301189422607, -0.004845097, -0.08025637, 0.35606384
723, 381486034, -0.4484964907169342, -0.8435422778129578, 2.6758363246917725, 0.03886886, 0.04675155, 0.36152554
724, 381502701, -0.4337078034877777, -0.8463929891586304, 2.2527904510498047, 0.037145108, 0.070118845, 0.33412838
725, 381519368, -0.43255504965782166, -0.8502959609031677, 2.083533763885498, 0.093614295, 0.21471713, 0.365036
726, 381536035, -0.4389965534210205, -0.8574151396751404, 2.045008420944214, -0.09089938, -0.1166007, 0.35788155
727, 381552702, -0.43737757205963135, -0.8636232614517212, 1.849744439125061, -0.005333899, -0.026009249, 0.3411808
728, 381569369, -0.4209384024143219, -0.8646420240402222, 1.623870611190796, -0.15395804, -0.20007168, 0.35957718
729, 381586036, -0.41854313015937805, -0.8640170097351074, 1.0182099342346191, -0.358388, -0.3033048, 0.3409958
730, 381602703, -0.3995077908039093, -0.8665120005607605, -0.1763734370470047, -0.61211836, -0.35056525, 0.3224163
731, 381619370, -0.30580219626426697, -0.8834101557731628, -2.4132065773010254, -0.4430459, -0.6261876, 0.3153267
732, 381636037, -0.25841352343559265, -0.8777427077293396, -4.5110979080200195, 0.6253417, 0.4438815, 0.43091965
733, 381652704, -0.27626940608024597, -0.8710131049156189, -4.99676513671875, 0.8764672, 0.940465, 0.3247881
734, 381669371, -0.27753734588623047, -0.8704555630683899, -4.996309280395508, -0.017307278, -0.03563201, 0.35557365
735, 381686038, -0.2768820822238922, -0.870401918888092, -4.996309757232666, -0.025873713, -0.039291985, 0.34213066
736, 381702705, -0.2785555422306061, -0.8703277707099915, -4.994953632354736, -0.024254963, -0.027885143, 0.32763577
737, 381719372, -0.2792682647705078, -0.871856153011322, -4.995882987976074, -0.04796113, -0.028440528, 0.37172604
738, 381736039, -0.28074923157691956, -0.8715355396270752, -4.996973514556885, -0.026162257, -0.035275802, 0.34206486
739, 381752706, -0.2824913263320923, -0.8710291385650635, -4.9972453117370605, -0.02859864, -0.060176644, 0.3462715
740, 381769373, -0.28220707178115845, -0.8716127276420593, -4.996448516845703, -0.016576609, -0.028510662, 0.3582182
741, 381786040, -0.2814524471759796, -0.8716060519218445, -4.995402812957764, -0.032812253, -0.029476896, 0.3576851
742, 381802707, -0.28237369656562805, -0.8707557320594788, -4.995717525482178, -0.031384174, -0.027227804, 0.34958744
743, 381819374, -0.2831200063228607, -0.8715299367904663, -4.996068000793457, -0.032310907, -0.036525, 0.34438705
744, 381836041, -0.28358012437820435, -0.8717296123504639, -4.9946770668029785, -0.026730219, -0.019500915, 0.329278
745, 381852708, -0.28202715516090393, -0.8709962964057922, -4.9931745529174805, -0.044880334, -0.025078444, 0.35275364
746, 381869375, -0.2819811999797821, -0.8700668215751648, -4.992988586425781, -0.02015784, -0.030282706, 0.34757137
747, 381886042, -0.28177374601364136, -0.8700834512710571, -4.993071556091309, -0.023678938, -0.03905095, 0.32577896
748, 381902709, -0.28137317299842834, -0.8701121211051941, -4.9935302734375, -0.018519271, -0.04489453, 0.36223888
749, 381919376, -0.2822567820549011, -0.8703470826148987, -4.993484020233154, -0.016647706, -0.033132717, 0.34750843
750, 381936043, -0.28329986333847046, -0.8694994449615479, -4.992822647094727, -0.040746916, -0.03868008, 0.3502941
751, 381952710, -0.28369244933128357, -0.8701849579811096, -4.993634223937988, -0.033877183, -0.012389798, 0.35252762
752, 381969377, -0.2831754684448242, -0.8712252378463745, -4.993415355682373, -0.018786034, -0.026092187, 0.31792164
753, 381986044, -0.28455469012260437, -0.8713319897651672, -4.993602752685547, -0.018240197, -0.03534128, 0.33850098
754, 382002711, -0.2842727303504944, -0.8700788021087646, -4.993710517883301, -0.016550437, -0.039699037, 0.34203243
755, 382019378, -0.2832382023334503, -0.8690969944000244, -4.994182109832764, -0.023778053, -0.026415532, 0.36664104
756, 382036045, -0.2838152050971985, -0.8683143854141235, -4.994049072265625, -0.023472056, -0.041695017, 0.34532738
757, 382052712, -0.2836616337299347, -0.86810302734375, -4.993606090545654, -0.031875953, -0.02433921, 0.3606634
758, 382069379, -0.28374090790748596, -0.8688889741897583, -4.993764877319336, -0.017180715, -0.033097994, 0.33524895
759, 382086046, -0.28426074981689453, -0.8682757616043091, -4.992812633514404, -0.023946386, -0.03975315, 0.34128094
760, 382102713, -0.28400248289108276, -0.868050217628479, -4.992639064788818, -0.01789511, -0.037571732, 0.35666466
761, 382119380, -0.283640593290329, -0.8680106997489929, -4.992938995361328, -0.019502304, -0.03672714, 0.35085297
762, 382136047, -0.28393620252609253, -0.8674473166465759, -4.992523193359375, -0.01639515, -0.03708592, 0.34914112
763, 382152714, -0.2845788598060608, -0.8674771189689636, -4.992464542388916, -0.024869554, -0.038474925, 0.34409332
764, 382169381, -0.2845522165298462, -0.8664922118186951, -4.992023944854736, -0.016056828, -0.040536575, 0.34806728
765, 382186048, -0.2850286364555359, -0.8665781617164612, -4.992021083831787, -0.032245446, -0.0400311, 0.35806465
766, 382202715, -0.28571322560310364, -0.8673242330551147, -4.991556167602539, -0.026560128, -0.031517632, 0.33164787
767, 382219382, -0.2855848968029022, -0.8669224381446838, -4.991888523101807, -0.025952453, -0.043427665, 0.3569746
768, 382236049, -0.2860970199108124, -0.8682191371917725, -4.990188121795654, -0.021553518, -0.03539067, 0.3671856
769, 382252716, -0.2860334813594818, -0.8689119219779968, -4.989001274108887, -0.025444698, -0.04467867, 0.3633747
770, 382269383, -0.2861213684082031, -0.8682242035865784, -4.98917818069458, -0.023703095, -0.040522415, 0.3722887
771, 382286050, -0.28709274530410767, -0.8677242398262024, -4.989287853240967, -0.024494363, -0.029180259, 0.37142658
772, 382302717, -0.28666335344314575, -0.867759108543396, -4.989678859710693, -0.03390744, -0.051817123, 0.3341732
773, 382319384, -0.2874446213245392, -0.8675469756126404, -4.989137649536133, -0.01297091, -0.025708197, 0.3418541
774, 382336051, -0.28676488995552063, -0.8668678998947144, -4.988999366760254, -0.021371739, -0.04437201, 0.35241985
775, 382352718, -0.28664636611938477, -0.8682790398597717, -4.989017009735107, -0.04044525, -0.02940065, 0.3702259
776, 382369385, -0.28700852394104004, -0.869110107421875, -4.9893412590026855, -0.026704554, -0.029529024, 0.3698969
777, 382386052, -0.2868151068687439, -0.8693097829818726, -4.989326000213623, -0.027276488, -0.03700513, 0.3373947
778, 382402719, -0.2863902747631073, -0.8695187568664551, -4.989621639251709, -0.016046932, -0.02895311, 0.37160015
779, 382419386, -0.2869738042354584, -0.8697378635406494, -4.989780426025391, -0.028506923, -0.029478705, 0.31605816
780, 382436053, -0.28662484884262085, -0.8692255020141602, -4.989234447479248, -0.021384275, -0.025058748, 0.33368778
781, 382452720, -0.2864334285259247, -0.8705539703369141, -4.989969253540039, -0.026296418, -0.03221104, 0.36329937
782, 382469387, -0.2860066890716553, -0.8689380288124084, -4.9903788566589355, -0.02178798, -0.03824349, 0.35095978
783, 382486054, -0.28645196557044983, -0.8692237138748169, -4.99168062210083, -0.01797242, -0.036387343, 0.3567171
784, 382502721, -0.28699979186058044, -0.8696186542510986, -4.991511821746826, -0.01963057, -0.04089589, 0.36281586
785, 382519388, -0.28710421919822693, -0.86957186460495, -4.991965293884277, -0.027673136, -0.03641596, 0.35915184
786, 382536055, -0.28714728355407715, -0.8704136610031128, -4.9914679527282715, -0.035493847, -0.041620187, 0.3638487
787, 382552722, -0.286469966173172, -0.8696315884590149, -4.992511749267578, -0.02808394, -0.041930515, 0.36877155
788, 382569389, -0.2864273488521576, -0.8701163530349731, -4.992259979248047, -0.020077312, -0.02800634, 0.3410473
789, 382586056, -0.28530052304267883, -0.8701150417327881, -4.992761611938477, -0.025259977, -0.03467809, 0.3778391
790, 382602723, -0.28530094027519226, -0.8696143627166748, -4.993592262268066, -0.023590224, -0.05174794, 0.37255764
791, 382619390, -0.2858276963233948, -0.8693343997001648, -4.992371559143066, -0.03407117, -0.034580905, 0.35717392
792, 382636057, -0.2857861816883087, -0.8687815070152283, -4.993133544921875, -0.03404659, -0.044927537, 0.37617016
793, 382652724, -0.2862911522388458, -0.8680508732795715, -4.993797779083252, -0.0091469325, -0.039915938, 0.37002563
794, 382669391, -0.2864184081554413, -0.8672806620597839, -4.993407726287842, -0.021979311, -0.041329943, 0.36812496
795, 382686058, -0.28649652004241943, -0.8693854212760925, -4.992690563201904, -0.02116967, -0.03660494, 0.34068108
796, 382702725, -0.2865378260612488, -0.8694407343864441, -4.992568016052246, -0.02394942, -0.03643913, 0.36617565
797, 382719392, -0.28693047165870667, -0.868188202381134, -4.992617130279541, -0.028680634, -0.02814131, 0.35697746
798, 382736059, -0.2868780195713043, -0.868423342704773, -4.992367267608643, -0.035841677, -0.036185216, 0.35226727
799, 382752726, -0.2862107753753662, -0.8693773746490479, -4.993659496307373, -0.014940067, -0.015351493, 0.35875702
800, 382769393, -0.2861862778663635, -0.8694034814834595, -4.9943132400512695, -0.006944806, -0.020285677, 0.3503933
801, 382786060, -0.28625765442848206, -0.8686431050300598, -4.992614269256592, -0.04658084, -0.031586573, 0.34720802
802, 382802727, -0.2860253155231476, -0.8684790134429932, -4.99215030670166, -0.048058547, -0.0442022, 0.3626976
803, 382819394, -0.2841065526008606, -0.869321882724762, -4.991394519805908, -0.035234395, -0.03608546, 0.3633604
804, 382836061, -0.28315508365631104, -0.8690217137336731, -4.99131965637207, -0.03674438, -0.044857755, 0.35758305
805, 382852728, -0.28295373916625977, -0.8691590428352356, -4.991626739501953, -0.027251098, -0.032879114, 0.3547821
806, 382869395, -0.2826627194881439, -0.8687611222267151, -4.9910993576049805, -0.0218445, -0.02777315, 0.3612547
807, 382886062, -0.2822413742542267, -0.8683565258979797, -4.9912519454956055, -0.027852846, -0.044573855, 0.35410976
808, 382902729, -0.282732754945755, -0.8679201602935791, -4.99068546295166, -0.03256673, -0.03008659, 0.37851906
809, 382919396, -0.28282445669174194, -0.867591381072998, -4.990741729736328, -0.031368777, -0.030568302, 0.34273052
810, 382936063, -0.28379523754119873, -0.8677663207054138, -4.99108362197876, -0.00856751, -0.016125472, 0.38822365
811, 382952730, -0.2837439477443695, -0.8685587048530579, -4.989861965179443, -0.030564094, -0.037647013, 0.357193
812, 382969397, -0.2834188938140869, -0.8678370714187622, -4.989970684051514, -0.033662945, -0.043835282, 0.3481226
813, 382986064, -0.28463318943977356, -0.8686159253120422, -4.991233825683594, -0.024762563, -0.047393683, 0.3448677
814, 383002731, -0.2840019166469574, -0.8686152696609497, -4.9923624992370605, -0.030925617, -0.032130092, 0.35311985
815, 383019398, -0.2837170958518982, -0.8679523468017578, -4.992800235748291, -0.030999955, -0.027673876, 0.34203434
816, 383036065, -0.28401312232017517, -0.868228554725647, -4.991769790649414, -0.02449007, -0.030954663, 0.34905052
817, 383052732, -0.28441140055656433, -0.8675844669342041, -4.99074649810791, -0.039053626, -0.037841715, 0.36874676
818, 383069399, -0.2846265733242035, -0.8669177293777466, -4.99104118347168, -0.04562672, -0.030610906, 0.35762596
819, 383086066, -0.2844657003879547, -0.8652815222740173, -4.989866256713867, -0.03008776, -0.03880483, 0.37926102
820, 383102733, -0.28417882323265076, -0.8654407858848572, -4.990797996520996, -0.028272996, -0.038690206, 0.34775257
821, 383119400, -0.2840943932533264, -0.8661342859268188, -4.991190433502197, -0.033624995, -0.035742804, 0.34760094
822, 383136067, -0.2840045988559723, -0.8654810786247253, -4.992117881774902, -0.03322397, -0.034387182, 0.35087776
823, 383152734, -0.28431954979896545, -0.8655120134353638, -4.99205207824707, -0.025211113, -0.045329273, 0.33600807
824, 383169401, -0.283935010433197, -0.8657172918319702, -4.992282867431641, -0.024769863, -0.032362964, 0.35115528
825, 383186068, -0.2845499813556671, -0.864884078502655, -4.991894721984863, -0.030045178, -0.023419103, 0.32225418
826, 383202735, -0.28456607460975647, -0.8660393953323364, -4.9909844398498535, -0.035117894, -0.01606019, 0.34454727
827, 383219402, -0.2846755385398865, -0.866757333278656, -4.991382122039795, -0.026230128, -0.031139154, 0.33617592
828, 383236069, -0.28519535064697266, -0.8649733662605286, -4.991273880004883, -0.029701162, -0.036488935, 0.36265278
829, 383252736, -0.285573273897171, -0.8650278449058533, -4.99102783203125, -0.036494408, -0.03544587, 0.36717987
830, 383269403, -0.2862851023674011, -0.8643263578414917, -4.989590167999268, -0.02190538, -0.033833064, 0.3626995
831, 383286070, -0.2850583493709564, -0.8643425703048706, -4.988927364349365, -0.020763969, -0.038774006, 0.33993053
832, 383302737, -0.2853648066520691, -0.865106463432312, -4.988236427307129, -0.00680796, -0.032213308, 0.35290432
833, 383319404, -0.2853577136993408, -0.8651139736175537, -4.988455772399902, -0.030084291, -0.031899236, 0.36643505
834, 383336071, -0.2850037217140198, -0.8656362891197205, -4.9879374504089355, -0.033061072, -0.049312335, 0.33431053
835, 383352738, -0.2844233512878418, -0.8655829429626465, -4.98771858215332, -0.022898197, -0.02704024, 0.37169456
836, 383369405, -0.2855803370475769, -0.8655297160148621, -4.987633228302002, -0.013170222, -0.036912326, 0.3476076
837, 383386072, -0.28510788083076477, -0.8653573393821716, -4.988178253173828, -0.034608245, -0.037376896, 0.34229183
838, 383402739, -0.2846982181072235, -0.8650411367416382, -4.988042831420898, -0.027215188, -0.033130188, 0.33884907
839, 383419406, -0.28435003757476807, -0.8642571568489075, -4.98803186416626, -0.015235495, -0.026565563, 0.32334137
840, 383436073, -0.285276859998703, -0.8634369969367981, -4.988439559936523, -0.030659718, -0.03246869, 0.3763113
841, 383452740, -0.2850324809551239, -0.8617321848869324, -4.986969947814941, -0.010206391, -0.03174518, 0.34981823
842, 383469407, -0.2856702506542206, -0.8609167337417603, -4.988035678863525, -0.013738573, -0.028043132, 0.35733604
843, 383486074, -0.28534016013145447, -0.8608397245407104, -4.988221645355225, -0.018111674, -0.04462358, 0.3424101
844, 383502741, -0.2866232991218567, -0.8605574369430542, -4.989252090454102, -0.029250193, -0.02739087, 0.353652
845, 383519408, -0.2858049273490906, -0.8598752617835999, -4.988801956176758, -0.029823435, -0.03136945, 0.35216522
846, 383536075, -0.2872205674648285, -0.8594724535942078, -4.988548755645752, -0.026320418, -0.028321829, 0.3312683
847, 383552742, -0.28769809007644653, -0.8600260615348816, -4.987682342529297, -0.028257003, -0.038807906, 0.32255077
848, 383569409, -0.2868594229221344, -0.8604545593261719, -4.987750053405762, -0.01398325, -0.04193197, 0.35499668
849, 383586076, -0.2861553430557251, -0.8607028722763062, -4.98764705657959, -0.022466144, -0.03551079, 0.3677702
850, 383602743, -0.2858103811740875, -0.8608540296554565, -4.9884185791015625, -0.031571478, -0.041332155, 0.34903717
851, 383619410, -0.28698551654815674, -0.861075222492218, -4.987005233764648, -0.026734496, -0.034700725, 0.37695694
852, 383636077, -0.2884036898612976, -0.8620869517326355, -4.987428188323975, -0.01640585, -0.03368331, 0.3508253
853, 383652744, -0.28715723752975464, -0.8617529273033142, -4.987430572509766, -0.02859541, -0.036653444, 0.36336803
854, 383669411, -0.286923885345459, -0.863172173500061, -4.987086296081543, -0.014887101, -0.029020645, 0.34738255
855, 383686078, -0.2866520285606384, -0.8626085519790649, -4.986031532287598, -0.038858544, -0.031613708, 0.36674976
856, 383702745, -0.2869270443916321, -0.8625898361206055, -4.985342979431152, -0.027421897, -0.041233853, 0.3560362
857, 383719412, -0.28678640723228455, -0.8612567186355591, -4.984971046447754, -0.028250907, -0.048002042, 0.33453655
858, 383736079, -0.2875942289829254, -0.8612706065177917, -4.984278678894043, -0.030337406, -0.025310777, 0.3668127
859, 383752746, -0.2877134382724762, -0.8607121706008911, -4.985348224639893, -0.028612483, -0.028830577, 0.33860588
860, 383769413, -0.2887711226940155, -0.8606375455856323, -4.985952854156494, -0.017491922, -0.028422901, 0.3357315
861, 383786080, -0.2886934280395508, -0.8612157106399536, -4.98564338684082, -0.022328978, -0.032315042, 0.36389923
862, 383802747, -0.28811368346214294, -0.8604364395141602, -4.985491752624512, -0.027694117, -0.046508748, 0.35365486
863, 383819414, -0.28894588351249695, -0.8608881831169128, -4.985513210296631, -0.021552345, -0.02482544, 0.35884762
864, 383836081, -0.29021286964416504, -0.8596433401107788, -4.98567533493042, -0.019547667, -0.045273058, 0.32513332
865, 383852748, -0.28940290212631226, -0.8606557250022888, -4.985008716583252, -0.00793698, -0.033714052, 0.36933708
866, 383869415, -0.2896796464920044, -0.8615513443946838, -4.984499454498291, -0.030400384, -0.029766833, 0.34280872
867, 383886082, -0.2893657386302948, -0.8615279793739319, -4.984523296356201, -0.026467992, -0.008051476, 0.3739462
868, 383902749, -0.28911930322647095, -0.8601943850517273, -4.986175060272217, -0.009980671, -0.04195124, 0.3331051
869, 383919416, -0.2889479398727417, -0.860408365726471, -4.985870838165283, -0.015999379, -0.027218543, 0.3329029
870, 383936083, -0.28957971930503845, -0.8609834909439087, -4.986095905303955, -0.033306193, -0.029023362, 0.3674822
871, 383952750, -0.29018548130989075, -0.8608248233795166, -4.986248016357422, -0.03856627, -0.028006928, 0.34609985
872, 383969417, -0.28956082463264465, -0.8622404336929321, -4.985742092132568, -0.023202121, -0.040388796, 0.36837006
873, 383986084, -0.2898171842098236, -0.8629339933395386, -4.985766887664795, -0.018757755, -0.03642126, 0.33112717
874, 384002751, -0.2889232039451599, -0.8630578517913818, -4.985874176025391, -0.024777448, -0.023375897, 0.3692007
875, 384019418, -0.28909438848495483, -0.8635336756706238, -4.986272811889648, -0.017039709, -0.03072299, 0.3599577
876, 384036085, -0.2881433665752411, -0.8621774911880493, -4.986507415771484, -0.03177665, -0.039407823, 0.3703928
877, 384052752, -0.2879076898097992, -0.8625806570053101, -4.986608028411865, -0.022449583, -0.03850193, 0.34723282
878, 384069419, -0.28732720017433167, -0.8625783324241638, -4.986586570739746, -0.036884736, -0.032494664, 0.35144138
879, 384086086, -0.2866760790348053, -0.8629584312438965, -4.986084461212158, -0.018966433, -0.025820516, 0.3505926
880, 384102753, -0.28635507822036743, -0.8625104427337646, -4.986245155334473, -0.027619325, -0.030862676, 0.34580612
881, 384119420, -0.2863537073135376, -0.8621746301651001, -4.987225532531738, -0.025989, -0.024320584, 0.35720634
882, 384136087, -0.287264883518219, -0.8632746934890747, -4.986751556396484, -0.019783935, -0.047610633, 0.34157753
883, 384152754, -0.28712114691734314, -0.8636093139648438, -4.986565589904785, -0.024311487, -0.031145748, 0.35956478
884, 384169421, -0.2868610620498657, -0.8630978465080261, -4.9870829582214355, -0.025118507, -0.025229814, 0.3199501
885, 384186088, -0.28613558411598206, -0.8633309602737427, -4.98689079284668, -0.03057422, -0.031836838, 0.35609055
886, 384202755, -0.28526771068573, -0.8636540174484253, -4.9864373207092285, -0.045755748, -0.031858638, 0.3479166
887, 384219422, -0.2860526740550995, -0.8637562990188599, -4.9865217208862305, -0.024534162, -0.04657081, 0.35373688
888, 384236089, -0.2861093580722809, -0.8647060990333557, -4.986288547515869, -0.025817486, -0.03156787, 0.34447575
889, 384252756, -0.2858524024486542, -0.8641858696937561, -4.986664772033691, -0.038287263, -0.04167614, 0.32377815
890, 384269423, -0.2866595983505249, -0.8649534583091736, -4.987094879150391, -0.024864273, -0.037166566, 0.33621025
891, 384286090, -0.2884199321269989, -0.8647763729095459, -4.9880595207214355, -0.027333364, -0.031188611, 0.35776806
892, 384302757, -0.28788089752197266, -0.8656087517738342, -4.987766742706299, -0.020655517, -0.049242448, 0.34916115
893, 384319424, -0.28773748874664307, -0.8675205707550049, -4.989279270172119, -0.022814002, -0.04273326, 0.3608284
894, 384336091, -0.2877677083015442, -0.8670744895935059, -4.989052772521973, -0.015543126, -0.03866839, 0.34037495
895, 384352758, -0.28740039467811584, -0.8677585124969482, -4.988786220550537, -0.024836868, -0.04343727, 0.350976
896, 384369425, -0.28638723492622375, -0.8675841093063354, -4.989344596862793, -0.03004005, -0.034417875, 0.3360319
897, 384386092, -0.28606754541397095, -0.8673372864723206, -4.989196300506592, -0.023056587, -0.034938347, 0.36830425
898, 384402759, -0.28739631175994873, -0.8670806884765625, -4.989784240722656, -0.03298148, -0.039945196, 0.33147526
899, 384419426, -0.28726592659950256, -0.8662430047988892, -4.989521503448486, -0.045203842, -0.02625155, 0.3558035
900, 384436093, -0.2877562642097473, -0.8663437366485596, -4.989354133605957, -0.013178966, -0.03349436, 0.36111927
901, 384452760, -0.28848010301589966, -0.8648957014083862, -4.989006519317627, -0.026440475, -0.03492736, 0.34737015
902, 384469427, -0.28851208090782166, -0.8662561178207397, -4.988399505615234, -0.04039729, -0.02985326, 0.33664703
903, 384486094, -0.2884136140346527, -0.8661630153656006, -4.987460136413574, -0.01554775, -0.043257084, 0.3738861
904, 384502761, -0.28829795122146606, -0.8659939169883728, -4.987154006958008, -0.031740762, -0.029525584, 0.33979416
905, 384519428, -0.287474125623703, -0.8660585880279541, -4.987549304962158, -0.03178184, -0.019100709, 0.33108902
906, 384536095, -0.2877761721611023, -0.8654792904853821, -4.986895561218262, -0.026283754, -0.036894277, 0.3509512
907, 384552762, -0.2873249650001526, -0.8656852841377258, -4.987224102020264, -0.02839652, -0.042743165, 0.33986282
908, 384569429, -0.28677457571029663, -0.867754340171814, -4.988009452819824, -0.026476653, -0.041172802, 0.33089256
909, 384586096, -0.28624624013900757, -0.8675368428230286, -4.988889694213867, -0.035993688, -0.032968, 0.34241867
910, 384602763, -0.28701484203338623, -0.8665790557861328, -4.988194465637207, -0.019794615, -0.047322102, 0.34869003
911, 384619430, -0.28708815574645996, -0.8663885593414307, -4.987641334533691, -0.024984114, -0.03358221, 0.3501587
912, 384636097, -0.28787654638290405, -0.8649575114250183, -4.986876964569092, -0.034972493, -0.029151788, 0.339818
913, 384652764, -0.28835171461105347, -0.8657834529876709, -4.988593101501465, -0.026256045, -0.032691557, 0.36048603
914, 384669431, -0.2884661853313446, -0.8656381368637085, -4.989161491394043, -0.015715713, -0.029846327, 0.3536148
915, 384686098, -0.2889777421951294, -0.8643321394920349, -4.988951206207275, -0.040540416, -0.035487913, 0.32556725
916, 384702765, -0.28944677114486694, -0.8630877137184143, -4.9888529777526855, -0.024595715, -0.03274018, 0.34344196
917, 384719432, -0.28847289085388184, -0.86281418800354, -4.988620281219482, -0.015396277, -0.027615147, 0.3386593
918, 384736099, -0.2883850634098053, -0.8619140982627869, -4.987707614898682, -0.028806373, -0.03631124, 0.34966755
919, 384752766, -0.2886439561843872, -0.8605077862739563, -4.987794876098633, -0.02466068, -0.024060592, 0.34179115
920, 384769433, -0.2892891764640808, -0.861147403717041, -4.987165451049805, -0.011462869, -0.020883398, 0.34486866
921, 384786100, -0.28921008110046387, -0.8622869849205017, -4.987733840942383, -0.02055889, -0.041582286, 0.33339214
922, 384802767, -0.2890855669975281, -0.8617849349975586, -4.988455295562744, -0.022519622, -0.03549369, 0.370368
923, 384819434, -0.2888530194759369, -0.8614916205406189, -4.988584518432617, -0.022330798, -0.033043124, 0.34155655
924, 384836101, -0.289304256439209, -0.8605942130088806, -4.989238739013672, -0.040758166, -0.021989362, 0.36580372
925, 384852768, -0.2902296483516693, -0.8598482012748718, -4.989126205444336, -0.030487074, -0.04448224, 0.38621998
926, 384869435, -0.2896766662597656, -0.860607922077179, -4.990079879760742, -0.014153902, -0.035111334, 0.3480034
927, 384886102, -0.28968143463134766, -0.8599091172218323, -4.991150856018066, -0.015671682, -0.033641122, 0.35007286
928, 384902769, -0.28966858983039856, -0.8581620454788208, -4.99040412902832, -0.026301734, -0.041727584, 0.3347168
929, 384919436, -0.2887169122695923, -0.8575598001480103, -4.990860462188721, -0.032103203, -0.03553969, 0.37582874
930, 384936103, -0.2884480655193329, -0.8568683862686157, -4.991196632385254, -0.017535277, -0.032310076, 0.35425568
931, 384952770, -0.28755301237106323, -0.8574661612510681, -4.991818904876709, -0.021481743, -0.039736047, 0.35542393
932, 384969437, -0.2878442406654358, -0.8581110835075378, -4.992693901062012, -0.024439165, -0.030107496, 0.36287117
933, 384986104, -0.28716036677360535, -0.8574548363685608, -4.993788719177246, -0.022776958, -0.027736658, 0.34103775
934, 385002771, -0.2874658703804016, -0.8582662343978882, -4.99399995803833, -0.024357388, -0.035987444, 0.34599113
935, 385019438, -0.2882022559642792, -0.8575443029403687, -4.993407726287842, -0.034699105, -0.03455578, 0.34218884
936, 385036105, -0.28853198885917664, -0.8571731448173523, -4.99403715133667, -0.026808148, -0.03528743, 0.36708832
937, 385052772, -0.28914526104927063, -0.8573235273361206, -4.994839191436768, -0.013162692, -0.03041023, 0.34902
938, 385069439, -0.28925999999046326, -0.8585255146026611, -4.995359420776367, -0.024645722, -0.0331755, 0.36490726
939, 385086106, -0.2887585163116455, -0.8594329357147217, -4.995950222015381, -0.026180226, -0.03218731, 0.33811092
940, 385102773, -0.2891097366809845, -0.8599976301193237, -4.99630069732666, -0.035334166, -0.03391839, 0.36039734
941, 385119440, -0.2901914417743683, -0.860872209072113, -4.995700359344482, -0.036772802, -0.033245742, 0.3715973
942, 385136107, -0.2905582785606384, -0.861133337020874, -4.99587869644165, -0.020009054, -0.020395303, 0.35356617
943, 385152774, -0.2902616858482361, -0.8611361980438232, -4.994777202606201, -0.024512911, -0.038884975, 0.36244488
944, 385169441, -0.28965499997138977, -0.8613355755805969, -4.995306491851807, -0.023057744, -0.042940117, 0.362216
945, 385186108, -0.29020705819129944, -0.8620454668998718, -4.995253562927246, -0.02416389, -0.02889233, 0.37865448
946, 385202775, -0.2899344563484192, -0.8631982207298279, -4.9946208000183105, -0.03762854, -0.022922637, 0.3471279
947, 385219442, -0.29005780816078186, -0.8630226254463196, -4.994585990905762, -0.024093404, -0.034822747, 0.35811424
948, 385236109, -0.29011642932891846, -0.8633301854133606, -4.994385719299316, -0.011556647, -0.0319773, 0.35173035
949, 385252776, -0.29074180126190186, -0.8637410998344421, -4.994261741638184, -0.020365229, -0.032626506, 0.33238602
950, 385269443, -0.29134824872016907, -0.8635846972465515, -4.993478775024414, -0.01494071, -0.034652334, 0.36331844
951, 385286110, -0.290758341550827, -0.8627500534057617, -4.994171619415283, -0.03346271, -0.041203182, 0.34919262
952, 385302777, -0.2909550666809082, -0.8625891804695129, -4.993859767913818, -0.029140243, -0.03609846, 0.34102917
953, 385319444, -0.29117467999458313, -0.862320065498352, -4.994961261749268, -0.022214498, -0.025624363, 0.32388973
954, 385336111, -0.2914489209651947, -0.8619246482849121, -4.99501895904541, -0.024316788, -0.022840088, 0.33611774
955, 385352778, -0.2910226881504059, -0.8630471229553223, -4.9955925941467285, -0.026754256, -0.03270645, 0.34643555
956, 385369445, -0.2905351519584656, -0.862750232219696, -4.99595832824707, -0.018837668, -0.030189112, 0.34797096
957, 385386112, -0.2901362478733063, -0.8635803461074829, -4.9952521324157715, -0.021945294, -0.02582215, 0.34717274
958, 385402779, -0.2911810874938965, -0.8648039102554321, -4.99482536315918, -0.024271615, -0.03299653, 0.3412981
959, 385419446, -0.2910332679748535, -0.8639185428619385, -4.996212482452393, -0.025973309, -0.024633206, 0.34864044
960, 385436113, -0.2920560836791992, -0.860710859298706, -4.987590312957764, -0.016681094, -0.027699316, 0.31400394
961, 385452780, -0.29161736369132996, -0.8608695268630981, -4.9888434410095215, -0.035128158, -0.027624454, 0.3539076
962, 385469447, -0.2919439375400543, -0.8603435754776001, -4.988499641418457, -0.025562018, -0.038609445, 0.35348988
963, 385486114, -0.29232531785964966, -0.8616978526115417, -4.988050937652588, -0.041818738, -0.032510813, 0.3591156
964, 385502781, -0.2920600473880768, -0.8610352277755737, -4.988306522369385, -0.0076339943, -0.040523134, 0.329731
965, 385519448, -0.29204368591308594, -0.8609828352928162, -4.987483501434326, -0.010528445, -0.02359373, 0.35960007
966, 385536115, -0.2923479974269867, -0.8603164553642273, -4.98764705657959, -0.027535556, -0.03618681, 0.3792839
967, 385552782, -0.29236793518066406, -0.8613340258598328, -4.988397121429443, -0.035398792, -0.038742606, 0.3509655
968, 385569449, -0.2919095754623413, -0.8622263073921204, -4.988982200622559, -0.024721734, -0.030069303, 0.36200047
969, 385586116, -0.2912910282611847, -0.8627957701683044, -4.9889912605285645, -0.02360732, -0.0344726, 0.34111118
970, 385602783, -0.2922198176383972, -0.8639426827430725, -4.988593101501465, -0.018615304, -0.028234797, 0.34445095
971, 385619450, -0.2921700179576874, -0.8642893433570862, -4.988276958465576, -0.028392889, -0.03552398, 0.3518858
972, 385636117, -0.2938084304332733, -0.864593505859375, -4.98843240737915, -0.015345212, -0.029689658, 0.33658123
973, 385652784, -0.29387813806533813, -0.8643810749053955, -4.988150596618652, -0.02151843, -0.023556216, 0.34782887
974, 385669451, -0.29295966029167175, -0.8641374111175537, -4.988746166229248, -0.0404061, -0.023585854, 0.32739925
975, 385686118, -0.2936767637729645, -0.8640692234039307, -4.988500118255615, -0.024975501, -0.024484579, 0.34805965
976, 385702785, -0.2950126826763153, -0.8659394383430481, -4.9887309074401855, -0.033132497, -0.019243166, 0.35155964
977, 385719452, -0.2946142256259918, -0.8649274706840515, -4.989002704620361, -0.024062857, -0.02302266, 0.34781837
978, 385736119, -0.29531124234199524, -0.8646913170814514, -4.989386558532715, -0.024255566, -0.026485251, 0.33565998
979, 385752786, -0.2961426377296448, -0.8638461828231812, -4.9895734786987305, -0.027139865, -0.027025545, 0.3659668
980, 385769453, -0.29600846767425537, -0.8636054396629333, -4.990353107452393, -0.02617328, -0.022921551, 0.36418343
981, 385786120, -0.2961520850658417, -0.8629177808761597, -4.989819049835205, -0.022542473, -0.026846515, 0.3376379
982, 385802787, -0.29622986912727356, -0.8645675182342529, -4.989894866943359, -0.016853012, -0.024809087, 0.36042213
983, 385819454, -0.296286016702652, -0.8662909865379333, -4.989105701446533, -0.012783558, -0.03997232, 0.36066246
984, 385836121, -0.29801610112190247, -0.8674629926681519, -4.988169193267822, -0.017466675, -0.026048947, 0.3674078
985, 385852788, -0.299041748046875, -0.8688161373138428, -4.988091468811035, -0.022085227, -0.033359043, 0.33470535
986, 385869455, -0.300510972738266, -0.8697302341461182, -4.987244129180908, -0.029913532, -0.02385366, 0.35700417
987, 385886122, -0.30009400844573975, -0.8705666065216064, -4.986542701721191, -0.017570095, -0.026315613, 0.3588686
988, 385902789, -0.2999727427959442, -0.8704937696456909, -4.985790729522705, -0.029663661, -0.041835748, 0.357646
989, 385919456, -0.30021825432777405, -0.8698316216468811, -4.986932277679443, -0.020081777, -0.0391685, 0.39052677
990, 385936123, -0.29954659938812256, -0.8694788813591003, -4.986527919769287, -0.016903488, -0.028348168, 0.343544
991, 385952790, -0.29945802688598633, -0.8691507577896118, -4.98642110824585, -0.021720326, -0.03421008, 0.3566885
992, 385969457, -0.29927676916122437, -0.8682336211204529, -4.985960006713867, -0.029263457, -0.041073512, 0.33957577
993, 385986124, -0.2997898459434509, -0.8670134544372559, -4.985475540161133, -0.025966575, -0.022548756, 0.3536167
994, 386002791, -0.2999929189682007, -0.867190957069397, -4.986391067504883, -0.021798598, -0.034925763, 0.36469078
995, 386019458, -0.30085957050323486, -0.8657879829406738, -4.985126972198486, -0.025591752, -0.023715636, 0.34437466
996, 386036125, -0.30181291699409485, -0.8655297160148621, -4.984326362609863, -0.022931634, -0.0360838, 0.3583889
997, 386052792, -0.3022022843360901, -0.866209864616394, -4.984675407409668, -0.021043535, -0.046475075, 0.37063122
998, 386069459, -0.30149534344673157, -0.8667850494384766, -4.984348297119141, -0.013239888, -0.025838349, 0.34147644
999, 386086126, -0.302322655916214, -0.8677058815956116, -4.984065532684326, -0.030508421, -0.030637965, 0.3599205
1000, 386102793, -0.3025728464126587, -0.8679457902908325, -4.9834885597229, -0.025703106, -0.017287903, 0.34813213
1001, 386119460, -0.3033696115016937, -0.867947518825531, -4.983056545257568, -0.0101331, -0.042545024, 0.33631516
1002, 386136127, -0.3034411370754242, -0.8676797151565552, -4.983861923217773, -0.02223505, -0.026464436, 0.36048412
1003, 386152794, -0.3048144578933716, -0.866936206817627, -4.983880519866943, -0.027444825, -0.020678325, 0.34933758
1004, 386169461, -0.3049371540546417, -0.8675366044044495, -4.983733177185059, -0.023946336, -0.026134372, 0.35142422
1005, 386186128, -0.3058021366596222, -0.868482768535614, -4.982780933380127, -0.031628806, -0.029649982, 0.3754902
1006, 386202795, -0.30604544281959534, -0.8668022751808167, -4.982539176940918, -0.027541699, -0.017699264, 0.34971142
1007, 386219462, -0.30684956908226013, -0.8681086897850037, -4.983276844024658, -0.019529043, -0.014492717, 0.35101223
1008, 386236129, -0.3067270815372467, -0.8672853708267212, -4.983300685882568, -0.016505837, -0.03271753, 0.33885574
1009, 386252796, -0.3065989911556244, -0.8668969869613647, -4.983527183532715, -0.042736884, -0.02814919, 0.34214783
1010, 386269463, -0.30621346831321716, -0.8665248155593872, -4.984732627868652, -0.04067311, -0.018214606, 0.345397
1011, 386286130, -0.3066936731338501, -0.8673712611198425, -4.985146522521973, -0.0244256, -0.018404301, 0.35822296
1012, 386302797, -0.3063679039478302, -0.8670663237571716, -4.9860358238220215, -0.035889115, -0.021949708, 0.33997726
1013, 386319464, -0.3061493933200836, -0.8679020404815674, -4.985748291015625, -0.019245189, -0.03607756, 0.34961414
1014, 386336131, -0.3057524859905243, -0.8675900101661682, -4.984230995178223, -0.036245815, -0.024625747, 0.3612175
1015, 386352798, -0.30596792697906494, -0.8693730235099792, -4.984103202819824, -0.025473017, -0.02925494, 0.36750603
1016, 386369465, -0.3056332468986511, -0.868021547794342, -4.982959747314453, -0.029822653, -0.036540113, 0.34418678
1017, 386386132, -0.3076407015323639, -0.867315948009491, -4.982614040374756, -0.03511008, -0.038351282, 0.33591366
1018, 386402799, -0.3069559633731842, -0.8686403036117554, -4.983460426330566, -0.024158154, -0.03735674, 0.3544941
1019, 386419466, -0.3068343698978424, -0.8702425360679626, -4.9832963943481445, -0.031600572, -0.035755035, 0.32054234
1020, 386436133, -0.30731791257858276, -0.8704460859298706, -4.982792377471924, -0.028923023, -0.022408623, 0.35586834
1021, 386452800, -0.3077230155467987, -0.8707605600357056, -4.982780456542969, -0.037697893, -0.022184953, 0.36923122
1022, 386469467, -0.307966023683548, -0.8705750703811646, -4.982300758361816, -0.025146384, -0.030380663, 0.35257912
1023, 386486134, -0.3069569170475006, -0.8697556853294373, -4.982237815856934, -0.03018136, -0.032578684, 0.32086182
1024, 386502801, -0.30757370591163635, -0.8706521391868591, -4.982043743133545, -0.01942795, -0.031131366, 0.34854317
1025, 386519468, -0.3080686628818512, -0.8716404438018799, -4.982223033905029, -0.025276141, -0.029336317, 0.3747015
1026, 386536135, -0.30969318747520447, -0.8709812760353088, -4.982777118682861, -0.025954334, -0.025179297, 0.35134792
1027, 386552802, -0.3104536831378937, -0.8702834844589233, -4.982502460479736, -0.035119887, -0.021092903, 0.35720348
1028, 386569469, -0.31014010310173035, -0.8692417144775391, -4.983077049255371, -0.033289865, -0.019514494, 0.3581791
1029, 386586136, -0.3097493648529053, -0.8690756559371948, -4.983297824859619, -0.019031985, -0.030593626, 0.3660307
1030, 386602803, -0.3091737627983093, -0.8696730732917786, -4.982215404510498, -0.023125593, -0.020356648, 0.3511572
1031, 386619470, -0.3091587722301483, -0.8697064518928528, -4.983068943023682, -0.019282728, -0.034344107, 0.34893894
1032, 386636137, -0.3101474940776825, -0.8698304891586304, -4.983867168426514, -0.02735786, -0.021358801, 0.35992813
1033, 386652804, -0.31077268719673157, -0.8704643845558167, -4.984152793884277, -0.016796732, -0.036348116, 0.3342638
1034, 386669471, -0.3115323483943939, -0.8696303367614746, -4.98354959487915, -0.025166763, -0.019476455, 0.3871851
