sep=,
DeviceTag:,Movella DOT,,,,,,,,,,,,,,,,,
FirmwareVersion:,3.0.0,,,,,,,,,,,,,,,,,
AppVersion:,2023.6.1,,,,,,,,,,,,,,,,,
SyncStatus:,Un-synced,,,,,,,,,,,,,,,,,
OutputRate:,60Hz,,,,,,,,,,,,,,,,,
FilterProfile:,Dynamic,,,,,,,,,,,,,,,,,
Measurement Mode:,Sensor fusion Mode - Complete (Euler),,,,,,,,,,,,,,,,,
StartTime:,2024-11-05 11:18:51.885 +0700,,,,,,,,,,,,,,,,,
 2024,,,,,,,,,,,,,,,,,,,

PacketCounter,SampleTimeFine,Euler_X,Euler_Y,Euler_Z,FreeAcc_X,FreeAcc_Y,FreeAcc_Z
1, 12875854, -0.6155108213424683, -0.3758525550365448, 18.2174129486084, 0.018175595, -0.019369762, 0.34322834
2, 12892521, -0.6435470581054688, -0.40661418437957764, 18.312768936157227, 0.006353698, -0.0089929635, 0.3602066
3, 12909188, -0.6668412089347839, -0.4338304400444031, 18.320575714111328, -0.011098669, 0.006740173, 0.3536358
4, 12925855, -0.6726081371307373, -0.4501180052757263, 18.3217830657959, -0.008127267, -0.010556402, 0.33286
5, 12942522, -0.6819764375686646, -0.46129512786865234, 18.294681549072266, -0.019639133, 6.190785E-4, 0.33848
6, 12959189, -0.686362624168396, -0.47033271193504333, 18.30959701538086, -0.008184419, 0.0071334755, 0.35093594
7, 12975856, -0.6885960698127747, -0.48309817910194397, 18.301515579223633, -0.009364173, -0.012523578, 0.35284996
8, 12992523, -0.6934419870376587, -0.4969269633293152, 18.313478469848633, -0.027808545, -0.008039003, 0.35360718
9, 13009190, -0.6979126334190369, -0.5090323686599731, 18.313581466674805, -0.016904857, 0.0071016913, 0.34576797
10, 13025857, -0.7009366750717163, -0.5225574374198914, 18.331520080566406, -0.01989888, 0.0038586892, 0.35208607
11, 13042524, -0.7039079666137695, -0.5350053310394287, 18.330291748046875, -0.026852902, -0.0057018367, 0.3529215
12, 13059191, -0.7067697644233704, -0.5475075244903564, 18.3469295501709, -0.028354542, -0.009395859, 0.37813473
13, 13075858, -0.7110399603843689, -0.5621845722198486, 18.344528198242188, -0.031501096, 0.006036023, 0.33747673
14, 13092525, -0.714451014995575, -0.5747845768928528, 18.348634719848633, -0.036213018, -0.0043394165, 0.33450985
15, 13109192, -0.7174936532974243, -0.5877408981323242, 18.349552154541016, -0.042461246, -0.0039072926, 0.3322363
16, 13125859, -0.7214069366455078, -0.5993297696113586, 18.351015090942383, -0.041258555, -0.010600427, 0.34268188
17, 13142526, -0.7250116467475891, -0.6121049523353577, 18.353063583374023, -0.033014826, -0.009998607, 0.3465433
18, 13159193, -0.7289049625396729, -0.6260719895362854, 18.357601165771484, -0.02741575, -0.0100644985, 0.34133625
19, 13175860, -0.7339122295379639, -0.6395744681358337, 18.353391647338867, -0.04166171, -0.01220555, 0.35202026
20, 13192527, -0.7383352518081665, -0.6536074876785278, 18.364398956298828, -0.048106287, 0.002141481, 0.34333992
21, 13209194, -0.7435199618339539, -0.6675689816474915, 18.369218826293945, -0.04848559, -0.0068545626, 0.31665516
22, 13225861, -0.7479420900344849, -0.682088315486908, 18.374719619750977, -0.047803298, -0.0019147203, 0.35342216
23, 13242528, -0.7525188326835632, -0.6957280039787292, 18.382349014282227, -0.05793783, -0.009072398, 0.356205
24, 13259195, -0.7564875483512878, -0.7100931406021118, 18.38516616821289, -0.07057164, 0.0017078136, 0.35816956
25, 13275862, -0.7611550688743591, -0.7247378826141357, 18.387847900390625, -0.07351946, -0.0063077486, 0.3163948
26, 13292529, -0.7646896839141846, -0.7389495968818665, 18.394113540649414, -0.073016204, 0.0017731632, 0.34750175
27, 13309196, -0.7683115005493164, -0.751060426235199, 18.394559860229492, -0.07611665, 0.0011888095, 0.3356371
28, 13325863, -0.7717702388763428, -0.7648849487304688, 18.40331268310547, -0.07971896, -0.0014652078, 0.36065197
29, 13342530, -0.7748042345046997, -0.780005931854248, 18.40322494506836, -0.073167436, -0.0017007974, 0.36104393
30, 13359197, -0.777402400970459, -0.7929014563560486, 18.402080535888672, -0.080395706, -0.0025461235, 0.3708334
31, 13375864, -0.7811984419822693, -0.8069412112236023, 18.399293899536133, -0.07650015, -0.007907117, 0.3383789
32, 13392531, -0.7844982743263245, -0.8196313977241516, 18.40402603149414, -0.075555444, -0.0030155738, 0.33317852
33, 13409198, -0.7877756953239441, -0.8330315351486206, 18.406667709350586, -0.08848419, -0.015282929, 0.34924698
34, 13425865, -0.790663480758667, -0.8449344038963318, 18.41394805908203, -0.07045423, -0.0024765097, 0.33987808
35, 13442532, -0.7950918078422546, -0.8576668500900269, 18.41514015197754, -0.08263868, -0.009604076, 0.35297012
36, 13459199, -0.7994800806045532, -0.8711453080177307, 18.413265228271484, -0.09110961, -0.0164531, 0.331645
37, 13475866, -0.8032151460647583, -0.8842939734458923, 18.41395378112793, -0.09767692, -0.010524771, 0.36277294
38, 13492533, -0.8082835674285889, -0.8984712958335876, 18.410974502563477, -0.09442452, 9.626424E-5, 0.35892487
39, 13509200, -0.8114133477210999, -0.9121463894844055, 18.417219161987305, -0.11513223, -0.0048559657, 0.35426998
40, 13525867, -0.8154284954071045, -0.9268127083778381, 18.424999237060547, -0.10062807, -0.007882558, 0.372756
41, 13542534, -0.8198589086532593, -0.9408865571022034, 18.42803955078125, -0.096173376, -0.005335726, 0.34818745
42, 13559201, -0.8241653442382812, -0.9540287852287292, 18.429353713989258, -0.113774985, 0.003996789, 0.3397045
43, 13575868, -0.8261958360671997, -0.9671863913536072, 18.43309211730957, -0.1056798, -0.008036719, 0.32952213
44, 13592535, -0.8288445472717285, -0.9799547791481018, 18.43442726135254, -0.10397698, -0.0130154705, 0.35319328
45, 13609202, -0.8332427740097046, -0.9926007986068726, 18.436613082885742, -0.11070326, -0.020183684, 0.35462666
46, 13625869, -0.8370450735092163, -1.0062241554260254, 18.439594268798828, -0.11994074, -0.014174944, 0.336339
47, 13642536, -0.8401813507080078, -1.0188359022140503, 18.444902420043945, -0.11690685, -0.005405577, 0.3454132
48, 13659203, -0.8445294499397278, -1.0319721698760986, 18.44675636291504, -0.12118393, -0.008323626, 0.35913277
49, 13675870, -0.8484863042831421, -1.0456185340881348, 18.451101303100586, -0.10365881, -0.013989879, 0.3470745
50, 13692537, -0.852211594581604, -1.0599079132080078, 18.451488494873047, -0.11121394, -0.017819598, 0.32526398
51, 13709204, -0.8562213182449341, -1.0733593702316284, 18.45522689819336, -0.1294898, -0.0071925283, 0.35652065
52, 13725871, -0.8601629137992859, -1.0879242420196533, 18.456722259521484, -0.12684612, -0.0055305767, 0.34638977
53, 13742538, -0.864219605922699, -1.1005135774612427, 18.45806312561035, -0.13817826, -0.013463897, 0.3439541
54, 13759205, -0.8680833578109741, -1.113016963005066, 18.459423065185547, -0.123721376, -0.018966764, 0.3534212
55, 13775872, -0.8716282248497009, -1.1267473697662354, 18.462234497070312, -0.1330302, -0.022554057, 0.35033703
56, 13792539, -0.8763918280601501, -1.140925407409668, 18.46445655822754, -0.14107417, -0.0039850264, 0.37232208
57, 13809206, -0.879139244556427, -1.1528964042663574, 18.46392059326172, -0.14375755, -0.0055522015, 0.32892513
58, 13825873, -0.8827250003814697, -1.166782021522522, 18.46688461303711, -0.14061251, -0.012729524, 0.32924747
59, 13842540, -0.8872678875923157, -1.1795967817306519, 18.46828842163086, -0.13888165, -0.0114626875, 0.33940125
60, 13859207, -0.8901405334472656, -1.193555474281311, 18.470979690551758, -0.14533886, -0.02708206, 0.36003208
61, 13875874, -0.8940935730934143, -1.2063374519348145, 18.472209930419922, -0.1393465, -0.010364442, 0.36690044
62, 13892541, -0.8967351317405701, -1.219270944595337, 18.474180221557617, -0.15406452, -0.013256113, 0.35224152
63, 13909208, -0.9000983238220215, -1.2330008745193481, 18.476972579956055, -0.15863258, -0.013618281, 0.34263897
64, 13925875, -0.9036863446235657, -1.2460004091262817, 18.476669311523438, -0.15789528, -0.014492705, 0.33839798
65, 13942542, -0.908220112323761, -1.2570788860321045, 18.476266860961914, -0.16335058, -0.0018354255, 0.3491354
66, 13959209, -0.9116233587265015, -1.2704228162765503, 18.476778030395508, -0.17685692, 0.002129806, 0.34809303
67, 13975876, -0.9148116707801819, -1.2820483446121216, 18.476253509521484, -0.17540395, 0.006363323, 0.37878323
68, 13992543, -0.9183233976364136, -1.2943620681762695, 18.477859497070312, -0.14672557, 0.0055021136, 0.34986496
69, 14009210, -0.9221799373626709, -1.3048242330551147, 18.479045867919922, -0.17964448, 0.008922071, 0.35026836
70, 14025877, -0.925650417804718, -1.315484642982483, 18.480587005615234, -0.15760642, 0.004582948, 0.3501625
71, 14042544, -0.9292389154434204, -1.3277058601379395, 18.48084259033203, -0.17158842, -0.0011472151, 0.33879852
72, 14059211, -0.9324899911880493, -1.3417980670928955, 18.479923248291016, -0.17887212, -0.00531803, 0.37449932
73, 14075878, -0.9364786148071289, -1.3530830144882202, 18.479360580444336, -0.16707982, -0.008377307, 0.33312607
74, 14092545, -0.9398168325424194, -1.3642735481262207, 18.477575302124023, -0.18482102, -0.010655554, 0.34257698
75, 14109212, -0.9426696300506592, -1.377328634262085, 18.473968505859375, -0.1659457, -0.014085703, 0.3353548
76, 14125879, -0.9450553059577942, -1.3888274431228638, 18.475112915039062, -0.17986608, -0.027349401, 0.3558836
77, 14142546, -0.9482010006904602, -1.4015834331512451, 18.474966049194336, -0.1853218, -0.007899192, 0.37011337
78, 14159213, -0.9508746266365051, -1.4122376441955566, 18.475248336791992, -0.17669258, 4.1351293E-4, 0.345376
79, 14175880, -0.9532761573791504, -1.4242643117904663, 18.47260856628418, -0.19000268, 0.009081544, 0.34425068
80, 14192547, -0.9558416604995728, -1.4350634813308716, 18.469648361206055, -0.18274496, -0.005862829, 0.32985592
81, 14209214, -0.9591355323791504, -1.4465126991271973, 18.470867156982422, -0.20266967, -0.010870964, 0.34425545
82, 14225881, -0.9619860649108887, -1.459109902381897, 18.468658447265625, -0.20304318, -0.008372202, 0.3672676
83, 14242548, -0.9661276936531067, -1.4690862894058228, 18.4691219329834, -0.20955187, -0.0046633673, 0.35389614
84, 14259215, -0.9691813588142395, -1.4802852869033813, 18.46687126159668, -0.19187586, -0.017608065, 0.35144424
85, 14275882, -0.9723086953163147, -1.4921033382415771, 18.464317321777344, -0.20740338, 2.8738877E-4, 0.3192768
86, 14292549, -0.9750829339027405, -1.503600835800171, 18.463680267333984, -0.20600684, -0.010846448, 0.34039307
87, 14309216, -0.9777382016181946, -1.512186050415039, 18.460798263549805, -0.20853521, 0.005950327, 0.3536787
88, 14325883, -0.980228841304779, -1.5236411094665527, 18.456518173217773, -0.21760732, -0.013350499, 0.34843254
89, 14342550, -0.9829298853874207, -1.533605694770813, 18.453126907348633, -0.20744844, 0.0024160005, 0.3497696
90, 14359217, -0.9863216876983643, -1.544014811515808, 18.450498580932617, -0.21334234, -0.014057093, 0.32745934
91, 14375884, -0.9884744882583618, -1.5542857646942139, 18.44877052307129, -0.20464772, -0.015950156, 0.3526554
92, 14392551, -0.9920176267623901, -1.5650203227996826, 18.44492530822754, -0.21573885, -0.014063596, 0.37969017
93, 14409218, -0.994793176651001, -1.5752702951431274, 18.444400787353516, -0.23072463, 0.009397693, 0.3594656
94, 14425885, -0.9967088103294373, -1.5845786333084106, 18.442432403564453, -0.22521628, -0.026560841, 0.34673786
95, 14442552, -0.9984872341156006, -1.5949853658676147, 18.439983367919922, -0.22853209, -0.0024228175, 0.33776093
96, 14459219, -0.9999588131904602, -1.605080485343933, 18.43684196472168, -0.21708238, 0.0011618274, 0.3475275
97, 14475886, -1.0025607347488403, -1.6148364543914795, 18.434165954589844, -0.23169829, -0.009184141, 0.37739468
98, 14492553, -1.0046722888946533, -1.6244299411773682, 18.429651260375977, -0.2215578, -0.015654882, 0.36754227
99, 14509220, -1.0077626705169678, -1.6325199604034424, 18.424943923950195, -0.2356883, -0.013392477, 0.35337353
100, 14525887, -1.0102436542510986, -1.6417210102081299, 18.42118263244629, -0.23442103, -0.021434879, 0.33057308
101, 14542554, -1.0120656490325928, -1.6498570442199707, 18.41550064086914, -0.23492076, -0.006547875, 0.3686161
102, 14559221, -1.0138342380523682, -1.659071922302246, 18.40993881225586, -0.22510892, -0.011736742, 0.38429928
103, 14575888, -1.0156112909317017, -1.6672576665878296, 18.404010772705078, -0.24173456, -0.013806437, 0.35808277
104, 14592555, -1.0177619457244873, -1.6756668090820312, 18.39958381652832, -0.25439176, -0.01292449, 0.3472309
105, 14609222, -1.0193344354629517, -1.6838809251785278, 18.39400291442871, -0.23819463, -0.012401798, 0.35398483
106, 14625889, -1.0211206674575806, -1.6927194595336914, 18.386852264404297, -0.23292857, -0.021834219, 0.3414297
107, 14642556, -1.023819088935852, -1.701448678970337, 18.38373374938965, -0.24231727, -0.012492684, 0.35892582
108, 14659223, -1.0251893997192383, -1.7088806629180908, 18.37770652770996, -0.24890721, -0.00817806, 0.36771297
109, 14675890, -1.0280166864395142, -1.716045618057251, 18.372447967529297, -0.23864688, -0.00500083, 0.35037327
110, 14692557, -1.0299204587936401, -1.7232565879821777, 18.3687801361084, -0.24570921, -0.013340741, 0.3352337
111, 14709224, -1.0323266983032227, -1.7308332920074463, 18.363021850585938, -0.26600236, -0.007993313, 0.34850502
112, 14725891, -1.0328443050384521, -1.7377175092697144, 18.356773376464844, -0.24999072, -0.0113211125, 0.3300972
113, 14742558, -1.0346792936325073, -1.743942141532898, 18.350889205932617, -0.26278064, -0.016194861, 0.35969925
114, 14759225, -1.0376750230789185, -1.7510507106781006, 18.345775604248047, -0.24247046, -0.012363388, 0.34896278
115, 14775892, -1.0397502183914185, -1.7564518451690674, 18.33837127685547, -0.25761846, -0.01736257, 0.3501835
116, 14792559, -1.0412018299102783, -1.763043761253357, 18.331634521484375, -0.2555433, -0.009107475, 0.34425068
117, 14809226, -1.04146409034729, -1.7689249515533447, 18.326610565185547, -0.27687103, -0.028317925, 0.34009743
118, 14825893, -1.0428881645202637, -1.7749059200286865, 18.322322845458984, -0.25712886, -0.007027408, 0.3537569
119, 14842560, -1.0442118644714355, -1.782020092010498, 18.314878463745117, -0.23856606, -0.003971916, 0.3507204
120, 14859227, -0.6705660223960876, -0.3428536355495453, 17.91843032836914, 0.016284905, 0.005689044, 0.35222244
121, 14875894, -0.6700208187103271, -0.34207984805107117, 17.920394897460938, 0.012426608, 7.7068317E-4, 0.32864666
122, 14892561, -0.6702479720115662, -0.34196731448173523, 17.924129486083984, -0.008293214, -0.0030288694, 0.33606052
123, 14909228, -0.6703464388847351, -0.3416435718536377, 17.925445556640625, 0.020849543, 0.0024240469, 0.3528595
124, 14925895, -0.6709568500518799, -0.3410661220550537, 17.928499221801758, 9.701789E-4, 0.0134893805, 0.36235905
125, 14942562, -0.6709883213043213, -0.34078505635261536, 17.93104362487793, 0.015338562, 0.0020436663, 0.35756207
126, 14959229, -0.67107093334198, -0.34009847044944763, 17.933256149291992, -8.821218E-4, -0.003314051, 0.34440804
127, 14975896, -0.6697263717651367, -0.33962559700012207, 17.936769485473633, -0.0031880387, 0.001164045, 0.34793186
128, 14992563, -0.6703400015830994, -0.33873191475868225, 17.935874938964844, 0.0051992293, 0.008789794, 0.34153652
129, 15009230, -0.6705211997032166, -0.33899325132369995, 17.936002731323242, 0.005668617, 0.003298695, 0.35789776
130, 15025897, -0.6701701283454895, -0.33939608931541443, 17.939870834350586, 0.013361091, 0.0073901033, 0.33495712
131, 15042564, -0.6701500415802002, -0.33847638964653015, 17.941192626953125, -0.012859468, 0.005863286, 0.35633087
132, 15059231, -0.6702821850776672, -0.3372621238231659, 17.94054412841797, 9.447788E-4, -0.013854978, 0.35265255
133, 15075898, -0.6711416244506836, -0.33772045373916626, 17.942842483520508, -0.0029434038, 0.011105171, 0.32870865
134, 15092565, -0.6711950302124023, -0.33771654963493347, 17.945579528808594, -0.004568395, 0.0013991981, 0.35212612
135, 15109232, -0.6705333590507507, -0.3372143507003784, 17.947542190551758, 0.010847213, 7.792884E-4, 0.35686398
136, 15125899, -0.6709112524986267, -0.3370141088962555, 17.949167251586914, 0.0064598494, -0.0011759261, 0.35334587
137, 15142566, -0.6711062788963318, -0.33760806918144226, 17.951257705688477, 0.024227586, 0.00755317, 0.36500263
138, 15159233, -0.6710262894630432, -0.3363732695579529, 17.953948974609375, -1.8362985E-5, -0.0071821874, 0.3441105
139, 15175900, -0.6709524393081665, -0.3367052674293518, 17.95456314086914, -0.0029296193, 0.0038662257, 0.3589182
140, 15192567, -0.6712453365325928, -0.33554303646087646, 17.957656860351562, -0.0049409005, 0.0052343137, 0.37507915
141, 15209234, -0.6707256436347961, -0.33582180738449097, 17.958559036254883, 0.0043939576, 0.015093222, 0.34676647
142, 15225901, -0.6703200340270996, -0.3352207541465759, 17.960552215576172, 0.0041525634, 0.002875955, 0.3586836
143, 15242568, -0.6699663996696472, -0.3359408974647522, 17.96306800842285, 0.0073904907, -0.007022578, 0.3678627
144, 15259235, -0.6706857085227966, -0.3361901640892029, 17.963064193725586, 0.012671976, 0.012135095, 0.34967327
145, 15275902, -0.6710337400436401, -0.33598610758781433, 17.965200424194336, -0.0015782564, 0.0091275815, 0.36069775
146, 15292569, -0.672156572341919, -0.3365701735019684, 17.96722984313965, 0.011257939, -1.6422615E-4, 0.33702946
147, 15309236, -0.6735336184501648, -0.3350165784358978, 17.971771240234375, 0.010154316, 1.1997407E-4, 0.35162163
148, 15325903, -0.6744379997253418, -0.335564523935318, 17.97481346130371, 0.0050024996, 0.017435526, 0.3443699
149, 15342570, -0.6733865141868591, -0.3345991373062134, 17.975418090820312, 0.006413631, 0.005264226, 0.36787128
150, 15359237, -0.6734861135482788, -0.3359154760837555, 17.976463317871094, 7.723909E-4, 0.010492966, 0.34764385
151, 15375904, -0.6734073758125305, -0.3364260792732239, 17.977792739868164, 0.003493242, -0.005881726, 0.35931206
152, 15392571, -0.6734907031059265, -0.3367999792098999, 17.97921371459961, -0.001265251, 0.012631084, 0.34925938
153, 15409238, -0.6746451258659363, -0.33562344312667847, 17.97968101501465, 0.014532327, 0.0048827594, 0.33434486
154, 15425905, -0.6741905212402344, -0.33482033014297485, 17.979581832885742, 8.548637E-4, 0.0060245926, 0.35400963
155, 15442572, -0.6746869087219238, -0.3350590467453003, 17.98077964782715, 0.011055859, 0.0045063077, 0.35508347
156, 15459239, -0.6739404797554016, -0.33544784784317017, 17.984333038330078, -0.006754216, 0.0034176388, 0.3665352
157, 15475906, -0.6737771034240723, -0.33689895272254944, 17.98589324951172, 0.004508564, 0.008960271, 0.33765697
158, 15492573, -0.6733468770980835, -0.3365074694156647, 17.9860782623291, 0.004986539, -0.007780308, 0.32935715
159, 15509240, -0.6733421683311462, -0.3368631601333618, 17.986860275268555, 0.003765355, 0.008617703, 0.3538618
160, 15525907, -0.6736060380935669, -0.337679922580719, 17.988401412963867, -0.004546369, -0.0034427422, 0.33510303
161, 15542574, -0.6733376979827881, -0.3381250500679016, 17.990856170654297, -0.0033551913, -7.0359785E-4, 0.35230064
162, 15559241, -0.6743502020835876, -0.3382115364074707, 17.993139266967773, 0.02415273, -0.002578875, 0.36517715
163, 15575908, -0.6742523908615112, -0.3379141092300415, 17.99483871459961, -0.0050809104, 0.013236672, 0.34748173
164, 15592575, -0.6742448806762695, -0.33858445286750793, 17.99500846862793, 0.013459353, 0.001464394, 0.3457098
165, 15609242, -0.6734082698822021, -0.33957669138908386, 17.996854782104492, 0.012794475, 0.012830454, 0.33573055
166, 15625909, -0.6744160056114197, -0.33973103761672974, 17.997568130493164, -5.4884306E-4, 0.0055970475, 0.36413956
167, 15642576, -0.674028217792511, -0.33877915143966675, 17.99875831604004, 0.01024055, 0.00887498, 0.36101246
168, 15659243, -0.6731781959533691, -0.33821848034858704, 17.999101638793945, -0.0016389681, 0.0027038432, 0.34498596
169, 15675910, -0.6737616658210754, -0.33822008967399597, 18.00141716003418, 0.012750433, 0.011709365, 0.35223484
170, 15692577, -0.6734709143638611, -0.3381637930870056, 18.00033187866211, 0.0014557503, 0.010722531, 0.3411026
171, 15709244, -0.6731052398681641, -0.3387291729450226, 18.001955032348633, -0.0059303925, 0.017417187, 0.3480587
172, 15725911, -0.6728399395942688, -0.33763110637664795, 18.003849029541016, 0.0036008111, -0.0052152695, 0.35180664
173, 15742578, -0.6737836003303528, -0.33925196528434753, 18.007219314575195, -0.0045729494, 0.0089755645, 0.36974716
174, 15759245, -0.6733180284500122, -0.33994507789611816, 18.008811950683594, 0.009537011, 0.0066743167, 0.34446716
175, 15775912, -0.6726834774017334, -0.3391404449939728, 18.010055541992188, -0.0031795416, 0.0027361617, 0.3538475
176, 15792579, -0.6720686554908752, -0.34026268124580383, 18.00889015197754, 0.015992163, 0.011165607, 0.3581009
177, 15809246, -0.6719697117805481, -0.33940044045448303, 18.011072158813477, -0.006043228, 0.005872733, 0.3619423
178, 15825913, -0.6717713475227356, -0.3406471312046051, 18.011249542236328, 0.009466905, 0.008513528, 0.3511181
179, 15842580, -0.672435998916626, -0.3404269516468048, 18.011465072631836, -0.0030742495, 0.0029312607, 0.36530972
180, 15859247, -0.6733849048614502, -0.34165528416633606, 18.01224136352539, 0.010198648, 0.011385586, 0.3481531
181, 15875914, -0.673468291759491, -0.3411308526992798, 18.01251792907715, -0.007113111, 0.0045359475, 0.35456944
182, 15892581, -0.6734156012535095, -0.3417500853538513, 18.011756896972656, -0.007977569, -0.006913312, 0.3707447
183, 15909248, -0.6733384728431702, -0.3418654203414917, 18.013635635375977, -0.0031028627, -0.0016829408, 0.3478899
184, 15925915, -0.6742091774940491, -0.3414573669433594, 18.014240264892578, -0.0014313421, 0.0023722968, 0.3611641
185, 15942582, -0.6735292673110962, -0.34187212586402893, 18.015785217285156, 0.015828535, -0.0011863998, 0.35121536
186, 15959249, -0.6724641919136047, -0.3419002890586853, 18.018802642822266, -0.0014656234, -0.0029549112, 0.3602085
187, 15975916, -0.6725221872329712, -0.3424374461174011, 18.02177619934082, 0.012558449, 0.004660336, 0.37510777
188, 15992583, -0.6708360910415649, -0.34127986431121826, 18.022960662841797, 0.0033987765, 0.008145975, 0.3668766
189, 16009250, -0.671454906463623, -0.34138932824134827, 18.022850036621094, 0.0047973073, -0.0036534276, 0.337677
190, 16025917, -0.6720854640007019, -0.3409813344478607, 18.023900985717773, 0.016510483, 0.0022557417, 0.36036396
191, 16042584, -0.6730197668075562, -0.3406471610069275, 18.025402069091797, 0.0015199719, -0.009483567, 0.35726547
192, 16059251, -0.6727443933486938, -0.34083107113838196, 18.027742385864258, 0.007899496, 0.008091644, 0.32336998
193, 16075918, -0.6724796891212463, -0.3419049084186554, 18.028871536254883, -0.011735946, 0.0011923229, 0.35867405
194, 16092585, -0.6725364327430725, -0.3420783281326294, 18.03022003173828, 0.010423184, 0.0046446095, 0.34916878
195, 16109252, -0.6724380254745483, -0.3423779010772705, 18.031963348388672, -0.0021016505, 0.006096892, 0.3598318
196, 16125919, -0.6726745367050171, -0.3431743085384369, 18.033855438232422, -9.0492365E-4, 0.006906655, 0.325593
197, 16142586, -0.671862781047821, -0.3423740267753601, 18.033740997314453, 0.0149566, 0.011306431, 0.31688213
198, 16159253, -0.6723408102989197, -0.34223005175590515, 18.034374237060547, 0.0046653333, 0.0017778744, 0.34352398
199, 16175920, -0.6737551689147949, -0.3422011137008667, 18.037019729614258, 0.0128178075, 0.008785417, 0.360816
200, 16192587, -0.6729263067245483, -0.34242919087409973, 18.03744888305664, 0.007271589, -0.005150814, 0.37070465
201, 16209254, -0.6735724806785583, -0.34292536973953247, 18.03946304321289, 0.005256567, -0.00603368, 0.33834553
202, 16225921, -0.6732965707778931, -0.3421846330165863, 18.0413818359375, 0.0041014627, 0.0029854835, 0.32854176
203, 16242588, -0.6730526685714722, -0.3423686921596527, 18.041574478149414, 0.006347492, 8.3901174E-4, 0.35029602
204, 16259255, -0.6732596755027771, -0.34084585309028625, 18.041776657104492, 0.0074348827, -0.012709139, 0.3527012
205, 16275922, -0.6733217835426331, -0.34120267629623413, 18.041339874267578, 0.010187053, -0.015572553, 0.36762524
206, 16292589, -0.674091637134552, -0.3405219614505768, 18.04021644592285, 0.020357054, 0.013724698, 0.34309292
207, 16309256, -0.674191415309906, -0.3410218060016632, 18.040735244750977, 0.00775782, 0.0010383958, 0.34670544
208, 16325923, -0.6742998957633972, -0.3407568037509918, 18.04195785522461, 0.007956698, 6.956841E-5, 0.35283375
209, 16342590, -0.6735481023788452, -0.3417668342590332, 18.044172286987305, 0.007459581, 0.007067846, 0.3589611
210, 16359257, -0.6736064553260803, -0.3418731391429901, 18.046100616455078, 8.0063037E-4, -0.008785917, 0.3562069
211, 16375924, -0.6731619238853455, -0.3419724404811859, 18.04615592956543, 0.0043683094, 0.017794624, 0.37467957
212, 16392591, -0.6731106638908386, -0.343187153339386, 18.04771614074707, 0.009478088, 0.0067252326, 0.355134
213, 16409258, -0.6725366115570068, -0.34194159507751465, 18.04899024963379, -0.0024925605, -0.0013671555, 0.36481476
214, 16425925, -0.6726236343383789, -0.3416723310947418, 18.049184799194336, 0.007107946, 0.009950926, 0.36659813
215, 16442592, -0.6733304262161255, -0.3415028154850006, 18.050376892089844, 0.004641477, -0.0065037976, 0.37477684
216, 16459259, -0.6716487407684326, -0.3416142165660858, 18.0521297454834, 0.0043409322, -0.0046020304, 0.3529787
217, 16475926, -0.6719319820404053, -0.34106218814849854, 18.05375862121582, 0.010516847, 0.012372969, 0.33957863
218, 16492593, -0.6714947819709778, -0.34185490012168884, 18.05548667907715, 0.0017690387, 0.005215968, 0.31918907
219, 16509260, -0.6724533438682556, -0.342850923538208, 18.057138442993164, 0.008556017, -0.0020196142, 0.33872032
220, 16525927, -0.6721968650817871, -0.3421492278575897, 18.058317184448242, -0.0071617113, 0.023023374, 0.35634804
221, 16542594, -0.6722644567489624, -0.343710333108902, 18.05959129333496, 0.0071035177, 0.007454943, 0.33652306
222, 16559261, -0.6732274889945984, -0.3432708978652954, 18.060029983520508, 0.023062775, 0.0054717404, 0.327487
223, 16575928, -0.6729921698570251, -0.3443632423877716, 18.060213088989258, 0.011601224, 0.023071451, 0.3226757
224, 16592595, -0.6744635701179504, -0.34408822655677795, 18.061481475830078, 0.006974201, 0.012084735, 0.34370232
225, 16609262, -0.6731497049331665, -0.3446939289569855, 18.063581466674805, -9.4567286E-4, 0.014310137, 0.35678196
226, 16625929, -0.6735325455665588, -0.34457945823669434, 18.06488800048828, 0.0114366235, 0.0052386024, 0.37031078
227, 16642596, -0.6734537482261658, -0.343776673078537, 18.065765380859375, 0.015514635, 0.0035143956, 0.3590393
228, 16659263, -0.6738508939743042, -0.34559696912765503, 18.067066192626953, -0.0034240054, 0.00780283, 0.33429337
229, 16675930, -0.6734431385993958, -0.34545600414276123, 18.06954574584961, -0.0030393046, 0.009241932, 0.35788918
230, 16692597, -0.6722373962402344, -0.34510087966918945, 18.07100486755371, 1.4686199E-4, 0.0021000265, 0.32488346
231, 16709264, -0.6725462079048157, -0.3448321223258972, 18.07160758972168, 0.015873335, 0.0013654232, 0.38175392
232, 16725931, -0.671453058719635, -0.3457787334918976, 18.071191787719727, -0.0019826228, 0.0018304139, 0.35178757
233, 16742598, -0.6709719896316528, -0.3458123803138733, 18.07173728942871, 0.0199405, 0.009801556, 0.340477
234, 16759265, -0.671543300151825, -0.3455950915813446, 18.071847915649414, -0.01018713, -0.003274594, 0.37790394
235, 16775932, -0.6712368130683899, -0.3467083275318146, 18.0732421875, 0.011086843, 0.0021969124, 0.35015678
236, 16792599, -0.671344518661499, -0.3478868305683136, 18.075546264648438, 0.007139964, -0.0014584465, 0.37971687
237, 16809266, -0.6715824007987976, -0.3490321934223175, 18.075519561767578, 0.0039540036, -7.190482E-5, 0.35023975
238, 16825933, -0.6719120740890503, -0.34891802072525024, 18.07681655883789, 0.009134154, -0.007416139, 0.3370142
239, 16842600, -0.6717302203178406, -0.3495185673236847, 18.076129913330078, -4.1245125E-6, -2.882374E-4, 0.35833645
240, 16859267, -0.6658468842506409, -0.34392237663269043, 18.062589645385742, 0.019632718, 0.006602974, 0.3232975
241, 16875934, -0.6664817333221436, -0.34384822845458984, 18.06332778930664, 0.017687669, 0.0034148064, 0.37045956
242, 16892601, -0.6666304469108582, -0.3439609110355377, 18.063562393188477, 0.01504582, -0.008037407, 0.36617565
243, 16909268, -0.6668733954429626, -0.3438340723514557, 18.064760208129883, -0.002683102, 0.009296452, 0.35638332
244, 16925935, -0.6671010851860046, -0.34342947602272034, 18.065269470214844, 0.0038090204, 0.016241163, 0.35709667
245, 16942602, -0.666656494140625, -0.34393954277038574, 18.06671142578125, 0.0015193432, 0.010755105, 0.34661293
246, 16959269, -0.6667084097862244, -0.34299421310424805, 18.067508697509766, 0.009469162, 0.0064295945, 0.34628677
247, 16975936, -0.6661620736122131, -0.341879665851593, 18.069623947143555, 0.0051230215, -0.0069050416, 0.35322475
248, 16992603, -0.6660243272781372, -0.3396771550178528, 18.070859909057617, 0.0010774616, 0.0013510275, 0.364439
249, 17009270, -0.665905773639679, -0.3383982181549072, 18.07109260559082, 0.00324179, 0.0012541556, 0.3587036
250, 17025937, -0.6659213304519653, -0.3377828001976013, 18.070987701416016, -0.008307781, 0.009664924, 0.36244488
251, 17042604, -0.6664934754371643, -0.33813533186912537, 18.07200050354004, -0.0016648397, -0.0054343822, 0.3506012
252, 17059271, -0.6665537357330322, -0.3388614058494568, 18.072492599487305, 0.013346458, 0.0034896624, 0.3530569
253, 17075938, -0.6660972237586975, -0.3386813998222351, 18.07260513305664, 0.013083541, 0.0013377356, 0.3582096
254, 17092605, -0.6647951006889343, -0.33778703212738037, 18.07345199584961, 0.01575726, -0.015953863, 0.3589239
255, 17109272, -0.6652384400367737, -0.3385894298553467, 18.07438087463379, 0.004595231, -0.011636325, 0.3358736
256, 17125939, -0.665417492389679, -0.33966752886772156, 18.074480056762695, 0.013166464, 0.01709109, 0.32961464
257, 17142606, -0.6655007600784302, -0.3389586806297302, 18.076269149780273, -6.0469337E-4, -0.004440008, 0.36052513
258, 17159273, -0.6667897701263428, -0.34005552530288696, 18.077213287353516, 0.017595265, 0.0058971345, 0.36140156
259, 17175940, -0.6660066843032837, -0.3404465317726135, 18.076189041137695, 5.572143E-4, -4.6883238E-4, 0.36072063
260, 17192607, -0.6666452288627625, -0.3419850170612335, 18.07550811767578, 0.0020493658, -0.0026534304, 0.35018158
261, 17209274, -0.6661218404769897, -0.3410871624946594, 18.0760440826416, 0.010642853, 0.013862162, 0.33911133
262, 17225941, -0.6661795973777771, -0.33923107385635376, 18.076553344726562, -0.01062429, -0.0013796476, 0.33855438
263, 17242608, -0.6662914752960205, -0.33966395258903503, 18.077489852905273, 0.00713373, 0.0037049192, 0.36418056
264, 17259275, -0.6667096018791199, -0.34021809697151184, 18.078073501586914, -0.013450306, -0.0013521102, 0.31707096
265, 17275942, -0.666548490524292, -0.33998796343803406, 18.079334259033203, 0.009002864, -0.016607836, 0.35684872
266, 17292609, -0.6656501293182373, -0.3402118384838104, 18.079483032226562, 0.00939808, 0.0012787037, 0.3522234
267, 17309276, -0.6650015711784363, -0.3403865694999695, 18.079936981201172, 0.009370257, 0.0019142034, 0.3294239
268, 17325943, -0.6661169528961182, -0.34095489978790283, 18.079727172851562, 0.0048303767, -0.0026732883, 0.36563683
269, 17342610, -0.6667313575744629, -0.3419605493545532, 18.080528259277344, -0.0052478574, 9.973323E-4, 0.3375206
270, 17359277, -0.6666675806045532, -0.3415760397911072, 18.08151626586914, -0.001298701, -3.399737E-4, 0.34443092
271, 17375944, -0.6665494441986084, -0.34240564703941345, 18.080995559692383, -0.0048903585, 0.008959915, 0.34066677
272, 17392611, -0.6667903065681458, -0.34148621559143066, 18.081010818481445, 0.02090375, -0.00237435, 0.34318256
273, 17409278, -0.666899561882019, -0.34002813696861267, 18.081029891967773, 0.0023561514, -0.006478254, 0.34669495
274, 17425945, -0.6665694713592529, -0.3399834632873535, 18.079580307006836, 9.7623473E-4, -0.0059875557, 0.3662672
275, 17442612, -0.6662099957466125, -0.3390541672706604, 18.07996940612793, -0.0013046521, -0.004507642, 0.3596964
276, 17459279, -0.6662857532501221, -0.33884695172309875, 18.080026626586914, 0.001117666, 0.0062505365, 0.3456335
277, 17475946, -0.6653121709823608, -0.3379674255847931, 18.079259872436523, 0.00900804, 0.009401105, 0.35921097
278, 17492613, -0.664425253868103, -0.3368200659751892, 18.08055877685547, -0.009918904, 1.19233686E-4, 0.36419773
279, 17509280, -0.66501384973526, -0.33558890223503113, 18.08078384399414, 0.01780263, 0.0073318467, 0.35467243
280, 17525947, -0.6649444103240967, -0.33540093898773193, 18.08085060119629, 0.012129653, 0.012242548, 0.3642807
281, 17542614, -0.6646289825439453, -0.33594387769699097, 18.08016014099121, 0.0018686417, 0.0089967, 0.36707115
282, 17559281, -0.6641038656234741, -0.33630362153053284, 18.079936981201172, 0.0031871377, -0.006360627, 0.3233595
283, 17575948, -0.6634887456893921, -0.3365641236305237, 18.08043670654297, 0.003152514, 0.008117306, 0.3660202
284, 17592615, -0.6621844172477722, -0.33735644817352295, 18.08018684387207, 0.026224324, -0.009714153, 0.35185623
285, 17609282, -0.6625502109527588, -0.33729079365730286, 18.080562591552734, 0.0022326466, -0.0028407064, 0.33086205
286, 17625949, -0.6617205739021301, -0.33761143684387207, 18.08146858215332, 0.01890078, -0.005450999, 0.35588074
287, 17642616, -0.6623532176017761, -0.33725664019584656, 18.081279754638672, -2.896623E-4, -0.00930182, 0.35667038
288, 17659283, -0.6617641448974609, -0.336454838514328, 18.081256866455078, 0.020893632, 0.002236481, 0.33208752
289, 17675950, -0.6619387269020081, -0.33556005358695984, 18.081932067871094, 0.0027926688, -0.0029082075, 0.36776257
290, 17692617, -0.6615974307060242, -0.3373343050479889, 18.08261489868164, 0.0077742557, -8.765794E-4, 0.36839104
291, 17709284, -0.6616601943969727, -0.33614033460617065, 18.08350944519043, 0.0030831867, 0.006625462, 0.35787964
292, 17725951, -0.6616561412811279, -0.3364274501800537, 18.08308982849121, 0.014711682, 0.0064818864, 0.3345337
293, 17742618, -0.661614716053009, -0.3370479941368103, 18.083526611328125, 0.011393835, 0.006272259, 0.3405552
294, 17759285, -0.6618746519088745, -0.33678069710731506, 18.084299087524414, 0.0014504454, -0.020142373, 0.36000252
295, 17775952, -0.661909282207489, -0.3368898928165436, 18.08553123474121, 0.010121243, -0.015017843, 0.3592987
296, 17792619, -0.662530779838562, -0.3362305164337158, 18.085004806518555, 0.0016068486, 0.0047525736, 0.3608551
297, 17809286, -0.6628371477127075, -0.33697134256362915, 18.08599281311035, 0.0060501397, 0.0034578817, 0.336545
298, 17825953, -0.6623360514640808, -0.3373187482357025, 18.08729362487793, 0.023655305, -0.0036090708, 0.37320423
299, 17842620, -0.6631603837013245, -0.3370610177516937, 18.087488174438477, 0.012518101, -0.002039594, 0.35727215
300, 17859287, -0.663349986076355, -0.3370512127876282, 18.08647918701172, 0.015616804, -0.0013533081, 0.3673334
301, 17875954, -0.6640559434890747, -0.33738115429878235, 18.086536407470703, 0.0019838905, 0.0010806293, 0.3471651
302, 17892621, -0.6633703112602234, -0.33743131160736084, 18.086139678955078, 0.0051419367, 9.557868E-4, 0.35632992
303, 17909288, -0.6630326509475708, -0.33792850375175476, 18.086624145507812, 1.711271E-4, 0.0061252606, 0.34722328
304, 17925955, -0.6632781624794006, -0.33692505955696106, 18.085878372192383, 0.018019032, 0.015698234, 0.3534479
305, 17942622, -0.6625382900238037, -0.3376695215702057, 18.086332321166992, -0.0019650876, 0.01643271, 0.3777027
306, 17959289, -0.6626656651496887, -0.33838754892349243, 18.087461471557617, -0.0032618607, -0.009079142, 0.35062122
307, 17975956, -0.6626673340797424, -0.3382718861103058, 18.088022232055664, 0.009773422, 0.00544963, 0.3598919
308, 17992623, -0.6629260778427124, -0.33722057938575745, 18.08833122253418, -0.0014614953, -0.011038452, 0.34740448
309, 18009290, -0.6625145673751831, -0.33777832984924316, 18.089366912841797, 0.0019042186, -0.0032181046, 0.34480095
310, 18025957, -0.6638076901435852, -0.3373960852622986, 18.088136672973633, 0.008074943, 0.003548607, 0.37614155
311, 18042624, -0.6645872592926025, -0.33787915110588074, 18.087173461914062, -0.0068428633, 0.0059454655, 0.37015915
312, 18059291, -0.6659234762191772, -0.3380572497844696, 18.086788177490234, -0.016549561, 0.00865117, 0.34359837
313, 18075958, -0.6654950380325317, -0.33832818269729614, 18.087629318237305, 0.018264301, 0.004868088, 0.35090637
314, 18092625, -0.664812445640564, -0.33902686834335327, 18.088869094848633, 0.0096772, -0.0017056309, 0.3512907
315, 18109292, -0.664989173412323, -0.3394457697868347, 18.090158462524414, 0.0022623597, 0.010908795, 0.35136127
316, 18125959, -0.6662002801895142, -0.33967500925064087, 18.090726852416992, 0.009762448, -0.0028767583, 0.35231686
317, 18142626, -0.6661351323127747, -0.3407500982284546, 18.090782165527344, 0.006197623, -0.0010420243, 0.3480072
318, 18159293, -0.6654895544052124, -0.33991101384162903, 18.089616775512695, 0.0014057847, 0.0076532685, 0.35179996
319, 18175960, -0.6653558611869812, -0.33958470821380615, 18.09052848815918, 0.0065272944, 0.00175677, 0.35987282
320, 18192627, -0.6656370759010315, -0.33814579248428345, 18.088977813720703, 0.010001587, -0.008215386, 0.3240118
321, 18209294, -0.6647718548774719, -0.3368512988090515, 18.088958740234375, 1.9342602E-4, 1.1314645E-4, 0.36221027
322, 18225961, -0.6638869047164917, -0.3368126153945923, 18.08954429626465, 0.00230057, 0.005151408, 0.34809303
323, 18242628, -0.6626979112625122, -0.33652716875076294, 18.089988708496094, -0.0031320136, 0.0028430428, 0.36595726
324, 18259295, -0.6625232696533203, -0.3370347023010254, 18.08907699584961, 3.055841E-4, 0.010123872, 0.34056282
325, 18275962, -0.6620783805847168, -0.3366321623325348, 18.089048385620117, 0.01357639, 0.00596957, 0.3206358
326, 18292629, -0.6619022488594055, -0.3363773226737976, 18.088918685913086, 0.015144718, 0.0018627465, 0.37335205
327, 18309296, -0.6614359021186829, -0.3366365134716034, 18.089717864990234, 0.020326108, 0.0046446025, 0.3610897
328, 18325963, -0.6607237458229065, -0.3363856077194214, 18.088619232177734, 0.0018292789, 0.0029212935, 0.37088203
329, 18342630, -0.6608098149299622, -0.33726441860198975, 18.090797424316406, 0.010110057, 0.0014343525, 0.33535004
330, 18359297, -0.66009122133255, -0.33649304509162903, 18.09073257446289, 0.01015653, 0.008927114, 0.34901905
331, 18375964, -0.6592312455177307, -0.33463501930236816, 18.0906925201416, -0.0012251514, 0.0022796018, 0.35611916
332, 18392631, -0.6596004366874695, -0.3334271311759949, 18.090892791748047, 0.0062851147, -2.1295197E-4, 0.37110233
333, 18409298, -0.6605514883995056, -0.3349166810512543, 18.091686248779297, 0.011011956, -1.4299242E-4, 0.3505659
334, 18425965, -0.6613954901695251, -0.3348744213581085, 18.091833114624023, 0.019643439, -0.0029584279, 0.33975315
335, 18442632, -0.6617888808250427, -0.3357768654823303, 18.09250831604004, -0.0010814186, -0.0029548309, 0.3510027
336, 18459299, -0.6624624729156494, -0.33606427907943726, 18.092674255371094, 0.0140445065, 0.0087052705, 0.33410168
337, 18475966, -0.6617741584777832, -0.3344689607620239, 18.09375762939453, -2.5641128E-5, -0.0028499404, 0.37677002
338, 18492633, -0.662907063961029, -0.3345824182033539, 18.09405517578125, -0.00640278, 0.001743202, 0.3568535
339, 18509300, -0.6636567115783691, -0.33592766523361206, 18.09265899658203, 0.0047242744, -0.008461132, 0.34342194
340, 18525967, -0.6634431481361389, -0.3361792266368866, 18.093093872070312, 0.0057176603, 0.008742217, 0.3545494
341, 18542634, -0.6636183261871338, -0.3370358943939209, 18.093564987182617, 0.005757456, -0.0059458427, 0.34874916
342, 18559301, -0.6641197204589844, -0.33655399084091187, 18.09445571899414, 0.0053977086, 0.0021172822, 0.33843136
343, 18575968, -0.6644579172134399, -0.3372468650341034, 18.095151901245117, 0.012004458, 0.0056361062, 0.35623455
344, 18592635, -0.6644509434700012, -0.3362002968788147, 18.096040725708008, -0.00990088, -0.0010080888, 0.36403656
345, 18609302, -0.6637330055236816, -0.33620545268058777, 18.096012115478516, 5.9719867E-5, 0.0022113882, 0.35546684
346, 18625969, -0.6641711592674255, -0.33584678173065186, 18.095565795898438, -0.0048956918, 0.006656352, 0.34073734
347, 18642636, -0.6639459133148193, -0.3353891968727112, 18.09502601623535, -0.004746165, 0.012948528, 0.3545208
348, 18659303, -0.6635112166404724, -0.33516815304756165, 18.09406280517578, 0.010342091, 0.010442288, 0.36316204
349, 18675970, -0.6639875173568726, -0.33566421270370483, 18.093420028686523, 0.011552969, 0.0015762798, 0.3656559
350, 18692637, -0.664193332195282, -0.33526986837387085, 18.094072341918945, 0.0055480213, 0.0166557, 0.3430109
351, 18709304, -0.6623631715774536, -0.3348495364189148, 18.093965530395508, -0.011358366, 0.014687591, 0.35461617
352, 18725971, -0.6627799868583679, -0.33313286304473877, 18.09446907043457, 0.0038394812, -8.12494E-4, 0.34150505
353, 18742638, -0.6624166965484619, -0.3328070640563965, 18.09355354309082, 0.0010075475, 0.0018500482, 0.3621874
354, 18759305, -0.6626165509223938, -0.3340790569782257, 18.09304428100586, 9.2809566E-4, 0.0035419783, 0.35928345
355, 18775972, -0.663296103477478, -0.33495262265205383, 18.093250274658203, 0.03325574, -2.815425E-4, 0.34728336
356, 18792639, -0.6626083850860596, -0.3350653350353241, 18.09461784362793, -0.007202136, 0.012273271, 0.34655952
357, 18809306, -0.6623374819755554, -0.334564208984375, 18.09385871887207, 0.012072801, 0.007146495, 0.31811333
358, 18825973, -0.6625099778175354, -0.332996666431427, 18.095163345336914, 0.009621395, -0.0140156625, 0.36906147
359, 18842640, -0.6628468036651611, -0.33387699723243713, 18.095327377319336, 0.015650734, 0.0014939536, 0.35699654
360, 18859307, -0.6629243493080139, -0.3406170606613159, 18.108570098876953, 0.012289025, 0.002751619, 0.3649845
361, 18875974, -0.662944495677948, -0.34002485871315, 18.10999298095703, -6.060379E-4, -0.008912006, 0.33677197
362, 18892641, -0.6617655158042908, -0.3403989374637604, 18.109615325927734, -0.005284716, 0.009102087, 0.3386221
363, 18909308, -0.6618384718894958, -0.34064552187919617, 18.109346389770508, 0.009872399, -0.0012240757, 0.36434174
364, 18925975, -0.6615186333656311, -0.3389278054237366, 18.109886169433594, 0.0070512923, -0.006712517, 0.3677063
365, 18942642, -0.6611001491546631, -0.33893707394599915, 18.111858367919922, 0.0076509635, 0.016650459, 0.36545658
366, 18959309, -0.6611005663871765, -0.3393436670303345, 18.111299514770508, -0.0038945177, -0.0031165984, 0.33346844
367, 18975976, -0.6616936922073364, -0.3386172354221344, 18.112123489379883, -0.0035744682, 0.001710384, 0.35237312
368, 18992643, -0.6609508395195007, -0.33865782618522644, 18.11221694946289, 0.0132605, 0.0078021283, 0.34227657
369, 19009310, -0.6611828207969666, -0.33882978558540344, 18.111711502075195, 0.0027781718, 0.006860388, 0.35051346
370, 19025977, -0.6611207127571106, -0.3381115198135376, 18.111902236938477, 0.0044909585, -0.003626641, 0.3541212
371, 19042644, -0.6612272262573242, -0.33824288845062256, 18.112384796142578, 0.0044024615, 0.0012920026, 0.3441677
372, 19059311, -0.6606708765029907, -0.3383675813674927, 18.11223030090332, -3.665403E-4, -0.0023569267, 0.3539238
373, 19075978, -0.6606073975563049, -0.3400738537311554, 18.1136474609375, 0.0034236247, -0.00473655, 0.3420658
374, 19092645, -0.6603251695632935, -0.3390561044216156, 18.114965438842773, 0.01652185, 0.0015532195, 0.34246826
375, 19109312, -0.6601006984710693, -0.3403162956237793, 18.115779876708984, 0.015075103, -0.0017027042, 0.35094166
376, 19125979, -0.6601702570915222, -0.3394163250923157, 18.116802215576172, 0.007287294, 0.002100236, 0.3523922
377, 19142646, -0.6589053869247437, -0.33879733085632324, 18.11685562133789, 0.002803841, 0.0020487232, 0.34014797
378, 19159313, -0.6587801575660706, -0.33742308616638184, 18.117666244506836, 0.01008255, -0.008811216, 0.32114697
379, 19175980, -0.659241259098053, -0.337437242269516, 18.117656707763672, 0.007336659, -0.01179701, 0.36510944
380, 19192647, -0.6585018634796143, -0.3372740149497986, 18.118392944335938, 0.021093616, 0.0031138393, 0.3479147
381, 19209314, -0.6600515246391296, -0.33798232674598694, 18.119112014770508, -0.008126047, 0.0046767746, 0.371315
382, 19225981, -0.658986508846283, -0.3383609652519226, 18.119754791259766, 0.003036179, 0.0016353047, 0.33787727
383, 19242648, -0.6586226224899292, -0.33878254890441895, 18.120502471923828, -0.010106177, -6.561083E-4, 0.33677292
384, 19259315, -0.6594809889793396, -0.33885297179222107, 18.12042999267578, 0.028161818, 6.059471E-4, 0.3570652
385, 19275982, -0.6592137813568115, -0.3400481343269348, 18.119909286499023, 0.014192273, -0.007304833, 0.34610176
386, 19292649, -0.6604282855987549, -0.3415546119213104, 18.11935043334961, 6.260563E-4, 0.0075356835, 0.3493843
387, 19309316, -0.661842405796051, -0.3420456051826477, 18.119600296020508, 0.018546537, -8.4996736E-4, 0.3560009
388, 19325983, -0.6624478101730347, -0.3415306806564331, 18.11822509765625, 0.0048633413, 4.8738747E-4, 0.35223103
389, 19342650, -0.6629533171653748, -0.3423284590244293, 18.117759704589844, 0.018968996, 1.8387433E-5, 0.34606266
390, 19359317, -0.663953423500061, -0.3426094949245453, 18.11791229248047, -0.013596922, -0.005050834, 0.37167358
391, 19375984, -0.6645945310592651, -0.34266743063926697, 18.11870002746582, -0.0028615352, 0.017411614, 0.3727436
392, 19392651, -0.6643484830856323, -0.34336766600608826, 18.119293212890625, 0.009322568, 0.017406741, 0.3683052
393, 19409318, -0.6652448177337646, -0.3443716764450073, 18.120662689208984, 0.0061270385, 0.006622965, 0.3486519
394, 19425985, -0.664066731929779, -0.3440946042537689, 18.120826721191406, 0.00341708, 0.014377537, 0.34152126
395, 19442652, -0.663110077381134, -0.34534212946891785, 18.119972229003906, 0.008829743, 0.008008099, 0.36841202
396, 19459319, -0.6634789109230042, -0.34482115507125854, 18.12024688720703, 0.007518061, 6.8564346E-4, 0.3556528
397, 19475986, -0.6632853150367737, -0.3440358340740204, 18.1198787689209, 0.013075916, 0.009085274, 0.3546238
398, 19492653, -0.6635909080505371, -0.3429948389530182, 18.120174407958984, 0.022791486, 0.0025098934, 0.374238
399, 19509320, -0.6636951565742493, -0.34307143092155457, 18.120134353637695, 0.003977741, 0.009153247, 0.34241962
400, 19525987, -0.6632474660873413, -0.3429480493068695, 18.121732711791992, 0.018423216, -0.0025617692, 0.34787273
401, 19542654, -0.6627177596092224, -0.34222692251205444, 18.12238311767578, 0.026741168, 0.010788121, 0.35235596
402, 19559321, -0.6628024578094482, -0.3422718644142151, 18.123313903808594, 0.01659297, 0.01528991, 0.3643875
403, 19575988, -0.6615230441093445, -0.3428562581539154, 18.12389373779297, 0.022408748, 0.015666362, 0.3520317
404, 19592655, -0.6622521877288818, -0.34338468313217163, 18.12356948852539, 0.0013091642, 0.008207797, 0.36695576
405, 19609322, -0.6612492203712463, -0.34324973821640015, 18.124713897705078, -0.009007289, -0.024157185, 0.3397913
406, 19625989, -0.6609368324279785, -0.34223055839538574, 18.125078201293945, -0.0025768005, 0.0050358935, 0.37892342
407, 19642656, -0.6616445779800415, -0.34119656682014465, 18.125246047973633, 0.017817454, -0.005278688, 0.36712265
408, 19659323, -0.6619587540626526, -0.34191858768463135, 18.126230239868164, 0.0036475917, 0.00600888, 0.37073326
409, 19675990, -0.6627795696258545, -0.3416728675365448, 18.125741958618164, 0.01076211, -0.0024290446, 0.35845757
410, 19692657, -0.6636430621147156, -0.3420708477497101, 18.12593650817871, 0.0043906816, 0.011689022, 0.34179115
411, 19709324, -0.6634589433670044, -0.34244009852409363, 18.125530242919922, -0.0034906648, 0.004735576, 0.32476902
412, 19725991, -0.6627522110939026, -0.3427461087703705, 18.126815795898438, 0.0058907503, -0.0064236647, 0.35496044
413, 19742658, -0.6629525423049927, -0.34204307198524475, 18.128623962402344, 0.0059951097, -0.004031119, 0.36631966
414, 19759325, -0.6628530621528625, -0.3426004648208618, 18.129459381103516, 0.01818177, -0.0055185766, 0.32667446
415, 19775992, -0.6633726358413696, -0.34136059880256653, 18.1295108795166, 0.0019706998, 0.005496756, 0.3338213
416, 19792659, -0.6633679270744324, -0.34153228998184204, 18.130142211914062, 0.006772907, 0.012749563, 0.35198593
417, 19809326, -0.663537859916687, -0.3417547941207886, 18.129674911499023, 0.009370718, 0.0051636975, 0.3610859
418, 19825993, -0.6633483171463013, -0.340910941362381, 18.129608154296875, 0.014102173, -0.0031736884, 0.35630417
419, 19842660, -0.6633451581001282, -0.3420696556568146, 18.130460739135742, 0.0024798727, 0.010787839, 0.34160328
420, 19859327, -0.6638970971107483, -0.34304121136665344, 18.131174087524414, 0.0010168513, 0.0045514572, 0.35001278
421, 19875994, -0.6638364195823669, -0.34495049715042114, 18.12986183166504, 0.0015972934, -0.016265478, 0.34522057
422, 19892661, -0.6639997363090515, -0.34469133615493774, 18.130062103271484, 0.002496734, 0.006326583, 0.35914803
423, 19909328, -0.6655158996582031, -0.3455812931060791, 18.131248474121094, 0.006834708, -0.005354417, 0.34820938
424, 19925995, -0.6655043363571167, -0.34469571709632874, 18.130598068237305, -0.007080513, -0.006598057, 0.33861065
425, 19942662, -0.6661163568496704, -0.34452468156814575, 18.131242752075195, 0.0025545051, -0.0055709383, 0.36365318
426, 19959329, -0.6667036414146423, -0.3439868688583374, 18.130826950073242, -0.006735095, 0.008474878, 0.3523016
427, 19975996, -0.6662208437919617, -0.34403297305107117, 18.13210678100586, 0.022386048, -9.250293E-5, 0.3455
428, 19992663, -0.6656646132469177, -0.3452151417732239, 18.133209228515625, 0.008264573, -0.0027590648, 0.35528183
429, 20009330, -0.6659920811653137, -0.34598982334136963, 18.134124755859375, -0.006737194, 0.0029260989, 0.36005592
430, 20025997, -0.6661546230316162, -0.3455730378627777, 18.134153366088867, -0.0054415767, -0.006563217, 0.3429823
431, 20042664, -0.6649558544158936, -0.3438626527786255, 18.13311767578125, 0.0113484515, -0.014047628, 0.34089565
432, 20059331, -0.6648324728012085, -0.344850093126297, 18.133378982543945, 0.0078979, -0.0031682996, 0.3580122
433, 20075998, -0.6638418436050415, -0.3443405330181122, 18.133182525634766, -0.0063915416, 0.0059200516, 0.38371372
434, 20092665, -0.6646138429641724, -0.3439785838127136, 18.13402557373047, 0.011596802, -0.005174091, 0.36156082
435, 20109332, -0.663214921951294, -0.3434831202030182, 18.13416862487793, -0.008345541, -0.0035072884, 0.36052513
436, 20125999, -0.6640486121177673, -0.3439145088195801, 18.134695053100586, -0.008011336, 0.0037300296, 0.35451508
437, 20142666, -0.6637295484542847, -0.3418051600456238, 18.135753631591797, 0.005815081, -0.001658309, 0.33932877
438, 20159333, -0.6645312309265137, -0.34101879596710205, 18.135887145996094, -0.017435675, 0.003491255, 0.36010647
439, 20176000, -0.666140079498291, -0.341534286737442, 18.1362361907959, -0.0025805444, 0.002128444, 0.36148262
440, 20192667, -0.6658783555030823, -0.3412603437900543, 18.1363468170166, -0.011976227, -0.013187848, 0.35619926
441, 20209334, -0.667043924331665, -0.34249773621559143, 18.1374454498291, 0.018753251, 0.025312351, 0.32736492
442, 20226001, -0.6670540571212769, -0.34293651580810547, 18.137144088745117, 0.0069263033, 0.0147686815, 0.33222103
443, 20242668, -0.6676267981529236, -0.3429716229438782, 18.1382999420166, 0.022490133, -0.005848171, 0.34964657
444, 20259335, -0.6678135991096497, -0.34243810176849365, 18.138336181640625, 0.007708281, 0.010003598, 0.35335255
445, 20276002, -0.6667428016662598, -0.34208112955093384, 18.139493942260742, -0.011022496, 0.0047249207, 0.37028694
446, 20292669, -0.667055606842041, -0.3427160382270813, 18.14082908630371, -4.6707573E-4, 0.008169646, 0.33430672
447, 20309336, -0.6676741242408752, -0.3430381417274475, 18.14156150817871, 0.0052722828, 0.002826744, 0.33408546
448, 20326003, -0.6682544350624084, -0.3430035412311554, 18.143213272094727, -0.0038034047, -0.005574916, 0.32822323
449, 20342670, -0.6678675413131714, -0.3423895537853241, 18.143051147460938, 0.009234616, 0.0017999742, 0.3665228
450, 20359337, -0.6702260375022888, -0.3434837758541107, 18.1433048248291, 0.0048161037, 0.0028937524, 0.3559456
451, 20376004, -0.6710205674171448, -0.34367433190345764, 18.14389991760254, 0.0143107455, 0.012344233, 0.33563328
452, 20392671, -0.6699717044830322, -0.34358617663383484, 18.143346786499023, -0.005605754, 0.009055771, 0.35474396
453, 20409338, -0.6700236797332764, -0.3441271483898163, 18.143070220947266, -0.002437723, 0.0018652296, 0.3408785
454, 20426005, -0.6699350476264954, -0.3447478711605072, 18.142742156982422, -0.0042058467, 0.005161169, 0.37301826
455, 20442672, -0.6692402958869934, -0.345332533121109, 18.143949508666992, 0.0047870153, 0.017496716, 0.3602667
456, 20459339, -0.6696547269821167, -0.3454112112522125, 18.14424705505371, 0.0027474316, -0.010270424, 0.37496948
457, 20476006, -0.6701484322547913, -0.3459499776363373, 18.1446533203125, 0.0116155315, 0.0034337842, 0.34550667
458, 20492673, -0.671081006526947, -0.3448540270328522, 18.143924713134766, 0.0015088766, 0.0185658, 0.3378744
459, 20509340, -0.6709141135215759, -0.34453320503234863, 18.144437789916992, 0.0016873622, -2.8328522E-4, 0.3516035
460, 20526007, -0.6798757314682007, -0.40933477878570557, 18.160602569580078, 0.17031896, 0.068661794, 0.3886366
461, 20542674, -1.0275307893753052, -0.7004504203796387, 18.230995178222656, 0.7074592, 0.44555894, 0.48373413
462, 20559341, -1.062393307685852, -0.7083043456077576, 18.442073822021484, -0.012738415, 0.25479436, 0.1882286
463, 20576008, -1.062273621559143, -0.7128065228462219, 18.695384979248047, -0.14717789, -0.17802969, 0.28431702
464, 20592675, -1.0034141540527344, -0.6808714866638184, 18.772706985473633, -0.25675493, -0.42588586, 0.30638313
465, 20609342, -0.9497529864311218, -0.6411677002906799, 18.625537872314453, -0.18311821, -0.20129114, 0.35388088
466, 20626009, -0.9033200740814209, -0.6185461282730103, 18.369586944580078, 0.022325648, -0.03300782, 0.35497856
467, 20642676, -0.8450021743774414, -0.6030133962631226, 18.129648208618164, 0.1584699, -0.0027381664, 0.34532547
468, 20659343, -0.7938473224639893, -0.5978843569755554, 17.926176071166992, 0.11408443, -0.012069567, 0.35920143
469, 20676010, -0.7688432931900024, -0.5864187479019165, 17.738950729370117, -0.054815058, 0.052744027, 0.3601761
470, 20692677, -0.7508686184883118, -0.5766250491142273, 17.560197830200195, 0.12810938, 0.072212845, 0.36095428
471, 20709344, -0.7479124665260315, -0.5792442560195923, 17.529882431030273, 0.34839937, 0.20875481, 0.36896133
472, 20726011, -0.7571911215782166, -0.5829399824142456, 17.623767852783203, 0.031459503, 0.12672235, 0.34294796
473, 20742678, -0.7717545032501221, -0.5896002054214478, 17.75676918029785, 0.04474686, 0.15681753, 0.36963367
474, 20759345, -0.7729226350784302, -0.5939855575561523, 17.927202224731445, 0.3047574, 0.13236617, 0.33983803
475, 20776012, -0.764102041721344, -0.6002673506736755, 18.11252212524414, 0.13591821, -0.08635209, 0.3823452
476, 20792679, -0.7526278495788574, -0.6019898056983948, 18.211679458618164, -0.023429312, -0.11827493, 0.36485863
477, 20809346, -0.7503718137741089, -0.6034215092658997, 18.23517417907715, -0.16217005, 0.01687249, 0.36650562
478, 20826013, -0.751530647277832, -0.6066651940345764, 18.251876831054688, 0.20558353, 0.27352068, 0.35149097
479, 20842680, -0.7572314739227295, -0.6167164444923401, 18.499998092651367, 0.36719793, 0.29044867, 0.36303806
480, 20859347, -0.7555918097496033, -0.6281777620315552, 18.87566375732422, 0.15550303, -0.033963043, 0.34517384
481, 20876014, -0.7419518232345581, -0.6360486149787903, 19.040634155273438, -0.0971743, -0.26540667, 0.3795271
482, 20892681, -0.725355863571167, -0.6421763300895691, 18.95456314086914, -0.015504126, -0.20985766, 0.33477402
483, 20909348, -0.7081026434898376, -0.6495407819747925, 18.7763614654541, 0.056407817, -0.04799404, 0.3497038
484, 20926015, -0.6925159096717834, -0.6526855230331421, 18.571077346801758, -0.11190102, -0.054797, 0.3492899
485, 20942682, -0.6884957551956177, -0.6549690365791321, 18.35099983215332, 6.9064804E-4, 0.1468536, 0.34614086
486, 20959349, -0.6989821195602417, -0.6632943153381348, 18.257898330688477, -0.0906641, 0.2700826, 0.3644886
487, 20976016, -0.7019973993301392, -0.6815341114997864, 18.232120513916016, 0.23946832, 0.060368013, 0.35077572
488, 20992683, -0.6891635060310364, -0.7010371088981628, 18.146621704101562, 0.48269796, -0.37294155, 0.3665905
489, 21009350, -0.6728326678276062, -0.7164151072502136, 17.888507843017578, 0.226305, -0.22307642, 0.35107803
490, 21026017, -0.651599645614624, -0.7244417071342468, 17.568395614624023, 0.088048756, 0.028840236, 0.35169697
491, 21042684, -0.644440770149231, -0.7325922846794128, 17.294313430786133, -0.14434892, 0.0048344806, 0.35119534
492, 21059351, -0.6533469557762146, -0.7404875159263611, 17.084352493286133, -0.51851374, 0.26333407, 0.368021
493, 21076018, -0.6719695925712585, -0.7464613914489746, 17.036623001098633, -0.3191927, 0.4716372, 0.344244
494, 21092685, -0.6860077977180481, -0.7578438520431519, 17.18807601928711, -0.058973305, 0.17834178, 0.32784653
495, 21109352, -0.6890752911567688, -0.7693688869476318, 17.302600860595703, 0.15650888, -0.094040915, 0.35327148
496, 21126019, -0.688327968120575, -0.7800276279449463, 17.33432960510254, 0.13908778, -0.16663603, 0.36440372
497, 21142686, -0.6830717921257019, -0.7903628349304199, 17.295455932617188, 0.08283921, -0.09711458, 0.357028
498, 21159353, -0.6814493536949158, -0.7929583787918091, 17.25122833251953, -0.049521416, 0.014403978, 0.35403633
499, 21176020, -0.6785290241241455, -0.7925848960876465, 17.233806610107422, -0.026211571, 0.08405692, 0.32295704
500, 21192687, -0.6766053438186646, -0.795681893825531, 17.28119468688965, 0.18346652, 0.07430274, 0.3537979
501, 21209354, -0.681424617767334, -0.8055492043495178, 17.377931594848633, 0.2469964, -0.0016064016, 0.39657593
502, 21226021, -0.6959068775177002, -0.8165634870529175, 17.507246017456055, 0.23809111, -0.030266745, 0.36413002
503, 21242688, -0.7036461234092712, -0.8232558965682983, 17.61890983581543, 0.062410112, -0.019263346, 0.33460426
504, 21259355, -0.701734721660614, -0.8214956521987915, 17.654308319091797, -0.014303641, -0.0059982007, 0.3403263
505, 21276022, -0.7000401020050049, -0.8206391930580139, 17.65821075439453, -0.13567412, -0.049501337, 0.33010006
506, 21292689, -0.6970366835594177, -0.8229295611381531, 17.603515625, -0.059661265, 0.023868531, 0.3694029
507, 21309356, -0.6966087222099304, -0.8280535936355591, 17.57508087158203, 0.12443043, 0.044958282, 0.3531494
508, 21326023, -0.6948422789573669, -0.8348926901817322, 17.549060821533203, 0.17968887, -0.03441942, 0.34821606
509, 21342690, -0.6973977088928223, -0.8443377614021301, 17.517099380493164, 0.22297977, -0.01997076, 0.35631752
510, 21359357, -0.7004644870758057, -0.8507015109062195, 17.502185821533203, 0.23429489, -0.032210667, 0.3589592
511, 21376024, -0.7015833258628845, -0.8475425243377686, 17.472087860107422, -0.018096859, -0.028073028, 0.34697247
512, 21392691, -0.696239173412323, -0.8387369513511658, 17.40345001220703, -0.19139037, 0.020493874, 0.34605694
513, 21409358, -0.6921991109848022, -0.8274132609367371, 17.33978843688965, -0.24485534, 0.17644845, 0.36801434
514, 21426025, -0.6943690180778503, -0.8243101835250854, 17.324201583862305, -0.18514156, 0.25089377, 0.37185
515, 21442692, -0.6973085999488831, -0.8279986381530762, 17.350309371948242, 0.18399103, 0.07456434, 0.3562641
516, 21459359, -0.7071871757507324, -0.8385791778564453, 17.426353454589844, 0.22148241, 0.05430202, 0.36235905
517, 21476026, -0.711058497428894, -0.8413978219032288, 17.50568199157715, 0.1709004, -0.04600712, 0.33146954
518, 21492693, -0.7050474882125854, -0.8383879065513611, 17.50888442993164, 0.008319278, -0.20439024, 0.35006714
519, 21509360, -0.6949289441108704, -0.8347737789154053, 17.4124813079834, 0.0615137, -0.084903754, 0.39960003
520, 21526027, -0.6905325651168823, -0.8278082609176636, 17.405885696411133, 0.100870825, 0.048536822, 0.34306717
521, 21542694, -0.688143253326416, -0.8225327730178833, 17.399681091308594, 0.07422752, -0.05855835, 0.35693836
522, 21559361, -0.6956048607826233, -0.8287865519523621, 17.434734344482422, 0.19865164, -0.068596855, 0.35868263
523, 21576028, -0.7086396813392639, -0.8354326486587524, 17.461048126220703, 0.109246515, -0.10869982, 0.36815643
524, 21592695, -0.7145369648933411, -0.8365846872329712, 17.424846649169922, 0.075973295, -0.08642455, 0.35684586
525, 21609362, -0.7129397988319397, -0.8344240784645081, 17.351932525634766, -0.21080175, -0.07960949, 0.33880615
526, 21626029, -0.6959054470062256, -0.8260703682899475, 17.192842483520508, -0.23893912, 0.029471315, 0.3451767
527, 21642696, -0.6861906051635742, -0.8154449462890625, 17.097028732299805, -0.10451665, 0.5433596, 0.32065773
528, 21659363, -0.6857941746711731, -0.8034676313400269, 17.24205207824707, 0.14197174, -0.16293399, 0.37122154
529, 21676030, -0.6783474683761597, -0.8087582588195801, 17.188568115234375, 0.22925068, -0.035450295, 0.36668873
530, 21692697, -0.671423077583313, -0.8101305365562439, 17.229623794555664, 0.10550706, 0.11096365, 0.33986664
531, 21709364, -0.6640803813934326, -0.8160102963447571, 17.31446075439453, 0.11300462, -0.07623074, 0.36708736
532, 21726031, -0.6556339859962463, -0.818499743938446, 17.379087448120117, -0.21533766, 0.053201854, 0.3590803
533, 21742698, -0.644530177116394, -0.8228331804275513, 17.401472091674805, -0.31049097, 0.060971793, 0.32643795
534, 21759365, -0.6405587196350098, -0.8244585990905762, 17.36960792541504, -0.1984559, 0.28141734, 0.35659122
535, 21776032, -0.6381754279136658, -0.8250642418861389, 17.36618995666504, -0.091220446, 0.29116657, 0.37555885
536, 21792699, -0.6384662985801697, -0.8274909257888794, 17.409751892089844, -0.06154215, 0.18476675, 0.33724308
537, 21809366, -0.6357602477073669, -0.8281294703483582, 17.461313247680664, -0.16374986, 0.04259418, 0.3508377
538, 21826033, -0.6264451742172241, -0.8283612132072449, 17.450092315673828, 0.06951278, -0.24363428, 0.3556099
539, 21842700, -0.6171451210975647, -0.8329755067825317, 17.41880226135254, 0.16871935, -0.16233042, 0.3718195
540, 21859367, -0.6022161245346069, -0.8361163139343262, 17.370603561401367, 0.06279713, 0.024357233, 0.3607912
541, 21876034, -0.5822190046310425, -0.8364073038101196, 17.333309173583984, 0.17647497, 0.045798343, 0.3607788
542, 21892701, -0.5721667408943176, -0.8439915180206299, 17.291833877563477, 0.21432194, 0.06343219, 0.3756237
543, 21909368, -0.5700603723526001, -0.8537713885307312, 17.328655242919922, -0.093727484, 0.12641227, 0.3269682
544, 21926035, -0.5560275912284851, -0.8663263320922852, 17.35343360900879, 0.057845455, -0.18724966, 0.35626316
545, 21942702, -0.5444427132606506, -0.8750417828559875, 17.29484748840332, -0.04341113, -0.24735014, 0.39096928
546, 21959369, -0.5329234600067139, -0.8802788257598877, 17.18182945251465, -0.07878866, -1.7753564E-4, 0.35220146
547, 21976036, -0.5228295922279358, -0.888744592666626, 17.10171127319336, 0.07513778, 0.17700222, 0.3613081
548, 21992703, -0.5165944695472717, -0.8989843726158142, 17.14139747619629, -0.12234649, 0.49733448, 0.3226633
549, 22009370, -0.49096381664276123, -0.9116759300231934, 17.130998611450195, 0.11835693, -0.37780318, 0.3790388
550, 22026037, -0.4742560088634491, -0.93209308385849, 17.1442928314209, 0.081136204, 0.064686164, 0.3568287
551, 22042704, -0.44594794511795044, -0.9489189386367798, 17.076576232910156, 0.010450592, -0.41732854, 0.40439224
552, 22059371, -0.43541228771209717, -0.9565778374671936, 17.06001091003418, 0.16560538, 0.06653225, 0.3305683
553, 22076038, -0.4203037917613983, -0.9519279599189758, 17.029216766357422, 0.29024798, -0.013763067, 0.38157654
554, 22092705, -0.4103766977787018, -0.9482014775276184, 17.0258731842041, 0.19499332, 0.10482981, 0.3329668
555, 22109372, -0.40802931785583496, -0.9447563886642456, 17.081281661987305, 0.12827373, 0.040939648, 0.36379433
556, 22126039, -0.4107792377471924, -0.934100866317749, 17.11342430114746, -0.099247135, -0.09967341, 0.3254261
557, 22142706, -0.4219101369380951, -0.9175445437431335, 17.148231506347656, 0.14781263, -0.10134356, 0.3764124
558, 22159373, -0.445781409740448, -0.8774034976959229, 17.163108825683594, 0.015256344, -0.16414876, 0.34939766
559, 22176040, -0.45981597900390625, -0.8256653547286987, 17.132631301879883, -0.075287715, -0.10594549, 0.3467102
560, 22192707, -0.46033975481987, -0.7848684191703796, 17.051095962524414, -0.003710392, -0.031795435, 0.37044907
561, 22209374, -0.46513792872428894, -0.7699669003486633, 17.021831512451172, 0.13418098, 0.14127208, 0.39264774
562, 22226041, -0.4788269102573395, -0.7622730731964111, 17.093774795532227, -0.1601719, 0.07685849, 0.36353588
563, 22242708, -0.48641565442085266, -0.760158360004425, 17.096960067749023, -0.12009281, 0.08159758, 0.36685848
564, 22259375, -0.4937799274921417, -0.7564645409584045, 17.121822357177734, -0.20916516, 0.12465343, 0.35268688
565, 22276042, -0.501663327217102, -0.7539175748825073, 17.110488891601562, -0.30298895, 0.1803745, 0.36336708
566, 22292709, -0.49968090653419495, -0.7529447078704834, 17.074291229248047, -0.10373926, 0.010577845, 0.34910107
567, 22309376, -0.4887232482433319, -0.7505255341529846, 17.03809928894043, 0.12808415, -0.095091976, 0.3349762
568, 22326043, -0.4863624572753906, -0.7566232681274414, 17.014331817626953, 0.2174237, -0.045192864, 0.37097168
569, 22342710, -0.4864833652973175, -0.7623357772827148, 16.982913970947266, 0.08964984, 0.0020284709, 0.35016823
570, 22359377, -0.48449772596359253, -0.7618388533592224, 16.94495391845703, 0.03169744, 0.089848146, 0.32082844
571, 22376044, -0.4869724214076996, -0.7619425058364868, 16.91193389892578, -0.18406446, 0.08175852, 0.34910965
572, 22392711, -0.480400025844574, -0.7635587453842163, 16.886823654174805, 0.11986603, -0.10104768, 0.37247944
573, 22409378, -0.4907386898994446, -0.7583274841308594, 16.865966796875, 0.12393439, -0.09713658, 0.34011078
574, 22426045, -0.5073084235191345, -0.7470098733901978, 16.79141616821289, -0.015937472, -0.048225548, 0.34695148
575, 22442712, -0.5220416784286499, -0.7380200624465942, 16.708162307739258, -0.14009015, 0.0113019915, 0.33134747
576, 22459379, -0.5343770980834961, -0.733597993850708, 16.68805503845215, -0.1380962, 0.09754338, 0.3506651
577, 22476046, -0.5463375449180603, -0.7319271564483643, 16.711206436157227, -0.18555425, -0.031520132, 0.36900234
578, 22492713, -0.5506631135940552, -0.7332152724266052, 16.691654205322266, -0.054173738, -0.06356966, 0.36354637
579, 22509380, -0.5587931275367737, -0.7335513830184937, 16.64202308654785, -0.05355909, -0.0046445364, 0.34928608
580, 22526047, -0.5641024708747864, -0.7310271859169006, 16.546552658081055, 0.035681736, -0.047938064, 0.34231663
581, 22542714, -0.5718098282814026, -0.7258697152137756, 16.47434425354004, 0.22543044, -0.004310531, 0.36658955
582, 22559381, -0.5857596397399902, -0.726322591304779, 16.440288543701172, 0.13477135, -0.04291314, 0.35888863
583, 22576048, -0.6043193936347961, -0.72788006067276, 16.422439575195312, -0.013245206, 0.02979754, 0.34573936
584, 22592715, -0.6106613278388977, -0.7270340323448181, 16.442855834960938, -0.16343245, 0.1956771, 0.3256693
585, 22609382, -0.6181026101112366, -0.7298340797424316, 16.490177154541016, 0.0969392, -0.14867811, 0.34933376
586, 22626049, -0.6316714882850647, -0.7290313243865967, 16.52604103088379, -0.17418146, 0.10485026, 0.3454504
587, 22642716, -0.6241804361343384, -0.7203630805015564, 16.53881072998047, -0.09717205, 0.04310141, 0.359828
588, 22659383, -0.6166889667510986, -0.7207485437393188, 16.45286750793457, 0.0766841, -0.24625194, 0.3843193
589, 22676050, -0.6166933178901672, -0.7214376330375671, 16.359224319458008, 0.040440172, 0.09720672, 0.34530735
590, 22692717, -0.6061334013938904, -0.7105098962783813, 16.321157455444336, 0.099821135, 0.043678053, 0.36625957
591, 22709384, -0.6042386889457703, -0.7083263993263245, 16.304540634155273, 0.0029663593, -0.13233149, 0.3641882
592, 22726051, -0.6071039438247681, -0.7055123448371887, 16.291147232055664, -0.22503307, 0.0019097332, 0.36345577
593, 22742718, -0.608062207698822, -0.7082691788673401, 16.275604248046875, -0.16702187, 0.039056372, 0.35349083
594, 22759385, -0.6078861951828003, -0.7142336368560791, 16.267717361450195, 0.004966311, 0.111787446, 0.36591816
595, 22776052, -0.6074632406234741, -0.7152789235115051, 16.306486129760742, -0.0441179, 0.003966363, 0.3224697
596, 22792719, -0.5995492339134216, -0.719207763671875, 16.323190689086914, 0.14759518, -0.015373965, 0.33940697
597, 22809386, -0.595455527305603, -0.7206957936286926, 16.346542358398438, 0.26229575, -0.12881868, 0.36301422
598, 22826053, -0.5939970016479492, -0.7246705293655396, 16.370412826538086, 0.025473807, -0.09850824, 0.3646555
599, 22842720, -0.599593997001648, -0.7257130742073059, 16.394638061523438, -0.013347663, 0.04064557, 0.38078785
600, 22859387, -0.6069602966308594, -0.7344980239868164, 16.42194366455078, -0.10923751, -0.10098074, 0.362154
601, 22876054, -0.6144373416900635, -0.744498610496521, 16.41167449951172, -0.24553214, -0.04747939, 0.36169624
602, 22892721, -0.6154085993766785, -0.7540388107299805, 16.3815975189209, 0.03784716, -0.0075071016, 0.34183693
603, 22909388, -0.6156173944473267, -0.758453369140625, 16.325620651245117, 0.20804697, 0.005788315, 0.34261894
604, 22926055, -0.6159264445304871, -0.7693226933479309, 16.303125381469727, 0.43839923, -0.25869352, 0.3914032
605, 22942722, -0.6217117309570312, -0.7845993638038635, 16.245744705200195, 0.18544674, -0.08683248, 0.37555885
606, 22959389, -0.6210273504257202, -0.7990484237670898, 16.14586067199707, -0.14215697, 0.11634751, 0.32731724
607, 22976056, -0.6159467101097107, -0.8133294582366943, 16.06089210510254, -0.10201703, 0.15503116, 0.3408394
608, 22992723, -0.6169950366020203, -0.8248699307441711, 16.040664672851562, -0.1158193, 0.15232465, 0.361166
609, 23009390, -0.6132718324661255, -0.8315029740333557, 16.00150489807129, -0.19705299, 0.10332248, 0.37430763
610, 23026057, -0.6100283265113831, -0.8393290042877197, 15.9796781539917, -0.12310509, 0.10501807, 0.3798523
611, 23042724, -0.6005193591117859, -0.8510167598724365, 15.965338706970215, -0.024211988, 0.10442432, 0.3432846
612, 23059391, -0.5885395407676697, -0.8678056001663208, 15.9384126663208, -0.06721081, 0.016422883, 0.36579418
613, 23076058, -0.5750147104263306, -0.8879123330116272, 15.91433048248291, -0.041901525, -0.099539906, 0.3430376
614, 23092725, -0.5574093461036682, -0.9019678831100464, 15.85506534576416, -0.10630511, -0.0067923563, 0.38754368
615, 23109392, -0.5458059906959534, -0.9171611070632935, 15.798712730407715, -0.060327586, -0.034562685, 0.35376453
616, 23126059, -0.550197958946228, -0.9360568523406982, 15.808199882507324, -0.14200833, 0.047224578, 0.34691715
617, 23142726, -0.5511513948440552, -0.9484543800354004, 15.820430755615234, -0.2695217, 0.0135929, 0.35473537
618, 23159393, -0.5407088398933411, -0.9592376351356506, 15.807592391967773, -0.08458598, 0.03986186, 0.32261944
619, 23176060, -0.5259734988212585, -0.9722726345062256, 15.781848907470703, -0.01816376, 0.01284238, 0.353364
620, 23192727, -0.51646488904953, -0.9807241559028625, 15.778406143188477, -0.03550478, 0.023521233, 0.3630638
621, 23209394, -0.5136129856109619, -0.9821019172668457, 15.762198448181152, -0.12224183, 0.017864512, 0.32329178
622, 23226061, -0.5101515054702759, -0.9764766097068787, 15.73753833770752, -0.10185157, 0.041974656, 0.35506916
623, 23242728, -0.504540205001831, -0.9681140184402466, 15.716900825500488, -0.031932138, 0.017282091, 0.34086418
624, 23259395, -0.4988076090812683, -0.9536916613578796, 15.720988273620605, 0.08193656, -0.030894907, 0.37426662
625, 23276062, -0.49533408880233765, -0.9362934231758118, 15.698203086853027, 0.124709584, -0.123035416, 0.36492252
626, 23292729, -0.5012004971504211, -0.9101705551147461, 15.6925048828125, -0.078334354, -0.011281034, 0.35927105
627, 23309396, -0.5065078735351562, -0.878207266330719, 15.701276779174805, -0.11847466, 0.2704118, 0.3512802
628, 23326063, -0.5118733644485474, -0.8500156402587891, 15.71282958984375, 0.013291491, -0.041481636, 0.39115238
629, 23342730, -0.5129788517951965, -0.8331210613250732, 15.703218460083008, 0.22588705, -0.053936724, 0.34507656
630, 23359397, -0.518147349357605, -0.8198022842407227, 15.725966453552246, 0.25544256, -0.081078306, 0.34126854
631, 23376064, -0.5180338025093079, -0.8077771067619324, 15.75076675415039, 0.1754479, -0.1387849, 0.36552048
632, 23392731, -0.5073950886726379, -0.7942207455635071, 15.72274398803711, 0.07683265, -0.12591608, 0.36414337
633, 23409398, -0.5008084177970886, -0.782235324382782, 15.659295082092285, -0.033054456, -0.08815073, 0.35205555
634, 23426065, -0.5024393200874329, -0.7745605707168579, 15.615347862243652, -0.16081077, 0.12966304, 0.34991455
635, 23442732, -0.5031265020370483, -0.7769742608070374, 15.629907608032227, -0.15752514, 0.11959132, 0.39967442
636, 23459399, -0.5058595538139343, -0.7782430052757263, 15.681513786315918, -0.2265919, -0.0029053157, 0.33647728
637, 23476066, -0.5058802962303162, -0.7808820605278015, 15.689059257507324, -0.12355198, -0.060072992, 0.36368847
638, 23492733, -0.510332465171814, -0.7786186933517456, 15.67438793182373, 0.1088602, -0.088180505, 0.34525585
639, 23509400, -0.5169882774353027, -0.777228593826294, 15.642504692077637, 0.21895757, -0.06351882, 0.3601141
640, 23526067, -0.5171305537223816, -0.7769700288772583, 15.601144790649414, 0.16954005, -0.077747665, 0.3670559
641, 23542734, -0.517241895198822, -0.7728855013847351, 15.555999755859375, 0.14656596, -0.0394807, 0.34747314
642, 23559401, -0.5202780961990356, -0.7744577527046204, 15.505813598632812, 0.13097775, -0.0064945184, 0.37099743
643, 23576068, -0.524877667427063, -0.7739695906639099, 15.453007698059082, -0.01486123, 0.027805235, 0.3612995
644, 23592735, -0.5315579175949097, -0.7781574726104736, 15.4102783203125, -0.11379504, 0.0983718, 0.34965515
645, 23609402, -0.5374407768249512, -0.7885500192642212, 15.373891830444336, -0.074598275, 0.16765647, 0.34710503
646, 23626069, -0.5514370799064636, -0.7982434630393982, 15.34730339050293, -0.2433299, 0.17996737, 0.36543465
647, 23642736, -0.5624812245368958, -0.805051863193512, 15.362479209899902, -0.23507573, 0.1458993, 0.3518238
648, 23659403, -0.5668173432350159, -0.8128427863121033, 15.375591278076172, -0.09529035, -0.06318077, 0.3656149
649, 23676070, -0.5722100138664246, -0.8225711584091187, 15.389118194580078, -0.020457057, -0.16825058, 0.35080433
650, 23692737, -0.5842580795288086, -0.8329635262489319, 15.405003547668457, -0.017914193, -0.106957234, 0.33849144
651, 23709404, -0.5948147177696228, -0.8437449932098389, 15.439412117004395, 0.04157155, -0.101654135, 0.36666584
652, 23726071, -0.5977731943130493, -0.8537375330924988, 15.434754371643066, 0.05829998, -0.23429899, 0.3556366
653, 23742738, -0.5975937843322754, -0.863240122795105, 15.515695571899414, 0.21808858, -0.10996291, 0.35705566
654, 23759405, -0.6131720542907715, -0.8731600642204285, 15.631356239318848, -0.03611679, -0.016510807, 0.3465824
655, 23776072, -0.6302506923675537, -0.8786786198616028, 15.791592597961426, -0.18553525, 0.008768074, 0.37653923
656, 23792739, -0.6393852829933167, -0.8799236416816711, 15.91209888458252, -0.22285022, -0.16238357, 0.35267544
657, 23809406, -0.6352900862693787, -0.8871058821678162, 15.959623336791992, -0.2619915, -0.20316522, 0.3610134
658, 23826073, -0.6259576678276062, -0.8897677659988403, 15.945088386535645, -0.1385069, 0.059768546, 0.33356
659, 23842740, -0.6279503703117371, -0.8882827162742615, 15.98552131652832, -0.2793564, 0.20095025, 0.35299015
660, 23859407, -0.637637197971344, -0.8906357884407043, 16.064077377319336, -0.19749385, 0.23634632, 0.33710098
661, 23876074, -0.640399158000946, -0.891935408115387, 16.148801803588867, -0.252382, 0.030210286, 0.34599018
662, 23892741, -0.6389818787574768, -0.8919622302055359, 16.206960678100586, -0.05960556, -0.005142181, 0.37054634
663, 23909408, -0.631775438785553, -0.888985812664032, 16.227222442626953, 0.12487962, -0.16594504, 0.35036087
664, 23926075, -0.6310471296310425, -0.8868368268013, 16.218887329101562, 0.18561177, -0.18992698, 0.350523
665, 23942742, -0.634268581867218, -0.8851292133331299, 16.181598663330078, 0.032109424, -0.1247757, 0.34523582
666, 23959409, -0.6387507915496826, -0.879620373249054, 16.11227035522461, -0.1054602, -0.023308784, 0.3644085
667, 23976076, -0.6429272890090942, -0.8746351599693298, 16.02125358581543, -0.020076752, 0.032611027, 0.3777418
668, 23992743, -0.6470070481300354, -0.8721033930778503, 15.988134384155273, -0.017636102, -0.008014039, 0.3691473
669, 24009410, -0.6460024118423462, -0.8679304718971252, 15.940459251403809, 0.0029726664, -0.057705846, 0.3385887
670, 24026077, -0.633885383605957, -0.8590081930160522, 15.84424114227295, -0.19735426, -0.077245116, 0.35073185
671, 24042744, -0.620695948600769, -0.8450427055358887, 15.674982070922852, -0.08112738, -0.022627061, 0.3393221
672, 24059411, -0.6180344223976135, -0.8359379768371582, 15.538923263549805, -0.0056995177, 0.1394006, 0.3440609
673, 24076078, -0.6204146146774292, -0.8302724361419678, 15.47827434539795, -0.013966668, 0.053410996, 0.36542225
674, 24092745, -0.6210939288139343, -0.8279169797897339, 15.473180770874023, 0.09078824, 0.08752607, 0.34920788
675, 24109412, -0.6162640452384949, -0.8216647505760193, 15.466752052307129, -0.1287239, -0.037276547, 0.35216618
676, 24126079, -0.6083927750587463, -0.8186699748039246, 15.42325210571289, -0.024005068, -0.10371799, 0.35903072
677, 24142746, -0.6162474751472473, -0.8231806755065918, 15.406299591064453, 0.11615301, 0.013665596, 0.360754
678, 24159413, -0.6304482221603394, -0.8242866396903992, 15.431666374206543, -0.14755115, 0.052495204, 0.35098743
679, 24176080, -0.6358087658882141, -0.8183791637420654, 15.404337882995605, -0.2727618, 0.06842166, 0.36779976
680, 24192747, -0.6390600800514221, -0.814799427986145, 15.38284969329834, -0.27429223, 0.112584844, 0.34072018
681, 24209414, -0.6417811512947083, -0.8117859363555908, 15.343108177185059, -0.15331022, 0.0973193, 0.32999516
682, 24226081, -0.641057550907135, -0.8143398761749268, 15.342926979064941, 0.06175116, 0.023753686, 0.33941936
683, 24242748, -0.6363565921783447, -0.8164049386978149, 15.347867012023926, 0.016747296, -0.08897585, 0.36323452
684, 24259415, -0.6344729065895081, -0.8153852224349976, 15.341636657714844, 0.030288044, -0.024920207, 0.35857296
685, 24276082, -0.6344135999679565, -0.8123517632484436, 15.336901664733887, -0.07861328, -0.053148855, 0.35815334
686, 24292749, -0.6285578012466431, -0.8143380880355835, 15.326602935791016, 0.028908264, -0.030030174, 0.3296814
687, 24309416, -0.627848744392395, -0.8200510144233704, 15.324844360351562, -0.07911238, -0.05178404, 0.3489647
688, 24326083, -0.6353021264076233, -0.8284324407577515, 15.337986946105957, -0.04426786, 0.11011876, 0.34687996
689, 24342750, -0.6366669535636902, -0.8319730162620544, 15.33866024017334, -0.23699176, 0.0014458494, 0.36659527
690, 24359417, -0.6306204199790955, -0.8364769816398621, 15.289615631103516, -0.23685975, -0.12236657, 0.35690022
691, 24376084, -0.6380467414855957, -0.8377184867858887, 15.245076179504395, -0.22006431, -0.0061499276, 0.3346157
692, 24392751, -0.6506646871566772, -0.8441372513771057, 15.234893798828125, -0.008105753, 0.14109096, 0.33624363
693, 24409418, -0.6487894058227539, -0.8453617691993713, 15.263236045837402, -0.12907529, -0.053579763, 0.3247242
694, 24426085, -0.6318872570991516, -0.8451007604598999, 15.247405052185059, -0.07270356, -0.15415503, 0.36046028
695, 24442752, -0.616661787033081, -0.8478391766548157, 15.19620418548584, -0.049224157, -0.11324603, 0.36249638
696, 24459419, -0.6115628480911255, -0.8507500290870667, 15.151533126831055, -0.25282, -0.13157476, 0.31398106
697, 24476086, -0.6107552647590637, -0.8530622124671936, 15.101958274841309, -0.20224456, -0.06220048, 0.34197044
698, 24492753, -0.6063736081123352, -0.8550000786781311, 15.075685501098633, -0.22822477, -0.10661329, 0.37634373
699, 24509420, -0.5994422435760498, -0.8521295785903931, 15.075697898864746, -0.124292746, -0.072561495, 0.3756647
700, 24526087, -0.5775871872901917, -0.8647878766059875, 15.137256622314453, 0.38390228, 0.33910346, 0.42294216
701, 24542754, -0.6224951148033142, -0.7198648452758789, 16.265607833862305, 2.395171, 1.8615794, 0.41819382
702, 24559421, -0.517306923866272, -0.7864500880241394, 17.902210235595703, -2.0325663, -1.6641395, 0.2133236
703, 24576088, -0.5026587843894958, -0.8064559102058411, 18.056278228759766, -0.8010941, -0.5531223, 0.3715601
704, 24592755, -0.49922695755958557, -0.8067203164100647, 18.05677032470703, 0.009945195, 0.005862366, 0.36361408
705, 24609422, -0.4983687996864319, -0.80564945936203, 18.055591583251953, -0.019110937, -0.0059880167, 0.39531517
706, 24626089, -0.4970064163208008, -0.8054648041725159, 18.055830001831055, -0.032537278, 0.001294154, 0.35371017
707, 24642756, -0.49468734860420227, -0.8080695271492004, 18.05629539489746, 0.010610859, 0.012517774, 0.33576298
708, 24659423, -0.49398308992385864, -0.8069861531257629, 18.057172775268555, 0.009617958, 0.002858109, 0.36671066
709, 24676090, -0.49266374111175537, -0.8074072003364563, 18.05807876586914, -0.0019689116, -0.0026693838, 0.35730648
710, 24692757, -0.49122026562690735, -0.8058905601501465, 18.058378219604492, -0.013939092, 0.015122188, 0.3550415
711, 24709424, -0.4901267886161804, -0.805831253528595, 18.0587100982666, -0.027949296, 0.013775156, 0.352314
712, 24726091, -0.48958155512809753, -0.8058288097381592, 18.0589656829834, -0.005653055, 0.012297976, 0.384367
713, 24742758, -0.49001720547676086, -0.8056990504264832, 18.05864143371582, -0.006667105, 0.0111882305, 0.34922028
714, 24759425, -0.4896920323371887, -0.8057289719581604, 18.058256149291992, -0.014773543, -0.006908667, 0.3532505
715, 24776092, -0.4892306625843048, -0.8045220971107483, 18.05803680419922, -0.01898512, 0.0017006856, 0.36238766
716, 24792759, -0.48984089493751526, -0.8047248721122742, 18.05866241455078, -0.013750245, 0.008368608, 0.35359097
717, 24809426, -0.4901335835456848, -0.8056066036224365, 18.05818748474121, 0.0053640804, 0.0047441428, 0.36071205
718, 24826093, -0.49097272753715515, -0.8042398691177368, 18.058408737182617, 0.005144765, 0.0061288266, 0.3450699
719, 24842760, -0.4906088709831238, -0.8034960627555847, 18.059804916381836, -0.008139406, 0.008140914, 0.34396458
720, 24859427, -0.4897526502609253, -0.8035444617271423, 18.060321807861328, -0.007830301, 0.009608902, 0.35170078
721, 24876094, -0.488969624042511, -0.8029714822769165, 18.060636520385742, -0.025396632, 0.0034193152, 0.35975456
722, 24892761, -0.4903017282485962, -0.8025039434432983, 18.060321807861328, -0.012058846, 0.01327903, 0.3565197
723, 24909428, -0.4899052381515503, -0.8021815419197083, 18.060213088989258, -0.011936926, 0.0058485935, 0.3426981
724, 24926095, -0.4902692139148712, -0.8033485412597656, 18.059837341308594, -0.027189003, 0.010579947, 0.33689117
725, 24942762, -0.48997798562049866, -0.8025617003440857, 18.059675216674805, -0.012217749, 0.014722917, 0.34235573
726, 24959429, -0.4898005425930023, -0.8038773536682129, 18.060420989990234, -0.010906035, 5.691897E-4, 0.33983612
727, 24976096, -0.4903247058391571, -0.8032298684120178, 18.060321807861328, -0.005248154, 0.0042899717, 0.35521698
728, 24992763, -0.49005934596061707, -0.8030888438224792, 18.0601806640625, -0.016458845, 0.012243869, 0.34978104
729, 25009430, -0.4890922009944916, -0.8030622005462646, 18.059921264648438, -0.009541258, 0.002475963, 0.34387302
730, 25026097, -0.48949041962623596, -0.8032132983207703, 18.05936622619629, -0.024598641, 0.0031509162, 0.34855366
731, 25042764, -0.48954713344573975, -0.8045516014099121, 18.059446334838867, 4.3462793E-4, -0.0022555671, 0.35054588
732, 25059431, -0.4904586970806122, -0.8046844601631165, 18.060110092163086, -0.01598142, 0.004957898, 0.36408234
733, 25076098, -0.49102550745010376, -0.8043606281280518, 18.060840606689453, -0.011119393, 0.019779492, 0.33306885
734, 25092765, -0.4899192750453949, -0.8040122985839844, 18.06056785583496, -0.0025755328, 0.0038987854, 0.33878803
735, 25109432, -0.4894803762435913, -0.8035134673118591, 18.060548782348633, -0.011698724, 0.016708057, 0.36377335
736, 25126099, -0.48898595571517944, -0.8031595945358276, 18.059885025024414, -0.0033562006, 0.008440005, 0.33311653
737, 25142766, -0.48919618129730225, -0.8033096194267273, 18.060758590698242, -0.012764245, 0.009825046, 0.35489273
738, 25159433, -0.49054718017578125, -0.8043221831321716, 18.061248779296875, -0.01054634, -0.0014548564, 0.3451271
739, 25176100, -0.4901150166988373, -0.8039006590843201, 18.061471939086914, -0.020025874, 0.006843616, 0.3520956
740, 25192767, -0.49144551157951355, -0.8024877905845642, 18.06110382080078, -0.0091005815, -0.0043978826, 0.3546734
741, 25209434, -0.49184703826904297, -0.8017525672912598, 18.061738967895508, -5.524961E-5, -0.010920228, 0.35929203
742, 25226101, -0.4923984408378601, -0.8010382056236267, 18.061609268188477, -0.0098661, -0.0051567336, 0.38659477
743, 25242768, -0.4929606318473816, -0.8013063669204712, 18.0612850189209, -0.025742378, 0.01402112, 0.3478012
744, 25259435, -0.492133229970932, -0.8006559014320374, 18.060930252075195, -0.02753284, 0.014933298, 0.34976006
745, 25276102, -0.49224287271499634, -0.8009048700332642, 18.06136703491211, 0.011263782, 0.0077238814, 0.3416252
746, 25292769, -0.4910770058631897, -0.8002868294715881, 18.060962677001953, -0.014466603, 0.0034839192, 0.347476
747, 25309436, -0.4900526702404022, -0.799001932144165, 18.06197738647461, 6.6925364E-4, -0.007809815, 0.35238647
748, 25326103, -0.4888043701648712, -0.7982706427574158, 18.060895919799805, -0.0058908863, 0.003014301, 0.35399914
749, 25342770, -0.48882949352264404, -0.7977451086044312, 18.061613082885742, -2.0746891E-4, -2.64339E-5, 0.35402203
750, 25359437, -0.48782971501350403, -0.7969870567321777, 18.06138038635254, -0.0091209905, -0.011736501, 0.33979225
751, 25376104, -0.4875556528568268, -0.7978399395942688, 18.060997009277344, -0.016281236, 0.009812968, 0.37421513
752, 25392771, -0.48810046911239624, -0.798447847366333, 18.059951782226562, -0.0017449307, 0.0024972195, 0.34227848
753, 25409438, -0.4866860508918762, -0.7984108924865723, 18.060157775878906, -0.014268083, 0.013912141, 0.36445236
754, 25426105, -0.4877476096153259, -0.7986630201339722, 18.05998420715332, -0.014719627, 0.0024116803, 0.36952686
755, 25442772, -0.4887949824333191, -0.7993196845054626, 18.059877395629883, -0.0069001103, 0.0132536795, 0.34850693
756, 25459439, -0.48934730887413025, -0.7994189262390137, 18.060869216918945, -0.008570975, 0.0153115215, 0.35393238
757, 25476106, -0.48978903889656067, -0.7992406487464905, 18.0606689453125, -0.007319253, 0.0066592456, 0.36145115
758, 25492773, -0.4899803400039673, -0.798117995262146, 18.06047821044922, -0.010201488, 0.016091045, 0.35362053
759, 25509440, -0.4901600480079651, -0.799435555934906, 18.06031036376953, -0.019029457, -3.7408384E-4, 0.34785938
760, 25526107, -0.49077337980270386, -0.7999743223190308, 18.061019897460938, -0.0062706, 0.0035982337, 0.35600662
761, 25542774, -0.49040448665618896, -0.7990919947624207, 18.059865951538086, -0.012237349, 0.0028138955, 0.36609268
762, 25559441, -0.48953545093536377, -0.7999098896980286, 18.06023597717285, -0.0064539225, 0.008357086, 0.3476038
763, 25576108, -0.48980674147605896, -0.8003540635108948, 18.060895919799805, -0.008509718, 0.0011304482, 0.37819004
764, 25592775, -0.4900854527950287, -0.8007611036300659, 18.061786651611328, -0.024670647, -0.00358681, 0.350976
765, 25609442, -0.4904484152793884, -0.8010852932929993, 18.062641143798828, 1.0824313E-4, 0.0070232274, 0.3461876
766, 25626109, -0.49076327681541443, -0.8007367849349976, 18.06308937072754, 0.0011639646, -0.0056834384, 0.3371973
767, 25642776, -0.4902893006801605, -0.8024274706840515, 18.064271926879883, -0.02554365, 0.0012097465, 0.3566513
768, 25659443, -0.4910726249217987, -0.8013663291931152, 18.065542221069336, -0.004574151, 0.00459661, 0.35522556
769, 25676110, -0.48995259404182434, -0.8015207052230835, 18.065916061401367, -0.016789734, 0.0063821976, 0.34547615
770, 25692777, -0.49075400829315186, -0.8015213012695312, 18.066831588745117, -0.005725515, 0.008351132, 0.35380363
771, 25709444, -0.4907970726490021, -0.8031665086746216, 18.06658172607422, -0.015052012, -0.004329236, 0.3424387
772, 25726111, -0.49152496457099915, -0.804040253162384, 18.06789207458496, -0.0026637157, 0.007478331, 0.32526875
773, 25742778, -0.49071067571640015, -0.8019453287124634, 18.06846809387207, -0.0072574727, 0.003086651, 0.33102512
774, 25759445, -0.4902678430080414, -0.8016760349273682, 18.06818389892578, -0.009598861, -0.005265616, 0.35563183
775, 25776112, -0.4909222424030304, -0.8026323914527893, 18.067527770996094, 0.009512851, 0.007516877, 0.3678503
776, 25792779, -0.4892175793647766, -0.8026271462440491, 18.06768798828125, -0.021329258, 0.0149122095, 0.33451462
777, 25809446, -0.4897381663322449, -0.8019103407859802, 18.067964553833008, -0.006757453, 0.0012030865, 0.33903408
778, 25826113, -0.48978060483932495, -0.8025110363960266, 18.067092895507812, -0.027555393, -0.0072183963, 0.33754158
779, 25842780, -0.488999605178833, -0.8024891018867493, 18.066909790039062, -0.015289487, -0.0072211935, 0.3554325
780, 25859447, -0.488906592130661, -0.8015648722648621, 18.066287994384766, -0.0024926863, 0.010207886, 0.3641615
781, 25876114, -0.48854273557662964, -0.8012620806694031, 18.066505432128906, -0.009063157, 0.0021368084, 0.32665157
782, 25892781, -0.48840436339378357, -0.8013015985488892, 18.06683349609375, -0.01426378, -0.005232246, 0.34924316
783, 25909448, -0.4883002042770386, -0.8009030222892761, 18.06767463684082, -8.8693434E-4, 0.012016371, 0.36295223
784, 25926115, -0.4892686605453491, -0.8006250858306885, 18.067251205444336, -0.0067440215, 0.0044747014, 0.32602024
785, 25942782, -0.4887842535972595, -0.8003878593444824, 18.068574905395508, -0.010607205, -5.27529E-4, 0.34915638
786, 25959449, -0.4896351397037506, -0.8007944822311401, 18.069673538208008, -0.004220714, 0.0080085285, 0.3540001
787, 25976116, -0.4889826476573944, -0.8011861443519592, 18.069856643676758, -0.02090684, -0.0012608401, 0.3478651
788, 25992783, -0.4899587035179138, -0.8022640347480774, 18.070173263549805, -0.011101924, -0.006486021, 0.35258865
789, 26009450, -0.4888809323310852, -0.8026253581047058, 18.070781707763672, -0.012507855, -0.007238673, 0.3251505
790, 26026117, -0.4881425201892853, -0.804488480091095, 18.07149887084961, -0.015818173, 0.0024990356, 0.36790085
791, 26042784, -0.4881470501422882, -0.8042282462120056, 18.071762084960938, -0.019654717, 0.005495826, 0.35573864
792, 26059451, -0.48746809363365173, -0.8059062361717224, 18.0732364654541, -0.008801605, 0.012689251, 0.3448267
793, 26076118, -0.48772141337394714, -0.8058796525001526, 18.074010848999023, -0.0030276505, 0.008074228, 0.34998035
794, 26092785, -0.4878593981266022, -0.8059037923812866, 18.07486343383789, -0.003096339, 0.012672413, 0.3641472
795, 26109452, -0.48767781257629395, -0.8048720955848694, 18.074880599975586, -0.009626654, 0.010267034, 0.37130833
796, 26126119, -0.48730653524398804, -0.8049334287643433, 18.075176239013672, -0.023474008, 0.0149528105, 0.35258198
797, 26142786, -0.487456351518631, -0.8050431609153748, 18.075706481933594, -0.017686862, 0.0141367, 0.3427744
798, 26159453, -0.4871540069580078, -0.8054816722869873, 18.077003479003906, -0.0066331523, 0.005631835, 0.35378075
799, 26176120, -0.48542651534080505, -0.8055123686790466, 18.077104568481445, 0.0022364566, -0.0016095866, 0.35199642
800, 26192787, -0.48622041940689087, -0.8044420480728149, 18.07782745361328, -0.0075852824, -0.0021164618, 0.3591051
801, 26209454, -0.4866500198841095, -0.8040446639060974, 18.077272415161133, -0.007369634, -0.0040021357, 0.36738205
802, 26226121, -0.48712435364723206, -0.8042750954627991, 18.07731056213379, -0.010607876, 0.0017240113, 0.348691
803, 26242788, -0.4876558780670166, -0.804164707660675, 18.077577590942383, -0.0076306416, 0.013285275, 0.35229588
804, 26259455, -0.48770543932914734, -0.803582489490509, 18.076915740966797, -0.0056150015, 0.008190294, 0.35121918
805, 26276122, -0.4864305555820465, -0.8028630018234253, 18.077312469482422, -0.016293926, 0.008865771, 0.36184597
806, 26292789, -0.4854861795902252, -0.8032572865486145, 18.076202392578125, -0.009079152, 0.0025522613, 0.3686905
807, 26309456, -0.4857441186904907, -0.8033503890037537, 18.07705307006836, -3.2857104E-4, 0.0096578235, 0.35215378
808, 26326123, -0.4854552149772644, -0.8029077053070068, 18.077444076538086, -0.01573703, -0.0040793526, 0.362257
809, 26342790, -0.4851536750793457, -0.801812469959259, 18.07737922668457, 0.0019461901, 0.0010224007, 0.35541344
810, 26359457, -0.4848463237285614, -0.8007304668426514, 18.076881408691406, 0.0037243336, -9.072356E-4, 0.35827637
811, 26376124, -0.48468106985092163, -0.8005881905555725, 18.077823638916016, -0.010271181, 0.005742062, 0.3577118
812, 26392791, -0.4848576784133911, -0.8000721335411072, 18.077409744262695, -0.018561138, -0.002867996, 0.358346
813, 26409458, -0.4847881495952606, -0.8001857995986938, 18.077022552490234, -0.0017471868, 0.017394735, 0.3533497
814, 26426125, -0.48543205857276917, -0.8012920618057251, 18.077768325805664, -0.003458381, 0.015877327, 0.3451128
815, 26442792, -0.4854089617729187, -0.8018202185630798, 18.077272415161133, -0.008815344, 0.021101475, 0.35120773
816, 26459459, -0.48551520705223083, -0.8008084893226624, 18.077848434448242, -0.014878126, 0.009556172, 0.36472416
817, 26476126, -0.48501452803611755, -0.8004251718521118, 18.07811164855957, -0.0056810146, 0.008018934, 0.32943153
818, 26492793, -0.485146701335907, -0.8009676933288574, 18.077924728393555, -0.004829654, 0.009943617, 0.3457346
819, 26509460, -0.485824853181839, -0.80190110206604, 18.077693939208984, -0.003657091, 0.010346666, 0.34228897
820, 26526127, -0.4862750172615051, -0.8026680946350098, 18.07748031616211, -0.008604942, 0.0045932857, 0.35965633
821, 26542794, -0.4861827492713928, -0.80330890417099, 18.077669143676758, 0.0010195334, -0.003234533, 0.3394785
822, 26559461, -0.4860638976097107, -0.8030784130096436, 18.076416015625, -0.01857896, 0.006763977, 0.34253597
823, 26576128, -0.4863605499267578, -0.8031385540962219, 18.076627731323242, -0.0021737684, -0.0020064304, 0.33435535
824, 26592795, -0.48575863242149353, -0.8019194602966309, 18.076005935668945, -0.024249734, 0.010349233, 0.34169483
825, 26609462, -0.48732227087020874, -0.8024817705154419, 18.076669692993164, -0.0069565894, 0.0074265464, 0.36406612
826, 26626129, -0.48642536997795105, -0.8014519810676575, 18.076492309570312, -0.0056990148, 0.011895154, 0.36792374
827, 26642796, -0.48601630330085754, -0.80190509557724, 18.076374053955078, 0.0026500674, 0.0061560776, 0.34384155
828, 26659463, -0.48497167229652405, -0.8014156222343445, 18.077377319335938, -0.013465601, 0.015868794, 0.35138512
829, 26676130, -0.4854700565338135, -0.8026143908500671, 18.077713012695312, -0.0076880353, 0.0020453671, 0.35312557
830, 26692797, -0.48498019576072693, -0.8022714853286743, 18.07794761657715, -0.009964564, 3.1016613E-4, 0.32967758
831, 26709464, -0.48453202843666077, -0.801363468170166, 18.07840919494629, 3.9906142E-4, 0.006439967, 0.3444004
832, 26726131, -0.4852997362613678, -0.8003108501434326, 18.078250885009766, 6.9520215E-4, 0.0057610534, 0.34568405
833, 26742798, -0.48469412326812744, -0.7998865842819214, 18.078630447387695, -0.0071448223, 2.6072437E-4, 0.35576153
834, 26759465, -0.4849938750267029, -0.8006491661071777, 18.078107833862305, -0.004853137, 0.0019199728, 0.3542099
835, 26776132, -0.4843260645866394, -0.8008177280426025, 18.07818603515625, -9.281236E-4, 0.0073384787, 0.3377552
836, 26792799, -0.48392900824546814, -0.8006516695022583, 18.07815933227539, 0.0023164533, 0.013454746, 0.34175396
837, 26809466, -0.48440229892730713, -0.8009563684463501, 18.077064514160156, -0.010366517, 0.013693909, 0.3431902
838, 26826133, -0.4840264916419983, -0.8014077544212341, 18.076772689819336, -0.009122066, 0.009397697, 0.35442352
839, 26842800, -0.4825466275215149, -0.8024790287017822, 18.076818466186523, -0.0103732925, -8.32467E-4, 0.34794903
840, 26859467, -0.4888395667076111, -0.7986065149307251, 18.06166648864746, -0.01502028, 0.013583988, 0.3550291
841, 26876134, -0.4888139069080353, -0.7972978353500366, 18.06201171875, -0.008863316, 0.0067295977, 0.36899948
842, 26892801, -0.4892924129962921, -0.7967775464057922, 18.06222915649414, 0.004450625, 0.015957497, 0.35127068
843, 26909468, -0.4893400967121124, -0.7971667647361755, 18.061756134033203, -9.111645E-4, 0.016681623, 0.36444187
844, 26926135, -0.48906001448631287, -0.7967337965965271, 18.061492919921875, -0.00589945, 0.0029024538, 0.36476612
845, 26942802, -0.49027690291404724, -0.7983179092407227, 18.061342239379883, -0.0065448014, 0.0030759312, 0.3421116
846, 26959469, -0.4909403920173645, -0.7987858057022095, 18.061779022216797, -0.015542826, -0.0068837134, 0.3394642
847, 26976136, -0.49047723412513733, -0.7981148362159729, 18.061248779296875, 0.0024454622, -0.0072500235, 0.36282444
848, 26992803, -0.49121248722076416, -0.7977769374847412, 18.061437606811523, -0.014473882, -0.005577881, 0.36355114
849, 27009470, -0.49076148867607117, -0.7962701320648193, 18.06173324584961, -0.005471031, 0.022482928, 0.36488533
850, 27026137, -0.4915774166584015, -0.7950972318649292, 18.061838150024414, -0.008439675, 0.0131190615, 0.36376858
851, 27042804, -0.49180692434310913, -0.7945632338523865, 18.061908721923828, -0.0097119035, -0.01715693, 0.3408041
852, 27059471, -0.4924982786178589, -0.7951264977455139, 18.061601638793945, -0.0151614845, 0.014825541, 0.34637165
853, 27076138, -0.49223199486732483, -0.7960271239280701, 18.06095314025879, 0.0079307845, -0.0026890144, 0.35150337
854, 27092805, -0.4907074272632599, -0.7973935604095459, 18.06117057800293, -0.0053542876, 0.00510494, 0.3587675
855, 27109472, -0.4912824332714081, -0.7980656027793884, 18.061073303222656, -0.0071505774, 0.008807179, 0.33479595
856, 27126139, -0.49049216508865356, -0.7976042032241821, 18.060684204101562, 0.003067848, 0.018942568, 0.35711098
857, 27142806, -0.49098074436187744, -0.7974740862846375, 18.06005096435547, -0.008255235, 0.019408638, 0.33640003
858, 27159473, -0.49032193422317505, -0.7976906299591064, 18.059757232666016, -0.00592083, 0.010934103, 0.33244896
859, 27176140, -0.49095815420150757, -0.7977092266082764, 18.05831527709961, 8.116943E-4, 0.0064406586, 0.35610962
860, 27192807, -0.4899769723415375, -0.7982362508773804, 18.058382034301758, -0.013667573, 0.012347617, 0.32246113
861, 27209474, -0.489979088306427, -0.7977445721626282, 18.059099197387695, -0.026335923, 0.0035081913, 0.3560171
862, 27226141, -0.4903636574745178, -0.7977069616317749, 18.059261322021484, -0.0045636594, 0.00647838, 0.34559536
863, 27242808, -0.4914400279521942, -0.7969528436660767, 18.05991554260254, -0.0017331195, 0.0208208, 0.34332466
864, 27259475, -0.49202123284339905, -0.7971106171607971, 18.06102752685547, -0.009421889, 1.6606663E-4, 0.34576988
865, 27276142, -0.491870254278183, -0.7978021502494812, 18.060871124267578, -0.00585993, -0.0054922095, 0.3488121
866, 27292809, -0.49204251170158386, -0.7992663383483887, 18.060646057128906, -0.003758552, 0.008660081, 0.35788727
867, 27309476, -0.4913709759712219, -0.7997086644172668, 18.061294555664062, -0.0028080142, 0.008015887, 0.32031918
868, 27326143, -0.49127593636512756, -0.8008468747138977, 18.061601638793945, -0.008073218, 0.0048911376, 0.38403702
869, 27342810, -0.4897781312465668, -0.8022981286048889, 18.06199073791504, -0.0027570673, -0.0016411719, 0.33041382
870, 27359477, -0.490238755941391, -0.802678108215332, 18.061094284057617, -0.021955978, 0.017378617, 0.35232162
871, 27376144, -0.4902663826942444, -0.8032739162445068, 18.06102180480957, -0.012742047, 0.005775688, 0.36067295
872, 27392811, -0.4896825850009918, -0.8017245531082153, 18.06031036376953, -0.011867008, 0.00826329, 0.33522034
873, 27409478, -0.48989900946617126, -0.8019528985023499, 18.060930252075195, -0.008009985, 0.009549064, 0.33626938
874, 27426145, -0.48945188522338867, -0.8009955883026123, 18.060749053955078, -0.012477632, 2.0210461E-4, 0.34865093
875, 27442812, -0.4901559352874756, -0.8011578917503357, 18.061479568481445, -0.013920974, 0.015185501, 0.36228466
876, 27459479, -0.4906630218029022, -0.7999693155288696, 18.062692642211914, 0.0020502354, 0.0033781608, 0.34054756
877, 27476146, -0.4899059534072876, -0.7997843027114868, 18.06321907043457, -0.012728176, 0.0037587616, 0.37056255
878, 27492813, -0.4899483025074005, -0.8004937767982483, 18.063514709472656, -0.01922093, 0.009155067, 0.3575573
879, 27509480, -0.4897860288619995, -0.7995729446411133, 18.065019607543945, -0.011384325, -0.001167031, 0.33776188
880, 27526147, -0.4894871115684509, -0.8001114130020142, 18.064855575561523, 0.001219815, -0.01133643, 0.35540104
881, 27542814, -0.4898238778114319, -0.7994750738143921, 18.06430435180664, -0.02311537, 0.00734158, 0.3547821
882, 27559481, -0.4896242618560791, -0.8004074096679688, 18.063566207885742, -0.0018807357, 0.003723291, 0.3547182
883, 27576148, -0.49003079533576965, -0.8020341992378235, 18.064285278320312, -0.005242678, 0.018124504, 0.33117104
884, 27592815, -0.48919105529785156, -0.8028355240821838, 18.064481735229492, -0.0020029973, 0.013604766, 0.35441494
885, 27609482, -0.49014052748680115, -0.8010903000831604, 18.065410614013672, -0.010155556, 0.0042795553, 0.3528242
886, 27626149, -0.4897885024547577, -0.8011390566825867, 18.06403923034668, -0.018432306, 0.017272547, 0.33545208
887, 27642816, -0.49046987295150757, -0.8018895387649536, 18.06348419189453, -0.016994437, 0.0028463502, 0.35496616
888, 27659483, -0.4892726540565491, -0.8014401793479919, 18.063268661499023, 0.0030932517, 0.002970522, 0.33665657
889, 27676150, -0.4898373782634735, -0.8018391728401184, 18.06449317932129, -0.0059275427, 0.012002387, 0.34510708
890, 27692817, -0.4893600046634674, -0.8010984659194946, 18.063770294189453, -0.0066865645, -0.0013405154, 0.35041428
891, 27709484, -0.48960813879966736, -0.8007875680923462, 18.063579559326172, 0.007345956, 0.007505981, 0.3547058
892, 27726151, -0.4893345534801483, -0.7999835014343262, 18.06495475769043, 0.0021365115, -2.8853776E-4, 0.34343052
893, 27742818, -0.49018752574920654, -0.7999235987663269, 18.063953399658203, -0.0032649725, 0.0036126643, 0.33916092
894, 27759485, -0.491364449262619, -0.8000765442848206, 18.0645694732666, -0.0053997864, -0.0027930844, 0.34912872
895, 27776152, -0.49166396260261536, -0.800684928894043, 18.0645694732666, -0.010392207, 0.0066035176, 0.33803177
896, 27792819, -0.4917224645614624, -0.7996277213096619, 18.063941955566406, 2.9717444E-4, 0.0063309, 0.36186314
897, 27809486, -0.49171337485313416, -0.7993068099021912, 18.063467025756836, -5.145967E-4, 0.006704498, 0.3626089
898, 27826153, -0.491275817155838, -0.7998741865158081, 18.063690185546875, 0.0039408267, 0.010108387, 0.34685612
899, 27842820, -0.49037742614746094, -0.8004614114761353, 18.063739776611328, -0.010205651, 0.012585002, 0.32189846
900, 27859487, -0.4911988377571106, -0.8025237321853638, 18.06406021118164, -0.0118497135, 0.020739812, 0.35694218
901, 27876154, -0.4912010133266449, -0.8028693199157715, 18.062772750854492, 0.00255571, 0.020638663, 0.36646175
902, 27892821, -0.4908594489097595, -0.8044842481613159, 18.06377410888672, -0.007315411, 0.008504366, 0.36002445
903, 27909488, -0.4909907281398773, -0.8043681383132935, 18.063617706298828, -0.0012232445, 0.027962372, 0.38457584
904, 27926155, -0.49078404903411865, -0.8047102689743042, 18.062599182128906, -0.018478211, 0.008854979, 0.3600998
905, 27942822, -0.4909263551235199, -0.804503321647644, 18.063182830810547, -0.005847511, 0.01154582, 0.3212452
906, 27959489, -0.4899823069572449, -0.8043850660324097, 18.063480377197266, 0.0019324232, 0.009723429, 0.3467741
907, 27976156, -0.4894200265407562, -0.8042750358581543, 18.062942504882812, -0.014329227, -0.011610136, 0.3709383
908, 27992823, -0.4897899329662323, -0.8049267530441284, 18.0628662109375, -0.015811335, 0.0023780416, 0.34081173
909, 28009490, -0.4896237850189209, -0.8065361380577087, 18.06169891357422, -0.024547175, 0.005011723, 0.352911
910, 28026157, -0.48900356888771057, -0.8056321144104004, 18.061466217041016, -0.011677036, 0.009723114, 0.35054207
911, 28042824, -0.4892420172691345, -0.8049278855323792, 18.060733795166016, -0.014216772, 0.013347234, 0.33850765
912, 28059491, -0.4893634617328644, -0.804133951663971, 18.061031341552734, -0.010013932, -0.010402506, 0.329751
913, 28076158, -0.49028080701828003, -0.8045443296432495, 18.060888290405273, -0.011832035, -0.0041394043, 0.3480177
914, 28092825, -0.489220529794693, -0.8039615154266357, 18.06008529663086, -0.017140174, 0.016808212, 0.3502636
915, 28109492, -0.49002984166145325, -0.8042353391647339, 18.059268951416016, -0.009119922, 0.016109867, 0.3506384
916, 28126159, -0.4896840751171112, -0.8038381338119507, 18.06078338623047, -0.0071203127, 0.013058542, 0.33827305
917, 28142826, -0.4895920753479004, -0.8032380938529968, 18.061460494995117, -0.0033428317, 0.004613433, 0.3590517
918, 28159493, -0.49039873480796814, -0.8032686710357666, 18.060848236083984, -0.004661719, 0.0020175676, 0.36398506
919, 28176160, -0.4906734228134155, -0.8030059933662415, 18.060771942138672, -0.01618421, 0.0027257125, 0.35507584
920, 28192827, -0.4895126223564148, -0.802557647228241, 18.060508728027344, -0.006581786, 0.0051432145, 0.35046005
921, 28209494, -0.4898284077644348, -0.801621675491333, 18.060501098632812, -0.014853358, -0.0016585395, 0.37310028
922, 28226161, -0.4897492825984955, -0.8022862076759338, 18.060453414916992, -0.0054470175, -0.0115366075, 0.34301853
923, 28242828, -0.4911109507083893, -0.8013234734535217, 18.060895919799805, -0.004996318, -0.004883538, 0.36002064
924, 28259495, -0.49140608310699463, -0.801176905632019, 18.061296463012695, -0.006095799, 0.014705095, 0.35262108
925, 28276162, -0.4909394383430481, -0.8014163970947266, 18.06220245361328, -0.0058775875, -2.0053303E-4, 0.337121
926, 28292829, -0.49049878120422363, -0.802677571773529, 18.063440322875977, -1.1253877E-4, 0.0037556288, 0.3459854
927, 28309496, -0.49014100432395935, -0.8019301295280457, 18.064388275146484, -0.01572172, -0.0035747718, 0.36056995
928, 28326163, -0.4890674352645874, -0.8019570112228394, 18.0643367767334, -0.015091274, 0.0044118157, 0.3406601
929, 28342830, -0.4879547953605652, -0.8040992617607117, 18.065086364746094, -0.016474245, 0.009416098, 0.3609333
930, 28359497, -0.4887208044528961, -0.8048516511917114, 18.0657958984375, -0.012791214, 0.009668025, 0.35171604
931, 28376164, -0.48889482021331787, -0.8048912286758423, 18.065326690673828, -0.012725689, 0.011898492, 0.3170452
932, 28392831, -0.4885287582874298, -0.8040557503700256, 18.065723419189453, -0.012183167, -0.005119526, 0.3456688
933, 28409498, -0.48901358246803284, -0.8030878901481628, 18.065622329711914, -0.0052924305, 6.1959185E-4, 0.3609991
934, 28426165, -0.4890415370464325, -0.8027089834213257, 18.066652297973633, -0.022038922, 0.014334473, 0.3687353
935, 28442832, -0.49021127820014954, -0.8035222887992859, 18.067285537719727, -0.00543953, 0.001845103, 0.3488989
936, 28459499, -0.48973050713539124, -0.803202748298645, 18.067148208618164, -0.007931218, 0.018746343, 0.3459673
937, 28476166, -0.48977023363113403, -0.8033283948898315, 18.06772232055664, -0.0047021466, 7.3377555E-4, 0.34198666
938, 28492833, -0.4894905388355255, -0.8015438318252563, 18.066953659057617, -0.012946876, 0.004945671, 0.35347652
939, 28509500, -0.489350289106369, -0.8025891184806824, 18.067895889282227, -0.02361586, 0.014600708, 0.36200237
940, 28526167, -0.4894983172416687, -0.8031646013259888, 18.0673828125, -0.010233122, 0.009941022, 0.36040688
941, 28542834, -0.4897467792034149, -0.8032382130622864, 18.068119049072266, -0.01497812, 0.008989838, 0.34495354
942, 28559501, -0.49019408226013184, -0.8050670623779297, 18.067378997802734, -0.001544719, -0.008819196, 0.32983494
943, 28576168, -0.48924732208251953, -0.8031044602394104, 18.068269729614258, -0.010043883, -0.004552599, 0.32976913
944, 28592835, -0.4905650019645691, -0.8025617599487305, 18.067432403564453, 0.0055653467, 0.011910282, 0.34825897
945, 28609502, -0.49120399355888367, -0.8023681044578552, 18.067291259765625, -0.01122663, 0.010511959, 0.3489399
946, 28626169, -0.492217481136322, -0.8027458190917969, 18.068544387817383, -0.01208253, 0.009999479, 0.3603058
947, 28642836, -0.4920956492424011, -0.803146481513977, 18.06838035583496, -0.011591333, 0.009352456, 0.32833672
948, 28659503, -0.4921148121356964, -0.8031330704689026, 18.068880081176758, -0.01594086, 0.006474559, 0.34000683
949, 28676170, -0.49243152141571045, -0.8037858009338379, 18.06937599182129, 9.311061E-4, -8.597356E-4, 0.35151386
950, 28692837, -0.4919644296169281, -0.8044211864471436, 18.068681716918945, -0.020937415, -0.0028419322, 0.36079884
951, 28709504, -0.49257850646972656, -0.804817795753479, 18.068899154663086, -0.008415012, 0.011206681, 0.35836983
952, 28726171, -0.4905538558959961, -0.8044759631156921, 18.06730842590332, -0.014528538, -0.0018828207, 0.36664772
953, 28742838, -0.4894878566265106, -0.8037904500961304, 18.06734275817871, -0.002442878, -0.0055653714, 0.35234356
954, 28759505, -0.4895351529121399, -0.8048263192176819, 18.068464279174805, -0.007210109, 0.010558661, 0.35843945
955, 28776172, -0.4898298978805542, -0.8057848811149597, 18.06915855407715, -0.0037976177, 0.0056901965, 0.3812952
956, 28792839, -0.4903542697429657, -0.805194616317749, 18.06931495666504, -9.165498E-4, 0.0073873373, 0.34982204
957, 28809506, -0.4900088906288147, -0.8054659962654114, 18.06948471069336, -0.008410953, 0.0124356635, 0.33926392
958, 28826173, -0.48933130502700806, -0.8060201406478882, 18.069246292114258, -2.3039995E-4, 0.014094887, 0.36348915
959, 28842840, -0.48952698707580566, -0.8059088587760925, 18.06868553161621, -0.004243093, 0.007498996, 0.35181332
960, 28859507, -0.4863729178905487, -0.7972096800804138, 18.06191635131836, 0.0041498393, 0.0033809566, 0.35180855
961, 28876174, -0.4867994785308838, -0.7978418469429016, 18.062301635742188, -0.012902837, 0.015514502, 0.3631611
962, 28892841, -0.4875989854335785, -0.7968002557754517, 18.062698364257812, -0.009317556, 0.009801319, 0.36286926
963, 28909508, -0.4872495234012604, -0.7962489724159241, 18.06254005432129, 0.0013784114, 4.474415E-4, 0.35011578
964, 28926175, -0.48627036809921265, -0.7981299161911011, 18.06218910217285, -0.014683118, -0.0034797231, 0.3527546
965, 28942842, -0.4870302677154541, -0.7983641028404236, 18.06253433227539, -0.007202705, -0.0076063834, 0.3650732
966, 28959509, -0.4882908761501312, -0.7984996438026428, 18.06241226196289, -0.008819618, 0.012796752, 0.35980415
967, 28976176, -0.48853206634521484, -0.7978923916816711, 18.06142234802246, -0.0012169861, 0.01309449, 0.37353134
968, 28992843, -0.4891761243343353, -0.7991417050361633, 18.061582565307617, -0.0021205232, 0.015260274, 0.3614025
969, 29009510, -0.4894956946372986, -0.8000301718711853, 18.062368392944336, -0.009065413, -0.004049255, 0.3523922
970, 29026177, -0.48834481835365295, -0.8007310032844543, 18.06426239013672, -0.009008962, -4.2883406E-4, 0.3644457
971, 29042844, -0.4887322783470154, -0.8020577430725098, 18.065471649169922, -0.012092037, 0.010829826, 0.34952068
972, 29059511, -0.48873797059059143, -0.8031560778617859, 18.065065383911133, -0.016894625, -2.8283818E-4, 0.36207485
973, 29076178, -0.4886058568954468, -0.8042730093002319, 18.063980102539062, -0.008998143, 0.013177678, 0.3631897
974, 29092845, -0.4882573187351227, -0.8044992089271545, 18.063617706298828, -0.009821893, 0.0011054357, 0.36427593
975, 29109512, -0.4882422089576721, -0.8039191961288452, 18.062511444091797, -0.020374812, 0.009349725, 0.34775162
976, 29126179, -0.48908278346061707, -0.8043592572212219, 18.06202507019043, -0.0066729025, -0.0016722576, 0.35824203
977, 29142846, -0.48824840784072876, -0.8041354417800903, 18.06153678894043, -0.013129731, -0.015555706, 0.34984684
978, 29159513, -0.4892570674419403, -0.8045116066932678, 18.06179428100586, -0.011798522, 0.00548279, 0.35531807
979, 29176180, -0.48779425024986267, -0.8048462867736816, 18.0616397857666, -0.0047375737, 0.0027355, 0.32796955
980, 29192847, -0.48779505491256714, -0.8038005232810974, 18.062379837036133, 0.005321096, 0.00267091, 0.36010933
981, 29209514, -0.4880639910697937, -0.8040752410888672, 18.06241798400879, -0.011072315, -0.013566503, 0.34791756
982, 29226181, -0.4885852038860321, -0.8028457164764404, 18.063467025756836, -0.0125954235, 0.019265337, 0.3474455
983, 29242848, -0.48965317010879517, -0.802487850189209, 18.063329696655273, 0.006280756, 0.0038062476, 0.32711887
984, 29259515, -0.4886310398578644, -0.8024337887763977, 18.06431770324707, -0.0015480578, 0.018748647, 0.34301567
985, 29276182, -0.48848605155944824, -0.8024908304214478, 18.064289093017578, 0.004706526, 0.006315575, 0.3473425
986, 29292849, -0.48834726214408875, -0.8030223846435547, 18.063962936401367, -0.014274529, -0.0011050864, 0.32744217
987, 29309516, -0.4888147711753845, -0.8027693629264832, 18.064605712890625, 0.003316185, 0.0050839735, 0.3499403
988, 29326183, -0.48915040493011475, -0.8024812340736389, 18.065296173095703, -0.00440324, 0.0034451117, 0.3705368
989, 29342850, -0.4888046383857727, -0.8017497062683105, 18.06528663635254, -0.019049747, 0.02335641, 0.3416977
990, 29359517, -0.3695443868637085, -0.8876899480819702, 18.074230194091797, -0.015727308, -0.045901403, 0.36368942
991, 29376184, -0.28863435983657837, -0.919716477394104, 18.077957153320312, 9.659462E-4, 0.06732386, 0.35149956
992, 29392851, -0.25492173433303833, -0.9203900694847107, 18.084178924560547, 0.054336015, 0.015021546, 0.33568573
993, 29409518, -0.32816439867019653, -0.928653359413147, 18.39244270324707, 0.508647, 1.2526481, 0.40309048
994, 29426185, -0.3469180762767792, -0.936501145362854, 18.572689056396484, -0.092896104, -0.5889524, 0.33140945
995, 29442852, -0.36355653405189514, -0.9288144111633301, 18.659061431884766, -0.202055, -0.35889992, 0.38473034
996, 29459519, -0.42107194662094116, -0.8832170963287354, 18.744089126586914, -0.26167846, -0.2785436, 0.33397198
997, 29476186, -0.44505584239959717, -0.870843231678009, 18.738037109375, -0.03222585, -0.0394984, 0.36457253
998, 29492853, -0.45696574449539185, -0.8658086061477661, 18.709964752197266, -0.026332617, -0.090914786, 0.34612274
999, 29509520, -0.4724098742008209, -0.8856712579727173, 17.98145866394043, 0.07349771, -0.5917117, 0.36014366
1000, 29526187, -0.4794248640537262, -0.8910661935806274, 17.058137893676758, 0.028132752, -0.005898442, 0.36339378
1001, 29542854, -0.4863414764404297, -0.8969981074333191, 16.076745986938477, 0.04202865, -0.22922659, 0.36934757
1002, 29559521, -0.5037122964859009, -0.8998708128929138, 15.147539138793945, -0.087683484, 0.18757881, 0.34087944
1003, 29576188, -0.5123713612556458, -0.9084997177124023, 14.606588363647461, -0.15522343, 0.28046826, 0.35885143
1004, 29592855, -0.5143015384674072, -0.9196626543998718, 14.234145164489746, -0.014508973, 0.13358507, 0.33987713
1005, 29609522, -0.5097019672393799, -0.9219481348991394, 14.084370613098145, 0.057089485, 0.3054671, 0.3273344
1006, 29626189, -0.5222071409225464, -0.9101259112358093, 14.074613571166992, 0.039424304, 0.03698603, 0.34945965
1007, 29642856, -0.5655449032783508, -0.8916919231414795, 14.059484481811523, -0.023663435, -0.0057544983, 0.34510612
1008, 29659523, -0.5893937945365906, -0.8888142108917236, 13.854925155639648, 0.0025546344, -0.23643197, 0.3659973
1009, 29676190, -0.5641238689422607, -0.897707998752594, 13.182552337646484, -0.07496655, -0.027043806, 0.33970737
1010, 29692857, -0.5530714392662048, -0.9034866690635681, 12.656841278076172, -0.074126035, -0.15596573, 0.3502617
1011, 29709524, -0.5340989232063293, -0.9084908366203308, 11.971346855163574, 0.02063647, -0.045702167, 0.35004425
1012, 29726191, -0.5202975869178772, -0.908913791179657, 11.364340782165527, 0.031470478, 0.055983167, 0.35036945
1013, 29742858, -0.5141944289207458, -0.9083346724510193, 10.820130348205566, -0.021605963, 0.15066151, 0.35336876
1014, 29759525, -0.5139933824539185, -0.9103535413742065, 10.424829483032227, -0.09385198, -0.045640096, 0.35716343
1015, 29776192, -0.5128185153007507, -0.9104792475700378, 9.88129997253418, -0.10355204, -0.2226486, 0.34429836
1016, 29792859, -0.505047082901001, -0.9140810370445251, 9.071264266967773, -0.07817229, -0.2089712, 0.34454823
1017, 29809526, -0.48516249656677246, -0.91942298412323, 8.320735931396484, 0.07706271, 0.22864822, 0.3567667
1018, 29826193, -0.4640297591686249, -0.9277175068855286, 7.775105953216553, 0.012428151, 0.034713842, 0.3580284
1019, 29842860, -0.4620664715766907, -0.922549307346344, 7.600473403930664, 0.056988664, 0.34726456, 0.37439728
1020, 29859527, -0.465615451335907, -0.9201255440711975, 7.394368648529053, -0.14499743, -0.6166381, 0.3518839
1021, 29876194, -0.4368356168270111, -0.9280195236206055, 6.372514247894287, 0.003181644, -0.0071452446, 0.32684135
1022, 29892861, -0.41478705406188965, -0.9360846877098083, 5.68141508102417, -0.08932036, 0.019803254, 0.34885406
1023, 29909528, -0.38120800256729126, -0.9454950094223022, 4.662367343902588, -0.055824682, -0.098984346, 0.3435831
1024, 29926195, -0.3567899167537689, -0.9482664465904236, 3.7155041694641113, -0.017791618, 0.11693158, 0.3522663
1025, 29942862, -0.33899393677711487, -0.9485946297645569, 2.9427497386932373, 0.08381117, 0.19652417, 0.35380745
1026, 29959529, -0.3386671543121338, -0.9454672336578369, 2.602046251296997, 0.008284815, 0.0346631, 0.34489346
1027, 29976196, -0.3270036280155182, -0.9435806274414062, 2.01761794090271, -0.053800277, -0.081182405, 0.3476467
1028, 29992863, -0.3105108439922333, -0.944524347782135, 1.2831101417541504, -0.12032458, -0.054281585, 0.3590355
1029, 30009530, -0.2849441170692444, -0.946209192276001, 0.30782607197761536, -0.19689459, -0.0720956, 0.35282516
1030, 30026197, -0.2556309998035431, -0.9501284956932068, -0.6021298766136169, -0.06522357, -0.032479074, 0.34956074
1031, 30042864, -0.21903157234191895, -0.9525203704833984, -1.4574012756347656, 0.060661152, 0.0016921398, 0.33948326
1032, 30059531, -0.19730889797210693, -0.9507846236228943, -2.04132080078125, 0.059281126, 0.037895374, 0.3844967
1033, 30076198, -0.19095079600811005, -0.9452948570251465, -2.4917235374450684, -0.04313295, -0.033858415, 0.3692608
1034, 30092865, -0.18075215816497803, -0.9437010884284973, -3.188844919204712, -0.104198076, -0.09983311, 0.35120106
1035, 30109532, -0.17023326456546783, -0.9416947364807129, -3.956472158432007, -0.17970087, -0.18989299, 0.370656
1036, 30126199, -0.14627380669116974, -0.9467801451683044, -5.072025775909424, -0.27190214, -0.26429498, 0.34424686
1037, 30142866, -0.115337073802948, -0.9535326361656189, -6.252145767211914, 0.055601396, 0.15290695, 0.32351017
1038, 30159533, -0.08959715068340302, -0.9580406546592712, -7.024867534637451, 0.22024983, 0.2712726, 0.37939167
1039, 30176200, -0.0841597244143486, -0.9567677974700928, -7.4639763832092285, 0.09341518, 0.13248773, 0.34716797
1040, 30192867, -0.09387465566396713, -0.9541373252868652, -7.554249286651611, 0.049730424, 0.04471211, 0.36925697
1041, 30209534, -0.10265931487083435, -0.9519271850585938, -7.568669319152832, -0.074861996, -0.02759477, 0.3564787
1042, 30226201, -0.08730276674032211, -0.9536595344543457, -8.185150146484375, -0.747343, -0.53102446, 0.32030773
1043, 30242868, -0.054620616137981415, -0.9583728909492493, -9.209555625915527, 0.090312354, 0.078109, 0.33106995
1044, 30259535, -0.023200880736112595, -0.9591513276100159, -10.04780387878418, 0.053038236, 7.9153274E-4, 0.36257362
1045, 30276202, 0.00370516674593091, -0.9584535360336304, -10.539051055908203, 0.2661671, 0.12836613, 0.3840809
1046, 30292869, 0.026873543858528137, -0.9564431309700012, -11.078169822692871, -0.14330582, -0.14456598, 0.36762047
1047, 30309536, 0.04311572015285492, -0.9564946889877319, -11.468563079833984, 0.14256385, 0.15769729, 0.35386944
