PacketCounter,SampleTimeFine,Euler_X,Euler_Y,Euler_Z,FreeAcc_X,FreeAcc_Y,FreeAcc_Z
1,187115098,0.0829785168170929,-0.2131342142820358,4.3748779296875,0.00992814,-0.0020820752,0.3435936
2,187131765,0.0757350474596023,-0.242436334490776,4.337103843688965,0.0037975165,0.00910776,0.34829044
3,187148432,0.0808705165982246,-0.269787847995758,4.277398109436035,0.013592111,0.0061294753,0.32154846
4,187165099,0.0839719176292419,-0.3046064376831054,4.218613624572754,-0.004813189,0.0021656738,0.33334446
5,187181766,0.0840437114238739,-0.329790711402893,4.199839115142822,-0.01807157,0.004034806,0.33859158
6,187198433,0.0843400955200195,-0.3453341722488403,4.192968368530273,-0.01293147,-0.014467988,0.3455639
7,187215100,0.079016588628292,-0.3606536984443664,4.225828647613525,-0.010244883,-0.013351714,0.32377338
8,187231767,0.0709613934159278,-0.3753089606761932,4.231182098388672,-0.027085803,0.005802715,0.3110733
9,187248434,0.0661305114626884,-0.3886975944042206,4.220945835113525,-0.01150403,0.011262141,0.3450718
10,187265101,0.0625303462147712,-0.4020343720912933,4.250369548797607,-0.024568342,-0.0058097723,0.32594013
11,187281768,0.0578971542418003,-0.4146832823753357,4.262022495269775,-0.019647466,0.010163613,0.31752205
12,187298435,0.0548671409487724,-0.4290258586406708,4.2583417892456055,-0.023163343,-0.005821265,0.34685993
13,187315102,0.0496622957289218,-0.4435040354728699,4.263280868530273,-0.02894683,0.0036044847,0.3015051
14,187331769,0.0469511710107326,-0.4588283002376556,4.240809917449951,-0.041430864,0.017352145,0.3466053
15,187348436,0.0451169237494468,-0.4721875190734863,4.244757652282715,-0.023605011,0.008393131,0.31660366
16,187365103,0.0429521054029464,-0.4870626628398895,4.250496864318848,-0.041010477,1.4727409e-05,0.34178448
17,187381770,0.0407064221799373,-0.5034538507461548,4.257804870605469,-0.032533903,-0.008379869,0.36147594
18,187398437,0.0378839187324047,-0.5186547040939331,4.255098819732666,-0.049239222,0.0017346789,0.33734226
19,187415104,0.0349484160542488,-0.5334898233413696,4.250476360321045,-0.0480304,0.00045852066,0.32672787
20,187431771,0.0296692978590726,-0.547804594039917,4.251197814941406,-0.036521416,0.009856837,0.37451458
21,187448438,0.0273069459944963,-0.5622992515563965,4.254962921142578,-0.06526524,0.0040722415,0.304883
22,187465105,0.0238239411264657,-0.5774160027503967,4.264267444610596,-0.034401756,0.008083135,0.32856846
23,187481772,0.0200898461043834,-0.5914211273193359,4.268797874450684,-0.045453284,-0.0014141315,0.325284
24,187498439,0.0166278406977653,-0.6072543263435364,4.272021770477295,-0.049433127,-0.0018617717,0.33960342
25,187515106,0.0128621142357587,-0.6207603812217712,4.281827449798584,-0.06791245,0.005593083,0.3479128
26,187531773,0.009769232943654,-0.6360334753990173,4.282208442687988,-0.067392334,0.010660567,0.33127594
27,187548440,0.0057284021750092,-0.6505092978477478,4.287747383117676,-0.061749898,-0.00012398508,0.34618473
28,187565107,0.0019462720956653,-0.6637279987335205,4.29230260848999,-0.071044676,0.0071162274,0.3264866
29,187581774,-0.0013219447573646,-0.6757466197013855,4.298625946044922,-0.07198027,0.01017577,0.33728886
30,187598441,-0.0051201242022216,-0.6898910999298096,4.3001813888549805,-0.07660791,0.012062124,0.3492813
31,187615108,-0.0085920533165335,-0.7049741744995117,4.296221256256104,-0.07299544,0.016485577,0.3458519
32,187631775,-0.0113149154931306,-0.7192745208740234,4.296968460083008,-0.06834036,0.024539037,0.34541225
33,187648442,-0.0145454294979572,-0.7335142493247986,4.297133445739746,-0.061983537,0.009757272,0.35883522
34,187665109,-0.018211007118225,-0.7485416531562805,4.297218322753906,-0.07554404,0.004256364,0.33353615
35,187681776,-0.0220264568924903,-0.7623405456542969,4.294672966003418,-0.07147431,0.015352642,0.3453951
36,187698443,-0.0239055901765823,-0.7775591611862183,4.283271789550781,-0.08398304,0.014516623,0.32573032
37,187715110,-0.0262082256376743,-0.7915458679199219,4.286527633666992,-0.07690724,0.017673284,0.3278885
38,187731777,-0.0286954417824745,-0.8051241040229797,4.287063121795654,-0.09974239,0.01232742,0.34333897
39,187748444,-0.031862124800682,-0.8203465342521667,4.2852325439453125,-0.091297776,0.023704082,0.33751678
40,187765111,-0.0349264405667781,-0.8348478674888611,4.281962394714356,-0.08493933,0.0044785747,0.36675358
41,187781778,-0.0367871522903442,-0.8497827649116516,4.288499355316162,-0.111863755,0.012789362,0.3264494
42,187798445,-0.0395325049757957,-0.8642591238021851,4.29267168045044,-0.0963681,0.031073075,0.33640385
43,187815112,-0.0424766279757022,-0.8783339858055115,4.303752422332764,-0.111394234,0.020875882,0.33002758
44,187831779,-0.045533861964941,-0.8930250406265259,4.306207656860352,-0.09732714,0.012824838,0.34800434
45,187848446,-0.0482336431741714,-0.908746302127838,4.305229187011719,-0.103885874,0.020667959,0.3654909
46,187865113,-0.0507154017686843,-0.924164652824402,4.3063812255859375,-0.11482632,0.014069178,0.33616924
47,187881780,-0.0532588548958301,-0.9388657808303832,4.3128838539123535,-0.11567729,0.021001494,0.35009003
48,187898447,-0.0556929446756839,-0.9522178173065186,4.30727481842041,-0.12692907,0.004760708,0.34780502
49,187915114,-0.0588752441108226,-0.96736341714859,4.311300754547119,-0.1072803,0.015784044,0.35829926
50,187931781,-0.0611443668603897,-0.982128083705902,4.316279888153076,-0.13056141,0.019769339,0.33185863
51,187948448,-0.0639673471450805,-0.9955381751060486,4.310301780700684,-0.12564737,0.02517437,0.36469364
52,187965115,-0.0670612603425979,-1.0104002952575684,4.298610210418701,-0.12233976,0.02240644,0.33720207
53,187981782,-0.0705624222755432,-1.024728298187256,4.303521156311035,-0.12418074,0.014526914,0.34572506
54,187998449,-0.0742885991930961,-1.0390325784683228,4.302680492401123,-0.14506465,0.0062230527,0.34144402
55,188015116,-0.0773341581225395,-1.0522311925888062,4.294946670532227,-0.136754,0.020083671,0.32319355
56,188031783,-0.0815645903348922,-1.0674033164978027,4.295042514801025,-0.13404177,0.02030247,0.3515997
57,188048450,-0.0853387266397476,-1.082027554512024,4.301301002502441,-0.1301063,0.029416826,0.3310671
58,188065117,-0.0889227464795112,-1.0965577363967896,4.301248073577881,-0.14967307,0.021185407,0.355587
59,188081784,-0.092540793120861,-1.1105239391326904,4.300533771514893,-0.13945524,0.023169646,0.34031582
60,188098451,-0.0948540493845939,-1.1248935461044312,4.310546875,-0.14747612,0.0154340025,0.3419218
61,188115118,-0.0968087390065193,-1.1394203901290894,4.298696041107178,-0.15663897,0.020310221,0.32757187
62,188131785,-0.0992327481508255,-1.1527795791625977,4.296189308166504,-0.15030757,0.03344618,0.3202114
63,188148452,-0.1029901951551437,-1.1657649278640747,4.283681869506836,-0.15969527,0.027967906,0.34800148
64,188165119,-0.1058280020952224,-1.1785645484924316,4.276590347290039,-0.15690902,0.019226335,0.3455906
65,188181786,-0.1070559099316597,-1.1903111934661863,4.28398323059082,-0.15543383,0.021044107,0.3442812
66,188198453,-0.1096808612346649,-1.203726053237915,4.292374610900879,-0.16340852,0.022853438,0.32727337
67,188215120,-0.1125647723674774,-1.217953085899353,4.305830478668213,-0.15549237,0.016768543,0.33790207
68,188231787,-0.1153271421790123,-1.2318215370178225,4.302227973937988,-0.17373788,0.029614937,0.34644508
69,188248454,-0.1190414875745773,-1.2443187236785889,4.302853584289551,-0.17923431,0.035118874,0.31553173
70,188265121,-0.1233422383666038,-1.2565277814865112,4.296568393707275,-0.17445457,0.03888265,0.36218262
71,188281788,-0.1267466247081756,-1.267603874206543,4.296377182006836,-0.18267131,0.024678623,0.3465519
72,188298455,-0.1290175914764404,-1.2794874906539917,4.30049991607666,-0.17494826,0.039127447,0.31894112
73,188315122,-0.1327119469642639,-1.2923860549926758,4.300248622894287,-0.17812496,0.029240042,0.33726883
74,188331789,-0.1353032737970352,-1.3040800094604492,4.299343585968018,-0.18771932,0.038287096,0.31225872
75,188348456,-0.1375798285007476,-1.3191057443618774,4.305382251739502,-0.17757803,0.020281674,0.32207012
76,188365123,-0.1413606852293014,-1.3301572799682615,4.299088478088379,-0.17626871,0.03734088,0.35124588
77,188381790,-0.1443216353654861,-1.3416475057601929,4.292517185211182,-0.19302683,0.038588747,0.33867836
78,188398457,-0.1470609009265899,-1.3539390563964844,4.288411617279053,-0.17108734,0.040112562,0.33004856
79,188415124,-0.1508393734693527,-1.367221474647522,4.282386302947998,-0.20695104,0.03482533,0.32954693
80,188431791,-0.1532671451568603,-1.3786967992782593,4.279397010803223,-0.19732511,0.036603663,0.35877705
81,188448458,-0.1555997878313064,-1.389748454093933,4.271310329437256,-0.19815151,0.018690098,0.35095596
82,188465125,-0.1581203192472458,-1.4012846946716309,4.26951265335083,-0.19726421,0.03134364,0.34970665
83,188481792,-0.1602107286453247,-1.4149796962738037,4.269753932952881,-0.19216104,0.037638526,0.34803677
84,188498459,-0.1638198792934417,-1.425509691238403,4.276448726654053,-0.19666487,0.028886447,0.32910252
85,188515126,-0.1654332280158996,-1.438144326210022,4.2695088386535645,-0.20413536,0.026873583,0.3171234
86,188531793,-0.1679181158542633,-1.4483773708343506,4.263480186462402,-0.20409253,0.03976434,0.36391163
87,188548460,-0.1702623516321182,-1.4595181941986084,4.256723403930664,-0.20941329,0.020786835,0.30807114
88,188565127,-0.172482743859291,-1.469624161720276,4.252641677856445,-0.22396454,0.03899563,0.3487625
89,188581794,-0.1745625138282776,-1.4808131456375122,4.25156831741333,-0.22237013,0.03534314,0.3589239
90,188598461,-0.1758623868227005,-1.491312861442566,4.249297142028809,-0.20878454,0.026925357,0.31139374
91,188615128,-0.1785022467374801,-1.5017153024673462,4.249611854553223,-0.20343973,0.030362636,0.3360672
92,188631795,-0.1809154599905014,-1.511157751083374,4.245456695556641,-0.21337998,0.030156353,0.33625507
93,188648462,-0.1830458641052246,-1.5226161479949951,4.242995738983154,-0.22556897,0.039916255,0.33805084
94,188665129,-0.1840423941612243,-1.533677339553833,4.244217395782471,-0.21447012,0.03310378,0.3480301
95,188681796,-0.1863625049591064,-1.5445005893707275,4.232193470001221,-0.20582478,0.0402127,0.3308506
96,188698463,-0.1889202445745468,-1.5546050071716309,4.234480857849121,-0.22520556,0.036692295,0.340456
97,188715130,-0.1910333037376403,-1.5647876262664795,4.235726356506348,-0.22131112,0.032393716,0.36013985
98,188731797,-0.1927224844694137,-1.5727527141571045,4.235050678253174,-0.23135191,0.02466965,0.33872604
99,188748464,-0.1940058022737503,-1.580958366394043,4.235478401184082,-0.2419946,0.036792528,0.37782764
100,188765131,-0.1958398520946502,-1.590080738067627,4.226260185241699,-0.23551096,0.026288165,0.33622742
101,188781798,-0.1969177722930908,-1.600682020187378,4.222392082214356,-0.21920799,0.03656674,0.3517847
102,188798465,-0.198514774441719,-1.6094884872436523,4.226825714111328,-0.23031454,0.047210652,0.36462402
103,188815132,-0.2002086639404297,-1.6191110610961914,4.22321891784668,-0.24095316,0.04687467,0.31423283
104,188831799,-0.2019888460636139,-1.627552509307861,4.224704265594482,-0.24401346,0.044682484,0.3304224
105,188848466,-0.2035617530345916,-1.636258840560913,4.220762729644775,-0.23191158,0.04217047,0.3585806
106,188865133,-0.2055684179067611,-1.6447569131851196,4.220128059387207,-0.24417925,0.040839195,0.33886337
107,188881800,-0.2079888880252838,-1.6528935432434082,4.219197750091553,-0.24104129,0.043628193,0.33138847
108,188898467,-0.2097174823284149,-1.662292242050171,4.217709541320801,-0.2471756,0.01765887,0.32173634
109,188915134,-0.2103601545095443,-1.6711676120758057,4.21462345123291,-0.2356779,0.027584817,0.34280682
110,188931801,-0.2124025672674179,-1.6778610944747925,4.208373069763184,-0.256584,0.027333103,0.32957745
111,188948468,-0.2131580710411071,-1.6847015619277954,4.2065749168396,-0.25901514,0.03488909,0.31245995
112,188965135,-0.2150108963251114,-1.691439867019653,4.209442615509033,-0.24405114,0.044924285,0.36343956
113,188981802,-0.216820940375328,-1.6986711025238037,4.2188029289245605,-0.2571978,0.03299873,0.3534317
114,188998469,-0.2184389531612396,-1.70588481426239,4.217362403869629,-0.2514714,0.03359738,0.33834457
115,189015136,-0.2202622443437576,-1.7121566534042358,4.212660312652588,-0.24096085,0.04290223,0.34295464
116,189031803,-0.2218503504991531,-1.7188177108764648,4.206702709197998,-0.25535846,0.030055568,0.3416195
117,189048470,-0.2236655056476593,-1.72496497631073,4.208179950714111,-0.26089922,0.039971735,0.32859516
118,189065137,-0.2250437140464782,-1.7315609455108645,4.203182697296143,-0.25846425,0.036905464,0.3508463
119,189081804,-0.2254518717527389,-1.7368042469024658,4.19814395904541,-0.27092737,0.04739398,0.34852028
120,189098471,0.0913146510720253,-0.2548606991767883,4.0485005378723145,-0.0014398617,0.0041062096,0.3493557
121,189115138,0.0922667607665062,-0.2553217113018036,4.050052165985107,0.0056588086,-0.0007920391,0.34076118
122,189131805,0.0929352939128875,-0.2546715438365936,4.049624443054199,0.017375154,0.0013018949,0.3259306
123,189148472,0.093821682035923,-0.2531808018684387,4.048282623291016,0.019886,0.0029025262,0.33052635
124,189165139,0.0928522273898124,-0.2523045539855957,4.0479655265808105,-0.007582229,-0.00027156214,0.3374262
125,189181806,0.0921684578061103,-0.252459317445755,4.051103115081787,0.014262962,0.008849251,0.3562746
126,189198473,0.0925435051321983,-0.2517136335372925,4.051612377166748,-0.0004192806,-0.007955817,0.36119366
127,189215140,0.0931971818208694,-0.2524609565734863,4.051474571228027,0.008755447,-0.0039660907,0.35481644
128,189231807,0.0934038609266281,-0.2516961097717285,4.052285671234131,0.010934329,-0.0052550565,0.36002827
129,189248474,0.0939800515770912,-0.2517310082912445,4.049252510070801,-0.0006277536,0.0097521255,0.32840157
130,189265141,0.0945880115032196,-0.251304417848587,4.048028945922852,0.014606121,0.013005206,0.33657742
131,189281808,0.094904825091362,-0.2497496306896209,4.04961633682251,0.014905298,0.0038047922,0.3430395
132,189298475,0.0958268195390701,-0.2488385736942291,4.049414157867432,0.008160117,-0.0007718461,0.34674072
133,189315142,0.0959345623850822,-0.2480815649032592,4.050561904907227,0.014620528,-0.0025205163,0.33567715
134,189331809,0.0963505879044532,-0.2473594695329666,4.051907539367676,0.005484264,-0.00026749264,0.3398199
135,189348476,0.0960183963179588,-0.2479831427335739,4.050683975219727,0.009096244,-0.014587334,0.32502365
136,189365143,0.0965138375759124,-0.2478258907794952,4.0511794090271,0.01368918,-0.0052275313,0.3480978
137,189381810,0.096635952591896,-0.2471068352460861,4.0512237548828125,0.014429151,-0.0011014536,0.34035492
138,189398477,0.0972024425864219,-0.2463275790214538,4.052529811859131,0.0012629582,-0.00032655592,0.3548193
139,189415144,0.097113512456417,-0.2463413923978805,4.053452014923096,0.008733201,0.004084303,0.35970688
140,189431811,0.0975957214832305,-0.2465395033359527,4.05320405960083,0.01778255,0.005404463,0.34304142
141,189448478,0.0980912074446678,-0.2456457614898681,4.0514678955078125,0.0052077016,-0.0018920572,0.32350922
142,189465145,0.0983319357037544,-0.246281549334526,4.0551042556762695,0.005504773,0.0070646657,0.34705257
143,189481812,0.098731555044651,-0.2481751590967178,4.0528082847595215,-0.0019708937,-0.0015394158,0.32429218
144,189498479,0.0990436747670173,-0.2496921569108963,4.054281711578369,0.0033043474,0.005444888,0.35643768
145,189515146,0.0989824384450912,-0.2494463771581649,4.052572250366211,0.012403993,-0.00601318,0.3384161
146,189531813,0.0992716997861862,-0.2492277026176452,4.050050735473633,0.016544199,-0.007849022,0.34450436
147,189548480,0.0995492413640022,-0.2500079274177551,4.049943447113037,0.003972213,0.0042729643,0.33694458
148,189565147,0.0996269211173057,-0.2505234479904175,4.050859928131104,0.007724077,-0.007270477,0.32289028
149,189581814,0.0989037528634071,-0.2504287958145141,4.0519208908081055,0.031498283,0.004715486,0.31014824
150,189598481,0.0993523523211479,-0.2498492896556854,4.051743507385254,0.00026411025,-0.00605723,0.33388996
151,189615148,0.0988018065690994,-0.2503915429115295,4.050952434539795,0.0027516785,-0.015012537,0.31726837
152,189631815,0.0990038961172103,-0.250860184431076,4.051192283630371,0.012528767,0.0010238569,0.3642378
153,189648482,0.0979333072900772,-0.2500008344650268,4.0499114990234375,0.0015147106,-0.014431081,0.3543291
154,189665149,0.0984959378838539,-0.2509024441242218,4.050734043121338,0.0016844128,-0.0022487347,0.35171604
155,189681816,0.0998852178454399,-0.2506842911243438,4.051607131958008,-0.0039578206,0.0040846574,0.35818386
156,189698483,0.099821850657463,-0.2509826123714447,4.052343845367432,0.00027195064,0.004541172,0.35254955
157,189715150,0.0997888073325157,-0.2502767443656921,4.051870346069336,0.010029032,0.016069219,0.34928322
158,189731817,0.1000483483076095,-0.2528583407402038,4.051018714904785,-0.010145946,0.003738008,0.34583473
159,189748484,0.0986698269844055,-0.2526853680610657,4.05117130279541,0.015487181,0.020469552,0.3514471
160,189765151,0.0992572009563446,-0.2536715865135193,4.050327301025391,-0.0074781436,-0.020688737,0.34834385
161,189781818,0.1003721505403518,-0.2540514469146728,4.049972534179688,0.026251884,0.0065462673,0.3443346
162,189798485,0.1012938097119331,-0.253301590681076,4.051000118255615,-0.0052283104,-0.012326502,0.35017967
163,189815152,0.1019949465990066,-0.2560209333896637,4.051097869873047,0.020566499,0.015965538,0.32726192
164,189831819,0.1015590056777,-0.2560642659664154,4.0506367683410645,-0.010604297,-0.010165132,0.33900738
165,189848486,0.1034565195441246,-0.2576033771038055,4.04897403717041,0.005951422,-0.0042845155,0.35424614
166,189865153,0.1038773581385612,-0.2558759450912475,4.0509772300720215,0.013219052,0.0024836715,0.35569763
167,189881820,0.1039694175124168,-0.2570656836032867,4.050409317016602,0.006045776,-0.012915999,0.32173347
168,189898487,0.1043318286538124,-0.2567172348499298,4.051271915435791,0.0012121457,0.0019290295,0.36008263
169,189915154,0.1040454432368278,-0.2553277611732483,4.050295829772949,0.005601914,0.0019925446,0.35421848
170,189931821,0.1047765538096427,-0.2551587522029876,4.05073881149292,0.014406187,-0.01211485,0.34443188
171,189948488,0.1050343886017799,-0.2551383972167969,4.049474716186523,0.0020135338,-0.0046456633,0.3479452
172,189965155,0.1038014441728591,-0.2543663382530212,4.049246311187744,0.0015177473,-0.006154215,0.35041523
173,189981822,0.1049291640520095,-0.2542127072811126,4.047670841217041,0.0059810323,0.0038464642,0.3165636
174,189998489,0.1059195697307586,-0.2533636093139648,4.046756267547607,0.0073923087,-0.0029665304,0.3467102
175,190015156,0.1066682934761047,-0.2534775137901306,4.045138835906982,0.0050807325,-0.0018679065,0.32901192
176,190031823,0.1079741865396499,-0.2542999386787414,4.0476908683776855,0.0035609612,-0.0009306992,0.34741497
177,190048490,0.1079545468091964,-0.2540124356746673,4.047635555267334,0.025280306,0.016324898,0.34546375
178,190065157,0.1084798499941825,-0.2534211277961731,4.047429084777832,-0.005668175,-0.006508952,0.33580017
179,190081824,0.1085777655243873,-0.2519764900207519,4.047913074493408,0.021349788,0.00508294,0.320899
180,190098491,0.1077848300337791,-0.251851886510849,4.047221183776856,-0.0057283663,0.00093705015,0.326519
181,190115158,0.10703606903553,-0.25314462184906,4.045166492462158,-0.01157645,0.008030283,0.33665657
182,190131825,0.1070607602596283,-0.2531086802482605,4.044641017913818,0.015705314,0.0065029664,0.36799622
183,190148492,0.1072414889931678,-0.2534098029136657,4.044906139373779,0.007466934,-0.0018428975,0.3681345
184,190165159,0.10658660531044,-0.254071444272995,4.0440521240234375,-0.0003628244,0.0033309604,0.35756397
185,190181826,0.1070686429738998,-0.2548549473285675,4.043911457061768,-0.006078641,-0.0069202273,0.33471298
186,190198493,0.1082973554730415,-0.2559213042259216,4.043887615203857,0.016153863,-0.006193009,0.33451748
187,190215160,0.1075320616364479,-0.2566351294517517,4.043938159942627,-0.006287056,-0.002839816,0.35397053
188,190231827,0.1085007190704345,-0.2585393786430359,4.043451309204102,0.007998196,0.0003206014,0.33149624
189,190248494,0.1084329187870025,-0.259256899356842,4.043193817138672,-0.008425723,-0.00392827,0.33587933
190,190265161,0.1092255637049675,-0.2587877213954925,4.042279243469238,0.0016667501,-0.01177023,0.33354664
191,190281828,0.1098816022276878,-0.2580103874206543,4.043282508850098,-0.0035912474,-0.004019577,0.33603287
192,190298495,0.1096531152725219,-0.2574042081832886,4.043625354766846,0.010450165,-0.0096593,0.34258366
193,190315162,0.1093291267752647,-0.2573994696140289,4.042351722717285,0.005952852,-0.0022186316,0.34311867
194,190331829,0.109618954360485,-0.257306307554245,4.042276382446289,0.0073815957,0.000113471244,0.33896065
195,190348496,0.1095201894640922,-0.2580160200595855,4.042349815368652,0.0070252307,0.010230716,0.35690212
196,190365163,0.1101136282086372,-0.2569089531898498,4.0427117347717285,0.002179082,0.01420843,0.3434229
197,190381830,0.1104821264743805,-0.2580197751522064,4.042155742645264,0.0018690869,-0.008584183,0.3599453
198,190398497,0.1093923971056938,-0.2572062313556671,4.040492057800293,0.012264872,0.0006091444,0.34955978
199,190415164,0.1100206226110458,-0.2578144669532776,4.041451930999756,0.0049263146,-0.006735654,0.35349274
200,190431831,0.109720803797245,-0.2570885717868805,4.041422367095947,0.005865261,0.002818837,0.3262005
201,190448498,0.1091874912381172,-0.2574758529663086,4.041694164276123,0.0121797,0.0055776294,0.34634018
202,190465165,0.1093414947390556,-0.2573096752166748,4.042027950286865,0.00015455921,0.004668832,0.32548237
203,190481832,0.10883729159832,-0.2564360499382019,4.041867256164551,-0.009925972,-0.0024958574,0.3575077
204,190498499,0.1087682023644447,-0.2571757137775421,4.042208671569824,0.0007867464,0.004570797,0.3727703
205,190515166,0.1087539494037628,-0.2571970522403717,4.041947841644287,0.009984986,-0.015250101,0.33951664
206,190531833,0.1092911064624786,-0.2585534751415252,4.040110111236572,-0.003081458,-0.005172013,0.3418169
207,190548500,0.1095266491174697,-0.2584666609764099,4.0400919914245605,-0.0005387343,-0.00970979,0.32357788
208,190565167,0.1095758602023124,-0.2591603100299835,4.041042327880859,-7.632444e-05,-0.006845753,0.36787224
209,190581834,0.109916977584362,-0.2601313292980194,4.043483257293701,0.006376886,-0.0040324116,0.34751034
210,190598501,0.1098200604319572,-0.2617148756980896,4.043685436248779,0.004688818,-0.0044425894,0.35917568
211,190615168,0.1105194762349128,-0.2613013088703155,4.044879913330078,0.004317039,-0.0018063671,0.34282303
212,190631835,0.1096356213092804,-0.2620690166950226,4.04438591003418,0.010900004,0.00025917898,0.3448677
213,190648502,0.1098919957876205,-0.2625232934951782,4.044497966766357,0.010486278,-0.0019929681,0.350111
214,190665169,0.1098981350660324,-0.2638708651065826,4.0435004234313965,0.0116653945,-0.00755413,0.34404945
215,190681836,0.1096894964575767,-0.2659402191638946,4.04398775100708,0.003361097,0.00026258058,0.3302822
216,190698503,0.1105053275823593,-0.2669834196567535,4.043781757354736,-0.009257284,-0.003718861,0.33773422
217,190715170,0.1105475053191185,-0.2669719457626343,4.043264865875244,-0.0012349614,-0.0017949749,0.33071518
218,190731837,0.1108697056770324,-0.2665562927722931,4.043822288513184,0.0006013948,0.0058998168,0.33969307
219,190748504,0.110989786684513,-0.2670072615146637,4.044139862060547,-0.017550167,-0.005139451,0.33447075
220,190765171,0.110194019973278,-0.2679599225521087,4.044463157653809,-0.012035651,0.0073282914,0.30902195
221,190781838,0.111556626856327,-0.2673342227935791,4.043891429901123,-0.003009677,-0.0071260324,0.3369217
222,190798505,0.1123293042182922,-0.2676258683204651,4.044114589691162,-0.007194667,-0.006287248,0.34063625
223,190815172,0.1121113002300262,-0.2675293982028961,4.044559955596924,0.005021545,-0.0015138419,0.34297943
224,190831839,0.1125301569700241,-0.26873779296875,4.0452070236206055,0.012617495,0.010863616,0.33602905
225,190848506,0.1121420860290527,-0.2685359418392181,4.045656204223633,-0.0064476994,-0.001619216,0.3559227
226,190865173,0.1124695241451263,-0.2707912623882293,4.046587944030762,0.007473772,0.0008866244,0.34496212
227,190881840,0.1130835711956024,-0.2702705264091491,4.045547962188721,-0.002430665,-0.0032006009,0.34749413
228,190898507,0.1121829524636268,-0.2698135375976562,4.045882701873779,0.0039503593,-0.0011912228,0.34020233
229,190915174,0.1119142919778823,-0.2699579298496246,4.046830177307129,0.0108279195,-0.00928826,0.38208485
230,190931841,0.11248280107975,-0.2709688544273376,4.046854019165039,0.0040457975,-0.020177996,0.3436165
231,190948508,0.1124984323978424,-0.2696362733840942,4.046977996826172,0.013032721,0.00052513933,0.33203506
232,190965175,0.1131239458918571,-0.2700787484645843,4.047063827514648,-0.0028856797,-0.007059833,0.33332825
233,190981842,0.1121637374162674,-0.2704141438007355,4.046413421630859,0.007875465,-0.0026905355,0.34191227
234,190998509,0.1121633946895599,-0.2696020901203155,4.046401977539063,-0.0044127377,-0.006990875,0.33562374
235,191015176,0.1120373979210853,-0.269639104604721,4.046087741851807,-0.0018362253,-0.009173177,0.35136604
236,191031843,0.1119055524468422,-0.2689435184001922,4.045637607574463,-0.0020933961,-0.012434869,0.33860397
237,191048510,0.1116132140159607,-0.2692843079566955,4.045395374298096,0.010322797,-0.0055813063,0.37144375
238,191065177,0.1121847778558731,-0.2701100409030914,4.045254230499268,-0.009837835,-0.0028519738,0.36498356
239,191081844,0.1118493601679802,-0.2710561454296112,4.045256614685059,-0.0019006965,-0.0049060723,0.339715
240,191098511,0.0949312373995781,-0.2643454372882843,4.057926177978516,0.013724508,0.006126327,0.35748005
241,191115178,0.0943862721323967,-0.2638891935348511,4.057822227478027,0.00052245456,0.0029010533,0.33516502
242,191131845,0.0932733342051506,-0.2644651532173157,4.058236122131348,0.008249504,-0.0136714745,0.33382034
243,191148512,0.0921881347894668,-0.2648171782493591,4.058806419372559,0.0030994192,0.0013601881,0.36367416
244,191165179,0.0917834490537643,-0.2650449573993683,4.05896520614624,0.0005341017,-0.0014074018,0.33490276
245,191181846,0.0913287848234176,-0.264733076095581,4.058393478393555,-0.00019560003,0.0063680997,0.35686493
246,191198513,0.0908610746264457,-0.2661900520324707,4.059924125671387,0.005432542,-0.013234423,0.35818005
247,191215180,0.0908555835485458,-0.2660182416439056,4.059319496154785,0.0031436363,-0.00018319856,0.3371811
248,191231847,0.0909136906266212,-0.2654922604560852,4.058546543121338,6.279492e-05,-0.002250511,0.33700275
249,191248514,0.090516410768032,-0.2668712139129638,4.055473327636719,0.0030099354,-0.0079527935,0.33685493
250,191265181,0.0909804478287696,-0.2681459188461303,4.057220458984375,-0.008157161,0.0015275059,0.32454014
251,191281848,0.0912264585494995,-0.2679603397846222,4.055742263793945,0.0032369932,-0.0050610527,0.37210178
252,191298515,0.0907882004976272,-0.2683839499950409,4.053986549377441,-0.0019821757,0.00015143352,0.34445095
253,191315182,0.0897061675786972,-0.2693330645561218,4.052351474761963,-0.0011615218,0.0014887709,0.34884262
254,191331849,0.0905282273888588,-0.2704844176769256,4.052526950836182,0.0026007583,-0.0015851496,0.342968
255,191348516,0.0913217738270759,-0.2710662186145782,4.051580429077148,-0.0015415043,-0.008361288,0.35525036
256,191365183,0.0928084775805473,-0.2717719972133636,4.050904750823975,-0.0002999631,-0.006840998,0.3331852
257,191381850,0.0927406549453735,-0.2704037725925445,4.052586078643799,0.0033838586,0.0027049556,0.32788944
258,191398517,0.0926815569400787,-0.2722683548927307,4.051276683807373,-0.0023125296,-0.0015036135,0.36028194
259,191415184,0.0921901687979698,-0.272089272737503,4.049623012542725,0.00031516026,-0.0038767376,0.3244896
260,191431851,0.0913289040327072,-0.2720935940742492,4.049391746520996,0.0043000365,0.0027360823,0.31454182
261,191448518,0.0916726142168045,-0.2727651000022888,4.049283027648926,0.004316674,0.0132902805,0.3572445
262,191465185,0.0917460992932319,-0.2725233435630798,4.049317359924316,0.0076353177,-0.0028747905,0.3423748
263,191481852,0.0918554738163948,-0.2730201184749603,4.050417423248291,0.008452925,-0.005118845,0.3500967
264,191498519,0.0921275913715362,-0.2734879553318023,4.050833702087402,0.0105851265,-0.0010802486,0.34173203
265,191515186,0.0920487120747566,-0.2737438380718231,4.048652648925781,0.006935698,-0.012703463,0.35167503
266,191531853,0.0926000326871872,-0.2740392386913299,4.049496173858643,-0.00049225934,0.0062698084,0.33628845
267,191548520,0.0918676778674125,-0.2734529972076416,4.05295991897583,0.0015671279,0.0072318166,0.34519482
268,191565187,0.0922703146934509,-0.2731416821479797,4.0520782470703125,0.0050404477,-0.0054441113,0.3464718
269,191581854,0.0920741930603981,-0.2738092541694641,4.052169799804688,-0.0070642265,0.007368808,0.37090683
270,191598521,0.0928492099046707,-0.2749928534030914,4.05342435836792,0.013282249,0.0006126359,0.34039402
271,191615188,0.0928547009825706,-0.2732160091400146,4.053223609924316,0.0067624333,0.011383105,0.32623386
272,191631855,0.09318258613348,-0.2730841040611267,4.053730010986328,-0.0048532905,-0.0014226888,0.3636465
273,191648522,0.0933255404233932,-0.27371546626091,4.052515029907227,-0.0014023256,0.008638359,0.35851192
274,191665189,0.0927247703075409,-0.2745083570480346,4.052643299102783,-0.009462226,0.006805677,0.33159924
275,191681856,0.0918439105153083,-0.2747127711772918,4.052958965301514,0.0033808744,-0.0075613894,0.344635
276,191698523,0.0918825268745422,-0.2744887471199035,4.052279949188232,0.021119565,-0.016440196,0.3309574
277,191715190,0.0916267782449722,-0.2747111320495605,4.0521440505981445,0.0008556478,-0.0011725402,0.32225227
278,191731857,0.091898389160633,-0.2756026089191437,4.0521111488342285,-0.005068102,-0.002619902,0.3251648
279,191748524,0.0928180441260337,-0.2760080099105835,4.052767753601074,0.0043921326,0.014644537,0.32521534
280,191765191,0.0931987017393112,-0.2754285931587219,4.051229000091553,-0.0084018,0.0053275027,0.3701229
281,191781858,0.0932867005467414,-0.2742337584495544,4.051210880279541,-1.3307752e-05,0.0067839264,0.34290886
282,191798525,0.0918298512697219,-0.2750449180603027,4.052100658416748,0.0067998385,-0.00087043975,0.36314964
283,191815192,0.0918023437261581,-0.2730893790721893,4.051745891571045,0.007464723,-0.021872021,0.35520172
284,191831859,0.0922952890396118,-0.2735466361045837,4.051957607269287,0.00978567,-0.0018990067,0.35590553
285,191848526,0.0924597755074501,-0.2741304337978363,4.0514349937438965,0.0046224818,0.00079415727,0.3388691
286,191865193,0.0920696556568145,-0.2731063663959503,4.050161838531494,0.008987784,0.008880689,0.32892895
287,191881860,0.0914359018206596,-0.2731361985206604,4.049924850463867,0.009498995,-0.007189921,0.3353033
288,191898527,0.0919202268123626,-0.2730286121368408,4.050374984741211,0.0058223554,0.00056415633,0.33296204
289,191915194,0.0918095931410789,-0.2743563652038574,4.050296783447266,-0.0026564568,-0.007011658,0.3344288
290,191931861,0.0914646089076995,-0.2738002240657806,4.048998355865479,0.00068239553,0.008730146,0.3202715
291,191948528,0.0914199650287628,-0.2721624970436096,4.051739692687988,0.0038825965,0.0008880213,0.3530016
292,191965195,0.0909979939460754,-0.2727403938770294,4.0510077476501465,-0.0071662827,0.012160413,0.34575176
293,191981862,0.0915059074759483,-0.2732759714126587,4.051700115203857,-0.010559084,0.013178605,0.3319626
294,191998529,0.092353455722332,-0.274063229560852,4.053057193756104,0.0076488126,0.011379039,0.357769
295,192015196,0.0924120545387268,-0.2742081880569458,4.052371501922607,0.019425372,-0.0005258326,0.37602234
296,192031863,0.0926662683486938,-0.2743684649467468,4.051584720611572,-0.004262991,-0.0052740066,0.31681633
297,192048530,0.091621309518814,-0.2747301161289215,4.050963401794434,0.012274242,-0.0008541591,0.32212257
298,192065197,0.0917964428663253,-0.2743474245071411,4.051496505737305,0.007095412,-0.002182668,0.31754017
299,192081864,0.0918526202440261,-0.2741258144378662,4.051778316497803,0.015151533,0.004717339,0.37546444
300,192098531,0.0914600864052772,-0.2738031446933746,4.051542282104492,0.012278868,0.006678644,0.33842373
301,192115198,0.0912892445921897,-0.2735858261585235,4.052363395690918,-0.008111374,0.008020405,0.33229446
302,192131865,0.0900615751743316,-0.2723105847835541,4.05258321762085,0.022808028,-0.008788698,0.33659363
303,192148532,0.0893897116184234,-0.2720738053321838,4.052787780761719,-0.004423739,-0.0037208376,0.34605694
304,192165199,0.0897880718111991,-0.2713045179843902,4.053940296173096,0.0014759172,0.004794023,0.35730648
305,192181866,0.0904757976531982,-0.2705661952495575,4.053598880767822,0.018668523,0.007340701,0.35230446
306,192198533,0.0904025062918663,-0.2714334428310394,4.054221630096436,0.010182508,0.0073169377,0.36523914
307,192215200,0.0899182483553886,-0.2712034583091736,4.055359363555908,0.01113695,-0.010699016,0.3235941
308,192231867,0.0897291824221611,-0.2719849646091461,4.05631685256958,0.01458212,0.0025386803,0.31879997
309,192248534,0.0901548415422439,-0.2733421325683594,4.056483745574951,0.013306292,0.0017373976,0.32260418
310,192265201,0.089734099805355,-0.2733057141304016,4.056305408477783,-0.0036686282,-0.0009341139,0.36411572
311,192281868,0.0900876224040985,-0.2736419439315796,4.055907249450684,0.011211265,-0.011043525,0.33219814
312,192298535,0.0900703817605972,-0.2725597023963928,4.054198741912842,0.0149041945,0.009415943,0.33193874
313,192315202,0.0894264206290245,-0.2722654342651367,4.052664279937744,-0.0034796933,-0.005202847,0.32919598
314,192331869,0.0880380943417549,-0.2713328599929809,4.052489757537842,0.008389536,0.00086729403,0.36223793
315,192348536,0.0883557796478271,-0.2711696922779083,4.051995754241943,0.011883215,0.0032247254,0.36548233
316,192365203,0.0893563479185104,-0.2697836458683014,4.051776885986328,-0.0057328646,-0.006825466,0.33844852
317,192381870,0.088526040315628,-0.2703033089637756,4.0521559715271,0.0031623382,-0.0025720263,0.33808327
318,192398537,0.0888050571084022,-0.2710861265659332,4.051656723022461,0.013363787,0.0077939318,0.33435345
319,192415204,0.0886717811226844,-0.269915372133255,4.050962448120117,-0.0109092835,-0.008160168,0.34024906
320,192431871,0.0882530808448791,-0.2710632681846618,4.050808429718018,-0.005911523,-0.0058538094,0.35197926
321,192448538,0.087006576359272,-0.2703641653060913,4.049431324005127,0.003644672,-0.002483434,0.33918476
322,192465205,0.0867368057370185,-0.2704694867134094,4.049167156219482,-0.010670722,0.0065812794,0.35021687
323,192481872,0.0870675668120384,-0.2704169750213623,4.048956871032715,0.011445866,-0.0041683526,0.34653664
324,192498539,0.0864632353186607,-0.2697092592716217,4.050516128540039,0.0047836695,-0.0016136273,0.3241558
325,192515206,0.0859751254320144,-0.2704564929008484,4.050300598144531,0.004327934,-0.0067416225,0.3365879
326,192531873,0.0857102647423744,-0.2718859016895294,4.050297260284424,-0.00061094994,-0.0118164895,0.3250723
327,192548540,0.0843623504042625,-0.2718487679958343,4.05099630355835,0.012888431,-0.014762088,0.31166363
328,192565207,0.0852778255939483,-0.2728976905345917,4.050173282623291,0.009999902,0.008429064,0.36023712
329,192581874,0.0862907543778419,-0.2728777527809143,4.05004358291626,0.0027734728,-0.0045562387,0.33546734
330,192598541,0.0872550010681152,-0.2719287574291229,4.050806999206543,-0.0013215692,-0.0078935055,0.33028126
331,192615208,0.0880036503076553,-0.2719455063343048,4.051218986511231,0.007217031,-0.00619411,0.3490038
332,192631875,0.0874755531549453,-0.2722149789333343,4.052314758300781,0.009224443,0.0026364427,0.33155727
333,192648542,0.0882008969783783,-0.271585464477539,4.052279949188232,0.0032403076,0.017170548,0.34321594
334,192665209,0.0881551578640937,-0.2715590596199035,4.050581455230713,0.009296669,-0.003999044,0.34644032
335,192681876,0.087405614554882,-0.2709340155124664,4.051263809204102,0.003976233,-0.0142696,0.36015415
336,192698543,0.0879301205277443,-0.2717040777206421,4.05147123336792,0.010676547,-0.004986484,0.3305359
337,192715210,0.0876341387629509,-0.2721728384494781,4.051959991455078,-0.0035438172,-0.01212884,0.3451147
338,192731877,0.0871541425585746,-0.2715055048465729,4.050997734069824,0.0050385967,0.005526278,0.31889248
339,192748544,0.0868644639849662,-0.2727431356906891,4.049868106842041,0.014409805,0.007954509,0.35070705
340,192765211,0.0866505652666091,-0.2741449475288391,4.04915189743042,-0.009177886,0.015109216,0.32186794
341,192781878,0.0870279893279075,-0.2746526598930359,4.049204349517822,0.0067459457,0.0042007174,0.34246445
342,192798545,0.0865217894315719,-0.2756058275699615,4.049429893493652,0.0021395935,0.013828413,0.3704815
343,192815212,0.0867242291569709,-0.2759687900543213,4.048374176025391,0.018394949,0.0016248947,0.31585217
344,192831879,0.087570309638977,-0.276713490486145,4.047142505645752,-0.012117569,0.0018152326,0.34774113
345,192848546,0.0871195942163467,-0.2754169702529907,4.046521663665772,0.0087056635,-0.001979081,0.35578346
346,192865213,0.0875927656888961,-0.2750613987445831,4.046525955200195,-0.0014390585,-0.0040809195,0.35909462
347,192881880,0.0881570428609848,-0.276530772447586,4.0458760261535645,-0.0022379933,-0.0031732435,0.35809517
348,192898547,0.0894116684794426,-0.2766518890857696,4.045864105224609,0.0013483035,-0.0035966993,0.3485031
349,192915214,0.0898321494460105,-0.2783920168876648,4.046237945556641,0.00651303,-0.0004293169,0.3307171
350,192931881,0.0900539085268974,-0.2789708077907562,4.045246124267578,0.009273574,0.0119048385,0.32005882
351,192948548,0.0902983918786048,-0.2776864469051361,4.0442609786987305,-0.0007357872,-0.010682187,0.31700516
352,192965215,0.0902507975697517,-0.277385413646698,4.044831275939941,0.0027579963,-0.008661833,0.3517456
353,192981882,0.0903793275356292,-0.278389573097229,4.0440826416015625,-0.002426544,-0.0125976,0.34934235
354,192998549,0.0907448455691337,-0.2779249846935272,4.04475212097168,0.006312542,-0.0014143524,0.34861565
355,193015216,0.0910192802548408,-0.2787914276123047,4.043508529663086,-0.014800284,0.010747492,0.33541012
356,193031883,0.0908164605498313,-0.2771041393280029,4.043766498565674,-0.004951395,-0.012606732,0.3373413
357,193048550,0.0899986699223518,-0.2761561572551727,4.04452657699585,-0.0024921468,-0.0021212131,0.35501575
358,193065217,0.0905628427863121,-0.2765819728374481,4.046733379364014,0.00801057,-0.0013895207,0.35885715
359,193081884,0.0899450033903122,-0.2753980457782745,4.047982215881348,0.00097055436,-0.011066458,0.3414278
360,193098551,0.0951620787382125,-0.2717848718166351,4.052402019500732,0.0047742575,-0.007530396,0.31368542
361,193115218,0.0951985567808151,-0.271173357963562,4.052950382232666,-0.004759132,0.00400964,0.3565569
362,193131885,0.0953695625066757,-0.2715878188610077,4.052650451660156,0.0028893538,0.001277291,0.33611393
363,193148552,0.0958262234926223,-0.2713241279125213,4.051602840423584,-0.003475712,-0.002028822,0.355155
364,193165219,0.0968975499272346,-0.2715685367584228,4.05153226852417,0.009404086,-0.004436661,0.35826683
365,193181886,0.0968849584460258,-0.2722616195678711,4.051867961883545,0.010870743,0.004387493,0.34883595
366,193198553,0.0964801385998725,-0.2721045613288879,4.05226993560791,0.006609453,-0.005945112,0.3476305
367,193215220,0.0967548638582229,-0.2711887955665588,4.052222728729248,0.0030531643,0.007161604,0.35191917
368,193231887,0.0971930623054504,-0.2721669375896454,4.051644325256348,0.006522896,0.0055564856,0.36803055
369,193248554,0.0976757854223251,-0.2728681564331054,4.052701473236084,-0.005238929,-0.0060222833,0.34154606
370,193265221,0.0975227653980255,-0.2721392810344696,4.052421569824219,0.009508293,-0.0035025894,0.3221302
371,193281888,0.0983394905924797,-0.2719051241874695,4.052258014678955,0.01198119,0.0043977606,0.35539532
372,193298555,0.0986522510647773,-0.2719202041625976,4.052173614501953,0.008111307,-0.004755541,0.3304386
373,193315222,0.0980301797389984,-0.2717332243919372,4.052364349365234,0.00993107,0.0046127513,0.35424042
374,193331889,0.0980082899332046,-0.2718624472618103,4.0525336265563965,0.013433476,0.010060905,0.35930157
375,193348556,0.097685307264328,-0.2728509306907654,4.052882194519043,0.008223918,0.0073236786,0.36057377
376,193365223,0.0969438478350639,-0.2727732360363006,4.052363872528076,0.0015379786,-0.0063717407,0.32258987
377,193381890,0.0974353551864624,-0.2721298038959503,4.051398277282715,0.013503429,-0.009724301,0.3358593
378,193398557,0.09805379062891,-0.27304607629776,4.051408767700195,0.0072482983,0.002087115,0.36009502
379,193415224,0.0984817966818809,-0.2737026214599609,4.051726341247559,0.0110868625,-0.0070378,0.3293972
380,193431891,0.0975566431879997,-0.2730578482151031,4.05110502243042,0.0037068874,0.004172951,0.33573055
381,193448558,0.0962972939014434,-0.2730664908885956,4.051780223846436,0.0027531802,-1.8094071e-05,0.34606647
382,193465225,0.0964822620153427,-0.274393618106842,4.051457405090332,-0.017644577,-0.010821227,0.34557247
383,193481892,0.0963208079338073,-0.2735022008419037,4.052237510681152,0.0024581675,0.0031333067,0.32581997
384,193498559,0.0959409996867179,-0.2740257382392883,4.052804946899414,7.578486e-06,0.002051848,0.34757137
385,193515226,0.0971046835184097,-0.273189902305603,4.052290916442871,0.007931038,0.006146452,0.3311224
386,193531893,0.098513014614582,-0.2731004357337951,4.052490711212158,0.014415964,-0.010473314,0.33788776
387,193548560,0.0990555435419082,-0.2730562388896942,4.052906036376953,0.0059930007,-0.00034544538,0.3293476
388,193565227,0.098657801747322,-0.2721830904483795,4.051767826080322,-0.0022906866,-0.013107058,0.32932663
389,193581894,0.0995040014386177,-0.27228644490242,4.053242206573486,0.0024396474,-0.008807154,0.33524323
390,193598561,0.1000856980681419,-0.2714239060878753,4.054662227630615,0.0013504303,0.0041515534,0.35596752
391,193615228,0.1001732796430587,-0.2722170948982239,4.054989337921143,0.004049255,-0.004224746,0.34135246
392,193631895,0.1005372256040573,-0.2726726233959198,4.055334568023682,0.008216528,-0.0009229007,0.33538914
393,193648562,0.1010375767946243,-0.2720235288143158,4.054781436920166,0.0063857352,-0.0069599394,0.34698772
394,193665229,0.100699782371521,-0.2728178799152374,4.054692268371582,-0.0033531606,-0.0042678313,0.33220005
395,193681896,0.1003766283392906,-0.2726897597312927,4.055459022521973,0.013855161,-0.0024897868,0.3710642
396,193698563,0.1013516709208488,-0.2718236744403839,4.054322242736816,0.014950054,0.004245992,0.33634853
397,193715230,0.1023690849542617,-0.2725521624088287,4.054640769958496,0.009596522,-0.005418707,0.35151577
398,193731897,0.1022185608744621,-0.2725406587123871,4.054258823394775,0.005102628,-0.0023708376,0.324502
399,193748564,0.1022534593939781,-0.2732018232345581,4.053701400756836,-0.00047738702,-0.011604707,0.33392334
400,193765231,0.1022064089775085,-0.2731559574604034,4.05332612991333,0.011340955,-0.0057987184,0.36694622
401,193781898,0.1027919873595237,-0.2726963758468628,4.052783489227295,0.020484248,0.0021475735,0.3301401
402,193798565,0.1018149927258491,-0.2737939357757568,4.051311016082764,-0.0068704146,-0.002627198,0.33837605
403,193815232,0.1019768044352531,-0.2732792198657989,4.051919937133789,0.006776263,-0.0086884,0.34581947
404,193831899,0.1020139902830123,-0.2737532556056976,4.053380966186523,0.009014855,0.0046284897,0.33543968
405,193848566,0.1026997789740562,-0.273625761270523,4.054439067840576,-0.0023816354,-0.0034202237,0.35731697
406,193865233,0.1033037006855011,-0.2726829946041107,4.053281307220459,-0.0017607181,-0.0023067698,0.332757
407,193881900,0.1032952517271041,-0.2724440693855285,4.053001880645752,0.0072640087,-0.0045018895,0.32435894
408,193898567,0.1030503511428833,-0.2724229991436004,4.053925037384033,0.0029856197,0.0112216035,0.34650326
409,193915234,0.1029272824525833,-0.2729266285896301,4.055288314819336,0.009852994,0.00497232,0.3405428
410,193931901,0.1021323129534721,-0.2724605202674866,4.056297779083252,-0.008592699,0.016276594,0.34309387
411,193948568,0.1023469343781471,-0.2729241847991943,4.05610990524292,0.0064554294,-0.0008964834,0.35317898
412,193965235,0.1024875193834304,-0.2737767994403839,4.057764053344727,0.006822595,-0.0046366374,0.32886028
413,193981902,0.1023394390940666,-0.2731981873512268,4.0589118003845215,-0.007832796,0.002600506,0.37172508
414,193998569,0.1006981581449508,-0.2724311053752899,4.059162139892578,0.001229536,-0.016163101,0.35031605
415,194015236,0.0989172533154487,-0.2731758058071136,4.058704853057861,0.005067065,-0.008909601,0.34671307
416,194031903,0.0988493859767913,-0.2746022045612335,4.060062408447266,-0.00011767957,0.009326744,0.3656273
417,194048570,0.0989024937152862,-0.2734972238540649,4.05938720703125,0.017143618,0.0021911499,0.3229437
418,194065237,0.0975021794438362,-0.2748354077339172,4.058780193328857,0.026047288,0.0031132097,0.34019566
419,194081904,0.0981982052326202,-0.2749813497066498,4.05837869644165,0.003920866,-0.0033001225,0.34698486
420,194098571,0.0983050689101219,-0.2750071287155151,4.058797836303711,0.011450153,-0.0110434275,0.32679653
421,194115238,0.0985001549124717,-0.2747062146663666,4.057413101196289,0.0014473791,-0.012768763,0.3475771
422,194131905,0.0989521443843841,-0.2760921120643616,4.0577712059021,0.0069557545,0.0021679832,0.3519678
423,194148572,0.0990767702460289,-0.2756455540657043,4.056738376617432,0.012361767,-0.017491404,0.3292637
424,194165239,0.0988348945975303,-0.2763814926147461,4.05729866027832,0.00091045385,-0.0006276698,0.3511238
425,194181906,0.0982831642031669,-0.2757277190685272,4.05833625793457,0.013196648,0.002799155,0.3288536
426,194198573,0.098038338124752,-0.2762918472290039,4.0584211349487305,0.010901387,-0.00919301,0.3576975
427,194215240,0.0988495349884033,-0.2764540314674377,4.057408332824707,0.011590377,-0.004337999,0.36114216
428,194231907,0.0986632630228996,-0.2767834365367889,4.058617115020752,0.00010436309,0.00058588246,0.327981
429,194248574,0.0988066419959068,-0.2760953307151794,4.0585222244262695,0.013817632,-0.005727106,0.33514595
430,194265241,0.0978404134511947,-0.2751777470111847,4.05748176574707,0.005588512,-0.017790133,0.32628345
431,194281908,0.0988478884100914,-0.2756349444389343,4.058846473693848,0.014651099,-0.005955907,0.33107758
432,194298575,0.0984704568982124,-0.2752944231033325,4.059357166290283,0.0057325764,0.009255658,0.3473158
433,194315242,0.0980059280991554,-0.2753142416477203,4.06003999710083,-0.00419571,-0.004435076,0.3198986
434,194331909,0.0973087400197982,-0.2753680050373077,4.061277866363525,-0.0044184164,0.005945057,0.33304405
435,194348576,0.0958223342895507,-0.276246428489685,4.061933994293213,0.006335541,0.0029452294,0.35029793
436,194365243,0.0949834287166595,-0.2771740257740021,4.061924457550049,0.004408414,0.005306279,0.33113098
437,194381910,0.0944629982113838,-0.2771513164043426,4.0618205070495605,0.005077682,-0.00058323436,0.34303188
438,194398577,0.0951572284102439,-0.2760151624679565,4.062788486480713,0.009610804,-0.0045548836,0.33297825
439,194415244,0.0949887037277221,-0.2760881781578064,4.062393665313721,-0.01176256,-0.011286367,0.33454514
440,194431911,0.0954213291406631,-0.2755260169506073,4.063603401184082,0.005745362,0.01597108,0.32274437
441,194448578,0.0961180552840232,-0.2760750353336334,4.063069343566895,-0.004247677,-0.014724202,0.3273754
442,194465245,0.096064418554306,-0.2758229374885559,4.062147617340088,0.010878576,-0.005400653,0.33114624
443,194481912,0.0961793065071106,-0.2752424776554107,4.062061786651611,-0.0035644413,-0.008685289,0.36234283
444,194498579,0.096355140209198,-0.2750709354877472,4.063421726226807,-0.0036784243,-0.018133204,0.33312798
445,194515246,0.0963193252682685,-0.2757929563522339,4.063102722167969,-0.0042097704,-0.004023255,0.35267258
446,194531913,0.0968371555209159,-0.275464802980423,4.062763690948486,-0.0037191508,0.0037911106,0.3396845
447,194548580,0.096707098186016,-0.2753106653690338,4.062075614929199,0.011021141,0.0049372045,0.33906555
448,194565247,0.0973981618881225,-0.2752080261707306,4.061638832092285,0.0032367418,-0.004479799,0.35352516
449,194581914,0.0968755185604095,-0.2761326432228088,4.062268257141113,-0.0027637535,0.007590534,0.34961414
450,194598581,0.09609205275774,-0.2782767415046692,4.062562942504883,-0.0035732563,-0.0045888564,0.36228943
451,194615248,0.095478281378746,-0.278340607881546,4.061507225036621,0.0075071105,-0.0053537693,0.32562733
452,194631915,0.0961238667368888,-0.2778482139110565,4.060887336730957,-0.0005394555,0.002216336,0.32660103
453,194648582,0.097570963203907,-0.2775032520294189,4.061956882476807,-0.011665073,-0.000667965,0.3654089
454,194665249,0.0984160900115966,-0.2769146859645843,4.062357902526856,-0.00749579,-0.0084500685,0.3428173
455,194681916,0.1170629635453224,-0.3109202682971954,4.107165336608887,0.2552699,0.05112622,0.32909203
456,194698583,0.1542220115661621,-0.3980286121368408,4.149735927581787,0.6639283,-0.23324616,0.4790945
457,194715250,0.3280531764030456,-0.6917916536331177,4.161586761474609,0.5673569,-0.35098702,0.5783825
458,194731917,0.4468685090541839,-0.9030219912528992,4.171863079071045,0.027222557,0.6449283,0.06303501
459,194748584,0.3931099474430084,-0.8660443425178528,4.165673732757568,0.29232237,0.3841767,0.18153
460,194765251,0.3266893327236175,-0.8006624579429626,4.171852111816406,0.07722279,-0.37891644,0.48879337
461,194781918,0.4071667194366455,-0.9315332174301147,4.181424617767334,-0.14528902,-0.44600445,0.48696804
462,194798585,0.5416041016578674,-1.140717387199402,4.201210498809815,-0.20383584,-0.03300261,0.32612133
463,194815252,0.6915847659111023,-1.3607852458953855,4.217263698577881,-0.10392273,-0.13903707,0.4066658
464,194831919,0.9076483845710754,-1.6741290092468262,4.25930643081665,-0.1236567,-0.31518522,0.43985558
465,194848586,1.2033631801605225,-2.0972020626068115,4.260283470153809,0.4092891,-0.19134724,0.25244522
466,194865253,1.4036012887954712,-2.3644230365753174,4.23145055770874,0.82199603,1.0002627,-0.026573181
467,194881920,1.3135102987289429,-2.269592761993408,4.331190586090088,-0.04202154,0.5576602,0.22810555
468,194898587,1.3163236379623413,-2.288014888763428,4.293906211853027,0.053381097,-0.63974434,0.6560011
469,194915254,1.2927958965301514,-2.2787387371063232,4.303155899047852,0.12582693,0.4295338,0.1614523
470,194931921,1.268018364906311,-2.276072263717652,4.284374713897705,-0.495272,-0.18297634,0.37962818
471,194948588,1.2182202339172363,-2.237903356552124,4.305793762207031,-0.5604873,0.1374125,0.27568054
472,194965255,1.1887208223342896,-2.2025957107543945,4.330390930175781,-0.3264561,-0.2650966,0.41774654
473,194981922,1.1853798627853394,-2.186692237854004,4.34959077835083,0.46630412,0.043322608,0.3074255
474,194998589,1.1874520778656006,-2.1773386001586914,4.381739139556885,0.59005064,-0.002902211,0.3632679
475,195015256,1.195167064666748,-2.1776123046875,4.406493186950684,0.79470134,0.04942463,0.30120087
476,195031923,1.185450553894043,-2.178586006164551,4.413045406341553,0.65320104,0.1362804,0.3723383
477,195048590,1.1430330276489258,-2.1601128578186035,4.425790786743164,0.65289986,0.08906563,0.42118073
478,195065257,1.1266402006149292,-2.1848011016845703,4.412078857421875,0.5284039,-0.09908161,0.37578106
479,195081924,1.1115458011627195,-2.193758487701416,4.356157779693604,-0.89556235,-0.001444683,0.37716293
480,195098591,1.0607572793960571,-2.169809341430664,4.312343120574951,-0.9845315,0.07013209,0.14137936
481,195115258,0.9688684344291688,-2.048560619354248,4.254623889923096,-0.1761454,0.14881778,0.26149082
482,195131925,0.8179064989089966,-1.8322046995162964,4.270989894866943,0.26945952,0.09337033,0.38036442
483,195148592,0.7550386190414429,-1.6992559432983398,4.264175891876221,0.3841742,-0.48015416,0.4739685
484,195165259,0.8100972771644592,-1.697248101234436,4.2720232009887695,0.5438881,-0.28404182,0.4745922
485,195181926,0.9793095588684082,-1.8111863136291504,4.22714900970459,0.37629047,-0.34924284,0.39015484
486,195198593,1.085227370262146,-1.84880006313324,4.163822650909424,0.3113905,0.58761436,0.008412361
487,195215260,1.0603326559066772,-1.7660322189331057,4.160996913909912,-0.33654937,0.058422033,0.49645424
488,195231927,1.0669444799423218,-1.7525445222854614,4.1136651039123535,-0.26447347,-0.24735397,0.36908817
489,195248594,1.079755425453186,-1.759392499923706,4.024940490722656,-0.028751435,-0.022771116,0.31812096
490,195265261,1.0757102966308594,-1.7491929531097412,3.889495611190796,0.012703778,-0.23718879,0.3058033
491,195281928,1.0385701656341553,-1.7264351844787598,3.660131454467773,-0.13776919,-0.24568327,0.32131386
492,195298595,1.0095540285110474,-1.6760753393173218,3.38310170173645,-0.23527415,-0.12145591,0.4072399
493,195315262,1.0082778930664062,-1.658519983291626,3.201489925384521,0.039602444,0.19151275,0.2990961
494,195331929,1.015115737915039,-1.6341363191604614,3.0947859287261963,-0.011294934,0.063887365,0.4105997
495,195348596,1.028310775756836,-1.6438021659851074,2.954355239868164,0.40417713,-0.15470117,0.3081751
496,195365263,1.0591458082199097,-1.6567617654800415,2.755544900894165,0.25277764,-0.10516664,0.31245422
497,195381930,1.0453518629074097,-1.6292048692703247,2.5075042247772217,-0.28287777,0.10216426,0.29864025
498,195398597,1.033665418624878,-1.6204525232315063,2.338905572891236,-0.66774523,0.27435184,0.4420967
499,195415264,1.0231815576553345,-1.6472909450531006,2.270235061645508,-0.41860515,0.24060357,0.3214693
500,195431931,1.0061768293380735,-1.6398528814315796,2.2321338653564453,0.12505303,0.017628523,0.31232452
501,195448598,1.0031415224075315,-1.6531286239624023,2.1927578449249268,0.2473158,-0.15383467,0.3410902
502,195465265,1.018256902694702,-1.6873308420181274,2.140854597091675,0.13517863,-0.13456343,0.40003777
503,195481932,1.0476778745651243,-1.7196674346923828,2.1055290699005127,0.044329353,-0.09770872,0.35272598
504,195498599,1.1160932779312134,-1.7514777183532717,2.0456080436706543,-0.03717522,0.014339327,0.31400108
505,195515266,1.137881636619568,-1.7326281070709229,2.028287172317505,-0.10915141,0.16637594,0.2723999
506,195531933,1.1183899641036987,-1.6991592645645142,2.0258960723876958,0.09230691,-0.03622587,0.3587942
507,195548600,1.14245867729187,-1.702475666999817,2.0641565322875977,0.43432975,0.15425515,0.35939503
508,195565267,1.1501573324203491,-1.6963493824005127,2.1850333213806152,0.28514102,-0.08737004,0.34679985
509,195581934,1.193825602531433,-1.732647180557251,2.191734313964844,-0.32572252,-0.2298476,0.42922115
510,195598601,1.229063630104065,-1.7756181955337524,2.182401418685913,-0.46771806,-0.012156702,0.3129387
511,195615268,1.2614550590515137,-1.824259042739868,2.123776435852051,-0.25314635,0.12157205,0.27872086
512,195631935,1.249483346939087,-1.854466438293457,2.156614065170288,-0.22485703,0.014412751,0.3742571
513,195648602,1.2499877214431765,-1.907928824424744,2.153045654296875,0.059003662,-0.17716335,0.3536358
514,195665269,1.2798506021499634,-1.970710039138794,2.1462347507476807,0.2196252,0.14209253,0.26531792
515,195681936,1.2805980443954468,-2.0061633586883545,2.171151161193848,0.15232624,0.032350212,0.3540449
516,195698603,1.2810910940170288,-2.036052703857422,2.2002620697021484,0.12839802,-0.08552913,0.36798954
517,195715270,1.310999035835266,-2.09091591835022,2.2418901920318604,0.007958807,-0.1797902,0.39721775
518,195731937,1.389184594154358,-2.196040630340576,2.262856721878052,0.20940416,0.00455993,0.38198948
519,195748604,1.4731661081314087,-2.306416273117065,2.315460205078125,0.27051467,0.024982365,0.24564075
520,195765271,1.5108140707015991,-2.332831382751465,2.369992017745972,0.042641662,0.39840436,0.24191666
521,195781938,1.4614906311035156,-2.3138909339904785,2.433986186981201,-0.38405195,-0.053621184,0.34945297
522,195798605,1.4241927862167358,-2.3046932220458984,2.424166202545166,-0.11430439,-0.11260525,0.42316532
523,195815272,1.3979350328445437,-2.3058114051818848,2.42063045501709,0.27185705,-0.10730808,0.27891636
524,195831939,1.3882697820663452,-2.289479970932007,2.431362628936768,0.42035958,0.072862245,0.32354832
525,195848606,1.4195133447647097,-2.2586727142333984,2.4721994400024414,0.36645964,-0.32081422,0.48584652
526,195865273,1.4702942371368408,-2.225360631942749,2.48298716545105,0.28475568,0.11555294,0.30772686
527,195881940,1.4500906467437744,-2.193846702575684,2.4362146854400635,-0.28444922,0.08144046,0.34257603
528,195898607,1.4359585046768188,-2.1815431118011475,2.3921589851379395,-0.092282474,-0.08524921,0.35173798
529,195915274,1.393941044807434,-2.142326593399048,2.3328070640563965,0.03171256,0.14485435,0.26871204
530,195931941,1.3461164236068726,-2.0621228218078613,2.380377531051636,0.3317508,0.3633,0.22829247
531,195948608,1.2872285842895508,-1.9972792863845823,2.4008820056915283,0.34428096,-0.17835364,0.39887714
532,195965275,1.284632682800293,-2.0323240756988525,2.3401882648468018,0.028230943,-0.4204216,0.46197987
533,195981942,1.3119465112686155,-2.086933851242065,2.3080122470855717,-0.08410281,0.14721625,0.19763279
534,195998609,1.2738531827926636,-2.061448335647583,2.3897705078125,-0.21806334,0.032615624,0.41819572
535,196015276,1.2828962802886963,-2.088035821914673,2.3749725818634038,0.026709463,-0.1787948,0.37562275
536,196031943,1.2931607961654663,-2.090853691101074,2.416910171508789,0.50396186,0.056142703,0.32218552
537,196048610,1.310085415840149,-2.069054365158081,2.3961124420166016,-0.027914826,0.09615075,0.4393158
538,196065277,1.3244074583053589,-2.1058359146118164,2.380969285964966,-0.24071963,-0.11020218,0.46018982
539,196081944,1.373628854751587,-2.15453577041626,2.3817827701568604,0.037791807,-0.1458335,0.25659466
540,196098611,1.4195605516433716,-2.184727907180786,2.354214668273926,-0.053281464,0.1806776,0.22854042
541,196115278,1.3877060413360596,-2.084564447402954,2.352766513824463,0.3916921,0.25567254,0.2448082
542,196131945,1.3398840427398682,-1.974438428878784,2.359560966491699,-0.042467616,-0.30646506,0.5732956
543,196148612,1.416720628738403,-2.087367296218872,2.3512277603149414,-0.0019366699,-0.3986666,0.53109646
544,196165279,1.5443068742752075,-2.2806568145751958,2.308354139328003,0.010895334,-0.09605856,0.31936264
545,196181946,1.5971355438232422,-2.37758469581604,2.209364891052246,0.050579377,0.4188121,-0.009799957
546,196198613,1.4833377599716189,-2.2815821170806885,2.2298686504364014,-0.32805014,0.47356176,0.39569283
547,196215280,1.432598114013672,-2.262270927429199,2.2799885272979736,-0.05151222,-0.4384893,0.39754105
548,196231947,1.4505358934402466,-2.3255529403686523,2.292792797088623,0.09065916,-0.19282542,0.3217516
549,196248614,1.4310046434402466,-2.356147766113281,2.2900140285491943,0.16514008,0.4094688,0.21129131
550,196265281,1.3494436740875244,-2.318143367767334,2.351842164993286,-0.00010266229,0.025847038,0.2577219
551,196281948,1.2922786474227903,-2.2274887561798096,2.3856916427612305,0.15407234,0.014981459,0.23927498
552,196298615,1.23631489276886,-2.1625401973724365,2.391742706298828,-0.575756,-0.2985637,0.69086456
553,196315282,1.208356857299805,-2.1616106033325195,2.353477954864502,-0.14132969,0.045789514,0.32190895
554,196331949,1.171839714050293,-2.146085023880005,2.3046863079071045,-0.14562845,0.070127755,0.2714386
555,196348616,1.074357509613037,-1.9673800468444824,2.2841718196868896,0.3299781,0.25838056,0.12397385
556,196365283,0.9188411235809326,-1.6842386722564695,2.292432308197021,-0.0046127206,-0.07678044,0.43771935
557,196381950,0.880392849445343,-1.5622332096099854,2.255413770675659,0.1794973,-0.53128517,0.45581436
558,196398617,0.9325990676879884,-1.5673065185546875,2.279459238052368,0.3412807,-0.14963032,0.3442526
559,196415284,1.0466479063034058,-1.6519780158996582,2.271930932998657,-0.102301106,-0.03770614,0.5988903
560,196431951,1.1138527393341064,-1.7499489784240725,2.284881114959717,0.39088187,0.36591598,0.21394444
561,196448618,1.0801968574523926,-1.7088810205459597,2.3806416988372803,-0.24099936,-0.15543874,0.3033247
562,196465285,1.0372508764266968,-1.6854039430618286,2.37809681892395,-0.019043429,0.10624613,0.2576065
563,196481952,0.9978063106536864,-1.650992751121521,2.3879177570343018,-0.19367138,-0.010427599,0.45496082
564,196498619,0.9845552444458008,-1.632639765739441,2.387300729751587,0.15688947,0.118764,0.18417645
565,196515286,0.9312607645988464,-1.5432024002075195,2.466334342956543,0.022603363,0.08740461,0.08526993
566,196531953,0.8949102759361267,-1.5492929220199585,2.509117603302002,-0.3900129,-0.3427267,0.8532238
567,196548620,0.91469144821167,-1.6097743511199951,2.48189115524292,0.39284876,0.031599257,0.23303509
568,196565287,0.9448031187057496,-1.671656847000122,2.4705495834350586,-0.39541897,-0.14556846,0.5084286
569,196581954,1.0014045238494873,-1.6572468280792236,2.424303770065308,0.12799431,0.08119497,0.13618088
570,196598621,1.0157856941223145,-1.6093508005142212,2.428483724594116,-0.08776687,0.02035265,0.40234947
571,196615288,1.0763365030288696,-1.6636236906051636,2.4051737785339355,-0.13649188,-0.2678818,0.46486187
572,196631955,1.1415992975234983,-1.7183623313903809,2.3170530796051025,0.03834348,-0.26495028,0.2867403
573,196648622,1.2277978658676147,-1.797238826751709,2.170175075531006,-0.12465235,0.21041791,0.3157568
574,196665289,1.2527920007705688,-1.832704305648804,2.178419589996338,0.025416804,0.49810198,0.27955914
575,196681956,1.2460929155349731,-1.902127265930176,2.199647903442383,-0.32046583,-0.3339596,0.3968773
576,196698623,1.2565773725509644,-1.9812684059143064,2.189192056655884,-0.1954091,0.23898542,0.34062195
577,196715290,1.2492198944091797,-2.0176923274993896,2.310828447341919,-0.07688404,0.109414905,0.34066868
578,196731957,1.3116625547409058,-2.1142771244049072,2.3892810344696045,-0.09061499,-0.49207824,0.42515087
579,196748624,1.4545307159423828,-2.263122081756592,2.34116792678833,0.07020001,-0.18501805,0.30950165
580,196765291,1.4859503507614136,-2.2927136421203613,2.2942545413970947,-0.040940017,0.5969437,0.2689495
581,196781958,1.4067519903182983,-2.237161636352539,2.3972129821777344,-0.27711943,-0.11655206,0.48023224
582,196798625,1.4546630382537842,-2.2807211875915527,2.3170034885406494,-0.34283686,-0.42209953,0.3516674
583,196815292,1.474162220954895,-2.2745869159698486,2.264084577560425,-0.24961507,0.33227345,0.22398949
584,196831959,1.5049550533294678,-2.2454559803009038,2.164837598800659,-0.3376893,-0.3432809,0.4161873
585,196848626,1.5116536617279053,-2.20819091796875,2.04842209815979,-0.0017537385,0.3735067,0.21840191
586,196865293,1.4368820190429688,-2.1392085552215576,2.053018808364868,-0.34465036,0.025894506,0.38769436
587,196881960,1.4017248153686523,-2.123779535293579,1.989014267921448,-0.16416734,-0.2405552,0.39436436
588,196898627,1.393974781036377,-2.1301963329315186,1.9303185939788816,-0.014834443,0.016879462,0.32809067
589,196915294,1.3485383987426758,-2.0788064002990723,1.9575659036636357,-0.06080381,0.20297077,0.24255753
590,196931961,1.3022692203521729,-2.0100529193878174,1.969813585281372,-0.26425874,-0.25795305,0.35613346
591,196948628,1.2808361053466797,-1.9785822629928589,1.933701753616333,-0.25487977,-0.053527273,0.31730747
592,196965295,1.247672200202942,-1.9545340538024905,1.9420862197875977,-0.42254934,0.040783167,0.423522
593,196981962,1.2137914896011353,-1.939744472503662,1.968578100204468,-0.33906832,0.018597605,0.29750156
594,196998629,1.1409531831741333,-1.8814281225204468,2.031360387802124,-0.18878426,0.12471268,0.2857046
595,197015296,0.9707374572753906,-1.710561752319336,2.126916646957397,-0.12428743,0.26334977,0.19049072
596,197031963,0.714678168296814,-1.4278963804244995,2.182255268096924,-0.4415993,0.0066962386,0.2758112
597,197048630,0.4319524466991424,-1.0733410120010376,2.143338441848755,-0.28372964,-0.00046615023,0.29752922
598,197065297,0.1360291391611099,-0.7399424314498901,2.109198808670044,-0.38278493,0.0654369,0.36819267
599,197081964,-0.0861101672053337,-0.4880235195159912,2.126842975616455,-0.651039,-0.07576927,0.40353584
600,197098631,-0.2238192707300186,-0.3077290654182434,2.087111711502075,-0.43270218,-0.61564845,0.5754709
601,197115298,-0.1947537660598755,-0.3591248393058777,2.0828144550323486,-0.4637994,-0.17055346,0.35925293
602,197131965,-0.1741002351045608,-0.396468311548233,2.0863354206085205,0.19295034,0.066404365,0.316885
603,197148632,-0.1866685003042221,-0.3778551816940307,2.0856258869171143,0.12654676,0.08650446,0.30174732
604,197165299,-0.1956427693367004,-0.3669474422931671,2.086618185043335,-0.15203768,-0.09687599,0.37611675
605,197181966,-0.1863929629325866,-0.3803330361843109,2.086341381072998,0.001833868,0.01563861,0.32661247
606,197198633,-0.1901489347219467,-0.3767335712909698,2.087104797363281,0.07722886,0.05313598,0.33526897
607,197215300,-0.1941362172365188,-0.3713430762290954,2.0856356620788574,-0.056172196,-0.030401325,0.35022736
608,197231967,-0.1901612728834152,-0.3777565062046051,2.085196018218994,0.00033346735,0.0040055686,0.35102463
609,197248634,-0.1918492168188095,-0.3736963272094726,2.0860419273376465,0.023877826,0.015718034,0.33778763
610,197265301,-0.1929603666067123,-0.3723707497119903,2.0875701904296875,-0.041342765,-0.01780171,0.33675003
611,197281968,-0.1914587765932083,-0.3759397566318512,2.0861928462982178,0.009810291,0.0057161613,0.3424244
612,197298635,-0.1934462338685989,-0.3735516667366028,2.0853936672210693,-0.0046418994,-0.011160052,0.3377266
613,197315302,-0.1935421824455261,-0.373198539018631,2.085608720779419,-0.01833742,-0.0036781763,0.3531475
614,197331969,-0.1934059411287307,-0.3747947812080383,2.08457612991333,-1.556209e-05,-0.0009908504,0.32865047
615,197348636,-0.1936028897762298,-0.3738941252231598,2.085186243057251,-0.016598644,-0.0066248123,0.35827827
616,197365303,-0.193782553076744,-0.3743701577186584,2.085124969482422,-0.0065206746,0.0037502558,0.3572235
617,197381970,-0.1946359574794769,-0.3750469088554382,2.085306406021118,0.0027251013,0.0018695584,0.32819176
618,197398637,-0.1949585676193237,-0.37541064620018,2.0856969356536865,0.0013624826,-0.011848317,0.34009457
619,197415304,-0.19476118683815,-0.3749328851699829,2.086850643157959,0.0038929356,0.006850273,0.3426218
620,197431971,-0.1958679854869842,-0.3747686743736267,2.0885181427001958,0.009640047,-0.0027369459,0.31655025
621,197448638,-0.19623863697052,-0.3743846714496612,2.0896999835968018,-0.002851861,-0.005698475,0.33840656
622,197465305,-0.1964712888002395,-0.3754286766052246,2.0885119438171387,-0.0038095897,0.014156616,0.34016228
623,197481972,-0.1960992366075515,-0.3759203255176544,2.08830189704895,-0.017181592,-0.013839365,0.34902382
624,197498639,-0.196250632405281,-0.3757573962211609,2.089323043823242,-0.009013059,-0.0042663994,0.35039806
625,197515306,-0.1964680403470993,-0.3763560950756073,2.089640855789185,0.0033478644,-0.015977504,0.32228184
626,197531973,-0.1967383474111557,-0.3763317465782165,2.0903220176696777,0.0009510756,0.007089129,0.332057
627,197548640,-0.1957336068153381,-0.3756806254386902,2.090522050857544,-0.006924035,-0.005283462,0.34508324
628,197565307,-0.1971969753503799,-0.3747328519821167,2.089566230773926,-0.0029778248,-0.005842608,0.3245058
629,197581974,-0.1974668651819229,-0.3746911287307739,2.088153600692749,-0.008799936,-0.00028417227,0.35685444
630,197598641,-0.1970344930887222,-0.374454915523529,2.087199449539185,0.0046253386,-0.01579908,0.32820892
631,197615308,-0.1975396871566772,-0.3754357993602752,2.0867393016815186,-0.0021313392,0.0031226769,0.34240723
632,197631975,-0.1983348131179809,-0.3757323026657104,2.0865418910980225,-0.0038910427,-0.0021519058,0.3330202
633,197648642,-0.1991450041532516,-0.376283586025238,2.086800575256348,-0.012695215,-0.008404325,0.34238148
634,197665309,-0.1986798495054245,-0.3778920471668243,2.0858395099639893,0.007259233,-0.00045144552,0.35692692
635,197681976,-0.1981424391269683,-0.3784274756908417,2.0853536128997803,0.002523821,-0.00411568,0.36761856
636,197698643,-0.1985395401716232,-0.377525269985199,2.086190700531006,-0.01234955,-0.0043866634,0.32337666
637,197715310,-0.19749815762043,-0.3786074221134186,2.085578441619873,-2.269355e-05,0.00016602647,0.33082867
638,197731977,-0.1990706324577331,-0.3798112571239471,2.08406138420105,-0.010384281,-0.00055008807,0.32548523
639,197748644,-0.1988145411014557,-0.379518985748291,2.0833449363708496,-0.0048170253,-0.0053191143,0.34179497
640,197765311,-0.1991294920444488,-0.3794604539871216,2.083667278289795,-0.015349962,-0.0066921436,0.34593773
641,197781978,-0.2004461586475372,-0.3792489171028137,2.0835468769073486,0.0073417895,-0.008967835,0.33043194
642,197798645,-0.2008856534957885,-0.3792009651660919,2.0844554901123047,-0.0061084414,0.0063335095,0.3522129
643,197815312,-0.2008797973394394,-0.3801614046096802,2.0843989849090576,-0.021980518,-0.0038643575,0.36532116
644,197831979,-0.2006368488073349,-0.3800774812698364,2.085080623626709,-0.023116736,-0.0048024324,0.32831764
645,197848646,-0.2006960809230804,-0.3797926604747772,2.08501935005188,-0.0049623963,0.0065188687,0.35908127
646,197865313,-0.2008655369281768,-0.3799445927143097,2.0860629081726074,-0.000783818,0.0016563567,0.34664345
647,197881980,-0.1997185796499252,-0.3803772926330566,2.08585524559021,-0.0040078843,0.006556503,0.3269434
648,197898647,-0.1996099799871444,-0.38072469830513,2.086683511734009,0.0015177403,0.023299392,0.35073662
649,197915314,-0.1993265450000763,-0.3812654912471771,2.086789846420288,0.00046289183,-0.011873722,0.3644905
650,197931981,-0.1996846497058868,-0.3818422257900238,2.0861518383026123,0.00064847746,-0.006577087,0.34317017
651,197948648,-0.2004648000001907,-0.3814738988876343,2.086984395980835,0.0033820549,-0.011589283,0.35637188
652,197965315,-0.2002694904804229,-0.3801360130310058,2.086528778076172,-0.0054224664,-0.0009268436,0.3434677
653,197981982,-0.2003534734249115,-0.3780648410320282,2.086187601089477,-0.009863293,-0.006924419,0.3576603
654,197998649,-0.2002672553062439,-0.3782965540885925,2.086564302444458,-0.0008424657,-0.011273768,0.33072853
655,198015316,-0.2001664787530899,-0.3784872889518738,2.085931301116944,-0.014585816,-0.009631308,0.34002018
656,198031983,-0.2005784511566162,-0.3781391382217407,2.0855441093444824,-0.0074349036,-5.3782805e-05,0.35185432
657,198048650,-0.2006658613681793,-0.3768636286258697,2.084620952606201,-0.0002956378,-0.0008169486,0.34541702
658,198065317,-0.2004639655351638,-0.3774813413619995,2.085500955581665,-0.006669302,0.00047792133,0.3416195
659,198081984,-0.2011104375123977,-0.3777832388877868,2.085015296936035,0.0030062352,0.0069978423,0.35647106
660,198098651,-0.2004309445619583,-0.3783010840415954,2.085000276565552,-0.010371265,0.0074188183,0.35098457
661,198115318,-0.2000986784696579,-0.3781492412090301,2.084757089614868,-0.01226066,-0.0018520178,0.35023308
662,198131985,-0.199676901102066,-0.3778186440467834,2.0833280086517334,-0.002999991,-0.004858269,0.34335995
663,198148652,-0.1995052993297577,-0.378536969423294,2.082848072052002,-0.018431554,-0.010766167,0.36155415
664,198165319,-0.1992343515157699,-0.3779329657554626,2.083072662353516,0.00861722,0.009876642,0.3432722
665,198181986,-0.1996502578258514,-0.3782090544700622,2.082801818847656,-0.0030179033,-0.0019480342,0.33639145
666,198198653,-0.1993878632783889,-0.3785681128501892,2.084404706954956,-0.011939828,-0.0091064535,0.35760307
667,198215320,-0.1994792073965072,-0.3790385127067566,2.086294174194336,-0.013093429,-0.020027108,0.3444414
668,198231987,-0.1992959976196289,-0.3799647390842438,2.0872485637664795,-0.011428748,0.0026676054,0.33668423
669,198248654,-0.1984795033931732,-0.3799920976161957,2.087518215179444,-0.00183545,0.017687272,0.32289314
670,198265321,-0.1978035271167755,-0.3810993432998657,2.0874037742614746,-0.011165209,0.001132294,0.34897232
671,198281988,-0.1984234601259231,-0.3807226121425628,2.087446451187134,-0.0031339973,-0.011241606,0.35104656
672,198298655,-0.1985673457384109,-0.3803886175155639,2.0877859592437744,-0.006912943,-0.002917155,0.37469196
673,198315322,-0.1992838829755783,-0.380185067653656,2.087193489074707,-0.008794648,-0.0044297334,0.34927082
674,198331989,-0.1998897343873977,-0.3799880146980285,2.087739944458008,-0.015214204,0.006418035,0.3349514
675,198348656,-0.2000873386859893,-0.3808218836784363,2.087574243545532,0.0034963642,-0.0072876243,0.35815525
676,198365323,-0.1994794458150863,-0.3810770809650421,2.087982654571533,-0.0028066242,-0.0119587835,0.3438835
677,198381990,-0.1995431035757064,-0.3811908066272735,2.0887765884399414,-0.001249874,0.0032587508,0.34456348
678,198398657,-0.19903264939785,-0.3811950087547302,2.088593006134033,-0.014403667,0.002792543,0.3368988
679,198415324,-0.1998589932918548,-0.3815526962280273,2.088642835617065,0.00797424,-0.00017720736,0.33951664
680,198431991,-0.2006300985813141,-0.3822361826896667,2.089642286300659,-0.0056530843,0.0048656133,0.35180664
681,198448658,-0.2011570185422897,-0.3816238343715668,2.090524435043335,-0.00051337783,0.010836687,0.35176373
682,198465325,-0.2016516327857971,-0.3816585838794708,2.091305017471313,-0.009332335,-0.0090193115,0.3357401
683,198481992,-0.2011277973651886,-0.3815344274044037,2.0915772914886475,-0.008922344,-0.011902776,0.33636665
684,198498659,-0.201333075761795,-0.3808578550815582,2.091916561126709,-0.0035471506,0.008088234,0.32144833
685,198515326,-0.2018424868583679,-0.3821340799331665,2.091629981994629,-0.0022722012,-0.013739005,0.35046768
686,198531993,-0.2015965282917022,-0.3816516995429992,2.0918564796447754,-0.005996648,0.007297952,0.3476267
687,198548660,-0.2020117044448852,-0.3812434375286102,2.0921881198883057,-0.01031584,-0.008275693,0.35821724
688,198565327,-0.2016362249851226,-0.3808521926403045,2.0924501419067383,-0.010939685,-0.005673068,0.3501711
689,198581994,-0.202154666185379,-0.3805458843708038,2.0933034420013428,-0.009384912,0.00077615574,0.3196211
690,198598661,-0.2029919177293777,-0.3823755085468292,2.093904972076416,-0.013950926,-0.007977607,0.35698414
691,198615328,-0.2023360878229141,-0.3823729753494262,2.093376398086548,-0.0019405988,-0.0065071937,0.3436365
692,198631995,-0.202504351735115,-0.3817245364189148,2.092979907989502,-0.009221066,-0.0061588995,0.34579945
693,198648662,-0.202419102191925,-0.3804783821105957,2.0938758850097656,-0.007595417,0.01463407,0.34820843
694,198665329,-0.2032816559076309,-0.3797007501125335,2.0939278602600098,-0.0031099138,0.0028001957,0.33164024
695,198681996,-0.2042056024074554,-0.3798284530639648,2.094118118286133,-0.013612351,-0.0115403375,0.3298931
696,198698663,-0.2039935737848281,-0.3796477317810058,2.0952789783477783,-0.0027303225,0.0037562451,0.34854412
697,198715330,-0.2032956331968307,-0.3799130916595459,2.0961177349090576,-0.006097823,-0.005496573,0.32076168
698,198731997,-0.2036767899990081,-0.3781806528568268,2.0961737632751465,0.002584536,0.0017919663,0.32732964
699,198748664,-0.2040219902992248,-0.3770676553249359,2.0950963497161865,0.0074248593,0.005314665,0.347476
700,198765331,-0.2036884427070617,-0.3775191009044647,2.094434261322021,-0.008845539,0.0052699973,0.33508396
701,198781998,-0.2022802084684372,-0.377784788608551,2.0953736305236816,-0.013979363,-0.009579381,0.35568047
702,198798665,-0.2022895067930221,-0.3787228763103485,2.095425128936768,0.0031200277,0.012900969,0.35071278
703,198815332,-0.20233716070652,-0.3797250688076019,2.0948665142059326,5.35558e-05,-0.0153941875,0.3316145
704,198831999,-0.2017220705747604,-0.3812281489372253,2.0955052375793457,-0.007585326,-0.0030416325,0.3664713
705,198848666,-0.2039002329111099,-0.3822112381458282,2.0947179794311523,-0.03562123,0.0037355013,0.26069736
706,198865333,-0.2016000598669052,-0.3846283257007599,2.094970703125,0.008134461,-0.01576832,0.4543581
707,198882000,-0.20191590487957,-0.3824600875377655,2.09454345703125,-0.0066505563,-0.011397876,0.29436588
708,198898667,-0.2004490047693252,-0.3861363232135772,2.094198703765869,0.02317288,-0.026322765,0.37677765
709,198915334,-0.2027187496423721,-0.3852891027927398,2.096278667449951,0.0038843723,-0.00038711046,0.4016714
710,198932001,-0.2035087496042251,-0.3846392929553985,2.095313549041748,-0.035352893,0.0006212176,0.29215145
711,198948668,-0.2023931890726089,-0.3864540457725525,2.096769332885742,-0.02261304,0.004905507,0.36957264
712,198965335,-0.2026311755180359,-0.3861907124519348,2.096524238586426,-0.010206338,-0.0008971024,0.33847713
713,198982002,-0.2014064192771911,-0.3878962397575378,2.096052646636963,-0.0010861054,-0.016135884,0.34827614
714,198998669,-0.2010219842195511,-0.3873651623725891,2.095637559890747,0.0007265289,-0.011638107,0.33817387
715,199015336,-0.2023507356643676,-0.3869298696517944,2.0956735610961914,-0.0073361997,-0.008807963,0.34152603
716,199032003,-0.2013746351003646,-0.386440247297287,2.0964818000793457,-0.016805068,0.00043948935,0.341506
717,199048670,-0.2011199444532394,-0.3867716193199157,2.095271110534668,-0.009410715,-0.013693544,0.3359623
718,199065337,-0.2013905495405197,-0.3873196244239807,2.0937445163726807,0.0121729905,-0.00019187016,0.3541727
719,199082004,-0.2005209624767303,-0.387406587600708,2.0932388305664062,-0.002563222,0.00070916995,0.3479929
720,199098671,-0.2018142938613891,-0.3884696960449219,2.0938267707824707,-0.0073865233,-0.007826729,0.37159157
721,199115338,-0.2022257447242736,-0.3908172249794006,2.0940980911254883,-0.012145655,-0.012449111,0.34482956
722,199132005,-0.2032363563776016,-0.3906583786010742,2.0930840969085693,-0.0065675424,-0.009518194,0.32121944
723,199148672,-0.202074721455574,-0.3912711143493652,2.094209671020508,-0.00847093,0.00039633387,0.3382492
724,199165339,-0.2005992978811264,-0.39085453748703,2.094324350357056,-0.00080314843,-0.011576916,0.34993458
725,199182006,-0.1998283267021179,-0.3895829021930694,2.094834566116333,-0.0028130189,0.004379799,0.3689289
726,199198673,-0.1990565955638885,-0.3896779417991638,2.09507155418396,0.0063790143,0.0008855129,0.34124374
727,199215340,-0.2000310868024826,-0.3903478682041168,2.095001220703125,0.003158678,0.009304712,0.3286581
728,199232007,-0.1982845067977905,-0.3898788392543793,2.096372365951538,-0.0028133926,0.0138029475,0.34895325
729,199248674,-0.1987146437168121,-0.3901325762271881,2.0963292121887207,-0.010325284,-0.012242999,0.34504318
730,199265341,-0.1983419060707092,-0.3904874324798584,2.095916509628296,-0.010403604,-0.007139484,0.37244797
731,199282008,-0.1979918479919433,-0.3906538784503937,2.0938587188720703,-0.01747486,-0.0022631786,0.35009956
732,199298675,-0.1969717293977737,-0.3898984491825104,2.094237327575684,-0.020035977,0.004959891,0.34465218
733,199315342,-0.1968429535627365,-0.3911582827568054,2.095614433288574,-0.02526509,3.866425e-05,0.3309698
734,199332009,-0.1974783688783645,-0.3911240100860595,2.094854593276977,-0.009440617,0.00445996,0.33755684
735,199348676,-0.1990626156330108,-0.3904782235622406,2.096322059631348,0.0010862695,-0.0039247773,0.34374046
736,199365343,-0.1985382437705993,-0.3912467658519745,2.097717046737671,0.0043079886,-0.009465897,0.3891468
737,199382010,-0.1995043456554412,-0.3923326432704925,2.0971529483795166,-0.0004177946,0.00032402395,0.3572359
738,199398677,-0.1998767256736755,-0.3925385773181915,2.0971200466156006,-0.01251756,-0.006181916,0.35502243
739,199415344,-0.2005859166383743,-0.3920622169971466,2.097482919692993,-0.02118538,0.0066069593,0.34455395
740,199432011,-0.199215218424797,-0.3906731605529785,2.0982627868652344,-0.0034525243,-0.012360041,0.37362766
741,199448678,-0.198879599571228,-0.3901740610599518,2.098862886428833,-0.015761558,0.006910414,0.33655548
742,199465345,-0.1987307965755462,-0.3906835913658142,2.0992143154144287,-0.018336134,-0.002126911,0.32693768
743,199482012,-0.1981130987405777,-0.3907282948493957,2.099766254425049,-0.0019804295,0.0048547033,0.3515892
744,199498679,-0.1985260248184204,-0.3898864686489105,2.099348783493042,-0.009667838,0.011815067,0.3560791
745,199515346,-0.1983353644609451,-0.3886381089687347,2.0999579429626465,-0.0029247962,0.007139,0.33423424
746,199532013,-0.1993227154016494,-0.3881010413169861,2.0996744632720947,-0.00205758,-0.0014571298,0.344038
747,199548680,-0.1996992230415344,-0.3881526291370392,2.100494861602783,-0.0058475025,-0.010813766,0.3638153
748,199565347,-0.2006924450397491,-0.3882964551448822,2.101002693176269,-0.0063738106,-0.0034635812,0.3480816
749,199582014,-0.201155424118042,-0.3886964023113251,2.0999794006347656,-0.012720748,-0.0016764101,0.36663532
750,199598681,-0.2021167576313018,-0.3891843557357788,2.100403070449829,-0.004915301,-0.002976618,0.32253742
751,199615348,-0.2024903148412704,-0.388507068157196,2.100174903869629,0.00794628,-0.0067675724,0.3361063
752,199632015,-0.2029871642589569,-0.3884143233299255,2.100031614303589,-0.016746178,0.0041595115,0.363204
753,199648682,-0.202435553073883,-0.3889559805393219,2.0994865894317627,-0.00047481136,-0.0061466726,0.34079456
754,199665349,-0.2019933015108108,-0.3882054686546325,2.098482608795166,-0.014819941,-0.010832041,0.34375477
755,199682016,-0.2031076848506927,-0.3871984481811523,2.0981674194335938,-0.01554751,0.004749177,0.35111427
756,199698683,-0.2037144303321838,-0.3879924118518829,2.097177028656006,-0.013314326,-0.004400572,0.34615326
757,199715350,-0.2041749209165573,-0.3888710141181946,2.097689151763916,-0.007636572,-0.010414952,0.34328842
758,199732017,-0.2046840488910675,-0.3890328109264374,2.0977258682250977,0.0031640844,-0.011098763,0.33087635
759,199748684,-0.2046287953853607,-0.3880798518657684,2.098613739013672,-0.011481024,-0.0048643,0.33163834
760,199765351,-0.2040123343467712,-0.3868751525878906,2.0982372760772705,-0.0144184455,-0.009461029,0.346982
761,199782018,-0.2039623707532882,-0.3873730897903442,2.0973525047302246,-0.007529266,-0.00088725216,0.3368435
762,199798685,-0.2038496732711792,-0.3873181939125061,2.097072124481201,-0.009846568,-0.0026664676,0.33375072
763,199815352,-0.2041908502578735,-0.3865143954753876,2.0967276096343994,-0.0024917468,-0.0013769586,0.33446598
764,199832019,-0.205443188548088,-0.3874702453613281,2.097024440765381,-0.009791318,0.0031091517,0.3438158
765,199848686,-0.2054002285003662,-0.3873091042041778,2.0967841148376465,-0.0080883335,0.005752868,0.36107826
766,199865353,-0.2053426802158355,-0.3863885998725891,2.0958950519561768,-0.005185354,0.012633939,0.33540058
767,199882020,-0.2050078511238098,-0.3866819441318512,2.095577955245972,-0.012640947,0.0062844222,0.35709476
768,199898687,-0.2055014073848724,-0.3861701190471649,2.0945842266082764,-0.01536384,-0.012056637,0.36335182
769,199915354,-0.2050619274377823,-0.3857256770133972,2.0947301387786865,-0.017244246,-0.0004465073,0.35229206
770,199932021,-0.2053236663341522,-0.3859443664550781,2.094309568405152,-0.017970534,-0.0060555036,0.33920383
771,199948688,-0.2043356895446777,-0.3864237666130066,2.095367908477783,-0.0056263013,-0.004369205,0.3532982
772,199965355,-0.2040349096059799,-0.3845762610435486,2.095810890197754,-0.013313273,-0.022758393,0.3412466
773,199982022,-0.2047982513904571,-0.3834075331687927,2.096691370010376,-0.0028762554,-0.00471407,0.35177708
774,199998689,-0.2047514766454696,-0.3817411065101623,2.097646474838257,0.0043358826,-0.005868488,0.37761307
775,200015356,-0.2052704989910125,-0.3824838697910309,2.0965864658355717,-0.002378143,0.0012980899,0.35220242
776,200032023,-0.2055543363094329,-0.3825593292713165,2.0962750911712646,-0.0027439464,0.004010371,0.34608936
777,200048690,-0.2059057503938675,-0.3825887143611908,2.096820116043091,-0.00081754755,-0.009255521,0.3383789
778,200065357,-0.2052278518676757,-0.3821176588535309,2.095481634140014,-0.016274692,0.0038060911,0.3578186
779,200082024,-0.2053416073322296,-0.3813774883747101,2.0961010456085205,0.0035716358,-0.020371245,0.34654713
780,200098691,-0.2054577469825744,-0.3809866905212402,2.0968148708343506,-0.0052438253,-0.0013689155,0.32003212
781,200115358,-0.205468863248825,-0.3820264935493469,2.0971078872680664,0.00061972457,-0.011800686,0.3542137
782,200132025,-0.2048825323581695,-0.3837016522884369,2.096313714981079,-0.001478615,-0.009321482,0.33194447
783,200148692,-0.2048084735870361,-0.3849068582057953,2.0959179401397705,-0.018728944,-0.0076675685,0.3534603
784,200165359,-0.205805018544197,-0.3852171003818512,2.0973024368286133,0.002383895,0.00036857984,0.34994602
785,200182026,-0.2052798420190811,-0.3853065073490143,2.0967607498168945,-0.006905183,-0.009599476,0.3410759
786,200198693,-0.2049095779657364,-0.3851877450942993,2.0976219177246094,-0.010995821,-0.0031157024,0.3497057
787,200215360,-0.2042860686779022,-0.3856096863746643,2.09726619720459,-0.011063114,-0.002086572,0.34237385
788,200232027,-0.2039756625890731,-0.3865976929664612,2.097584724426269,-0.008834043,-0.009094931,0.3470955
789,200248694,-0.204042300581932,-0.385891318321228,2.098241090774536,-0.0042185453,-0.002204145,0.3528509
790,200265361,-0.203865647315979,-0.3866127431392669,2.0980727672576904,-0.017019501,-0.004628494,0.36813545
791,200282028,-0.2040627896785736,-0.3867917358875274,2.098257780075073,-0.018708522,-0.001619966,0.35985088
792,200298695,-0.2042108178138733,-0.3861579895019531,2.097296476364136,-0.008320492,0.00046356762,0.35196877
793,200315362,-0.2046448290348053,-0.3865913152694702,2.0975472927093506,0.0006152823,0.003682953,0.33678436
794,200332029,-0.2047104388475418,-0.3865796327590942,2.098470687866211,-0.0066429987,-0.0108055,0.3559389
795,200348696,-0.2052503377199173,-0.3864228129386902,2.098348379135132,-0.014258152,0.002055392,0.3574543
796,200365363,-0.205468401312828,-0.3869796991348266,2.0982911586761475,-0.0053890334,-0.016297044,0.32260513
797,200382030,-0.2058785855770111,-0.3868985772132873,2.098461389541626,-0.004336106,-0.005008981,0.35426617
798,200398697,-0.2067257761955261,-0.3866710960865021,2.09814453125,-0.022011293,0.008959027,0.3658867
799,200415364,-0.2063112407922744,-0.3881658017635345,2.0971477031707764,-0.0037158434,-0.012161773,0.35278893
800,200432031,-0.2062097340822219,-0.3884634375572204,2.097495079040528,-0.004738017,-0.00086132815,0.35949326
801,200448698,-0.2060808390378952,-0.3894310295581817,2.0968716144561768,0.0046091094,-0.0025624991,0.32878494
802,200465365,-0.2058697193861007,-0.3925018012523651,2.0964457988739014,-0.005740939,-0.013276804,0.34395123
803,200482032,-0.2058102041482925,-0.3938605487346649,2.095723390579224,-0.014460677,0.0066790413,0.3508892
804,200498699,-0.2071674168109893,-0.3929995894432068,2.0950093269348145,-0.009937206,-0.0015122346,0.34066486
805,200515366,-0.206986665725708,-0.3928333222866058,2.0957348346710205,-0.026190322,-0.0025764094,0.35587788
806,200532033,-0.2065455317497253,-0.3928071856498718,2.0958192348480225,0.010716622,-0.006650186,0.37722588
807,200548700,-0.2071357667446136,-0.3917874991893768,2.096017599105835,-0.018018939,0.00021458641,0.3264923
808,200565367,-0.2076117694377899,-0.3913083076477051,2.0947420597076416,-0.018715652,-0.0072796145,0.3431139
809,200582034,-0.2080776095390319,-0.3899494409561157,2.095045804977417,-0.004182336,-0.01636632,0.34080505
810,200598701,-0.20789435505867,-0.3891026973724365,2.0962321758270264,-0.00822279,-0.01034478,0.3711548
811,200615368,-0.2079116553068161,-0.3903863430023193,2.095987319946289,-0.0022788683,-0.0032063476,0.34863853
812,200632035,-0.207417219877243,-0.3905610740184784,2.096207618713379,-0.01606457,-0.003307391,0.34942913
813,200648702,-0.2072422504425048,-0.3923687040805816,2.095887899398804,-0.012821822,0.0094933,0.34485435
814,200665369,-0.2073267698287964,-0.3935619294643402,2.095353364944458,-5.2099473e-05,0.004450605,0.33007717
815,200682036,-0.2071547657251358,-0.3934758901596069,2.0951478481292725,0.0064399075,-0.0008229066,0.3586235
816,200698703,-0.207010731101036,-0.3948696553707123,2.095139503479004,-0.00334645,-0.013558114,0.3346901
817,200715370,-0.2074056267738342,-0.396476536989212,2.094892740249634,0.0062663252,-0.018913783,0.33504868
818,200732037,-0.2079065293073654,-0.3976756036281585,2.0951175689697266,-0.02865272,-0.0042332113,0.34836292
819,200748704,-0.2082602977752685,-0.3984767198562622,2.0951168537139893,-0.0033062107,0.006097697,0.34648037
820,200765371,-0.2075699120759964,-0.3991935849189758,2.0948233604431152,-0.014355656,-0.0062183957,0.332448
821,200782038,-0.2073331624269485,-0.3987947106361389,2.0950889587402344,-0.021745676,-0.0024996484,0.37274456
822,200798705,-0.206808939576149,-0.3987408578395843,2.094595670700073,-0.0043453714,0.0024110237,0.34729195
823,200815372,-0.2068366557359695,-0.3986214101314544,2.095003128051758,-0.018862167,-0.0011332753,0.33923054
824,200832039,-0.2074462175369262,-0.399616003036499,2.096433639526367,-0.0057734023,-0.008247901,0.34602833
825,200848706,-0.2078255861997604,-0.3997234404087066,2.097234010696411,-0.009976193,-0.004006021,0.32641506
826,200865373,-0.207022562623024,-0.3999258875846863,2.0978481769561768,-0.012598793,-0.011301868,0.34548664
827,200882040,-0.2068430185317993,-0.3991855084896087,2.0977933406829834,-0.01281741,0.0052564703,0.34064293
828,200898707,-0.2055896371603012,-0.4007130861282348,2.0977344512939453,-0.015310205,-0.009114061,0.35523796
829,200915374,-0.2059465050697326,-0.4003840386867523,2.098354816436768,-0.0120103,-0.0015917982,0.33176517
830,200932041,-0.2064451575279235,-0.4017852544784546,2.0982043743133545,0.0053245327,0.00056253845,0.3436861
831,200948708,-0.2071398794651031,-0.4016908705234527,2.0980064868927,-0.018115181,-0.0057567437,0.3131504
832,200965375,-0.2074010819196701,-0.4020475149154663,2.0978403091430664,0.00087998796,0.0056749075,0.34163284
833,200982042,-0.2077814191579818,-0.4029011726379394,2.097645998001098,-0.018106868,-0.010909611,0.3475113
834,200998709,-0.2074627131223678,-0.4011059999465942,2.099168062210083,-0.0067414283,-0.009539266,0.32957363
835,201015376,-0.2069677114486694,-0.4022546708583832,2.09842848777771,0.0038670884,-0.002105726,0.33494377
836,201032043,-0.2067157626152038,-0.4015228748321533,2.098949670791626,-0.007957262,-0.010725559,0.3555317
837,201048710,-0.2062214612960815,-0.4023910760879516,2.0990147590637207,-0.00831888,-0.008944264,0.35254765
838,201065377,-0.2063018977642059,-0.4013760387897491,2.097623348236084,-0.0008555343,-0.0067665055,0.3373165
839,201082044,-0.2055045664310455,-0.4004934728145599,2.097263097763061,-0.016927272,-0.007868049,0.35082626
840,201098711,-0.2009179890155792,-0.3874163329601288,2.0912625789642334,-0.0035825914,0.0037845136,0.34659004
841,201115378,-0.2003466188907623,-0.3872013688087463,2.092092037200928,-0.018909784,-0.014424477,0.35337353
842,201132045,-0.1999916136264801,-0.3874915242195129,2.092327356338501,-0.00621834,-0.016573744,0.33125877
843,201148712,-0.200692594051361,-0.3870520293712616,2.0934436321258545,-0.011956988,-0.008436089,0.33444023
844,201165379,-0.201622799038887,-0.3879590928554535,2.0922770500183105,0.011186967,-0.0058276793,0.34667397
845,201182046,-0.2017613649368286,-0.3878033459186554,2.091248750686645,0.0074715735,0.00049147004,0.32903576
846,201198713,-0.2012374848127365,-0.3864735662937164,2.0918123722076416,-0.014801917,-0.002397096,0.34238434
847,201215380,-0.2015179693698883,-0.3867402970790863,2.091316938400269,0.00013880155,-0.011664293,0.33731365
848,201232047,-0.2008081525564193,-0.3876892030239105,2.0904972553253174,0.0024909854,-0.003380258,0.36066628
849,201248714,-0.2015843689441681,-0.3876912891864776,2.0901687145233154,0.002029096,-0.005470401,0.3238058
850,201265381,-0.2016816139221191,-0.3882412612438202,2.0915353298187256,-0.019368434,-0.016657162,0.33977127
851,201282048,-0.2015267610549926,-0.3872900903224945,2.092421531677246,-0.016861346,0.0047114333,0.33562183
852,201298715,-0.2025482952594757,-0.3889832496643066,2.0920956134796143,-0.00683705,0.007314027,0.33638096
853,201315382,-0.2023763805627823,-0.3893016576766968,2.0923094749450684,-0.0031443941,-0.0028487216,0.34636688
854,201332049,-0.2022638171911239,-0.3877632021903991,2.0927953720092773,0.0026620917,0.00930116,0.32149124
855,201348716,-0.2022896707057953,-0.38811856508255,2.0919978618621826,-0.018345108,0.004109826,0.3501444
856,201365383,-0.2024262547492981,-0.3874313533306122,2.091870784759521,-0.018399328,-0.009750204,0.3310995
857,201382050,-0.2027885913848877,-0.3866907656192779,2.09104061126709,0.0013435015,-0.014806012,0.33420086
858,201398717,-0.2027814984321594,-0.3860023617744446,2.091294527053833,-0.009257575,-0.01272947,0.35683918
859,201415384,-0.203346386551857,-0.3852066993713379,2.090681791305542,0.0019133792,-0.007729579,0.32005596
860,201432051,-0.2043768912553787,-0.3849744200706482,2.090423822402954,-0.0104542095,-0.0025994417,0.33691597
861,201448718,-0.2042744308710098,-0.385742574930191,2.09042763710022,-0.010423705,0.003583323,0.33425808
862,201465385,-0.2042003273963928,-0.385980874300003,2.0906646251678467,-0.008880105,0.00064781215,0.34728622
863,201482052,-0.205369770526886,-0.386073350906372,2.0893101692199707,-0.01543207,-0.015521669,0.34945774
864,201498719,-0.2061258852481842,-0.3860840499401092,2.0896646976470947,0.007469066,-0.0074323225,0.3544817
865,201515386,-0.2052957415580749,-0.3863164186477661,2.09010648727417,-0.0056939176,-0.0012940335,0.32846832
866,201532053,-0.2056391686201095,-0.3875681161880493,2.089602470397949,-0.001693446,0.003967814,0.33216953
867,201548720,-0.2049546390771865,-0.3865654468536377,2.0898404121398926,-0.011577792,-0.0048133917,0.32610798
868,201565387,-0.2048250436782837,-0.3865950405597687,2.090883016586304,-0.023516675,-0.0001895547,0.33972073
869,201582054,-0.2045037001371383,-0.3874047696590423,2.0905561447143555,-0.014383145,0.003278777,0.34233665
870,201598721,-0.2050196230411529,-0.3887227475643158,2.0900144577026367,-0.016217073,-0.005789817,0.37187195
871,201615388,-0.2046967148780822,-0.3881482779979706,2.089836359024048,-0.014598195,0.0069996393,0.34060287
872,201632055,-0.2045674473047256,-0.3881177008152008,2.090162754058838,-0.0070695784,0.0037819825,0.33771896
873,201648722,-0.2049382030963897,-0.3876868188381195,2.0900256633758545,-0.0057614497,-0.0037328356,0.3538828
874,201665389,-0.2046442627906799,-0.3866789937019348,2.0901992321014404,-0.008428735,-0.0144607695,0.35290337
875,201682056,-0.2043036967515945,-0.3878731727600097,2.090689420700073,-0.018210491,-0.008313699,0.3198719
876,201698723,-0.2045266479253769,-0.3863532245159149,2.0908827781677246,-0.0192236,0.00097595534,0.30893326
877,201715390,-0.204351544380188,-0.3865206837654114,2.089860439300537,-0.010150155,-0.0066768434,0.3390236
878,201732057,-0.2041163295507431,-0.3883208632469177,2.0898749828338623,-0.0079158265,-0.009326888,0.3503456
879,201748724,-0.2028948962688446,-0.3882160484790802,2.089862823486328,-0.010531845,-0.0059735915,0.3527317
880,201765391,-0.2029212415218353,-0.3887437880039215,2.089818954467773,-0.026276095,-0.01684327,0.35033703
881,201782058,-0.2031644433736801,-0.3898253738880157,2.091106414794922,-0.015926905,-0.012065264,0.3325367
882,201798725,-0.2035795450210571,-0.3901154398918152,2.092362403869629,-0.0048185447,-0.00975648,0.3194008
883,201815392,-0.2049176692962646,-0.3912942707538605,2.092843770980835,-4.5572197e-05,0.0029357197,0.32692719
884,201832059,-0.2052981853485107,-0.3910760879516601,2.0932414531707764,-0.011356752,-0.003451082,0.33144855
885,201848726,-0.2045029699802398,-0.3904803991317749,2.0929274559021,-0.00905945,-0.0058026793,0.3450079
886,201865393,-0.2044203430414199,-0.3911705017089844,2.09274697303772,-0.013564263,-0.009586248,0.3491354
887,201882060,-0.2053398787975311,-0.390471339225769,2.093613386154175,-0.009567628,-0.0028956523,0.3380251
888,201898727,-0.2048441916704177,-0.3909001648426056,2.092951774597168,-0.012852346,0.00065060955,0.3360052
889,201915394,-0.2058940827846527,-0.3907181620597839,2.092215776443481,0.0017260474,-0.0013334695,0.33830643
890,201932061,-0.2055695801973343,-0.3911319375038147,2.0930092334747314,0.004255362,0.0011403229,0.3288355
891,201948728,-0.2048782706260681,-0.3898882269859314,2.0942981243133545,-0.013749457,-0.00086187816,0.3530531
892,201965395,-0.2050317674875259,-0.3907729387283325,2.094888925552368,-0.00014578633,-0.0067943083,0.3587761
893,201982062,-0.2051308006048202,-0.3907701075077057,2.0950093269348145,-0.0010608763,0.007961874,0.36092854
894,201998729,-0.2048539072275161,-0.390394926071167,2.094413042068481,-0.005366759,0.007840003,0.34497833
895,202015396,-0.2040625214576721,-0.3911042809486389,2.093657255172729,-0.0056357253,-0.002775851,0.35297108
896,202032063,-0.2045850753784179,-0.39187091588974,2.092840671539306,-0.0031508727,-0.010065227,0.36602306
897,202048730,-0.2057962268590927,-0.3923096060752868,2.0925779342651367,-0.015899897,0.008748729,0.34940243
898,202065397,-0.2058377712965011,-0.392049640417099,2.0919151306152344,-0.012749112,-0.0061079054,0.3596182
899,202082064,-0.2061042934656143,-0.3926805257797241,2.09130859375,0.0024851428,-0.0030537476,0.3406744
900,202098731,-0.2055218964815139,-0.3909659683704376,2.0921707153320312,-0.025648084,-0.0011718959,0.34220123
901,202115398,-0.2048777341842651,-0.3919868767261505,2.0907814502716064,0.0004596544,-0.0056460733,0.336586
902,202132065,-0.2040838897228241,-0.3918643593788147,2.091427564620972,-0.01814051,-0.0067651276,0.33043003
903,202148732,-0.2051222473382949,-0.3927004933357239,2.091226816177368,-0.01747661,-0.009614717,0.3548231
904,202165399,-0.2044705599546432,-0.3926280736923218,2.091039657592773,-0.009352016,-0.005097838,0.35963535
905,202182066,-0.2050668746232986,-0.3932224810123443,2.091906309127808,-0.0071713785,-0.00352053,0.34244633
906,202198733,-0.2059022933244705,-0.3924819529056549,2.0923259258270264,-0.013989133,-0.0135343885,0.36220264
907,202215400,-0.2055753618478775,-0.3926694095134735,2.0922951698303223,-0.015543379,-0.005279851,0.33340073
908,202232067,-0.2054945677518844,-0.3920253217220306,2.092182874679565,-0.008484691,0.006601916,0.33180904
909,202248734,-0.2050337642431259,-0.3907302320003509,2.093499183654785,-0.013239406,-0.001720952,0.3315344
910,202265401,-0.205253392457962,-0.3899251222610473,2.0937294960021973,-0.012630303,-0.01199805,0.3194399
911,202282068,-0.2053248882293701,-0.3901655972003937,2.0945889949798584,-0.0053490424,-0.001149363,0.3227911
912,202298735,-0.2057273238897323,-0.389122724533081,2.094327449798584,-0.0044033346,-0.001682691,0.33456898
913,202315402,-0.2061636447906494,-0.3882110714912414,2.095111131668091,0.008885122,-0.0057664667,0.33877182
914,202332069,-0.2071609944105148,-0.3895443677902221,2.095963954925537,-0.0074323574,-0.012175973,0.35958004
915,202348736,-0.2062704861164093,-0.3887053430080414,2.096030235290528,-0.0051370086,-0.012042452,0.34909058
916,202365403,-0.206177681684494,-0.389455646276474,2.0961859226226807,-0.000375617,-0.0028523954,0.33967495
917,202382070,-0.2068057060241699,-0.3873620331287384,2.097215175628662,0.0004556102,0.0045536486,0.3522234
918,202398737,-0.2075443565845489,-0.3879182040691376,2.098278522491455,-0.011298508,-0.011260415,0.33539104
919,202415404,-0.2065911889076233,-0.3881946206092834,2.098292112350464,-0.019769521,0.008664517,0.3668928
920,202432071,-0.205266073346138,-0.3876233696937561,2.098043918609619,-0.0019368865,-0.0031183427,0.3504038
921,202448738,-0.2044575363397598,-0.3873222172260284,2.0979132652282715,-0.01735394,-0.0005931231,0.35546875
922,202465405,-0.2048035562038421,-0.3891912400722503,2.09862756729126,-0.0067636855,0.0012139094,0.33914852
923,202482072,-0.2047978639602661,-0.3890998959541321,2.0989737510681152,-0.0084346365,-0.012921052,0.34231377
924,202498739,-0.2042064368724823,-0.3895896375179291,2.098974704742432,-0.00997212,0.0065024993,0.3419838
925,202515406,-0.2035194933414459,-0.3886356055736542,2.0983569622039795,-0.017229263,0.00025358069,0.3454113
926,202532073,-0.2030377089977264,-0.3888367414474487,2.098088026046753,-0.0069649047,-0.015039735,0.37004948
927,202548740,-0.203264832496643,-0.3887050747871399,2.098109483718872,-0.002423949,0.00052456046,0.34351158
928,202565407,-0.2033361047506332,-0.3884461224079132,2.098028421401977,-0.0050428538,-0.013202493,0.33614635
929,202582074,-0.2032768279314041,-0.3881352245807647,2.098393201828003,-0.004530569,0.0010235775,0.3487835
930,202598741,-0.20274119079113,-0.3872235119342804,2.099151849746704,-0.012944538,-0.020181758,0.3391676
931,202615408,-0.2013827115297317,-0.3880716264247894,2.098749876022339,0.00705995,-0.0112825865,0.33973598
932,202632075,-0.2019228935241699,-0.3882050812244415,2.098323345184326,-0.009541246,-0.02534932,0.32593727
933,202648742,-0.202364295721054,-0.3878543376922607,2.099094867706299,-0.022327764,0.001764172,0.34478664
934,202665409,-0.2023563981056213,-0.3876367807388305,2.0994410514831543,-0.011544393,-0.0007653974,0.3316145
935,202682076,-0.2025414258241653,-0.3863079249858856,2.099386692047119,-0.016382573,-0.0011985096,0.35180473
936,202698743,-0.2011578828096389,-0.3871440887451172,2.0986557006835938,-0.028909415,0.003650796,0.33676147
937,202715410,-0.2020637691020965,-0.3885896205902099,2.100177049636841,0.0022941683,-0.017166885,0.32643795
938,202732077,-0.2024336010217666,-0.389578104019165,2.099813938140869,-0.011999817,-0.0071672187,0.34350395
939,202748744,-0.2020199745893478,-0.389126569032669,2.0986506938934326,0.0036838357,-0.009853749,0.32562542
940,202765411,-0.201907604932785,-0.3887625634670257,2.098450183868408,-0.011703254,-0.0014884182,0.33734894
941,202782078,-0.2027967721223831,-0.388987272977829,2.0980536937713623,-0.003269771,-0.0059065325,0.33092403
942,202798745,-0.2046885788440704,-0.3896263241767883,2.097965955734253,-0.00073951005,-0.0070352675,0.34473324
943,202815412,-0.2044921815395355,-0.3895168006420135,2.099172115325928,-0.025950737,-0.0074786963,0.342968
944,202832079,-0.204814925789833,-0.3890404105186462,2.0978188514709477,0.0017448155,-0.0030197613,0.36236
945,202848746,-0.2054287940263748,-0.389714241027832,2.09842848777771,-0.019713204,-0.015969515,0.33720875
946,202865413,-0.2054763436317443,-0.3906703591346741,2.0992555618286133,-0.0061802417,-0.009007586,0.33184528
947,202882080,-0.2055302858352661,-0.3903602361679077,2.0981736183166504,-0.016814362,0.009351643,0.33459663
948,202898747,-0.2065379470586776,-0.3897380530834198,2.099134683609009,-0.005571553,-0.0029899415,0.34408188
949,202915414,-0.2076534479856491,-0.3906590938568115,2.0985496044158936,-0.005799608,-0.0018672866,0.35413647
950,202932081,-0.2080738842487335,-0.3909508883953094,2.0976316928863525,-0.010128787,0.008878604,0.3410349
951,202948748,-0.2073721140623092,-0.3931015431880951,2.096587419509888,-0.011784813,-0.0006912505,0.3291464
952,202965415,-0.2061742544174194,-0.3949244320392608,2.0960352420806885,-0.0095858155,-0.013690273,0.3348446
953,202982082,-0.206003651022911,-0.3944492042064667,2.096421480178833,-0.018162707,-0.013620524,0.34920216
954,202998749,-0.2057962715625763,-0.3945290148258209,2.0969932079315186,-0.0034750816,0.00019180206,0.34822273
955,203015416,-0.2073435932397842,-0.3955848217010498,2.0968525409698486,-0.001004607,-0.017531618,0.3456564
956,203032083,-0.207957237958908,-0.3952575027942657,2.0966780185699463,-0.013327953,-0.016930416,0.35290146
957,203048750,-0.2074920386075973,-0.3952861428260803,2.0965585708618164,-0.014365247,0.0017560627,0.35963726
958,203065417,-0.2076623141765594,-0.3953399062156677,2.096773147583008,-0.0019081197,-0.004327932,0.31087494
959,203082084,-0.2074299156665802,-0.3962935507297516,2.097564458847046,0.0014602102,-0.0059019015,0.35760403
960,203098751,-0.2016926556825637,-0.3759861588478088,2.0884323120117188,0.01953394,-0.0046259603,0.36196518
961,203115418,-0.2023561745882034,-0.3752077221870422,2.0888051986694336,-0.0096155275,-0.018208446,0.34244633
962,203132085,-0.2024736255407333,-0.374737411737442,2.089583396911621,-0.006793849,0.0036821936,0.33379936
963,203148752,-0.2033302932977676,-0.3745876252651214,2.0893688201904297,0.00412219,-0.010651714,0.36875916
964,203165419,-0.2031387090682983,-0.3744086921215057,2.0891244411468506,-0.016745342,-0.013354581,0.35843372
965,203182086,-0.2021702080965042,-0.3739987313747406,2.088787794113159,-0.0034548887,-0.010362875,0.34946442
966,203198753,-0.2010357975959777,-0.3754371702671051,2.087931871414185,0.0011302561,-0.010022488,0.33773994
967,203215420,-0.2019277513027191,-0.3761031031608581,2.08791732788086,0.0002767649,0.0036214844,0.3290882
968,203232087,-0.2022347450256347,-0.376391589641571,2.088472604751587,-0.005436832,0.0005405347,0.34543514
969,203248754,-0.202078714966774,-0.3768154680728912,2.088379383087158,-0.010364827,-0.0022502919,0.3232174
970,203265421,-0.2024389058351516,-0.3767889142036438,2.088872194290161,-0.006271166,0.0029563936,0.360775
971,203282088,-0.2026672661304474,-0.3764782845973968,2.0885398387908936,-0.0016117904,-0.009662427,0.36024284
972,203298755,-0.201808288693428,-0.3776369392871856,2.0881712436676025,-0.014086738,-0.013797546,0.3675499
973,203315422,-0.2027898579835891,-0.3774826228618622,2.0878937244415283,-0.0012004462,0.0019178669,0.3390169
974,203332089,-0.2027393877506256,-0.3772252798080444,2.088386297225952,0.004674365,-0.0038964786,0.34893036
975,203348756,-0.2022922784090042,-0.377350240945816,2.0880744457244877,-0.012772747,-0.0036042703,0.36693954
976,203365423,-0.2024007141590118,-0.3772642910480499,2.0874838829040527,-0.0020464882,-0.0017757999,0.3516674
977,203382090,-0.203250840306282,-0.3778762221336365,2.0879926681518555,-0.0055339257,-0.016274799,0.35625458
978,203398757,-0.2028064280748367,-0.3767437636852264,2.0884296894073486,-0.01654381,-0.008210581,0.34758568
979,203415424,-0.2026151865720749,-0.3790394365787506,2.0876598358154297,0.011408534,-0.0018304139,0.34887314
980,203432091,-0.2021858692169189,-0.3779168128967285,2.0878167152404785,-0.017874341,-0.015482229,0.33853722
981,203448758,-0.2032342702150344,-0.3782206773757934,2.087961435317993,-0.01376567,-0.011999609,0.35536957
982,203465425,-0.2025874853134155,-0.3777873516082763,2.0870463848114014,-0.011358145,-0.006732521,0.34154606
983,203482092,-0.200817734003067,-0.3772808611392975,2.087887525558472,0.014900645,-0.011348996,0.3614874
984,203498759,-0.1998317241668701,-0.3764983415603637,2.087697505950928,-0.0006542399,0.0038081727,0.33673668
985,203515426,-0.1995195597410202,-0.3772517442703247,2.087845087051392,-0.0028596667,-0.015254841,0.33193684
986,203532093,-0.1991764456033706,-0.3770979940891266,2.0867936611175537,-0.0057432386,0.008723868,0.35701084
987,203548760,-0.1979056745767593,-0.3776711821556091,2.0869178771972656,-0.0058031087,-0.010239143,0.34423542
988,203565427,-0.1972928792238235,-0.3789676427841186,2.087552070617676,-0.011506183,0.004658767,0.35051537
989,203582094,-0.1974968314170837,-0.3790550231933594,2.0886034965515137,-0.0012999513,0.011175684,0.33665466
990,203598761,-0.1968780159950256,-0.3776003122329712,2.088778018951416,-0.009561814,-0.0025603757,0.34978294
991,203615428,-0.1970956772565841,-0.3759461045265198,2.089050054550171,1.8177889e-05,-0.011125883,0.3597622
992,203632095,-0.1974521577358245,-0.3765406906604767,2.0892295837402344,-0.0015727873,-0.0114489235,0.34118557
993,203648762,-0.1972455084323883,-0.3772802650928497,2.0890586376190186,-0.011023506,-0.013382233,0.33639145
994,203665429,-0.1979292035102844,-0.3773595094680786,2.088883638381958,-0.010831457,-0.012644832,0.35440922
995,203682096,-0.1985231190919876,-0.3780014216899872,2.088698387145996,-0.0054484075,-0.00679544,0.3241501
996,203698763,-0.1977691501379013,-0.3775621652603149,2.088387012481689,-0.004430802,-0.016570237,0.3363266
997,203715430,-0.1967327743768692,-0.3774292767047882,2.0883023738861084,0.004796473,0.0028489686,0.3610077
998,203732097,-0.1964351832866668,-0.3764808177947998,2.088510513305664,0.007444497,0.004438693,0.3471594
999,203748764,-0.1971115171909332,-0.3761789500713348,2.089699506759644,0.0040550767,-0.017790934,0.3518114
1000,203765431,-0.1974169909954071,-0.375829130411148,2.09071683883667,-0.0051457607,-0.02204418,0.34938908
1001,203782098,-0.1978658884763717,-0.3750548660755157,2.091305494308472,-0.013703449,-0.011950035,0.32744503
1002,203798765,-0.1978078037500381,-0.3759299516677856,2.091925382614136,-0.0024329978,0.0024525665,0.3372774
1003,203815432,-0.1981681436300277,-0.3765467405319214,2.092714071273804,-0.0026881974,6.375183e-05,0.34239578
1004,203832099,-0.1980029046535492,-0.3785432875156402,2.0938682556152344,-0.0096045295,-0.01882517,0.34185028
1005,203848766,-0.1976822465658188,-0.3798049092292785,2.094699621200561,-0.0055933506,-0.008084364,0.34048557
1006,203865433,-0.1976945847272873,-0.3792135417461395,2.094627857208252,0.0016095343,0.0022505817,0.33252716
1007,203882100,-0.1968564391136169,-0.3790762424468994,2.094989538192749,-0.0147822425,-0.006820917,0.35106754
1008,203898767,-0.2088630497455597,-0.3693574965000152,2.076133251190185,0.004299167,-0.17703737,0.31859684
1009,203915434,-0.2502264380455017,-0.3276087343692779,1.9731299877166748,-0.028651435,-0.27728903,0.35811138
1010,203932101,-0.2276055514812469,-0.3574705123901367,1.7939304113388062,-0.7518952,-0.46077833,0.51802826
1011,203948768,-0.1141641065478324,-0.5128905177116394,1.5962648391723633,-0.21291439,-0.30511966,0.27575207
1012,203965435,-0.0790718123316764,-0.5593738555908203,1.2384768724441528,0.23159322,0.32814792,0.26275826
1013,203982102,-0.0986141562461853,-0.5191177129745483,0.9944822788238524,0.4744095,0.89294904,0.3204708
1014,203998769,-0.1716614067554474,-0.4116619825363159,1.0520105361938477,0.6713008,0.59625286,0.2222395
1015,204015436,-0.2693862617015838,-0.2675928175449371,1.206687569618225,-0.08981106,-0.089205414,0.45184994
1016,204032103,-0.2638116776943207,-0.2700895667076111,1.3202192783355713,-0.31219116,-0.6918888,0.4116354
1017,204048770,-0.2463984340429306,-0.2984147071838379,1.2994550466537476,-0.14019977,0.060082678,0.39126587
1018,204065437,-0.2488955110311508,-0.2992711961269378,1.276920199394226,0.017452596,-0.07504913,0.31984615
1019,204082104,-0.2528230249881744,-0.3014402389526367,1.220729112625122,-0.5298032,-0.17466794,0.3841524
1020,204098771,0.047337170690298,-0.5882490873336792,1.0228654146194458,-1.5943817,-0.96324974,0.92828465
1021,204115438,0.468578040599823,-1.0123697519302368,0.722501277923584,2.5566802,1.6345248,-0.5158396
1022,204132105,0.3504675924777984,-0.9070824384689332,0.6227899789810181,0.22947283,-0.21047579,0.5342493
1023,204148772,0.3919074833393097,-0.9454039335250854,0.224984586238861,-0.41161788,-0.4503088,0.5637417
1024,204165439,0.4087215960025787,-0.9609125256538392,-0.0727559700608253,0.5759729,0.29708335,0.1466608
1025,204182106,0.4419205486774444,-0.958659827709198,-0.662441074848175,-0.38326594,-0.4394104,0.4882555
1026,204198773,0.5875042676925659,-1.0608575344085691,-1.5319890975952148,0.5635972,-0.20017384,0.38301945
1027,204215440,0.7183182835578918,-1.1371976137161257,-2.5050172805786133,0.4181416,0.021529179,0.2633562
1028,204232107,0.7560579776763916,-1.163346767425537,-3.028942346572876,-0.88540834,0.8538108,0.2331295
1029,204248774,0.7426135540008545,-1.164103627204895,-3.0002365112304688,0.4964381,-0.53064334,0.29847336
1030,204265441,0.7415445446968079,-1.1208277940750122,-3.152989625930786,-0.5702985,-0.0965139,0.44231987
1031,204282108,0.7439953088760376,-1.1138790845870972,-3.530539035797119,-0.40903798,-0.13306423,0.3212452
1032,204298775,0.7816733717918396,-1.1482954025268557,-4.002463817596436,-0.39439264,-0.18784674,0.3618412
1033,204315442,0.8390706777572632,-1.1942145824432373,-4.700264930725098,0.30903518,-0.18736051,0.2308712
1034,204332109,0.8656339645385742,-1.189724683761597,-5.5329461097717285,-0.10605108,0.02212376,0.4695568
1035,204348776,0.9445199966430664,-1.2440179586410522,-6.484375953674316,0.029799363,0.1805847,0.32994652
1036,204365443,0.9858681559562684,-1.2540515661239624,-7.34473991394043,0.19857983,-0.0143513195,0.26514435
1037,204382110,0.9890130162239076,-1.228737235069275,-8.125964164733887,0.075109124,0.093721315,0.35302162
1038,204398777,0.9711560010910034,-1.1797412633895874,-8.844244956970215,0.0931683,-0.15017149,0.3829279
1039,204415444,0.976979911327362,-1.1420611143112185,-9.49183464050293,0.066375025,0.269801,0.3027563
1040,204432111,0.9835594296455384,-1.073368787765503,-10.19204807281494,-0.23596972,0.06150279,0.372365
1041,204448778,0.9475017786026,-0.9323753714561462,-11.18187141418457,-0.2836406,-0.23314017,0.2948513
1042,204465445,0.9671394228935242,-0.8412681818008423,-12.330459594726562,-0.556332,-0.20651855,0.40407658
1043,204482112,1.0338250398635864,-0.8308432102203369,-13.293537139892578,-0.39015117,-0.039261267,0.41313362
1044,204498779,1.1241601705551147,-0.8954994678497314,-13.8962984085083,0.19951074,0.05647417,0.36241627
1045,204515446,1.1972507238388062,-0.9514038562774658,-14.2957763671875,0.40868223,-0.13452332,0.33990955
1046,204532113,1.265125393867493,-1.0125428438186646,-14.613978385925291,0.24658334,-0.5497372,0.39540768
1047,204548780,1.3230739831924438,-1.0718120336532593,-15.013934135437012,0.2964675,-0.35496867,0.3158245
1048,204565447,1.3334572315216064,-1.0588245391845703,-15.606051445007324,-0.49300197,0.27977958,0.29006863
1049,204582114,1.3608933687210083,-1.0388462543487549,-16.338911056518555,-0.42532963,0.46122715,0.26367855
1050,204598781,1.453455686569214,-1.0377658605575562,-17.109508514404297,0.05709716,-0.09347188,0.44742012
1051,204615448,1.4988905191421509,-1.0381559133529663,-17.881366729736328,0.19325754,0.16348635,0.22299957
1052,204632115,1.51844584941864,-0.9911745190620422,-18.60915946960449,0.05100649,-0.0048129046,0.349267
1053,204648782,1.534467101097107,-0.91251540184021,-19.233030319213867,0.3601394,-0.049015366,0.29331684
1054,204665449,1.469759464263916,-0.7982293367385864,-19.711891174316406,-0.049924333,0.09892053,0.34104824
1055,204682116,1.4141069650650024,-0.6952192187309265,-20.426761627197266,-1.2984945,-0.16244249,0.3518896
1056,204698783,1.431405782699585,-0.6523934006690979,-21.579933166503903,-0.54236823,0.03539503,0.34454346
1057,204715450,1.3511953353881836,-0.5057310461997986,-22.71739196777344,0.6496521,0.49130204,0.2169199
1058,204732117,1.2168279886245728,-0.3020900785923004,-23.62140464782715,0.37547505,-0.2368026,0.3503523
1059,204748784,1.0369240045547483,-0.0696801394224166,-24.56269836425781,0.19636837,-0.46916023,0.34442806
1060,204765451,0.8805391192436218,0.1159092709422111,-25.525428771972656,0.022030085,-0.6382685,0.4240713
1061,204782118,0.7476154565811157,0.3006714284420013,-26.47389411926269,-0.21665268,0.07735814,0.2691679
1062,204798785,0.6138787269592285,0.495354413986206,-27.335582733154297,-0.17923678,0.3309445,0.4378891
1063,204815452,0.6258691549301147,0.5172474980354309,-28.200836181640625,-0.34595546,0.053716023,0.37723827
1064,204832119,0.6474534273147583,0.5508803725242615,-29.194589614868164,-0.08569044,-0.054369424,0.32439137
1065,204848786,0.7254930138587952,0.5123186111450195,-30.1350212097168,-0.19754905,-0.25893733,0.44565678
1066,204865453,0.8299288749694824,0.4180838167667389,-30.76597213745117,0.016943887,-0.50401026,0.38233757
1067,204882120,0.8723111152648926,0.4154245555400848,-31.33864021301269,-0.053765576,-0.72502625,0.24999142
1068,204898787,0.8891640901565552,0.4512519836425781,-32.090450286865234,-0.24506293,-0.07825855,0.30405045
1069,204915454,0.8604161739349365,0.554158627986908,-32.768882751464844,0.16022722,0.63903624,0.2650442
1070,204932121,0.8527098298072815,0.5822884440422058,-33.0221061706543,0.23942947,0.9822496,0.44027805
1071,204948788,0.8328439593315125,0.609553873538971,-33.10280227661133,-0.10541363,0.05427062,0.30058575
1072,204965455,0.8758369088172913,0.5958645939826965,-33.64813995361328,-0.6020708,-0.5850594,0.47735596
1073,204982122,1.0050461292266846,0.5104907751083374,-34.72260284423828,-0.4390519,-0.26548338,0.35833073
1074,204998789,1.1120392084121704,0.4707705676555633,-35.936702728271484,-0.39610115,0.4913178,0.21362114
1075,205015456,1.1950128078460691,0.4463357031345367,-37.10057067871094,0.18341659,-0.020686341,0.35809612
1076,205032123,1.3066627979278564,0.4168055653572082,-38.41695785522461,0.044494033,-0.55330825,0.41301823
1077,205048790,1.4078376293182373,0.3899286985397339,-39.69362258911133,0.23836589,-0.00030324422,0.33025742
1078,205065457,1.4339017868041992,0.4244774580001831,-40.48304748535156,0.11584112,0.4007348,0.25128174
1079,205082124,1.4676542282104492,0.4033205807209015,-41.1206283569336,-0.8195453,0.20362441,0.36073875
1080,205098791,1.5455716848373413,0.3272818624973297,-42.55595016479492,-1.0446736,-0.911655,0.4563198
1081,205115458,1.63171124458313,0.2873922288417816,-45.02640914916992,-0.6931122,-0.94628376,0.43140316
1082,205132125,1.7301936149597168,0.1466602832078933,-47.56184387207031,-0.08057073,0.5767153,0.22574139
1083,205148792,1.77889084815979,0.0294543411582708,-48.96726608276367,1.5674189,1.1466907,0.23104668
1084,205165459,1.7772871255874634,-0.0319267138838768,-49.1308479309082,0.71255606,-0.3690595,0.38490582
1085,205182126,1.7617038488388062,0.0202969759702682,-49.17995834350586,-0.06811411,-0.35758966,0.3774252
1086,205198793,1.7612444162368774,0.0410382337868213,-49.59732055664063,-1.1533077,-0.7341693,0.27748775
1087,205215460,1.7894006967544556,0.063738539814949,-50.88626480102539,-1.426793,-0.63506716,0.14288425
1088,205232127,1.8409545421600344,0.0431791841983795,-53.009578704833984,-0.4661708,-0.19339138,0.4264984
1089,205248794,1.8698070049285889,0.0929115265607833,-55.086158752441406,0.51336116,0.7604855,0.34467506
1090,205265461,1.8767898082733157,0.1323996037244796,-56.536277770996094,0.47552684,0.90903616,0.39428806
1091,205282128,1.8797534704208372,0.1804458349943161,-57.322357177734375,0.49551392,-0.14091942,0.42741203
1092,205298795,1.8892946243286133,0.2030614912509918,-57.8250732421875,0.2438929,-1.5809901,0.29280663
1093,205315462,1.8862046003341677,0.303272396326065,-58.64619827270508,-0.6354166,-0.7906482,0.3898821
1094,205332129,1.9210771322250368,0.3215188086032867,-60.239891052246094,-1.2841921,0.8239093,0.14852333
1095,205348796,1.978458404541016,0.2660684883594513,-62.42745971679688,-0.54552484,1.6497091,0.63300323
1096,205365463,2.009610891342163,0.2634782195091247,-64.75684356689453,0.08136694,0.27040496,0.31601048
1097,205382130,2.011183738708496,0.3106873631477356,-66.79286193847656,0.5407792,-0.42271832,0.34923553
1098,205398797,2.053546190261841,0.150921419262886,-68.35009002685547,-0.009287235,-0.68752426,0.35452747
1099,205415464,2.0927088260650635,0.0455596111714839,-69.41531372070312,0.8381573,-0.71962565,0.27853966
1100,205432131,2.110829591751098,-0.0365776941180229,-70.35273742675781,0.14202733,-0.46752697,0.45696735
1101,205448798,2.1503918170928955,-0.2063062041997909,-71.07601165771484,0.3766355,-0.47396928,0.28031635
1102,205465465,2.1552515029907227,-0.1916808634996414,-72.01444244384766,-2.5828824,2.6061213,0.18257809
1103,205482132,2.161905288696289,-0.0872839838266372,-74.17039489746094,-1.8560355,0.9450974,0.28592682
1104,205498799,2.190830707550049,0.0660259574651718,-77.0981216430664,0.06405766,-0.4467012,0.5307293
1105,205515466,2.200998067855835,0.136235624551773,-79.49623107910156,0.9148625,-0.98473525,0.3935585
1106,205532133,2.2035927772521973,0.1085825711488723,-80.93101501464844,0.96201944,-1.151398,0.290493
1107,205548800,2.2039272785186768,0.1070089638233184,-81.6863784790039,0.76200736,-0.24437417,0.29461002
1108,205565467,2.2178914546966557,0.0467008911073207,-81.9287338256836,0.63645804,-0.3774274,0.3062296
1109,205582134,2.287388801574707,-0.0341657809913158,-81.57904052734375,0.58280295,-0.46926376,0.43820763
1110,205598801,2.3323590755462646,-0.163658395409584,-81.0591049194336,-0.89876986,0.1947949,0.36482716
1111,205615468,2.3645389080047607,-0.1955851018428802,-80.97332000732422,-0.9974791,1.6665156,0.32545948
1112,205632135,2.3687939643859863,-0.205469399690628,-81.23385620117188,-0.75605404,0.77641654,0.28518677
1113,205648802,2.281343936920166,-0.0790627747774124,-81.9094009399414,-0.4011075,-0.5635621,0.4005394
1114,205665469,2.3437600135803223,-0.0944189801812172,-82.81492614746094,-0.48200294,-0.6578095,0.35386753
1115,205682136,2.471529245376587,-0.1886881738901138,-83.75127410888672,-0.16511069,-0.1783699,0.36655712
1116,205698803,2.567035436630249,-0.2949016392230987,-84.3014144897461,0.9688171,0.379564,0.24726963
1117,205715470,2.6376802921295166,-0.388821929693222,-84.1799545288086,0.48176026,-0.07849119,0.34089947
1118,205732137,2.724970817565918,-0.5048596262931824,-83.94051361083984,-0.7165577,0.3319484,0.38731956
1119,205748804,2.700650453567505,-0.4882870316505432,-84.01705932617188,-0.57435745,0.28814182,0.33140945
