PacketCounter,SampleTimeFine,Euler_X,Euler_Y,Euler_Z,FreeAcc_X,FreeAcc_Y,FreeAcc_Z
1,143937774,-0.3385865092277527,-0.7796036601066589,16.28583526611328,-0.008509215,0.0018838109,0.31247807
2,143954441,-0.3398509919643402,-0.7947840690612793,16.271713256835938,-0.0069391555,-0.006748006,0.3203163
3,143971108,-0.3472927212715149,-0.8066621422767639,16.253198623657227,0.00014959303,-0.010356221,0.32634544
4,143987775,-0.3584181666374206,-0.8215704560279846,16.253463745117188,0.0015083841,-0.009140141,0.3410139
5,144004442,-0.3696488738059997,-0.8382856249809265,16.205978393554688,-0.017399384,0.0073791067,0.3335266
6,144021109,-0.3755759000778198,-0.8531574010848999,16.21077537536621,-0.00062332174,-0.013269262,0.32593155
7,144037776,-0.3840859532356262,-0.8687437176704407,16.18996238708496,-0.020012477,0.0019828759,0.32884693
8,144054443,-0.3899614214897156,-0.8835480809211731,16.1756649017334,-0.015082074,0.0034381095,0.32168865
9,144071110,-0.3950255811214447,-0.8979467153549194,16.18994903564453,-0.030941604,0.00010965231,0.32028675
10,144087777,-0.4000856578350067,-0.9099260568618774,16.190608978271484,-0.020509591,0.0032416119,0.32311916
11,144104444,-0.4036825001239776,-0.9226301908493042,16.182586669921875,-0.025335487,0.011501617,0.33065796
12,144121111,-0.4065468311309814,-0.9364277124404908,16.175701141357422,-0.034047317,0.01203216,0.33812618
13,144137778,-0.4082048237323761,-0.9494662284851074,16.195449829101562,-0.044430807,0.0132263815,0.3341751
14,144154445,-0.4100979268550873,-0.962687611579895,16.19722557067871,-0.032100014,-0.005147423,0.33318043
15,144171112,-0.4111989438533783,-0.9759336113929749,16.19747543334961,-0.03235412,-0.0048950054,0.34255505
16,144187779,-0.4139810800552368,-0.989698052406311,16.20703125,-0.052544978,-0.009535468,0.3386984
17,144204446,-0.416252076625824,-1.0022449493408203,16.199121475219727,-0.03120787,0.008238034,0.31997204
18,144221113,-0.420186698436737,-1.0151852369308472,16.194101333618164,-0.046011962,0.001349147,0.31333733
19,144237780,-0.4232195317745209,-1.026558518409729,16.200666427612305,-0.060189106,-0.003978033,0.33090878
20,144254447,-0.4273553490638733,-1.039614200592041,16.201595306396484,-0.059471488,-0.0052178297,0.33388138
21,144271114,-0.4298951029777527,-1.0522841215133667,16.201656341552734,-0.048107207,0.005507071,0.3366804
22,144287781,-0.4335998594760895,-1.0654053688049316,16.202144622802734,-0.04396941,0.0107558835,0.3306675
23,144304448,-0.4366083145141601,-1.0785033702850342,16.20126724243164,-0.053065322,-0.002358706,0.3295536
24,144321115,-0.4402967393398285,-1.0931274890899658,16.200260162353516,-0.061027166,0.0036103087,0.35109138
25,144337782,-0.4423252940177917,-1.106696367263794,16.20453643798828,-0.061169747,0.002484867,0.31680107
26,144354449,-0.4459172785282135,-1.120487928390503,16.19893455505371,-0.07873585,-0.011687178,0.311203
27,144371116,-0.4478281736373901,-1.1326537132263184,16.192256927490234,-0.07734946,-0.01747551,0.33733654
28,144387783,-0.4493118226528168,-1.1461067199707031,16.193313598632812,-0.0634184,-0.0042853127,0.31776428
29,144404450,-0.4519309401512146,-1.1599904298782349,16.192886352539062,-0.07288409,-0.004518463,0.33051872
30,144421117,-0.454158216714859,-1.1738871335983276,16.195512771606445,-0.06558371,-0.01834955,0.31721592
31,144437784,-0.4587044715881347,-1.187429904937744,16.185813903808594,-0.07554902,0.0056759454,0.3097973
32,144454451,-0.4622109532356262,-1.200352668762207,16.188629150390625,-0.094438076,-0.009111956,0.32043362
33,144471118,-0.465964674949646,-1.2128188610076904,16.186399459838867,-0.078556985,-0.005229445,0.34099388
34,144487785,-0.4696532487869262,-1.2276839017868042,16.194358825683594,-0.07751193,0.0014677449,0.3409605
35,144504452,-0.4734491407871246,-1.2411713600158691,16.19601058959961,-0.093506776,0.00024691722,0.31741524
36,144521119,-0.4778516590595245,-1.2537304162979126,16.198705673217773,-0.098625004,0.002745544,0.33400726
37,144537786,-0.4818712472915649,-1.2672691345214844,16.201488494873047,-0.090908125,-0.005618562,0.33207893
38,144554453,-0.4858697950839996,-1.2807430028915403,16.20203971862793,-0.10157349,-0.008557674,0.3065691
39,144571120,-0.4900504946708679,-1.2936623096466064,16.2055606842041,-0.091377944,-0.0020751066,0.3242817
40,144587787,-0.4939321279525757,-1.3073066473007202,16.202463150024414,-0.09426123,-0.006317871,0.32372952
41,144604454,-0.4975701570510864,-1.3201653957366943,16.202688217163086,-0.10317464,-0.018910456,0.32155037
42,144621121,-0.5017334222793579,-1.3323456048965454,16.202028274536133,-0.096390374,-0.0116623435,0.32704258
43,144637788,-0.5046238303184509,-1.3469661474227903,16.199886322021484,-0.10937488,-0.0064790156,0.33291435
44,144654455,-0.5076655745506287,-1.3610714673995972,16.202054977416992,-0.10253575,0.0070117745,0.32753754
45,144671122,-0.5124765038490295,-1.3742238283157349,16.20159912109375,-0.11720229,-0.0068420754,0.33395767
46,144687789,-0.5158403515815735,-1.3878214359283447,16.20448112487793,-0.10739652,-0.0043406775,0.3283739
47,144704456,-0.5191514492034912,-1.4022616147994995,16.205402374267578,-0.11216649,-0.008036894,0.3327999
48,144721123,-0.5232515931129456,-1.415832757949829,16.20126724243164,-0.11473149,-0.016595123,0.31291103
49,144737790,-0.5263822078704834,-1.430954933166504,16.201669692993164,-0.11691451,-0.0065023517,0.3263693
50,144754457,-0.5296573638916016,-1.4444702863693235,16.200029373168945,-0.1325214,-0.012945135,0.32744122
51,144771124,-0.5342075228691101,-1.457275629043579,16.198787689208984,-0.12782845,-0.0021587806,0.3216362
52,144787791,-0.53861004114151,-1.4706647396087646,16.19947052001953,-0.121423215,-0.0032088184,0.32766342
53,144804458,-0.5420559644699097,-1.484516978263855,16.20086669921875,-0.14275308,-0.004551213,0.33289146
54,144821125,-0.5456638932228088,-1.4970730543136597,16.206266403198242,-0.13595177,-0.009151293,0.34101582
55,144837792,-0.5497431755065918,-1.5106185674667358,16.207225799560547,-0.13458088,-0.017650582,0.3359499
56,144854459,-0.5529073476791382,-1.5236899852752686,16.206735610961914,-0.14535321,0.001585339,0.3309965
57,144871126,-0.5565651655197144,-1.5363346338272097,16.20633316040039,-0.14463852,-0.0025582646,0.34906292
58,144887793,-0.559932291507721,-1.5493816137313845,16.205690383911133,-0.15265155,-0.01880067,0.33134842
59,144904460,-0.5637076497077942,-1.562055587768555,16.20615577697754,-0.14848368,-0.017073192,0.32329273
60,144921127,-0.5677200555801392,-1.574196219444275,16.207294464111328,-0.14650802,-0.0004641072,0.3027954
61,144937794,-0.5711471438407898,-1.5870624780654907,16.207191467285156,-0.15356116,0.0035020115,0.33432293
62,144954461,-0.5746062397956848,-1.601588249206543,16.206710815429688,-0.15087287,-0.011209171,0.3113098
63,144971128,-0.5789559483528137,-1.6145517826080322,16.20342445373535,-0.15924688,-0.017128395,0.32303047
64,144987795,-0.5821691155433655,-1.6291553974151611,16.204105377197266,-0.1515987,-0.0019236014,0.31525517
65,145004462,-0.5855278372764587,-1.642390251159668,16.203182220458984,-0.15607896,-0.005615236,0.3237791
66,145021129,-0.5899825692176819,-1.6551263332366943,16.1995849609375,-0.15982929,-0.019809252,0.31840038
67,145037796,-0.5920537710189819,-1.6676568984985352,16.198455810546875,-0.15140297,-0.00959772,0.3315382
68,145054463,-0.5963470339775085,-1.6809598207473757,16.200458526611328,-0.16471626,-0.013606019,0.3380108
69,145071130,-0.6001020669937134,-1.6936668157577517,16.19882583618164,-0.16365162,-0.011806188,0.33222198
70,145087797,-0.6030236482620239,-1.7069579362869265,16.199922561645508,-0.16443475,-0.0116684865,0.33704567
71,145104464,-0.6070424318313599,-1.720561981201172,16.198278427124023,-0.18659215,0.0013093039,0.33348846
72,145121131,-0.6114951372146606,-1.7335257530212402,16.194910049438477,-0.1985842,-0.0034088765,0.31288338
73,145137798,-0.6154170036315918,-1.7457622289657593,16.19222068786621,-0.18445982,-0.024669362,0.35076332
74,145154465,-0.6190809607505798,-1.7590632438659668,16.190155029296875,-0.17624167,-0.0025881543,0.329422
75,145171132,-0.6230825781822205,-1.772057056427002,16.187196731567383,-0.19113956,-0.008706595,0.34028435
76,145187799,-0.6260408163070679,-1.7841421365737915,16.18781089782715,-0.18807869,0.0005660361,0.32102966
77,145204466,-0.6289411187171936,-1.796700954437256,16.18528175354004,-0.18184622,-0.018064398,0.35121822
78,145221133,-0.6316806674003601,-1.8117012977600095,16.183292388916016,-0.17181566,-0.010895167,0.34260273
79,145237800,-0.6353612542152405,-1.824581503868103,16.181560516357422,-0.19333261,-0.007470847,0.35102367
80,145254467,-0.6389046907424927,-1.8371127843856807,16.18077278137207,-0.19209568,-0.012579306,0.3354044
81,145271134,-0.6420743465423584,-1.8490726947784424,16.176849365234375,-0.19600625,-0.00064658455,0.32697964
82,145287801,-0.6469759941101074,-1.862938642501831,16.175031661987305,-0.20810765,0.0018273826,0.31723595
83,145304468,-0.6512706279754639,-1.874868631362915,16.172374725341797,-0.19647917,-0.0016310089,0.32595634
84,145321135,-0.6554073691368103,-1.8871880769729612,16.166051864624023,-0.20054036,0.004429592,0.352005
85,145337802,-0.6583166718482971,-1.900092959403992,16.164236068725586,-0.21508119,-0.021616919,0.3323984
86,145354469,-0.660872220993042,-1.9114271402359009,16.15819549560547,-0.2045562,-0.006736272,0.32505417
87,145371136,-0.6649749875068665,-1.9237289428710935,16.155406951904297,-0.21200638,0.005225282,0.32036018
88,145387803,-0.6687063574790955,-1.936338186264038,16.148950576782227,-0.2205867,-0.009544307,0.35628128
89,145404470,-0.6718604564666748,-1.9486585855484009,16.14427375793457,-0.2162553,-0.001817761,0.3419981
90,145421137,-0.675967276096344,-1.961521029472351,16.143651962280273,-0.21076462,-0.010413186,0.3289938
91,145437804,-0.6795592308044434,-1.9746233224868772,16.13924789428711,-0.2230819,-0.0090582855,0.32170486
92,145454471,-0.6821008920669556,-1.987262725830078,16.135860443115234,-0.22474764,-0.013575915,0.2904501
93,145471138,-0.6862197518348694,-1.998963713645935,16.134634017944336,-0.21618903,0.0021370004,0.3468542
94,145487805,-0.6898105144500732,-2.0100741386413574,16.12944793701172,-0.2269391,-0.019520182,0.30350304
95,145504472,-0.6932257413864136,-2.021888256072998,16.12543487548828,-0.24048851,0.009368168,0.3250475
96,145521139,-0.6960592865943909,-2.032515048980713,16.121950149536133,-0.22704957,-0.007896059,0.3172083
97,145537806,-0.6987256407737732,-2.043515920639038,16.117944717407227,-0.2454951,0.00043382467,0.34129906
98,145554473,-0.7026081085205078,-2.055203914642334,16.112058639526367,-0.23577455,-0.0082993815,0.36019993
99,145571140,-0.7046497464179993,-2.0683062076568604,16.10787010192871,-0.23532476,-0.0004047121,0.33700085
100,145587807,-0.7078471183776855,-2.0787744522094727,16.10309410095215,-0.24397074,0.0025506495,0.3299055
101,145604474,-0.7104505896568298,-2.089585304260254,16.097440719604492,-0.22816381,-0.0011173133,0.318758
102,145621141,-0.7147177457809448,-2.0994679927825928,16.091171264648438,-0.2552739,-0.018030804,0.35234356
103,145637808,-0.7188934683799744,-2.110895872116089,16.08750343322754,-0.2516449,-0.010039859,0.34473324
104,145654475,-0.7232103943824768,-2.122138738632202,16.081058502197266,-0.24336644,-0.016203428,0.32608318
105,145671142,-0.7264237403869629,-2.1330597400665283,16.075214385986328,-0.24944317,0.00024635668,0.33841896
106,145687809,-0.7283264398574829,-2.1427597999572754,16.06911277770996,-0.24966198,-0.0057610534,0.34560585
107,145704476,-0.731185257434845,-2.15323805809021,16.062654495239258,-0.25956872,-0.024546228,0.3336668
108,145721143,-0.7339041829109192,-2.164419174194336,16.05654525756836,-0.2544648,-0.007238097,0.33626175
109,145737810,-0.7367808818817139,-2.1763699054718018,16.049663543701172,-0.2628907,-0.0039555193,0.33625317
110,145754477,-0.7393016815185547,-2.1861977577209477,16.04182243347168,-0.27772173,0.0025696657,0.3291769
111,145771144,-0.7416204810142517,-2.19660758972168,16.035146713256836,-0.26265332,-0.0021298933,0.34997463
112,145787811,-0.7438419461250305,-2.208266019821167,16.03070068359375,-0.26611948,-0.016821655,0.32854557
113,145804478,-0.745479166507721,-2.2187659740448,16.024499893188477,-0.27108905,-0.0045447587,0.32148457
114,145821145,-0.7475202679634094,-2.228379011154175,16.018217086791992,-0.27867177,-0.013349175,0.31502056
115,145837812,-0.7511067390441895,-2.2382946014404297,16.011821746826172,-0.26167622,-0.0099982545,0.31711292
116,145854479,-0.7543905973434448,-2.246461868286133,16.005126953125,-0.27126035,-0.013170714,0.32906723
117,145871146,-0.7575001120567322,-2.257016897201538,15.997481346130373,-0.26744738,0.012980405,0.33440208
118,145887813,-0.7610549330711365,-2.267529010772705,15.988069534301758,-0.28003308,-0.0020977843,0.3295927
119,145904480,-0.7633968591690063,-2.2761855125427246,15.980286598205566,-0.27274257,0.0020094933,0.33046818
120,145921147,-0.3615548312664032,-0.7246296405792236,15.665515899658203,0.005109073,0.003584933,0.3542633
121,145937814,-0.360824316740036,-0.7236182689666748,15.669821739196776,0.002963202,-0.00846082,0.32479858
122,145954481,-0.3614955246448517,-0.7224335670471191,15.673895835876465,0.008684225,-0.009975994,0.3310051
123,145971148,-0.3625091314315796,-0.7226575613021851,15.6785249710083,0.010426886,0.011189782,0.3327446
124,145987815,-0.3612051606178283,-0.7232931852340698,15.68123722076416,0.0067077563,0.010116207,0.32127857
125,146004482,-0.3605878949165344,-0.7238358855247498,15.6857328414917,0.0038982476,-0.0044374657,0.33309746
126,146021149,-0.3613380491733551,-0.7234387993812561,15.689204216003418,0.004254213,-0.0024210906,0.3253317
127,146037816,-0.3616869747638702,-0.7242541909217834,15.693643569946287,0.0122077605,0.0051078317,0.32768536
128,146054483,-0.3601534068584442,-0.724528968334198,15.697004318237305,-0.007257759,0.009642357,0.33414078
129,146071150,-0.3595698475837707,-0.7251169085502625,15.701300621032717,0.007416558,-0.0034526396,0.31999302
130,146087817,-0.3603141605854034,-0.724725067615509,15.70309829711914,0.0022271879,0.006910008,0.35519505
131,146104484,-0.3595918416976928,-0.7255180478096008,15.708431243896484,0.0046738307,-0.002692189,0.3348446
132,146121151,-0.3606478273868561,-0.7241355180740356,15.712088584899902,0.0031978767,0.008705124,0.32530499
133,146137818,-0.3601005375385284,-0.7233232259750366,15.71512508392334,0.008682249,0.010027428,0.32384968
134,146154485,-0.3608618378639221,-0.722490131855011,15.72006607055664,0.006167051,-0.00056582654,0.31824112
135,146171152,-0.3614060580730438,-0.7231130599975586,15.723325729370115,0.0029587736,-0.00036389654,0.34980106
136,146187819,-0.3610901236534118,-0.7235584259033203,15.727215766906738,0.003403753,0.0061635915,0.31756973
137,146204486,-0.3610533475875854,-0.7226072549819946,15.730239868164062,0.006898818,-0.0114638815,0.32736206
138,146221153,-0.3589805960655212,-0.7204464077949524,15.733443260192873,-0.0027602592,0.00093640405,0.33769226
139,146237820,-0.3575125336647033,-0.7198326587677002,15.736944198608398,-0.0077390033,0.008466853,0.32398129
140,146254487,-0.3572732508182525,-0.7191761136054993,15.741455078125,0.00420613,0.004880992,0.30963612
141,146271154,-0.3574835360050201,-0.7199825644493103,15.744891166687012,-0.00804245,-0.006040104,0.35128593
142,146287821,-0.3580313920974731,-0.7197486162185669,15.748300552368164,0.006224179,-0.0020872199,0.3283949
143,146304488,-0.3588721752166748,-0.7201187014579773,15.751179695129396,0.0077186287,-0.012595214,0.34520245
144,146321155,-0.3586534559726715,-0.7200004458427429,15.753865242004396,0.006466153,0.009474956,0.3341751
145,146337822,-0.3592961728572845,-0.7197333574295044,15.756929397583008,-0.009080493,0.0028870294,0.36105156
146,146354489,-0.3580928146839142,-0.7201762795448303,15.760091781616213,0.017558381,0.007171616,0.348341
147,146371156,-0.3580422699451446,-0.7207618951797485,15.762332916259766,-0.0006319549,0.011513978,0.3422947
148,146387823,-0.3583292961120605,-0.7198078036308289,15.764378547668455,0.010024626,-0.005703972,0.32273293
149,146404490,-0.3584639430046081,-0.72003173828125,15.766358375549316,0.0018924213,0.0019861292,0.30943012
150,146421157,-0.3574835956096649,-0.7191780805587769,15.769089698791504,-0.0073503703,0.0014622916,0.3531866
151,146437824,-0.3565844595432281,-0.7207124829292297,15.773065567016602,0.010663579,0.0048068855,0.341177
152,146454491,-0.3562001287937164,-0.7211019396781921,15.77570343017578,-0.003290963,0.0024354933,0.32150745
153,146471158,-0.3565835952758789,-0.7218539118766785,15.777915000915527,0.0002351915,-0.0007682699,0.3370285
154,146487825,-0.3565379083156585,-0.7221851348876953,15.77968406677246,0.0056326035,0.007852443,0.340127
155,146504492,-0.356552243232727,-0.7231010794639587,15.781859397888184,0.003985159,-0.009042882,0.34025955
156,146521159,-0.3559544086456299,-0.7227888703346252,15.784632682800291,0.0066989977,0.009889843,0.34212017
157,146537826,-0.3552401661872864,-0.7227461338043213,15.78725814819336,-0.004801631,0.007868352,0.33539295
158,146554493,-0.3547923862934112,-0.7233622670173645,15.790009498596191,-0.008532978,0.008118438,0.3305664
159,146571160,-0.3558991253376007,-0.7241048812866211,15.79255199432373,0.00811542,-0.0026464318,0.34341335
160,146587827,-0.3564514219760895,-0.7234503030776978,15.79488754272461,-0.003469843,0.010823227,0.3329258
161,146604494,-0.3573358058929443,-0.7231668829917908,15.797673225402832,0.012864148,-0.0014436073,0.33362198
162,146621161,-0.3572600781917572,-0.7233358025550842,15.799142837524414,0.0051631564,-0.0023004774,0.3551674
163,146637828,-0.3569390475749969,-0.7221946716308594,15.80146312713623,0.0152822025,0.002073521,0.32204342
164,146654495,-0.3570144772529602,-0.7226786613464355,15.802382469177246,-0.0030838433,0.0035163774,0.32787228
165,146671162,-0.3565605282783508,-0.7229982018470764,15.804458618164062,0.0055475216,0.0050422777,0.3357296
166,146687829,-0.3567553162574768,-0.721903383731842,15.807305335998535,0.011931674,0.003946366,0.3164549
167,146704496,-0.3571064472198486,-0.7223578691482544,15.809504508972168,0.007294841,0.010436695,0.33744812
168,146721163,-0.3575018048286438,-0.7229089736938477,15.811081886291504,-0.0041617905,0.0019408416,0.3319645
169,146737830,-0.3565472960472107,-0.7224715352058411,15.813319206237791,-0.0015660784,0.005666598,0.33836174
170,146754497,-0.3568685054779053,-0.7221078872680664,15.815750122070312,0.0032347774,0.011502288,0.3634205
171,146771164,-0.3569680750370025,-0.7225437760353088,15.81826400756836,-0.0010514399,0.00789564,0.34406853
172,146787831,-0.3565853536128998,-0.7219390869140625,15.82102394104004,-0.0025202902,-0.0006295382,0.34896946
173,146804498,-0.3557243645191192,-0.72137051820755,15.823363304138184,0.0038997703,0.0042180577,0.32125473
174,146821165,-0.3555247187614441,-0.722326397895813,15.825063705444336,0.0064485515,0.0050149392,0.3256998
175,146837832,-0.3554441928863525,-0.7233656644821167,15.826822280883787,-0.0016017287,0.008015705,0.33657265
176,146854499,-0.354979008436203,-0.7230004668235779,15.829468727111816,-0.0057803174,0.01366575,0.32483292
177,146871166,-0.3553920388221741,-0.723154604434967,15.830575942993164,0.012266398,0.00292422,0.32731152
178,146887833,-0.3552146553993225,-0.723034679889679,15.833662986755373,0.0018142547,0.003369058,0.3343706
179,146904500,-0.3551007807254791,-0.7243367433547974,15.835527420043944,0.007753567,0.008386379,0.3605671
180,146921167,-0.3546831607818603,-0.7240691184997559,15.83790111541748,-0.0010842124,0.0033668648,0.34119892
181,146937834,-0.3546166718006134,-0.7225829362869263,15.83926486968994,0.008773016,-0.013001718,0.33042717
182,146954501,-0.3542385101318359,-0.7237911820411682,15.841365814208984,0.0022538838,-0.0026866363,0.33067036
183,146971168,-0.3546927571296692,-0.7241292595863342,15.842327117919922,-0.0022803908,0.0030334706,0.30951023
184,146987835,-0.354700893163681,-0.7246355414390564,15.844321250915527,0.00084171485,0.0071886657,0.33674717
185,147004502,-0.3552184402942657,-0.7247312664985657,15.845531463623049,0.0049474454,0.002477821,0.3413334
186,147021169,-0.355673611164093,-0.725254476070404,15.847309112548828,-9.003381e-05,0.010741728,0.334877
187,147037836,-0.3551437258720398,-0.7247486114501953,15.84925651550293,0.011114831,0.012529812,0.34127426
188,147054503,-0.3533021509647369,-0.7255739569664001,15.852145195007324,0.004193459,-0.004622772,0.34282398
189,147071170,-0.3535916805267334,-0.7254123687744141,15.854853630065918,0.009999571,0.00594677,0.325922
190,147087837,-0.3531801700592041,-0.7272160053253174,15.856573104858398,-0.001855884,-0.0022641409,0.32330227
191,147104504,-0.3539049625396728,-0.7273086309432983,15.858251571655272,0.0025973043,0.0031213427,0.32377625
192,147121171,-0.3539737462997436,-0.7272384762763977,15.858821868896484,0.007551029,-0.002745062,0.3427286
193,147137838,-0.3537372648715973,-0.7269106507301331,15.861390113830566,0.0021345208,0.003446348,0.3529253
194,147154505,-0.3544989824295044,-0.7272036671638489,15.8623628616333,0.0030413268,-0.006951716,0.3312254
195,147171172,-0.3543078899383545,-0.7275413274765015,15.864367485046388,0.00245888,0.0031662374,0.32328796
196,147187839,-0.3533059358596802,-0.7272430658340454,15.864931106567385,0.0054426733,0.011303982,0.3465786
197,147204506,-0.3531580567359924,-0.7282421588897705,15.86699104309082,0.0030071083,-0.0058285003,0.33938313
198,147221173,-0.3520912528038025,-0.7286863923072815,15.86749267578125,0.0046142642,0.008935596,0.34375572
199,147237840,-0.3519825935363769,-0.7276867032051086,15.870214462280272,-0.004406034,0.011921206,0.34168434
200,147254507,-0.3519560098648071,-0.7286052703857422,15.871734619140623,0.0014388856,-0.0018346572,0.331069
201,147271174,-0.3510174453258514,-0.7297606468200684,15.873045921325684,-0.007155404,0.001825584,0.33332062
202,147287841,-0.3516044020652771,-0.7301411628723145,15.874408721923828,0.00648738,0.016924456,0.32772827
203,147304508,-0.3508085906505584,-0.7298335433006287,15.877614974975586,0.00313201,-0.00035587978,0.34568977
204,147321175,-0.3522181808948517,-0.7302079796791077,15.87655258178711,0.007148084,-0.014054243,0.3263502
205,147337842,-0.3514506816864013,-0.7292258739471436,15.879090309143066,0.008475695,-0.00060733885,0.3276806
206,147354509,-0.3512389957904815,-0.7292640209197998,15.881071090698242,0.0054153,0.009672147,0.31816673
207,147371176,-0.3508265316486358,-0.7284011840820312,15.881900787353516,0.0074452166,0.0074328124,0.3227787
208,147387843,-0.3512848913669586,-0.7280251383781433,15.884414672851562,-0.0066799573,0.0041530943,0.3636284
209,147404510,-0.35126394033432,-0.7282246351242065,15.887155532836914,0.009574415,0.0046734028,0.33119106
210,147421177,-0.3511121869087219,-0.7283909916877747,15.88816738128662,0.009812142,0.006929703,0.33971882
211,147437844,-0.3518845736980438,-0.730457603931427,15.889633178710938,-0.00012451068,-0.0009747435,0.3532076
212,147454511,-0.3504722118377685,-0.730750322341919,15.889387130737305,0.014347457,0.0037481762,0.32941628
213,147471178,-0.3515042662620544,-0.7313402891159058,15.889745712280272,0.0066149705,0.012158859,0.3246088
214,147487845,-0.3522853255271911,-0.7315558195114136,15.89085865020752,0.0058489568,-0.0032542194,0.34525967
215,147504512,-0.3517607450485229,-0.7310425043106079,15.893051147460938,-0.008668482,-0.00837485,0.3291483
216,147521179,-0.351703941822052,-0.7309353947639465,15.895055770874023,0.0064540203,0.0067876605,0.33440113
217,147537846,-0.3516466319561004,-0.7313526272773743,15.896985054016112,0.0073236953,0.011018943,0.32104778
218,147554513,-0.352125883102417,-0.7316992282867432,15.89720058441162,-0.000508492,0.0020941854,0.34230328
219,147571180,-0.3517858982086181,-0.7320525050163269,15.898797035217283,0.003685994,0.003776922,0.3652916
220,147587847,-0.3509379625320434,-0.7316113710403442,15.898565292358398,-0.010813969,0.000640417,0.3465147
221,147604514,-0.3496169447898865,-0.730527937412262,15.899643898010254,0.0070565133,-0.008685881,0.32573223
222,147621181,-0.3497791290283203,-0.7311872243881226,15.901565551757812,-0.011218786,-0.0029605706,0.31262207
223,147637848,-0.3505652546882629,-0.7315922379493713,15.903428077697754,0.0004205955,-0.0030465235,0.32053852
224,147654515,-0.3506820201873779,-0.7324422001838684,15.904254913330078,-0.0029172003,-0.0017493835,0.3471899
225,147671182,-0.3510729372501373,-0.7331992387771606,15.90628433227539,0.002446496,-3.1419288e-05,0.3385458
226,147687849,-0.3520612716674804,-0.7334362268447876,15.908921241760254,0.012534606,6.142066e-05,0.3272648
227,147704516,-0.3512670695781708,-0.732475221157074,15.910061836242676,0.002662214,0.004604936,0.34140205
228,147721183,-0.3508513867855072,-0.7331176400184631,15.912220001220703,0.008240315,-0.006452042,0.32415295
229,147737850,-0.3512386977672577,-0.7339435815811157,15.914308547973633,0.010902305,-0.004181414,0.32007313
230,147754517,-0.3514778316020965,-0.734531044960022,15.91549015045166,0.0036588092,-0.0010456635,0.29978943
231,147771184,-0.3514497280120849,-0.7347602844238281,15.9175443649292,-0.0039487896,0.0091955485,0.3547964
232,147787851,-0.3506834208965301,-0.7331225275993347,15.919774055480955,-0.00315191,-0.0020369906,0.3254938
233,147804518,-0.3507995009422302,-0.7318477034568787,15.920173645019531,0.00048005694,0.0015634784,0.31887913
234,147821185,-0.3511355817317962,-0.731521725654602,15.922045707702637,0.0060642837,-0.005502341,0.32824516
235,147837852,-0.3515234887599945,-0.7309696674346924,15.922253608703612,0.017978167,-0.0070478823,0.3381586
236,147854519,-0.3518244326114654,-0.729188859462738,15.923489570617676,0.015687173,0.005780904,0.33990288
237,147871186,-0.351047158241272,-0.7307630181312561,15.92372226715088,0.013222279,0.0008456595,0.3206606
238,147887853,-0.3508383333683014,-0.731389582157135,15.925518989562988,0.009251607,0.005229482,0.3257923
239,147904520,-0.3512155413627624,-0.7317739725112915,15.925033569335938,0.0009814664,-0.0008262663,0.31659698
240,147921187,-0.3609503209590912,-0.7250922918319702,15.917885780334473,0.0024316325,-0.011327686,0.34182167
241,147937854,-0.3616411387920379,-0.7236599326133728,15.917863845825195,0.00011142121,0.01304442,0.33553123
242,147954521,-0.361446350812912,-0.7245282530784607,15.919779777526855,-0.007536724,0.013991295,0.3258152
243,147971188,-0.3621638119220733,-0.7245938181877136,15.920750617980955,0.00573558,0.015967079,0.33734512
244,147987855,-0.3623615801334381,-0.7250982522964478,15.921246528625488,0.0066228216,0.0017316125,0.34668636
245,148004522,-0.362646996974945,-0.724860429763794,15.9215087890625,0.005428117,0.0039038092,0.33923054
246,148021189,-0.3635804057121277,-0.7244861721992493,15.922796249389648,-0.0006149959,0.0064911027,0.31721497
247,148037856,-0.3651312589645386,-0.7236271500587463,15.923715591430664,-2.3343135e-05,0.016491603,0.3401556
248,148054523,-0.3647993505001068,-0.7239263653755188,15.924285888671877,0.0014364969,0.0017204683,0.34534454
249,148071190,-0.3647571802139282,-0.7229804396629333,15.92372226715088,-0.0024328476,0.008837321,0.3143711
250,148087857,-0.3636671304702759,-0.723288893699646,15.924586296081545,0.003976931,-0.0031605605,0.35789967
251,148104524,-0.3636273145675659,-0.7240902185440063,15.92626953125,0.0089040855,-0.007193354,0.32889462
252,148121191,-0.3650031387805938,-0.7224185466766357,15.928543090820312,0.016395492,0.006245771,0.339036
253,148137858,-0.3651542663574219,-0.7220650315284729,15.93050479888916,0.0036351867,0.0003482716,0.32038307
254,148154525,-0.3649993240833282,-0.7237106561660767,15.930453300476074,0.010788684,0.013382353,0.3463974
255,148171192,-0.365996241569519,-0.7233908176422119,15.930282592773438,0.0051226304,0.005988275,0.3470888
256,148187859,-0.3662264943122864,-0.7223066091537476,15.9301118850708,-0.002162411,0.0040580854,0.3322611
257,148204526,-0.3656768202781677,-0.7226668000221252,15.931867599487305,-0.0053718197,-0.0003571475,0.31365013
258,148221193,-0.365615040063858,-0.7233965396881104,15.933099746704102,-0.0060890727,-0.0017565988,0.32935047
259,148237860,-0.365715354681015,-0.7247558236122131,15.932799339294434,0.0031282525,0.0052174474,0.33374596
260,148254527,-0.3647371232509613,-0.7237071990966797,15.933564186096191,0.0038778658,0.0074040988,0.34968472
261,148271194,-0.3652305901050567,-0.7227751016616821,15.935994148254396,0.022016278,0.0011430295,0.3394928
262,148287861,-0.3654839992523193,-0.7225054502487183,15.93804168701172,0.0016149789,-0.0053039487,0.33043766
263,148304528,-0.3647147715091705,-0.723027765750885,15.939886093139648,0.00907295,0.02203646,0.3601961
264,148321195,-0.3654806017875671,-0.7225658297538757,15.941648483276367,0.013133684,-0.015109498,0.3448515
265,148337862,-0.3664111196994781,-0.7230352759361267,15.942705154418944,0.005412471,0.012515206,0.32875252
266,148354529,-0.3666319251060486,-0.722291886806488,15.943075180053713,0.0068456572,-0.00033038706,0.33891106
267,148371196,-0.3671837449073791,-0.7222322225570679,15.942571640014648,0.01725562,-0.00068585476,0.33167076
268,148387863,-0.3678746819496155,-0.7228274941444397,15.944199562072754,0.0050681285,-0.0031919868,0.32201862
269,148404530,-0.3678185045719147,-0.7230476140975952,15.944379806518556,0.0077382,-0.0055148294,0.3449974
270,148421197,-0.3689461946487427,-0.7230520248413086,15.946352005004885,0.012009938,-0.0047469838,0.3477869
271,148437864,-0.3689987957477569,-0.723290205001831,15.94605541229248,-0.008417547,0.012423612,0.3385992
272,148454531,-0.3687317967414856,-0.7239946722984314,15.946975708007812,0.014898305,-0.007807004,0.33605003
273,148471198,-0.3690254390239715,-0.7243375778198242,15.94853973388672,-0.00077838387,0.0063588494,0.32653713
274,148487865,-0.3697662949562073,-0.7233421206474304,15.949878692626951,0.0069799884,0.009319114,0.32957172
275,148504532,-0.3697633147239685,-0.7233291864395142,15.951520919799805,0.018062487,-0.009463177,0.34346294
276,148521199,-0.3697910010814667,-0.7236326932907104,15.952374458312988,0.004907716,-0.0019579614,0.33540154
277,148537866,-0.3692971169948578,-0.7240878343582153,15.951618194580078,0.015408481,-0.0094530685,0.3552065
278,148554533,-0.3686276972293854,-0.7241306304931641,15.95429801940918,0.011113651,0.0070938403,0.33696365
279,148571200,-0.3683673441410064,-0.7240688800811768,15.955385208129885,0.008874973,0.013708595,0.334445
280,148587867,-0.3694940507411957,-0.7239750027656555,15.955195426940918,0.0021648486,0.0021705464,0.32359982
281,148604534,-0.370078831911087,-0.7238104939460754,15.95672607421875,0.0068582436,0.002173185,0.32435417
282,148621201,-0.3708288967609405,-0.7246525287628174,15.95716953277588,0.006444214,-0.0018192435,0.31737995
283,148637868,-0.3704165816307068,-0.7255133986473083,15.958003044128418,-0.0066867042,-0.00036235116,0.33329487
284,148654535,-0.3715432584285736,-0.7259615659713745,15.959968566894531,-0.0070092403,0.0012342315,0.3246765
285,148671202,-0.3723064661026001,-0.7257153987884521,15.96153736114502,0.0075516016,-0.0011479416,0.33219337
286,148687869,-0.3718341588973999,-0.7257667183876038,15.961878776550291,0.00094240747,0.0028430638,0.33504105
287,148704536,-0.3716852068901062,-0.7256288528442383,15.962749481201172,0.004037657,0.0022736401,0.34018612
288,148721203,-0.3722586035728454,-0.7244687080383301,15.963841438293455,0.0015702344,0.0019316322,0.34962082
289,148737870,-0.3723478317260742,-0.7232280373573303,15.965237617492676,-0.0019622971,0.0072038923,0.33117867
290,148754537,-0.3719809353351593,-0.7223584651947021,15.96578598022461,0.003157805,0.01798353,0.3509636
291,148771204,-0.3721375465393066,-0.7232545018196106,15.96629810333252,0.002898502,-0.015233536,0.34492874
292,148787871,-0.3730798959732055,-0.7232280969619751,15.966496467590332,0.012729985,-0.010226628,0.32414436
293,148804538,-0.3733458518981933,-0.7221753597259521,15.966974258422852,0.004330207,0.0067663398,0.3431654
294,148821205,-0.3728973865509033,-0.7232783436775208,15.967823028564451,0.015348194,-0.00090865174,0.3388462
295,148837872,-0.3729686141014099,-0.7237746119499207,15.969026565551758,0.014745876,-0.0065624746,0.33804703
296,148854539,-0.3717029392719269,-0.7241540551185608,15.970166206359863,0.0071865562,-0.00048498294,0.34880066
297,148871206,-0.3719386458396911,-0.7236121892929077,15.970051765441896,-0.0015963574,0.001428253,0.33974934
298,148887873,-0.3728068172931671,-0.7243987917900085,15.971687316894531,-0.009811154,-0.0054197456,0.33545303
299,148904540,-0.3721652328968048,-0.7243248820304871,15.972786903381348,0.011716102,-0.00021881395,0.32959366
300,148921207,-0.3725684285163879,-0.7254669070243835,15.972694396972656,-0.0036587603,-0.0070577636,0.35212898
301,148937874,-0.3723994195461273,-0.7272910475730896,15.97421932220459,0.0105980765,0.0061555277,0.3324957
302,148954541,-0.3727464377880096,-0.7273712158203125,15.973978996276855,-0.0021909857,-0.00342374,0.32923508
303,148971208,-0.3727657198905945,-0.7268915772438049,15.973869323730469,0.013511561,-0.00018071022,0.33783627
304,148987875,-0.3721229135990143,-0.7270157337188721,15.974716186523438,-0.014698994,0.002361755,0.36077213
305,149004542,-0.3719372451305389,-0.72677081823349,15.97519302368164,0.0014618096,0.015690606,0.35348892
306,149021209,-0.3728254735469818,-0.7274379730224609,15.975716590881348,0.0066784904,0.020681491,0.33452034
307,149037876,-0.3731735050678253,-0.7274929285049438,15.974675178527832,-0.002911319,0.014822602,0.3262148
308,149054543,-0.3735208511352539,-0.7264719605445862,15.974804878234863,0.012618215,0.016860563,0.31356812
309,149071210,-0.3730958104133606,-0.7267247438430786,15.975597381591797,0.0059955884,-0.006802357,0.312006
310,149087877,-0.3721347153186798,-0.7282807230949402,15.977021217346191,0.0031846196,0.011779021,0.3396635
311,149104544,-0.3719825446605682,-0.7296536564826965,15.977173805236816,0.0033410368,0.0016542979,0.34450626
312,149121211,-0.371529072523117,-0.7292472720146179,15.977803230285645,0.006301319,0.0123123275,0.3554535
313,149137878,-0.3721717298030853,-0.7279983162879944,15.978517532348633,0.0003857135,-0.0025829542,0.34191132
314,149154545,-0.3723733723163605,-0.7272802591323853,15.980035781860352,0.008801269,-0.019688439,0.3431368
315,149171212,-0.3717765808105469,-0.7281525731086731,15.980012893676758,0.00020810452,0.010115825,0.3327999
316,149187879,-0.3710742890834808,-0.7296516299247742,15.980463981628418,0.0092155505,0.0018829604,0.33514595
317,149204546,-0.3700125515460968,-0.7298889756202698,15.981719017028809,-0.007884867,-0.010335374,0.33087826
318,149221213,-0.3693028390407562,-0.7308005094528198,15.982661247253418,-0.0065283105,0.0037717724,0.336133
319,149237880,-0.3684653341770172,-0.7314477562904358,15.983086585998535,-0.0052268715,-0.0003099077,0.31602287
320,149254547,-0.3686158657073974,-0.7323131561279297,15.983551025390623,0.0023713328,0.011130012,0.34706497
321,149271214,-0.3681834042072296,-0.7313796281814575,15.984803199768066,-0.013594424,-1.6239613e-06,0.32322407
322,149287881,-0.3669856786727905,-0.7310644388198853,15.985578536987305,0.016176611,0.00881008,0.33901405
323,149304548,-0.3662174940109253,-0.7311930060386658,15.987032890319824,0.007534014,0.00119138,0.32593822
324,149321215,-0.3670722246170044,-0.7314490675926208,15.986334800720217,0.014073507,-0.004996229,0.3266077
325,149337882,-0.366908460855484,-0.7320179343223572,15.987222671508787,0.0010624689,0.0017148682,0.33801174
326,149354549,-0.3678015768527984,-0.7332092523574829,15.987642288208008,-0.013837708,-0.00014938872,0.33811665
327,149371216,-0.3667976856231689,-0.7335114479064941,15.98821258544922,-0.0068152454,0.0005960794,0.3250227
328,149387883,-0.3664500713348388,-0.7349699139595032,15.98825740814209,0.0072158715,0.00032607745,0.3310194
329,149404550,-0.367716372013092,-0.7349691987037659,15.988856315612791,-0.0036403136,0.020138405,0.3443575
330,149421217,-0.3683114647865295,-0.7333999872207642,15.98873233795166,-0.004016591,0.010244532,0.3224182
331,149437884,-0.3673946261405945,-0.7336329817771912,15.989691734313965,0.006222496,0.01531722,0.318408
332,149454551,-0.3692592680454254,-0.7341068983078003,15.990449905395508,-0.002430515,0.01232173,0.33988094
333,149471218,-0.3692007958889007,-0.7326255440711975,15.990772247314451,-0.008737603,0.010701313,0.37300873
334,149487885,-0.3703427910804748,-0.7324968576431274,15.99107837677002,-0.0014523942,-0.0051468066,0.33844566
335,149504552,-0.3695560693740845,-0.7329385280609131,15.99124240875244,-0.011942189,0.008733917,0.32935905
336,149521219,-0.3701731562614441,-0.7339618802070618,15.992491722106934,-0.008231913,0.015286048,0.32465267
337,149537886,-0.3704115748405456,-0.7324814200401306,15.992942810058594,0.001588332,0.014544584,0.35448647
338,149554553,-0.3714430630207062,-0.7318885922431946,15.994211196899414,0.0038696867,0.005683987,0.31112862
339,149571220,-0.3706413805484772,-0.731480062007904,15.994452476501465,-0.0026536924,-0.0037325476,0.3306837
340,149587887,-0.3702100813388824,-0.7314884066581726,15.99468231201172,-0.001258818,0.01519418,0.33216286
341,149604554,-0.3704877197742462,-0.7300984859466553,15.99480438232422,0.010158468,-0.005307776,0.34265423
342,149621221,-0.3710412681102752,-0.7303510904312134,15.995031356811523,0.015775502,-0.0041608927,0.33755207
343,149637888,-0.3718198835849762,-0.7307451963424683,15.995716094970703,0.00040935,-0.0029986184,0.3423233
344,149654555,-0.3717206716537475,-0.7323596477508545,15.995746612548828,0.010841203,0.004827178,0.3276472
345,149671222,-0.3722093403339386,-0.7324578166007996,15.997416496276855,-0.012269436,0.002136997,0.31726456
346,149687889,-0.3732094764709472,-0.7329863905906677,15.997838020324709,-0.0003026086,0.011462197,0.33465862
347,149704556,-0.3732519447803497,-0.7314285039901733,15.99822235107422,0.006338031,0.006944186,0.3123474
348,149721223,-0.3729672431945801,-0.7311505675315857,15.999506950378418,-0.00080239755,0.0023594692,0.3281231
349,149737890,-0.3740352094173431,-0.7311521768569946,15.999107360839844,-0.004345155,0.0029584402,0.34517193
350,149754557,-0.3742842674255371,-0.73286372423172,15.99995231628418,-0.011179891,-0.00637965,0.34003258
351,149771224,-0.3737050294876098,-0.7338017821311951,16.000934600830078,0.0048881792,-0.0017914895,0.33500957
352,149787891,-0.3733072876930237,-0.7334277033805847,16.001983642578125,-0.0030978266,-0.0044989563,0.32093906
353,149804558,-0.372952789068222,-0.7331675887107849,16.00302505493164,0.0017649281,0.0067771957,0.3280344
354,149821225,-0.3732479512691498,-0.7315883040428162,16.003021240234375,0.0038873863,-0.010424471,0.33147907
355,149837892,-0.3737924993038177,-0.7307503819465637,16.002809524536133,0.0033190276,0.0028201398,0.34857655
356,149854559,-0.3738353252410888,-0.732130765914917,16.00309944152832,-0.00052204943,0.008402509,0.34007263
357,149871226,-0.3740954399108886,-0.7335612773895264,16.0041561126709,-0.0039862767,-0.0072141266,0.3424425
358,149887893,-0.3733381032943725,-0.7337758541107178,16.0057315826416,-0.012880489,0.001513717,0.33344364
359,149904560,-0.3740959167480469,-0.7338230013847351,16.00635528564453,0.00922461,0.0025841643,0.33477497
360,149921227,-0.3652860820293426,-0.7297866344451904,16.008663177490234,0.0044394634,0.0044053723,0.3412323
361,149937894,-0.3654678165912628,-0.7290960550308228,16.00960922241211,0.01199476,-0.0007969215,0.34083748
362,149954561,-0.3654382228851318,-0.7297465801239014,16.00929832458496,0.0037844933,-0.011547486,0.329257
363,149971228,-0.3648587167263031,-0.7287572622299194,16.009777069091797,-0.011588952,-0.00704256,0.325078
364,149987895,-0.3649735450744629,-0.7274255752563477,16.011234283447266,-0.00055229355,0.00061376306,0.32151794
365,150004562,-0.3649539649486542,-0.7273091673851013,16.01163101196289,0.0030101188,-0.0035358195,0.3374262
366,150021229,-0.3645414710044861,-0.7274430394172668,16.01179313659668,0.0023453913,0.0063602007,0.3177662
367,150037896,-0.3640124499797821,-0.7280671000480652,16.01239776611328,0.0015992981,0.00047905286,0.3359108
368,150054563,-0.3647587597370147,-0.7297671437263489,16.01272964477539,0.008808576,0.00011349569,0.34432125
369,150071230,-0.3651909828186035,-0.7290629148483276,16.01299285888672,0.0029105996,-0.001195693,0.3218155
370,150087897,-0.3653079271316528,-0.7286943793296814,16.01266860961914,0.003499214,0.021567402,0.33270836
371,150104564,-0.3657855987548828,-0.729073703289032,16.013286590576172,0.009751004,0.002078943,0.3260603
372,150121231,-0.3665892481803894,-0.7295047640800476,16.01420783996582,0.008360754,0.00048774717,0.33212376
373,150137898,-0.3660145103931427,-0.7298116683959961,16.015056610107422,-0.00397251,0.011650018,0.32009792
374,150154565,-0.3650879263877868,-0.7296221256256104,16.014047622680664,0.0109477695,-0.0032915303,0.34466362
375,150171232,-0.3668303489685058,-0.7289139628410339,16.01293182373047,0.01467431,-0.0023268012,0.34174347
376,150187899,-0.3673809468746185,-0.7302591800689697,16.013460159301758,0.012563063,-0.0027969852,0.3273096
377,150204566,-0.3667645752429962,-0.73023521900177,16.014766693115234,0.005730481,0.003394603,0.34669685
378,150221233,-0.3666436374187469,-0.7294020652770996,16.014482498168945,0.009166804,-0.018675914,0.3324566
379,150237900,-0.3666279315948486,-0.7293367385864258,16.013750076293945,-0.002886516,0.00067052315,0.3108635
380,150254567,-0.3678604364395141,-0.7295975685119629,16.013473510742188,-0.003218384,-0.0081818225,0.3103466
381,150271234,-0.3680815398693084,-0.7298574447631836,16.014141082763672,0.011310154,-0.0054500736,0.34317493
382,150287901,-0.3694160878658294,-0.7315161824226379,16.013702392578125,0.009448654,-0.009168952,0.3348341
383,150304568,-0.369907796382904,-0.7309858202934265,16.013900756835938,-0.005377023,-0.0039564623,0.30997372
384,150321235,-0.3707950115203857,-0.7309985160827637,16.015249252319336,0.015360278,0.011849882,0.33371162
385,150337902,-0.3704117238521576,-0.7309510707855225,16.016101837158203,-0.0007165406,0.003913167,0.33574867
386,150354569,-0.3695928752422333,-0.7318360209465027,16.017780303955078,0.01326175,-0.01125617,0.34445858
387,150371236,-0.3695708811283111,-0.7310700416564941,16.01807975769043,0.01047462,0.007863436,0.35568905
388,150387903,-0.3694631457328796,-0.7304984331130981,16.018714904785156,0.004318543,-0.00091651664,0.34080505
389,150404570,-0.3698239922523498,-0.7313349843025208,16.01941680908203,-0.0037743724,-0.0023436835,0.33750725
390,150421237,-0.3699832260608673,-0.7315106987953186,16.018362045288086,-0.00961873,0.0062118005,0.32887173
391,150437904,-0.3697066009044647,-0.731234073638916,16.019432067871094,-0.0020638837,-0.00467711,0.3364725
392,150454571,-0.3684883415699005,-0.7324658036231995,16.019224166870117,-0.009135499,-0.0077139526,0.32653618
393,150471238,-0.3689307272434234,-0.7324320673942566,16.019826889038086,-0.0016203711,-0.009455106,0.34130192
394,150487905,-0.3671847283840179,-0.7313016653060913,16.019655227661133,-0.0011072622,-0.0066496045,0.32824707
395,150504572,-0.3665676414966583,-0.7319656014442444,16.02023696899414,0.021771979,-0.015986018,0.3544836
396,150521239,-0.3684344291687011,-0.7324509024620056,16.02042579650879,-0.011638365,0.003676755,0.33761024
397,150537906,-0.3691583573818207,-0.7331786155700684,16.020977020263672,0.0058229384,-0.007648294,0.33628654
398,150554573,-0.367932915687561,-0.7324779033660889,16.020824432373047,-0.0046320963,0.014954508,0.33052826
399,150571240,-0.3679227530956268,-0.7316383719444275,16.020954132080078,-0.006122621,0.002847864,0.3343191
400,150587907,-0.3676908314228058,-0.7315268516540527,16.020666122436523,0.003529032,-0.00686845,0.3518362
401,150604574,-0.3678697645664215,-0.7320975065231323,16.020755767822266,-0.0073433085,0.025650674,0.33307743
402,150621241,-0.3685031235218048,-0.7314053177833557,16.021425247192383,-0.01252158,0.0019249687,0.3269701
403,150637908,-0.3689339458942413,-0.7314440608024597,16.021678924560547,-0.0073305336,-0.0026062222,0.32273293
404,150654575,-0.3694625496864319,-0.7302586436271667,16.022737503051758,-0.004793319,0.0032353168,0.33603287
405,150671242,-0.369914174079895,-0.7302867770195007,16.0229549407959,0.0058098002,-0.0050886096,0.32412243
406,150687909,-0.3693702518939972,-0.7302684783935547,16.02289390563965,0.0021452424,0.0060338126,0.33172035
407,150704576,-0.370015799999237,-0.7310131788253784,16.02223777770996,-0.023471573,-0.016032668,0.31888008
408,150721243,-0.3686977326869964,-0.7317697405815125,16.023710250854492,0.005732646,0.008652087,0.3277712
409,150737910,-0.3684500753879547,-0.7304001450538635,16.024442672729492,0.0055839475,0.0026604694,0.3512926
410,150754577,-0.3685664236545563,-0.7295834422111511,16.02556800842285,0.0038551444,-0.0032353501,0.33688545
411,150771244,-0.3684841096401214,-0.7287770509719849,16.025928497314453,-0.005312777,0.0074023753,0.34897327
412,150787911,-0.3680680096149444,-0.7278082370758057,16.02582359313965,0.012267648,0.007954081,0.32817173
413,150804578,-0.3675290048122406,-0.7282052636146545,16.025772094726562,-0.0038256338,-0.0017556262,0.32429123
414,150821245,-0.3677685260772705,-0.7280513048171997,16.024869918823242,-0.0046108277,0.013558365,0.320405
415,150837912,-0.3668617606163025,-0.7280305027961731,16.024269104003906,0.005897571,-0.00541003,0.31221104
416,150854579,-0.3663483560085296,-0.7269677519798279,16.024450302124023,0.010654486,-0.0011931732,0.34798622
417,150871246,-0.3663276135921478,-0.7269759178161621,16.024829864501953,0.008483609,0.013577503,0.31926537
418,150887913,-0.36611407995224,-0.7278317809104919,16.025911331176758,0.0004840173,-0.002189463,0.3399086
419,150904580,-0.3658222556114197,-0.7272838950157166,16.027271270751953,0.009815928,-0.004920432,0.33786583
420,150921247,-0.3659304082393646,-0.7260386347770691,16.027650833129883,0.0044719283,0.010464534,0.33490276
421,150937914,-0.3654230237007141,-0.7258890867233276,16.02842140197754,0.0051768254,-0.0001314623,0.32283306
422,150954581,-0.3650560975074768,-0.7246953845024109,16.028566360473633,-0.005917729,-0.005406426,0.3389578
423,150971248,-0.3657452166080475,-0.7249515056610107,16.02872657775879,0.009874998,0.011054454,0.33848476
424,150987915,-0.3656759560108185,-0.7250624299049377,16.027978897094727,0.0017279927,0.0058340756,0.3573494
425,151004582,-0.3651578724384308,-0.7247192859649658,16.028568267822266,0.015219612,-0.0011820255,0.33913517
426,151021249,-0.3658629357814789,-0.7236421704292297,16.02918243408203,0.00714448,-0.004643354,0.34457302
427,151037916,-0.3659433722496032,-0.7229401469230652,16.02938461303711,0.008555015,0.0028729448,0.3256302
428,151054583,-0.365438163280487,-0.7231866121292114,16.028705596923828,0.0035973503,-0.00041577427,0.34457302
429,151071250,-0.3650619387626648,-0.7224928140640259,16.028867721557617,0.00048648292,-0.0047381623,0.3302889
430,151087917,-0.3657712638378143,-0.7226222157478333,16.028648376464844,-1.5184912e-05,0.006106283,0.3515129
431,151104584,-0.3658833801746368,-0.7235094308853149,16.029094696044922,0.002054161,0.008625146,0.32912922
432,151121251,-0.3651186823844909,-0.7246115207672119,16.028783798217773,0.013558002,0.0051416587,0.33323956
433,151137918,-0.3647614419460296,-0.7259688973426819,16.028942108154297,0.008305594,-0.021270538,0.3202629
434,151154585,-0.3638375401496887,-0.7269404530525208,16.029111862182617,0.01123133,0.0042017293,0.33578014
435,151171252,-0.3639840185642242,-0.7251091003417969,16.029129028320312,0.019186527,0.0011400749,0.34579182
436,151187919,-0.3644843101501465,-0.7263053059577942,16.029150009155273,0.017969435,-0.0054932726,0.339571
437,151204586,-0.3654245734214782,-0.7255241274833679,16.02996826171875,0.012701158,-0.0054547885,0.33011913
438,151221253,-0.3655443787574768,-0.7255601286888123,16.030166625976562,0.0073314137,0.0013143313,0.3447876
439,151237920,-0.3660053312778473,-0.7253268361091614,16.031246185302734,0.0148666985,-0.0048275306,0.33338928
440,151254587,-0.3664454817771911,-0.7246204018592834,16.03277587890625,-0.00032722298,0.006445078,0.33992195
441,151271254,-0.3668094873428345,-0.7250704169273376,16.033205032348633,0.0069926027,-0.000118309945,0.3002739
442,151287921,-0.3672614395618438,-0.7254689335823059,16.03351402282715,-0.0021188748,0.009438836,0.32654667
443,151304588,-0.3666966259479522,-0.7257483601570129,16.033639907836914,0.004009501,0.002685564,0.32236385
444,151321255,-0.3658560514450073,-0.725409984588623,16.0341739654541,0.005067807,0.0049144058,0.31688023
445,151337922,-0.365141212940216,-0.724347710609436,16.03358268737793,0.005955985,-0.011113791,0.31881332
446,151354589,-0.3651881515979767,-0.7251843214035034,16.03364372253418,0.009323312,0.0009142326,0.31422806
447,151371256,-0.3646994233131408,-0.7249683737754822,16.036087036132812,0.0023716192,-0.0067881965,0.32625008
448,151387923,-0.3641906976699829,-0.7248219847679138,16.036174774169922,0.0011319814,-0.006298167,0.32656765
449,151404590,-0.3637218773365021,-0.7241201996803284,16.035566329956055,0.006803336,0.009697549,0.34401894
450,151421257,-0.363789439201355,-0.7236582636833191,16.0362548828125,0.015883194,0.015195172,0.3426504
451,151437924,-0.3640357553958893,-0.724010705947876,16.036531448364258,-0.0020821,0.002433155,0.3472824
452,151454591,-0.3640300333499908,-0.7248837351799011,16.03769302368164,0.00449831,0.009068464,0.33759308
453,151471258,-0.3638626933097839,-0.7236230373382568,16.037809371948242,0.0007202845,0.00938016,0.33469582
454,151487925,-0.3636260628700256,-0.7235255241394043,16.037803649902344,-0.0020680048,-0.0027739808,0.33091354
455,151504592,-0.3644917905330658,-0.7229936718940735,16.038084030151367,-0.0042167394,-0.008566672,0.33704853
456,151521259,-0.3654561042785644,-0.722501814365387,16.037385940551758,7.331225e-05,-0.0036069474,0.33519173
457,151537926,-0.3660734891891479,-0.7217149138450623,16.039047241210938,-0.0018111115,-0.0117227165,0.33110905
458,151554593,-0.3662784993648529,-0.7225227952003479,16.038909912109375,0.0028859295,0.014829967,0.33808804
459,151571260,-0.3657727539539337,-0.7225803136825562,16.039087295532227,0.0043328055,0.007008795,0.33820438
460,151587927,-0.365951269865036,-0.7226420640945435,16.040124893188477,-0.00044984077,-0.0073878174,0.34744644
461,151604594,-0.3646546602249145,-0.722381055355072,16.04155921936035,-0.0025976326,0.003647176,0.33939457
462,151621261,-0.3642033636569977,-0.7221806049346924,16.042076110839844,0.0028020283,0.008786127,0.32373714
463,151637928,-0.3631655573844909,-0.7215601801872253,16.041852951049805,0.012036061,-0.0012119152,0.33395863
464,151654595,-0.363290935754776,-0.7227263450622559,16.041500091552734,-0.00070387026,0.007258384,0.33272934
465,151671262,-0.3635378777980804,-0.7238772511482239,16.041610717773438,0.013222754,0.009725723,0.32204628
466,151687929,-0.3683891594409942,-0.7355022430419922,16.04183578491211,-0.0027302178,-0.00071013556,0.33031464
467,151704596,-0.3822636604309082,-0.744462251663208,16.00647735595703,-0.0005665355,-0.033444513,0.34077263
468,151721263,-0.3983481526374817,-0.758466899394989,15.626971244812012,0.032412823,-0.10957633,0.35665512
469,151737930,-0.4214566946029663,-0.8030565977096558,15.180188179016112,0.054839708,0.014074386,0.3414049
470,151754597,-0.4437329173088074,-0.8696317672729492,14.923909187316896,-0.068539225,0.042073756,0.34653473
471,151771264,-0.4393011033535003,-0.8339727520942688,14.88991355895996,0.052641533,0.06535324,0.25457954
472,151787931,-0.4279359877109527,-0.7474682331085205,14.896798133850098,-0.035412043,0.006268318,0.37403202
473,151804598,-0.4284177720546722,-0.7374199628829956,14.899256706237791,-0.023327803,-0.006741601,0.35330486
474,151821265,-0.4284270703792572,-0.7380748987197876,14.898422241210938,-0.006911279,-0.0040915147,0.3277855
475,151837932,-0.4305846095085144,-0.7495377659797668,14.89671802520752,-0.0031687012,0.007144052,0.32571793
476,151854599,-0.4369395077228546,-0.7565404772758484,14.890871047973633,0.006480737,-0.0002528281,0.3509617
477,151871266,-0.4426344037055969,-0.7533727288246155,14.885543823242188,0.027624497,-0.006490886,0.35031128
478,151887933,-0.4463269412517547,-0.7431396245956421,14.876367568969728,-0.0051083816,-0.0030058126,0.3365755
479,151904600,-0.4527832269668579,-0.7455530762672424,14.873719215393066,0.010338725,0.0039389306,0.34399033
480,151921267,-0.4621424376964569,-0.7500722408294678,14.880260467529297,0.00303766,0.014167129,0.33004856
481,151937934,-0.4470668137073517,-0.7631397247314453,15.034053802490234,-0.15055759,0.2235848,0.35883522
482,151954601,-0.4008075296878814,-0.7711636424064636,15.22758960723877,0.01062443,-0.16741969,0.34738636
483,151971268,-0.387414276599884,-0.763811469078064,15.285536766052246,0.15813042,-0.06715188,0.34089375
484,151987935,-0.3799862563610077,-0.7545129656791687,15.2950439453125,0.022210307,-0.005786565,0.3312006
485,152004602,-0.3771652579307556,-0.7378885746002197,15.318982124328612,-0.00035775345,-0.001547588,0.32049656
486,152021269,-0.3791915774345398,-0.7292951941490173,15.337041854858398,-0.0073666447,0.00024459127,0.34682846
487,152037936,-0.3809449374675751,-0.7221730351448059,15.344771385192873,0.005545978,0.017706938,0.3400221
488,152054603,-0.3819703757762909,-0.7124909162521362,15.355303764343262,0.010769469,-0.0062148897,0.3323021
489,152071270,-0.3826397955417633,-0.6902735233306885,15.435312271118164,0.0814629,0.010134661,0.3422451
490,152087937,-0.3961010575294494,-0.6505195498466492,15.638553619384766,0.16162351,-0.014139021,0.32678986
491,152104604,-0.4246292412281036,-0.5625519156455994,15.893546104431152,0.36331892,0.02432358,0.36460018
492,152121271,-0.4715320467948913,-0.5276321768760681,16.05133819580078,0.55581534,0.1456464,0.31807518
493,152137938,-0.4787949919700622,-0.5515164136886597,16.07185935974121,-0.51407564,0.056615543,0.3294525
494,152154605,-0.4685316681861877,-0.5457502603530884,16.02659034729004,0.051968787,0.016570205,0.35281754
495,152171272,-0.4381168484687805,-0.5115390419960022,15.957222938537598,0.07818285,0.05210389,0.32772636
496,152187939,-0.3709593713283539,-0.4605984985828399,15.809979438781738,-0.106434114,0.13981774,0.3226776
497,152204606,-0.2684705257415771,-0.2896807789802551,15.600860595703123,1.423772,0.48051548,0.43874168
498,152221273,-0.142339289188385,-0.2103071361780166,15.826982498168944,0.9016927,-0.079804234,0.33250046
499,152237940,-0.1060822084546089,-0.1795331090688705,16.085098266601562,0.17861123,0.051158972,0.2728567
500,152254607,-0.0377181619405746,-0.1194151192903518,16.397003173828125,0.6921416,0.2772156,0.39145565
501,152271274,0.077594481408596,-0.0773406326770782,16.77249526977539,0.4240089,0.18692017,0.34402084
502,152287941,0.2557994127273559,-0.1201737001538276,17.08134651184082,-0.0190746,0.37883067,0.252326
503,152304608,0.4936463236808777,-0.1722215116024017,17.051305770874023,0.17603835,0.11800924,0.32993793
504,152321275,0.6109752655029297,-0.3373902440071106,16.78814125061035,0.86497205,0.13149711,0.37940693
505,152337942,0.655464768409729,-0.4454896152019501,16.499984741210938,0.9327737,-0.088875584,0.36667252
506,152354609,0.6660845279693604,-0.4988176822662353,16.279827117919922,0.17889896,-0.08275026,0.3997841
507,152371276,0.6758193969726562,-0.5130159854888916,16.327905654907227,0.22808392,0.030789524,0.24475956
508,152387943,0.6591402888298035,-0.5409798622131348,16.44246482849121,0.518544,0.035516948,0.45458412
509,152404610,0.6447697877883911,-0.5777450203895569,16.55198097229004,0.77906936,0.05453626,0.3327942
510,152421277,0.5711016058921814,-0.62278151512146,16.4615478515625,0.45524246,0.12904076,0.32637596
511,152437944,0.49989914894104,-0.61793053150177,16.1464786529541,0.23067772,0.1870918,0.28262997
512,152454611,0.4663104116916656,-0.620414674282074,15.77643585205078,0.1298621,0.20409858,0.3216858
513,152471278,0.4686517715454101,-0.5946819186210632,15.475613594055176,0.36975446,-0.01778657,0.36330318
514,152487945,0.4549245834350586,-0.5618519186973572,15.263237953186035,0.5283091,-0.11914427,0.3231058
515,152504612,0.4038628041744232,-0.551820695400238,15.265283584594728,0.70709324,0.27871028,0.35539246
516,152521279,0.3164439797401428,-0.5401373505592346,15.236169815063477,0.05058362,-0.028729076,0.3611908
517,152537946,0.2896398603916168,-0.5308929681777954,15.087382316589355,-0.18770212,0.4092877,0.3570509
518,152554613,0.4053760468959808,-0.5895535945892334,14.97489070892334,-0.10742169,0.26099566,0.30139446
519,152571280,0.5391901135444641,-0.6051117181777954,14.842203140258787,0.24405888,-0.048815977,0.32695007
520,152587947,0.6331021785736084,-0.5864232778549194,14.704639434814451,0.22644234,-0.18658797,0.35916996
521,152604614,0.6544682383537292,-0.6153309345245361,14.75266933441162,0.29776657,0.033926625,0.45172596
522,152621281,0.5507336854934692,-0.5772970914840698,15.062819480895996,0.3960674,-0.35651663,0.31813622
523,152637948,0.3694682419300079,-0.5122366547584534,15.301802635192873,-0.0579514,-0.08541094,0.3057909
524,152654615,0.3296875655651092,-0.4436125457286834,15.523944854736328,-0.1563566,0.48661336,0.2402134
525,152671282,0.4723701179027557,-0.3848713040351867,15.894939422607422,0.14413792,0.10441359,0.306283
526,152687949,0.5382606387138367,-0.3181347250938415,15.974238395690918,0.00844973,-0.22603925,0.36350822
527,152704616,0.5400077104568481,-0.2654151916503906,15.772830963134766,0.5927724,-0.05175179,0.3719759
528,152721283,0.4576764702796936,-0.2135519534349441,15.373677253723145,0.93461406,-0.34345526,0.36110878
529,152737950,0.1876464784145355,-0.1844140142202377,14.868005752563477,-0.2462692,-0.30449837,0.42119217
530,152754617,-0.160831868648529,-0.2260363548994064,14.594145774841309,-0.46830192,-0.030359374,0.3326893
531,152771284,-0.2736506760120392,-0.3151435256004333,14.402994155883787,-0.26533878,-0.01290101,0.21297455
532,152787951,-0.2363808453083038,-0.3673737049102783,14.240442276000977,0.18014143,-0.107442014,0.39585495
533,152804618,-0.2010861784219741,-0.4116521775722503,13.942682266235352,-0.22815844,0.36708793,0.3107376
534,152821285,-0.1838366985321045,-0.4121674299240112,13.77237606048584,1.4875492,-0.07810397,0.40956974
535,152837952,-0.2326093316078186,-0.4409025013446808,13.709848403930664,0.6956263,-0.35226887,0.33852196
536,152854619,-0.2290343940258026,-0.4850392341613769,13.60806655883789,-0.5851159,-0.05141556,0.3356409
537,152871286,-0.2349612861871719,-0.4998756051063537,13.59152126312256,-0.5950242,0.122836515,0.34785175
538,152887953,-0.2503602504730224,-0.5072134733200073,13.591224670410156,-0.5196829,0.23293598,0.33757973
539,152904620,-0.2562797367572784,-0.5167114734649658,13.456409454345703,-0.7338089,-0.044927876,0.29111004
540,152921287,-0.2375117689371109,-0.5055232048034668,13.192087173461914,-0.80580634,0.14376765,0.39444447
541,152937954,-0.2422664910554886,-0.4874220490455627,12.92619514465332,-0.20315056,-0.10953878,0.28172493
542,152954621,-0.2676557898521423,-0.4815392792224884,12.78037929534912,-0.88976556,0.05470946,0.29305553
543,152971288,-0.2932673692703247,-0.4757691621780395,12.7596435546875,-1.4700856,0.46571952,0.28951168
544,152987955,-0.3266711235046386,-0.4902600944042206,12.834904670715332,-1.2772503,0.27919856,0.30479527
545,153004622,-0.3781886696815491,-0.5000726580619812,12.86128044128418,-0.6204182,-0.02855434,0.38663483
546,153021289,-0.4201610386371612,-0.4745678603649139,12.9426908493042,0.03780334,-0.0663017,0.23796558
547,153037956,-0.4439518451690674,-0.4061402678489685,13.013676643371582,0.29329282,-0.30858368,0.35779095
548,153054623,-0.4526831209659576,-0.3360627889633178,13.063616752624512,0.42472154,-0.40954328,0.3047123
549,153071290,-0.4407845437526703,-0.2958736717700958,13.04183578491211,-0.3218238,-0.34244734,0.322546
550,153087957,-0.4243582487106323,-0.2985007762908935,12.925796508789062,-0.46765062,-0.24034938,0.27858543
551,153104624,-0.4254122674465179,-0.3195610642433166,12.835700988769531,-0.10318828,-0.12939076,0.34959698
552,153121291,-0.4416774213314056,-0.3518622517585754,12.791648864746094,-0.14074184,-0.028805079,0.29226875
553,153137958,-0.3971670866012573,-0.3752310276031494,12.740121841430664,0.13084331,-0.05333516,0.30756283
554,153154625,-0.3628436028957367,-0.4153179228305816,12.663129806518556,-0.06715983,-0.16353773,0.37515163
555,153171292,-0.4111303687095642,-0.3960412740707397,12.619720458984377,-0.06891522,-0.092689894,0.33762074
556,153187959,-0.4162277579307556,-0.3909296989440918,12.697708129882812,-0.1265016,0.09907051,0.33598518
557,153204626,-0.3897140324115753,-0.4115091860294342,12.805871963500977,0.1306388,0.061546717,0.32935238
558,153221293,-0.3914463818073272,-0.41530442237854,12.862287521362305,0.25188428,-0.19236252,0.34531212
559,153237960,-0.3880086839199066,-0.4123376905918121,12.942094802856444,0.42963442,-0.25574076,0.36260414
560,153254627,-0.3970293700695038,-0.4004213213920593,13.071892738342283,0.029749282,0.03857736,0.34428787
561,153271294,-0.4109352529048919,-0.4186862707138061,13.198383331298828,-0.5812426,0.2337025,0.34534645
562,153287961,-0.4216879904270172,-0.4158282279968261,13.366588592529297,0.42582667,-0.15652798,0.32822418
563,153304628,-0.4387019574642181,-0.418245792388916,13.408868789672852,0.15686767,-0.30051222,0.36119938
564,153321295,-0.4518409669399261,-0.4320507943630218,13.373727798461914,0.16355725,-0.14632249,0.36444473
565,153337962,-0.461768239736557,-0.4311607778072357,13.34982681274414,-0.046033513,-0.16255209,0.34175682
566,153354629,-0.4799970388412475,-0.4121743738651275,13.326194763183594,-0.4800966,0.13037136,0.3051443
567,153371296,-0.4910066127777099,-0.4320815205574035,13.288793563842772,-0.95841527,0.35191798,0.3244171
568,153387963,-0.4962932467460632,-0.4418511688709259,13.377633094787598,-0.017113905,0.2345419,0.3354149
569,153404630,-0.4994619190692901,-0.4539246559143066,13.6239013671875,0.0051899427,0.29134575,0.2999773
570,153421297,-0.4716577529907226,-0.4601227343082428,14.00783920288086,-0.018123165,0.1401114,0.32782364
571,153437964,-0.431316077709198,-0.4761884212493896,14.378461837768556,-0.05150155,-0.14683151,0.3390293
572,153454631,-0.3912990689277649,-0.4663625061511993,14.618273735046388,-0.07301486,-0.17645401,0.3316717
573,153471298,-0.3843941986560821,-0.4661339521408081,14.779290199279783,-0.47440574,0.049807277,0.33231354
574,153487965,-0.4053107500076294,-0.4989691376686096,14.903058052062988,-0.9769768,0.25517702,0.31102943
575,153504632,-0.4110807776451111,-0.5198713541030884,15.044473648071287,-0.19145028,0.26228878,0.28563213
576,153521299,-0.4026460647583008,-0.5300642251968384,15.186327934265137,-0.17429638,-0.04922534,0.32206726
577,153537966,-0.3952680826187134,-0.5289673209190369,15.282605171203612,-0.040669736,-0.024665093,0.30457687
578,153554633,-0.3931590020656585,-0.5261249542236328,15.382160186767578,-0.5085595,-0.33375487,0.33185673
579,153571300,-0.2963466346263885,-0.5332649350166321,15.405014991760254,-0.03824948,-0.33873227,0.2814026
580,153587967,-0.1300010234117508,-0.5495764017105103,15.274958610534668,-0.07267591,-0.027234256,0.33033466
581,153604634,0.1211620718240737,-0.6022076606750488,15.184839248657228,0.118086256,0.08670627,0.36945343
582,153621301,0.3772000670433044,-0.6559467911720276,15.157222747802734,0.46914208,0.116037145,0.37202644
583,153637968,0.533675491809845,-0.6897357106208801,15.066932678222656,-0.03800974,-0.29074693,0.3237648
584,153654635,0.6449768543243408,-0.7152937054634094,15.076459884643556,-0.040833842,0.15659636,0.3314705
585,153671302,0.7471372485160828,-0.7451467514038086,15.288237571716309,-0.13270785,0.0269578,0.3159485
586,153687969,0.8544190526008606,-0.7811374664306641,15.590770721435549,-0.10934935,0.020950204,0.35370064
587,153704636,0.9511998891830444,-0.8061862587928772,15.792695045471191,-0.20257957,-0.09224072,0.376729
588,153721303,1.0406135320663452,-0.820370078086853,15.905912399291992,0.2676043,-0.06437281,0.3107109
589,153737970,1.1041793823242188,-0.830096960067749,15.8875732421875,-0.072794326,-0.35241508,0.3757305
590,153754637,1.1456639766693115,-0.8488098978996277,15.702702522277832,-0.01395749,-0.21060874,0.3479519
591,153771304,1.176150679588318,-0.8721840977668762,15.454161643981934,-0.27463827,-0.10010446,0.30436993
592,153787971,1.215160250663757,-0.9015139937400818,15.284072875976562,-0.20854428,0.122133516,0.32564068
593,153804638,1.26510488986969,-0.9465126991271972,15.1949462890625,-0.047270283,0.10111325,0.35988426
594,153821305,1.3234293460845947,-1.0182929039001465,15.19260025024414,-0.076740034,-0.00048570763,0.32174587
595,153837972,1.3736377954483032,-1.096237301826477,15.255621910095217,-0.17571974,-0.12083493,0.3818121
596,153854639,1.4004908800125122,-1.241870641708374,15.17250919342041,-0.1937057,-0.2587763,0.40091324
597,153871306,1.3788950443267822,-1.4275174140930176,15.08901309967041,0.18832569,-0.05682985,0.40324688
598,153887973,1.3110418319702148,-1.5975875854492188,15.112013816833496,-0.22055385,-0.09005506,0.24827766
599,153904640,1.2392388582229614,-1.7128950357437134,15.205958366394045,-0.08327151,0.049958527,0.2812605
600,153921307,1.1773009300231934,-1.7891223430633545,15.247888565063477,-0.19828649,-0.050163385,0.282856
601,153937974,1.137515902519226,-1.8539594411849976,15.29004955291748,0.08302913,-0.041802455,0.36070347
602,153954641,1.061628818511963,-1.9082155227661133,15.35055160522461,0.26479495,-0.083972864,0.3574257
603,153971308,0.9614625573158264,-1.9563698768615725,15.431086540222168,0.17128682,-0.09652813,0.34972095
604,153987975,0.8424599170684814,-1.9843173027038572,15.468368530273438,-0.023869745,-0.025490025,0.29012775
605,154004642,0.7528758645057678,-2.008072853088379,15.435439109802246,-0.094201475,-0.07402791,0.29057217
606,154021309,0.6633679270744324,-2.0158450603485107,15.392782211303713,0.1085145,-0.07645824,0.32863426
607,154037976,0.6075393557548523,-2.040344476699829,15.331335067749023,-0.5224064,-0.00079187844,0.28001118
608,154054643,0.5584339499473572,-2.0548787117004395,15.280856132507324,-0.7003685,0.03367022,0.31292725
609,154071310,0.4994959533214569,-2.054311513900757,15.236658096313477,-0.6123371,-0.11264548,0.29819584
610,154087977,0.4428220987319946,-2.0413002967834477,15.212778091430664,-0.01304145,-0.049057588,0.33729744
611,154104644,0.4225196242332458,-2.0259130001068115,15.202165603637695,-0.0019929952,-0.038786925,0.33133984
612,154121311,0.427440881729126,-2.0155091285705566,15.200156211853027,-0.010690695,-0.022701044,0.29029274
613,154137978,0.4547975957393646,-2.020429849624634,15.190766334533691,-0.016874725,-0.017726408,0.3198471
614,154154645,0.4937831461429596,-2.029379367828369,15.18413257598877,-0.014557287,0.00037760418,0.33472347
615,154171312,0.5095646977424622,-2.029069185256958,15.194741249084473,-0.016218575,0.013423092,0.35638142
616,154187979,0.494104266166687,-2.0467374324798584,15.20626163482666,-0.15435033,-0.0632025,0.4647789
617,154204646,0.6349696516990662,-2.302529811859131,15.162468910217283,0.20536901,0.08356888,0.21003532
618,154221313,0.6813310980796814,-2.330610513687134,15.217605590820312,-0.09672802,-0.09191382,0.3060875
619,154237980,0.9161214232444764,-2.759692668914795,15.2701997756958,-0.18112499,0.11777132,0.38614082
620,154254647,0.897037148475647,-2.7743144035339355,15.2955322265625,0.21297254,-0.08578231,0.28709412
621,154271314,0.8986502289772034,-2.77799391746521,15.293770790100098,-0.011075528,-0.002506621,0.38543606
622,154287981,0.8993597030639648,-2.781587839126587,15.293099403381348,0.00220279,-0.011047722,0.32742882
623,154304648,0.8990263342857361,-2.783244371414185,15.292648315429688,-0.007100015,-0.005367978,0.34196377
624,154321315,0.8991202712059021,-2.784066200256348,15.291644096374512,-0.022667805,-0.01252019,0.35381794
625,154337982,0.9002792239189148,-2.7867796421051025,15.288811683654783,-0.013111731,-0.014341416,0.35042763
626,154354649,0.9009907841682434,-2.787116765975952,15.287625312805176,-0.0010102646,-0.0043524886,0.3413391
627,154371316,0.9013747572898864,-2.786555528640747,15.287370681762695,-0.0022363868,-0.006384326,0.32723713
628,154387983,0.9000600576400757,-2.7883617877960205,15.28614616394043,-0.0014480706,-0.00985961,0.3252802
629,154404650,0.8984552621841431,-2.788183212280273,15.28607940673828,-0.0053373356,-0.02194986,0.33157063
630,154421317,0.8982431888580322,-2.7890818119049072,15.285555839538574,-0.004264124,-0.022351736,0.30600262
631,154437984,0.8971401453018188,-2.7891628742218018,15.28502082824707,-0.0137534365,-0.014421915,0.33477402
632,154454651,0.8980650901794434,-2.790275812149048,15.284836769104004,-0.0061382386,-0.010991843,0.3168249
633,154471318,0.8979041576385498,-2.7905821800231934,15.286269187927246,-0.008445423,-0.008924887,0.34139538
634,154487985,0.8985083103179932,-2.791855573654175,15.286670684814451,-0.0117280185,-0.011771087,0.33446693
635,154504652,0.8986949324607849,-2.7916412353515625,15.286025047302246,-0.010363164,-0.0029144622,0.3189249
636,154521319,0.8996468186378479,-2.79240345954895,15.285632133483888,-0.004807135,0.0070366696,0.35527134
637,154537986,0.8997622728347778,-2.793119192123413,15.286273002624512,-0.008852747,-0.015623849,0.31515884
638,154554653,0.8981316685676575,-2.7920982837677,15.286182403564451,-0.013155819,0.003994924,0.3277464
639,154571320,0.8982389569282532,-2.793067693710327,15.286141395568848,-0.0027093962,-0.0042400477,0.32939053
640,154587987,0.8975839614868164,-2.79382061958313,15.28553867340088,-0.012694209,-0.007212854,0.30318832
641,154604654,0.8977792859077454,-2.793689012527466,15.285137176513672,-0.013195017,-0.0029203296,0.34476948
642,154621321,0.8969686031341553,-2.7936713695526123,15.285150527954102,-0.003350585,0.0017582926,0.34623623
643,154637988,0.8963653445243835,-2.79414439201355,15.284252166748049,-0.010818111,-0.0058921715,0.36706448
644,154654655,0.8969784379005432,-2.793922185897827,15.28469181060791,-0.025663646,-0.009695524,0.33097172
645,154671322,0.8982062935829163,-2.793025016784668,15.283443450927734,-0.024101919,-0.021474447,0.35618782
646,154687989,0.898386538028717,-2.794218778610229,15.28362274169922,-0.009855986,-0.01319353,0.32789993
647,154704656,0.8983800411224365,-2.794212818145752,15.283869743347168,-0.022687165,-0.0025651464,0.33564377
648,154721323,0.8984047770500183,-2.7934610843658447,15.284746170043944,-0.00086426875,0.0040995907,0.3114462
649,154737990,0.8983606100082397,-2.793884038925171,15.284197807312012,-0.012636528,-0.00033401916,0.33890343
650,154754657,0.8975381851196289,-2.7931020259857178,15.284259796142578,-0.0062084915,-0.010078786,0.34137917
651,154771324,0.8979470729827881,-2.7933099269866943,15.28457736968994,-0.009701119,-0.0078018527,0.33557987
652,154787991,0.8979235887527466,-2.7934458255767822,15.283126831054688,-0.0066812076,-0.01709907,0.32527924
653,154804658,0.8982817530632019,-2.794193744659424,15.28334617614746,-0.002122004,-0.013242416,0.337677
654,154821325,0.8971002101898193,-2.795466184616089,15.283510208129885,-0.0040101716,-0.004009466,0.32696438
655,154837992,0.8972920179367065,-2.795793056488037,15.284214973449709,0.0008770648,-0.0023367582,0.35660648
656,154854659,0.8978215456008911,-2.796444892883301,15.28432559967041,-0.0022236046,-0.0055150287,0.3262577
657,154871326,0.8979318737983704,-2.797556161880493,15.282934188842772,-0.003753495,-0.0018576091,0.34582233
658,154887993,0.8977791666984558,-2.7967641353607178,15.283863067626951,-0.015332779,-0.008212886,0.3415966
659,154904660,0.8977224230766296,-2.797548055648804,15.28368091583252,-0.00010038526,-0.012931502,0.3259735
660,154921327,0.8994274735450745,-2.7970659732818604,15.284029006958008,0.0031694556,-0.008771256,0.33549976
661,154937994,0.8997306823730469,-2.79679536819458,15.283953666687012,-0.002473157,-0.019710818,0.3456421
662,154954661,0.9005429744720459,-2.7963483333587646,15.283482551574709,-0.0075908354,-0.018807776,0.32950974
663,154971328,0.9006882905960083,-2.7961297035217285,15.283337593078612,0.004337716,-0.0016393418,0.3252077
664,154987995,0.9003391265869141,-2.795926570892334,15.281659126281738,-0.008554763,-0.012540292,0.36060143
665,155004662,0.8999068737030029,-2.796276807785034,15.282483100891112,-0.011161902,0.002845243,0.32414532
666,155021329,0.8998715877532959,-2.797376871109009,15.282541275024414,0.0054727145,-0.00095416984,0.33512974
667,155037996,0.9004425406455994,-2.797795534133911,15.282184600830078,-0.014537492,-0.016949505,0.3123455
668,155054663,0.8999361395835876,-2.798961639404297,15.282596588134766,-0.0069378144,-0.003154599,0.3355217
669,155071330,0.9000251293182373,-2.799232721328736,15.28123664855957,-0.018724896,-0.012366497,0.34006786
670,155087997,0.9002566337585449,-2.800929307937622,15.280108451843262,-0.025791593,-0.021147797,0.31076717
671,155104664,0.8988284468650818,-2.801349401473999,15.281067848205566,-0.010592964,-0.007219943,0.3463602
672,155121331,0.8984830975532532,-2.801096677780152,15.281298637390137,-0.018133676,-0.01349259,0.33651352
673,155137998,0.8980891108512878,-2.801100730895996,15.281204223632812,0.002489669,-0.017595213,0.33133507
674,155154665,0.8983713984489441,-2.8017613887786865,15.281160354614258,-0.00026426217,-0.0015435595,0.3337679
675,155171332,0.8978583812713623,-2.8015856742858887,15.280756950378418,-0.011115844,-0.013688716,0.3292265
676,155187999,0.8981041312217712,-2.8018922805786133,15.281441688537598,-0.010481863,0.008013987,0.34776115
677,155204666,0.898176908493042,-2.802032947540283,15.281518936157228,-0.011134521,-0.009037187,0.3359604
678,155221333,0.8984133005142212,-2.80080795288086,15.28132438659668,-0.015416625,-0.0076586646,0.33854675
679,155238000,0.8985230326652527,-2.8018527030944824,15.280728340148926,-0.00036298504,-0.01074533,0.3182068
680,155254667,0.898278534412384,-2.8018479347229004,15.280292510986328,-0.007857347,-0.0051969765,0.33072758
681,155271334,0.8973078727722168,-2.8033981323242188,15.279780387878418,-0.017488115,0.009906667,0.32152557
682,155288001,0.8968177437782288,-2.8044321537017822,15.280754089355469,-0.009378157,-0.0043107546,0.32313251
683,155304668,0.895911455154419,-2.8044378757476807,15.2806978225708,-0.0076017734,-0.006364196,0.33552265
684,155321335,0.8953181505203247,-2.80415415763855,15.27999210357666,0.0019519666,-0.012870554,0.3422165
685,155338002,0.8952503800392151,-2.80452561378479,15.280512809753418,-0.010869239,-0.011383794,0.3449831
686,155354669,0.8955500721931458,-2.804201602935791,15.281122207641602,-0.0044539985,-0.006695547,0.33059406
687,155371336,0.8968586921691895,-2.803999900817871,15.280624389648438,-0.013700492,-0.021938104,0.35627174
688,155388003,0.8968196511268616,-2.803633689880371,15.279855728149414,0.0035924958,-0.0074575306,0.31950665
689,155404670,0.8964626789093018,-2.8046085834503174,15.279376029968262,-0.0051915213,-0.0030910096,0.31754875
690,155421337,0.8955391049385071,-2.804116487503052,15.278267860412598,-0.0030975402,-0.02483634,0.35234928
691,155438004,0.8964434266090393,-2.80572509765625,15.279052734375,-0.012607137,-0.0044911923,0.3452549
692,155454671,0.8970897793769836,-2.80546236038208,15.278892517089844,-0.012936595,-0.008417114,0.33188915
693,155471338,0.8975387215614319,-2.805119752883911,15.280460357666016,-0.0056294953,-0.016594656,0.32204628
694,155488005,0.8973900675773621,-2.80581283569336,15.279722213745115,-0.0030347612,-0.020335432,0.34472466
695,155504672,0.8968594670295715,-2.806016683578491,15.279787063598633,-0.0107204355,-0.03492976,0.34927082
696,155521339,0.898094117641449,-2.8056883811950684,15.27976894378662,-0.023530075,-0.013748687,0.33562565
697,155538006,0.8981850147247314,-2.806565284729004,15.281665802001951,0.0017497013,-0.018944966,0.3175745
698,155554673,0.89729905128479,-2.807522773742676,15.28277587890625,-0.014627917,-0.00487136,0.34140968
699,155571340,0.8969071507453918,-2.806893825531006,15.281689643859863,-0.012714744,-0.027386386,0.34445
700,155588007,0.8963772654533386,-2.8082165718078613,15.282002449035645,-0.005911932,-0.0128213875,0.34394073
701,155604674,0.8955618143081665,-2.807677984237671,15.281208038330078,0.0021616358,-0.008768477,0.33364868
702,155621341,0.8946660757064819,-2.8079450130462646,15.282695770263672,0.00043815523,-0.001297381,0.3234415
703,155638008,0.8952111601829529,-2.8090124130249023,15.28376293182373,-0.010396663,-0.0058955243,0.3317852
704,155654675,0.8953783512115479,-2.809798240661621,15.282393455505373,-0.011821978,-0.0026344005,0.30414104
705,155671342,0.895498514175415,-2.809761047363281,15.281119346618652,-0.0065442915,-0.019395636,0.3407135
706,155688009,0.895510196685791,-2.808858633041382,15.282116889953612,-0.0031965566,-0.010081748,0.34137535
707,155704676,0.8944262862205505,-2.809758424758911,15.281831741333008,-0.011480883,-0.0021324183,0.33577824
708,155721343,0.8947628736495972,-2.810744524002075,15.281990051269531,-0.0013011248,-0.012977658,0.35054684
709,155738010,0.8948530554771423,-2.811826467514038,15.282793998718262,-0.0024676109,-0.019275492,0.33916473
710,155754677,0.8945795893669128,-2.812300443649292,15.282305717468262,-0.018441802,-0.0056614433,0.32633686
711,155771344,0.8936471939086914,-2.811579942703247,15.281503677368164,-0.009259639,-0.01685507,0.36450958
712,155788011,0.8926373720169067,-2.812706232070923,15.281171798706056,-0.0060335086,-0.027490703,0.32837868
713,155804678,0.8931164741516113,-2.812354326248169,15.280719757080078,-0.011442956,-0.018669793,0.32877445
714,155821345,0.8922519683837891,-2.8125245571136475,15.28064250946045,-0.0015829188,-0.008759431,0.3479786
715,155838012,0.8921375870704651,-2.8127360343933105,15.281301498413086,-0.0059045837,-0.019176656,0.3379631
716,155854679,0.8917635679244995,-2.813025712966919,15.28209400177002,-0.014155341,-0.012669671,0.32976913
717,155871346,0.8925609588623047,-2.8120646476745605,15.282222747802734,-0.0070478385,-0.007655675,0.33244228
718,155888013,0.8917734026908875,-2.812755823135376,15.283313751220703,-0.00912134,-0.010150603,0.33615303
719,155904680,0.8908202052116394,-2.812812566757202,15.282780647277832,-0.014431855,-0.0025832718,0.33013725
720,155921347,0.8903236985206604,-2.812985181808472,15.282922744750977,-0.0037215326,-0.014743689,0.32962513
721,155938014,0.8914936184883118,-2.8129987716674805,15.28353214263916,-0.006090742,-0.016892347,0.35170364
722,155954681,0.8924793601036072,-2.81230092048645,15.283713340759276,-0.006611234,-0.02057399,0.3423462
723,155971348,0.8920189142227173,-2.813380479812622,15.284744262695312,-0.020835347,-0.008510619,0.33705807
724,155988015,0.8910847902297974,-2.8137311935424805,15.284675598144531,-0.023194106,-0.0050672693,0.33106613
725,156004682,0.8921629786491394,-2.813864231109619,15.285091400146484,-0.004403163,-0.014064008,0.32461548
726,156021349,0.8926861882209778,-2.8133909702301025,15.283964157104492,-0.00229552,-0.020990996,0.3184719
727,156038016,0.8928832411766052,-2.8136472702026367,15.283204078674316,-0.010572246,-0.013852167,0.33607483
728,156054683,0.8933051824569702,-2.8135030269622803,15.284131050109863,-0.0075320234,-0.0016418702,0.33456516
729,156071350,0.8932719230651855,-2.8129477500915527,15.28247356414795,-0.014550358,-0.00436847,0.33563328
730,156088017,0.8941797018051147,-2.813606023788452,15.28228759765625,-0.0044924566,-0.01716423,0.31688404
731,156104684,0.8949665427207947,-2.813291311264038,15.281291961669922,-0.017786197,-0.014953024,0.32849407
732,156121351,0.8942610621452332,-2.813669919967652,15.28152084350586,-0.006480367,-0.007820991,0.32241535
733,156138018,0.8941669464111328,-2.812887191772461,15.282316207885742,-0.002293117,-0.015980527,0.3301201
734,156154685,0.8945465683937073,-2.813172578811645,15.281785011291504,-0.01285849,-0.012841197,0.34302998
735,156171352,0.8948795795440674,-2.8136210441589355,15.281530380249023,0.0004582295,-0.01485852,0.33825874
736,156188019,0.8943174481391907,-2.8138186931610107,15.282302856445312,-0.007728282,-0.014017001,0.31825447
737,156204686,0.8945204019546509,-2.815093994140625,15.282316207885742,0.0056357672,-0.0073928656,0.35155773
738,156221353,0.8939427733421326,-2.8147921562194824,15.282027244567873,-0.009498825,-0.0030581043,0.36453342
739,156238020,0.8940653204917908,-2.8133106231689453,15.281163215637209,-0.0086603025,-0.0039277514,0.3260107
740,156254687,0.8934633135795593,-2.8142480850219727,15.281503677368164,-0.003025262,-0.01539502,0.36238766
741,156271354,0.8938267827033997,-2.8129360675811768,15.281538963317873,0.0016661214,-0.0015775264,0.34392834
742,156288021,0.8927643895149231,-2.8135781288146973,15.28390407562256,-0.010552787,-0.009814245,0.34051037
743,156304688,0.8927608728408813,-2.8121414184570312,15.28406810760498,-0.011168077,-0.011254492,0.33461952
744,156321355,0.8925526142120361,-2.811931610107422,15.28359317779541,-0.023566786,-0.011904845,0.3300495
745,156338022,0.8923216462135315,-2.8115484714508057,15.282326698303224,-0.002580052,-0.02244228,0.343318
746,156354689,0.8925011157989502,-2.8134453296661377,15.281559944152832,-0.0049763764,-0.01293253,0.33277035
747,156371356,0.892744779586792,-2.813976526260376,15.280940055847168,-0.0041112835,-0.007307428,0.32411385
748,156388023,0.8929227590560913,-2.8122305870056152,15.280458450317385,-0.0026875897,-0.0075028758,0.3310032
749,156404690,0.8921591639518738,-2.8113458156585693,15.281020164489746,-0.004250518,-0.027470078,0.30498123
750,156421357,0.8934878706932068,-2.8116350173950195,15.28175449371338,-0.019142795,-0.011310405,0.3380537
751,156438024,0.8939855694770813,-2.812673091888428,15.281855583190918,-0.003709924,-0.015735283,0.33685207
752,156454691,0.8940008282661438,-2.8109166622161865,15.28239631652832,0.0011077302,-0.0017469632,0.34086132
753,156471358,0.894234299659729,-2.811527729034424,15.282541275024414,-0.012167472,-0.017472329,0.3483019
754,156488025,0.8939524292945862,-2.81209135055542,15.281583786010742,-0.0017043143,-0.015837869,0.33820248
755,156504692,0.8927950263023376,-2.8125979900360107,15.282316207885742,-0.017946875,-0.0015272291,0.33358002
756,156521359,0.8928097486495972,-2.814272165298462,15.281538009643556,-8.9363275e-05,-0.0030152106,0.3308468
757,156538026,0.8914160132408142,-2.814267635345459,15.28209114074707,0.0051924014,-0.02323552,0.35361385
758,156554693,0.8919277191162109,-2.813434839248657,15.282719612121582,-0.019346975,-0.0014026974,0.3338995
759,156571360,0.8906949758529663,-2.812548875808716,15.283379554748535,0.0022296116,-0.0009524376,0.32902145
760,156588027,0.8918375968933105,-2.812335252761841,15.282264709472656,-0.014129176,-0.0003998996,0.34996796
761,156604694,0.8927153944969177,-2.8124303817749023,15.282377243041992,-0.0127106095,-0.00067757256,0.3755331
762,156621361,0.8925178050994873,-2.812610149383545,15.282111167907717,-0.013779267,-0.0048330207,0.31920528
763,156638028,0.8934123516082764,-2.8142714500427246,15.281856536865234,-0.01702191,-0.024354523,0.34200191
764,156654695,0.894432008266449,-2.814671039581299,15.28188419342041,-0.003211099,-0.01781399,0.333663
765,156671362,0.8949325084686279,-2.814351320266724,15.28243923187256,-0.004003438,-0.008086929,0.34128284
766,156688029,0.8958997130393982,-2.815183162689209,15.28328800201416,-0.0043929378,0.00398291,0.34282684
767,156704696,0.8960389494895935,-2.815673828125,15.28377628326416,-0.009244636,-0.01702888,0.34383392
768,156721363,0.896062433719635,-2.8160946369171143,15.283185005187988,-0.012969996,-0.0053153266,0.33495617
769,156738030,0.8960022330284119,-2.817528486251831,15.283079147338867,-0.015622438,-0.0029711577,0.36925793
770,156754697,0.8954164385795593,-2.816866636276245,15.282840728759766,-0.011712805,-0.004607796,0.33861828
771,156771364,0.8955773115158081,-2.8173561096191406,15.28285026550293,-0.013251287,-0.016344588,0.3476038
772,156788031,0.8951042294502258,-2.817141056060791,15.283135414123535,0.0016194631,-0.013985353,0.32327652
773,156804698,0.8960950970649719,-2.8182199001312256,15.283299446105955,-0.015498389,-0.017539585,0.35391617
774,156821365,0.8962162137031555,-2.8183929920196533,15.282958030700684,-0.012178006,-0.00794972,0.3347721
775,156838032,0.8956838846206665,-2.8180480003356934,15.28367519378662,-0.022177681,-0.017763434,0.333251
776,156854699,0.8946487903594971,-2.81786584854126,15.284527778625488,-0.0049868952,-0.015699012,0.31860733
777,156871366,0.8932127952575684,-2.818415641784668,15.28535270690918,-0.021854663,-0.02276675,0.33401775
778,156888033,0.8925297260284424,-2.817862272262573,15.284383773803713,-0.015521494,-0.01672597,0.3228035
779,156904700,0.8921624422073364,-2.8183400630950928,15.285717964172363,-0.016459187,-0.01132948,0.32081318
780,156921367,0.8924353122711182,-2.817967414855957,15.286288261413574,0.0064510307,-0.013248074,0.3366356
781,156938034,0.8924548029899597,-2.817400932312012,15.285900115966797,-0.006820107,-0.017785177,0.33269787
782,156954701,0.8921416997909546,-2.8163633346557617,15.286187171936035,-0.008225263,-0.010832534,0.35188007
783,156971368,0.8914797902107239,-2.81760311126709,15.28668212890625,-0.0067206714,0.0026359162,0.31325722
784,156988035,0.8916914463043213,-2.817676305770874,15.28736400604248,-0.015795661,-0.010352275,0.3427391
785,157004702,0.8915459513664246,-2.818182468414306,15.28783130645752,-0.021004476,-0.01176598,0.36423874
786,157021369,0.8916482925415039,-2.817641258239746,15.288572311401367,0.0019765531,-0.012516167,0.35993958
787,157038036,0.8917464017868042,-2.817221641540528,15.288580894470217,-0.018443577,-0.014125509,0.32870674
788,157054703,0.8921056389808655,-2.8165109157562256,15.28867530822754,0.0030409496,-0.011430145,0.34431076
789,157071370,0.8934904336929321,-2.8167355060577397,15.289822578430176,-0.013888815,-0.0018953969,0.3458166
790,157088037,0.892870306968689,-2.817007541656494,15.290307998657228,-0.01202279,-0.00042130097,0.3267336
791,157104704,0.8928165435791016,-2.817993402481079,15.289786338806152,0.003388093,-0.016051255,0.34637928
792,157121371,0.8927133679389954,-2.8175272941589355,15.290034294128418,-0.001998667,-0.00890199,0.33159924
793,157138038,0.8937229514122009,-2.818411111831665,15.290340423583984,-0.013328007,-0.012946338,0.32607746
794,157154705,0.8944408893585205,-2.818101167678833,15.29021167755127,0.00097021385,-0.0065591834,0.33734226
795,157171372,0.8940874338150024,-2.817143678665161,15.291857719421388,-0.01471777,0.0002667208,0.3657837
796,157188039,0.8941822648048401,-2.81715989112854,15.29155731201172,0.00067464594,-0.012819034,0.33111382
797,157204706,0.8944495320320129,-2.817162036895752,15.29193115234375,-0.012920376,-0.0027427904,0.35204124
798,157221373,0.8938464522361755,-2.8163766860961914,15.292566299438477,-0.010694383,-0.01727591,0.30799007
799,157238040,0.8940532803535461,-2.816725730895996,15.292648315429688,-0.015981525,-0.013982914,0.3304634
800,157254707,0.8939552307128906,-2.8154938220977783,15.292779922485352,-0.009528064,-8.864384e-05,0.33516884
801,157271374,0.8948323726654053,-2.8161392211914062,15.293848991394045,-0.015862714,-0.023260169,0.32558632
802,157288041,0.8946667909622192,-2.816323518753052,15.293145179748535,-0.009214866,-0.010150652,0.3380623
803,157304708,0.8943940997123718,-2.8158280849456787,15.29428768157959,0.004275887,-0.013833789,0.33346272
804,157321375,0.895676851272583,-2.815981149673462,15.295105934143066,-0.015419907,-0.026680226,0.3304081
805,157338042,0.8953737616539001,-2.8169169425964355,15.295138359069824,-0.0080499165,-0.020458281,0.32215595
806,157354709,0.8949552178382874,-2.8177244663238525,15.294791221618652,-0.0008592676,-0.0052830502,0.32702065
807,157371376,0.8945610523223877,-2.8180410861968994,15.294317245483398,-0.00626877,-0.006094898,0.33102703
808,157388043,0.8943284749984741,-2.8181610107421875,15.293917655944824,-0.0023319107,-0.0025363134,0.3400116
809,157404710,0.893651008605957,-2.817799568176269,15.294391632080078,-0.015616682,-0.008557739,0.33371544
810,157421377,0.8946501016616821,-2.817614793777466,15.294147491455078,-0.0038215546,-0.016361825,0.31926918
811,157438044,0.8945372104644775,-2.817856550216675,15.294527053833008,-0.00942536,-0.0052855224,0.3577404
812,157454711,0.8942224383354187,-2.819282054901123,15.294955253601074,-0.01550244,-0.018791035,0.3436308
813,157471378,0.8934705853462219,-2.818942070007324,15.294224739074709,-0.005974641,-0.016618105,0.33800602
814,157488045,0.893071174621582,-2.818309783935547,15.294177055358888,-0.001838422,-0.020071778,0.34635353
815,157504712,0.8929629325866699,-2.81902289390564,15.294289588928224,-0.010546976,-0.011488601,0.32300758
816,157521379,0.8932445645332336,-2.8190226554870605,15.293190002441406,-0.011117297,0.0009238419,0.33574963
817,157538046,0.8922790884971619,-2.8177523612976074,15.294195175170898,-0.004133411,-0.019284042,0.32593918
818,157554713,0.8925912976264954,-2.817690849304199,15.293999671936035,0.008418784,-0.008224487,0.34708023
819,157571380,0.8926682472229004,-2.818289279937744,15.29448413848877,-0.0012009351,-0.0060638716,0.33407784
820,157588047,0.8918099403381348,-2.8199026584625244,15.294047355651855,-0.011583559,-0.013329705,0.33719063
821,157604714,0.8916570544242859,-2.8211629390716557,15.294146537780762,-0.019699873,-0.0071518347,0.3453703
822,157621381,0.8915011286735535,-2.8215436935424805,15.295160293579102,4.2718915e-05,-0.006161973,0.3370247
823,157638048,0.8903197050094604,-2.822226285934448,15.294629096984863,-0.009571537,-0.005643311,0.3323803
824,157654715,0.8911780714988708,-2.822373151779175,15.293591499328612,-0.019146958,-0.019130921,0.3369894
825,157671382,0.8917063474655151,-2.8231070041656494,15.293903350830078,-0.0108353915,-0.008587067,0.33821583
826,157688049,0.8913769721984863,-2.823815107345581,15.294740676879885,-0.0028203144,-0.009249916,0.32770157
827,157704716,0.8914355039596558,-2.8236641883850098,15.294224739074709,-0.0057760775,0.014939019,0.34695816
828,157721383,0.8907146453857422,-2.8225514888763428,15.293848991394045,-0.008080496,-0.0012251723,0.31610584
829,157738050,0.890730082988739,-2.822381019592285,15.294620513916016,-0.005516998,0.00014487132,0.3268938
830,157754717,0.8911038041114807,-2.8221986293792725,15.293418884277344,0.0007758414,-0.023431184,0.32907295
831,157771384,0.8920618295669556,-2.822215795516968,15.29366970062256,-0.013197546,-0.009705149,0.34869194
832,157788051,0.8914254307746887,-2.823634624481201,15.293755531311035,-0.0066760946,-0.0032922481,0.3377905
833,157804718,0.8901169896125793,-2.823925733566284,15.291974067687988,0.0023160132,-0.008805272,0.34218025
834,157821385,0.8909127712249756,-2.8244454860687256,15.291967391967772,-0.012557796,-0.0040972647,0.33584976
835,157838052,0.8921736478805542,-2.824787139892578,15.291643142700195,-0.01245667,-0.0038059717,0.3170805
836,157854719,0.8923162817955017,-2.8257668018341064,15.291253089904783,-0.006510276,-0.015983377,0.3281374
837,157871386,0.8920011520385742,-2.8265442848205566,15.29233741760254,-0.01151061,0.0065016425,0.32431793
838,157888053,0.8937782645225525,-2.826968193054199,15.291682243347168,-0.0083038695,-0.0023817401,0.34179878
839,157904720,0.893692135810852,-2.8265035152435303,15.291725158691406,-0.020918885,-0.013545451,0.3278551
840,157921387,0.8882144093513489,-2.7996599674224854,15.282020568847656,-0.012943538,-0.0077394014,0.33395767
841,157938054,0.8881357312202454,-2.7999427318573,15.282279014587402,-0.0032444443,-0.011803021,0.3378849
842,157954721,0.8874194622039795,-2.8005738258361816,15.283398628234863,-0.0045338767,-0.012075553,0.33559227
843,157971388,0.8881245255470276,-2.8010425567626958,15.282864570617676,-0.0053265654,0.0022679302,0.31782436
844,157988055,0.8884230852127075,-2.799858570098877,15.282461166381836,-0.009928012,-0.0028088663,0.35180378
845,158004722,0.8896788358688354,-2.800513744354248,15.283878326416016,-0.02385843,-0.023033772,0.3287878
846,158021389,0.8903704881668091,-2.800022602081299,15.28376579284668,0.0071717207,-0.008579698,0.32847023
847,158038056,0.891327977180481,-2.798967123031616,15.28348445892334,-0.015305022,-0.0046698493,0.3347721
848,158054723,0.8916500210762024,-2.7996087074279785,15.283413887023926,-0.005190655,-0.007436276,0.32120514
849,158071390,0.8909095525741577,-2.7983694076538086,15.28222942352295,-0.0009771008,-0.012031018,0.31626892
850,158088057,0.8914357423782349,-2.798344373703003,15.28203296661377,-0.009053909,-0.010678639,0.323637
851,158104724,0.8913815021514893,-2.799025535583496,15.28180694580078,0.00583658,-0.008189389,0.32159615
852,158121391,0.8915753960609436,-2.800109624862671,15.28122329711914,-0.01172718,0.0045507727,0.33320332
853,158138058,0.8908810615539551,-2.800503730773926,15.28146266937256,-0.015636701,-0.007560165,0.34683323
854,158154725,0.8909337520599365,-2.801413059234619,15.280926704406738,-0.014495765,-0.0041207476,0.33906937
855,158171392,0.8915877342224121,-2.801445960998535,15.280179977416992,-0.005526805,-0.010207697,0.3486309
856,158188059,0.892577588558197,-2.8010575771331787,15.280959129333496,-0.019188518,-0.0011869795,0.32508087
857,158204726,0.8917375206947327,-2.8011159896850586,15.281974792480469,-0.008500743,-0.0004871884,0.32786846
858,158221393,0.8903087377548218,-2.8011233806610107,15.28188419342041,-0.010353218,-0.027361967,0.32658863
859,158238060,0.890905499458313,-2.8020684719085693,15.281310081481934,-0.008733909,-0.015430434,0.35029888
860,158254727,0.8907114267349243,-2.802129030227661,15.28130054473877,-0.0067104315,-0.0036935795,0.33399296
861,158271394,0.8910167217254639,-2.801548480987549,15.280365943908691,-0.016438413,-0.014226048,0.33327484
862,158288061,0.8916346430778503,-2.8014981746673584,15.281041145324709,-0.015259956,-0.0041352483,0.33259296
863,158304728,0.8910077810287476,-2.801448345184326,15.280845642089844,0.0037302077,-0.015808072,0.31745243
864,158321395,0.8908054828643799,-2.800823450088501,15.280926704406738,-5.4998156e-05,-0.0014388018,0.33601856
865,158338062,0.8905797600746155,-2.8004844188690186,15.28077793121338,0.0012181037,-0.009488928,0.34147072
866,158354729,0.8904290199279785,-2.7992138862609863,15.28184700012207,-0.02689822,-0.015777458,0.34708214
867,158371396,0.8890702724456787,-2.800041675567627,15.283573150634766,-0.018547036,-0.010600815,0.35088348
868,158388063,0.8886022567749023,-2.7993030548095703,15.284610748291016,-0.002338574,-0.0018111394,0.31208992
869,158404730,0.8892395496368408,-2.800846815109253,15.284201622009276,-0.004050404,0.0044901236,0.35814095
870,158421397,0.8889073133468628,-2.8018457889556885,15.28405475616455,-0.0075632734,-0.007368349,0.3349285
871,158438064,0.8882487416267395,-2.8026041984558105,15.284072875976562,-0.024523143,-0.008286477,0.34176922
872,158454731,0.8884585499763489,-2.802252531051636,15.284534454345703,-0.0012894043,-0.014597603,0.33310223
873,158471398,0.8887227773666382,-2.801474571228028,15.285083770751951,0.004065058,-0.014849824,0.34220695
874,158488065,0.8874898552894592,-2.801525592803955,15.28524112701416,-0.013749008,-0.011542531,0.32614136
875,158504732,0.8863967657089233,-2.801781415939331,15.285279273986816,-0.0052465056,0.0014101432,0.34018803
876,158521399,0.885532021522522,-2.801154851913452,15.28403377532959,0.004199026,-0.0022279422,0.3302803
877,158538066,0.8884550333023071,-2.795487642288208,15.282849311828612,-0.010504117,-0.0026187475,0.31856632
878,158554733,0.8905482292175293,-2.793262243270874,15.283441543579102,-0.009466402,-0.010526133,0.34984207
879,158571400,0.8915673494338989,-2.7919390201568604,15.28339672088623,-0.019767556,-0.0021479805,0.3209877
880,158588067,0.8919958472251892,-2.792386531829834,15.284204483032228,-0.008564485,-0.0040093055,0.3510208
881,158604734,0.8918842077255249,-2.792872190475464,15.283424377441406,-0.010546333,-0.013209406,0.3321457
882,158621401,0.8917598724365234,-2.792729616165161,15.284814834594728,-0.01511945,-0.0056560864,0.33992767
883,158638068,0.891407310962677,-2.7929491996765137,15.284488677978516,-0.0025330305,-0.000845326,0.32686138
884,158654735,0.8927739262580872,-2.7928943634033203,15.28454303741455,-0.013290751,-0.0066064354,0.32405663
885,158671402,0.8931991457939148,-2.7918410301208496,15.28672981262207,-0.0071881907,-0.0031896208,0.3176689
886,158688069,0.8930319547653198,-2.7907521724700928,15.287796974182127,0.0015458436,-0.005714046,0.3271284
887,158704736,0.8927785158157349,-2.790025472640991,15.287625312805176,-0.009848218,-0.021301609,0.33655357
888,158721403,0.8922551870346069,-2.7895495891571045,15.288055419921877,-0.016408226,-0.0052122246,0.33107567
889,158738070,0.892075777053833,-2.789200782775879,15.28900146484375,-0.013654043,-0.0037526498,0.35195637
890,158754737,0.892253577709198,-2.789811372756958,15.288840293884276,-0.006374869,-0.00964633,0.3533554
891,158771404,0.8914110660552979,-2.790318727493286,15.288779258728027,-0.01008049,-0.006283487,0.34589577
892,158788071,0.8916398286819458,-2.790233373641968,15.288384437561035,-0.008818103,-0.0107763,0.328763
893,158804738,0.8929720520973206,-2.7911105155944824,15.287185668945312,-0.014563154,-0.004269873,0.3307352
894,158821405,0.8935204744338989,-2.791316032409668,15.287701606750488,-0.008463332,-0.009429222,0.3338213
895,158838072,0.8924328088760376,-2.79116153717041,15.28891372680664,-0.011990311,-0.011678482,0.33600903
896,158854739,0.8935607075691223,-2.7923295497894287,15.289151191711426,-0.008372866,-0.017046377,0.32326698
897,158871406,0.8938860297203064,-2.7921576499938965,15.289286613464355,-0.0036753633,-0.014338265,0.33642864
898,158888073,0.8939937353134155,-2.7912611961364746,15.28873348236084,-0.0069014374,-0.010786002,0.3475895
899,158904740,0.8955410122871399,-2.790536642074585,15.288475036621094,-0.013552051,-0.00029711856,0.34844208
900,158921407,0.8958006501197815,-2.7912700176239014,15.288345336914062,-0.012074226,-0.01242693,0.31575394
901,158938074,0.8954470753669739,-2.792465209960937,15.286714553833008,-0.013623995,-0.0002826391,0.32516766
902,158954741,0.8953253030776978,-2.7928996086120605,15.286163330078123,-0.008017144,-0.0060853707,0.33542156
903,158971408,0.8950669765472412,-2.7931172847747803,15.28646755218506,0.0031225039,-0.005073241,0.34538364
904,158988075,0.8940837383270264,-2.7929024696350098,15.2868070602417,0.0032017392,-0.015585775,0.32644176
905,159004742,0.8937730193138123,-2.793447494506836,15.287701606750488,-0.012671564,-0.013433953,0.3404312
906,159021409,0.8939589858055115,-2.792717218399048,15.289485931396484,-0.0025062647,0.00040901473,0.3613472
907,159038076,0.8941304683685303,-2.790886402130127,15.289660453796388,0.00069800304,-0.017154507,0.34560394
908,159054743,0.8930391073226929,-2.789344787597656,15.288801193237305,-0.00331059,-0.011229668,0.33402634
909,159071410,0.892805278301239,-2.788959503173828,15.287882804870604,0.0017148054,-0.010163952,0.3365879
910,159088077,0.8925146460533142,-2.7892186641693115,15.28837776184082,-0.002662626,-0.013901668,0.34023
911,159104744,0.8930445313453674,-2.7899324893951416,15.28769874572754,-0.007159078,-0.002134388,0.34919262
912,159121411,0.8926826119422913,-2.79006290435791,15.290306091308594,-0.011672531,-0.006915163,0.32947254
913,159138078,0.8923600912094116,-2.790422201156616,15.291176795959473,-0.011212528,0.0069641815,0.33370113
914,159154745,0.8919335603713989,-2.787927389144897,15.291407585144045,-0.0014855928,0.007619277,0.34415627
915,159171412,0.8892995119094849,-2.7863941192626958,15.291895866394045,0.000118922864,-0.008900503,0.35173798
916,159188079,0.8782520294189453,-2.7842462062835693,15.286666870117188,-0.009722954,-0.0030902692,0.33676147
917,159204746,0.8799505233764648,-2.741484403610229,15.276713371276855,0.025129464,-0.012457822,0.2801714
918,159221413,0.8895565271377563,-2.714634895324707,15.270027160644531,-0.005803835,-0.0439643,0.37670803
919,159238080,0.9316281080245972,-2.601027488708496,15.186824798583984,0.6640483,-0.3273307,0.44284058
920,159254747,0.7337332963943481,-2.4280388355255127,15.028380393981934,2.2016697,-1.1480885,0.53646564
921,159271414,0.609175443649292,-2.397216558456421,14.756176948547363,-1.663327,0.3128032,0.034754753
922,159288081,0.6586548686027527,-2.4536728858947754,14.529502868652344,-1.3013166,1.1782801,0.3489828
923,159304748,0.6824876666069031,-2.500131845474243,14.489283561706545,0.15619926,-0.21570042,0.37496948
924,159321415,0.6586747169494629,-2.579568862915039,14.335899353027344,0.4601759,-0.27548262,0.4656763
925,159338082,0.521683931350708,-2.7296926975250244,14.350058555603027,1.0383154,-0.61792624,0.5215206
926,159354749,0.2242843359708786,-3.1115739345550537,14.385957717895508,0.18563636,-0.94999355,0.4278593
927,159371416,-0.1498064994812011,-3.691749334335327,14.371703147888184,-0.36995327,-0.5993727,0.23317719
928,159388083,-0.5210550427436829,-4.194506645202637,14.64246940612793,-0.42352787,-0.077406965,0.5826626
929,159404750,-0.7487449049949646,-4.613657474517822,15.22266674041748,-0.3769457,-0.10831794,0.43883133
930,159421417,-1.0642188787460327,-5.026224136352539,15.703774452209473,-0.5397342,-0.009076407,0.25110722
931,159438084,-1.111164927482605,-5.314693927764893,15.876090049743652,0.26163197,-0.48783296,-0.2717514
932,159454751,-0.9160653948783876,-4.912360668182373,15.87363624572754,1.5546772,-1.7099822,-0.3596449
933,159471418,-1.1571546792984009,-3.385175943374634,15.017988204956056,0.18085079,-1.5429825,-0.5990257
934,159488085,-1.190424919128418,-2.927234172821045,15.081562995910645,-1.1894622,4.3263106,1.7893391
935,159504752,-1.1660257577896118,-2.7394604682922363,15.57249641418457,-0.52827084,0.43885472,0.6259651
936,159521419,-1.202897548675537,-2.124286413192749,15.928858757019045,-0.07067488,0.75727594,0.43066502
937,159538086,-1.2411655187606812,-1.1297199726104736,16.01190948486328,-0.41137484,0.628047,0.5608778
938,159554753,-1.3666054010391235,-0.2405102252960205,16.02721405029297,-0.27259284,-0.03302217,0.37638092
939,159571420,-1.5344656705856323,0.412689208984375,16.112077713012695,0.18950537,-0.11266712,0.37039852
940,159588087,-1.6839282512664795,0.9748273491859436,16.028175354003906,0.3141176,-0.65076065,0.3144989
941,159604754,-1.7004259824752808,1.238287329673767,15.674271583557127,0.47936735,-1.2350991,0.0078001022
942,159621421,-1.6434365510940552,0.8082829117774963,15.544507026672363,-0.21168518,-0.58047736,0.003501892
943,159638088,-1.5376678705215454,-0.1757147908210754,15.927539825439451,-0.29876938,0.13167734,0.44067574
944,159654755,-1.6835880279541016,-0.7084458470344543,16.20930290222168,-0.1227602,-0.2380754,0.3726673
945,159671422,-1.919838547706604,-0.8648505210876465,16.234024047851562,0.03672214,-0.16783637,0.49197197
946,159688089,-2.2100040912628174,-1.1351810693740845,16.247230529785156,0.102302,-0.5853704,0.42721653
947,159704756,-2.539961576461792,-1.4950519800186155,16.247142791748047,-0.05782679,-0.52890027,0.1594181
948,159721423,-2.773476839065552,-1.944286823272705,16.43687629699707,0.0855023,-0.0919299,0.42086792
949,159738090,-2.9475996494293213,-2.3333816528320312,16.615571975708008,-0.20050436,-0.25661948,0.40087223
950,159754757,-3.1318931579589844,-2.762129783630371,16.866575241088867,-0.039514326,-0.19837944,0.4865532
951,159771424,-3.223712205886841,-3.118602991104126,16.94083023071289,0.13364166,-0.6156667,0.326684
952,159788091,-2.589054584503174,-3.1950807571411133,16.147750854492188,-0.3604868,-1.4702003,-0.35189056
953,159804758,-2.3240740299224854,-3.1810858249664307,15.491965293884276,1.0680385,0.39655903,0.85320187
954,159821425,-2.1637232303619385,-3.465157985687256,15.264991760253906,0.22309211,-0.20513788,0.650898
955,159838092,-2.0786709785461426,-3.711479902267456,14.965444564819336,0.14221853,-0.3685327,0.18119812
956,159854759,-1.9615206718444824,-3.882094383239746,14.684831619262695,-0.024689324,-0.5287792,0.24152184
957,159871426,-1.853739619255066,-3.9413692951202393,14.395774841308594,-0.18179746,-0.15202913,0.25989056
958,159888093,-1.780490159988403,-3.953704595565796,14.193602561950684,-0.06022241,-0.06583752,0.35035706
959,159904760,-1.6911066770553589,-4.001034736633301,14.029330253601074,0.33474156,-0.2488776,0.38210106
960,159921427,-1.611834168434143,-4.040903091430664,13.837358474731444,0.3377951,-0.30122584,0.2947569
961,159938094,-1.5205225944519043,-4.008481979370117,13.625842094421388,0.42384392,-0.39318213,0.29389095
962,159954761,-1.4414604902267456,-4.013072490692139,13.506611824035645,0.36784732,-0.10427034,0.44227505
963,159971428,-1.331193447113037,-4.077842712402344,13.459609985351562,-0.12897377,0.072704405,0.36383438
964,159988095,-1.2615971565246582,-4.087002754211426,13.520028114318848,-0.39682665,0.21630292,0.19463253
965,160004762,-1.1593570709228516,-4.00206184387207,13.576830863952637,-0.3186892,0.46507105,0.3534546
966,160021429,-1.1338047981262207,-3.989934921264648,13.978374481201172,-0.34424433,0.46550584,0.557004
967,160038096,-1.0247564315795898,-3.981730937957764,13.917068481445312,0.70985436,-1.0972813,0.16573715
968,160054763,-0.9201217889785768,-3.963021039962769,13.708016395568848,0.0011315623,0.2686473,0.46387672
969,160071430,-0.8698421120643616,-4.04913854598999,13.614335060119627,-0.22572413,0.14273828,0.46180916
970,160088097,-0.8660978674888611,-4.141646385192871,13.512950897216797,0.18520734,-0.025529789,0.30879116
971,160104764,-0.8345106840133667,-4.253551959991455,13.311699867248535,-0.0040836656,0.26634237,0.3522339
972,160121431,-0.8063262701034546,-4.321072578430176,13.088220596313477,-0.28848,0.49169084,0.21184635
973,160138098,-0.7796927094459534,-4.282927513122559,12.837437629699709,-0.30799276,0.6396444,0.19773865
974,160154765,-0.7072546482086182,-4.166959285736084,12.563600540161133,-0.13677062,0.4125619,0.18076324
975,160171432,-0.6842291355133057,-4.006126880645752,12.52292537689209,0.11820787,0.23049425,0.4356985
976,160188099,-0.7403132915496826,-3.892930030822754,12.660436630249023,0.0812433,-0.032913245,0.465621
977,160204766,-0.7774303555488586,-3.870552062988281,12.876255989074709,0.2710054,-0.22566472,0.48844624
978,160221433,-0.6840494275093079,-3.867084503173828,12.836252212524414,-0.14029385,-0.6208944,-0.07525349
979,160238100,-0.4987320899963379,-3.688206672668457,12.3469820022583,-0.2134874,-0.0011833631,0.26556015
980,160254767,-0.3870913684368133,-3.4758708477020264,11.887072563171388,-0.05814533,0.38294178,0.53041935
981,160271434,-0.3396138846874237,-3.324546337127685,11.536309242248535,-0.048724286,0.008017616,0.3963194
982,160288101,-0.3667839765548706,-3.1803603172302246,11.22175121307373,0.30841357,-0.45772886,0.3859377
983,160304768,-0.4388938546180725,-3.066292762756348,10.938851356506348,0.08526843,-0.1791219,0.3898592
984,160321435,-0.5089290142059326,-2.915289878845215,10.72556209564209,-0.24385132,-0.010319025,0.23584461
985,160338102,-0.5220211148262024,-2.7284131050109863,10.63940715789795,-0.29815835,0.25470203,0.43381977
986,160354769,-0.5355817079544067,-2.6455113887786865,10.76219654083252,-0.16021976,0.12193931,0.3925619
987,160371436,-0.5335156321525574,-2.624053239822388,10.897494316101074,0.15488042,-0.28500408,0.41066647
988,160388103,-0.5209507346153259,-2.63230299949646,10.884873390197754,0.24481696,-0.69714946,0.31031322
989,160404770,-0.4856913387775421,-2.6313278675079346,10.676315307617188,0.37080023,-0.5724495,0.31964302
990,160421437,-0.4541336297988891,-2.6663966178894043,10.46225643157959,0.18682884,-0.0038351016,0.43304157
991,160438104,-0.4201653003692627,-2.696117639541626,10.269214630126951,-0.38850358,0.25922614,0.21755409
992,160454771,-0.3862626552581787,-2.664720058441162,10.139362335205078,-0.33245355,0.3843857,0.34372997
993,160471438,-0.3789936006069183,-2.648958683013916,10.115264892578123,-0.20477352,0.27635923,0.37018204
994,160488105,-0.4105140268802643,-2.671875238418579,10.14823055267334,0.18312226,-0.029313816,0.3866787
995,160504772,-0.4504372179508209,-2.680041790008545,10.27004623413086,-0.05005412,0.03533668,0.29122543
996,160521439,-0.4610383510589599,-2.650766134262085,10.309331893920898,-0.2636889,0.15365112,0.32298374
997,160538106,-0.5010610818862915,-2.629424333572388,10.340383529663086,-0.09096645,0.06402154,0.360384
998,160554773,-0.5021940469741821,-2.626270055770874,10.343291282653809,0.08098084,-0.12972651,0.33838463
999,160571440,-0.4926580786705017,-2.6478865146636963,10.215594291687012,0.12731966,-0.36812893,0.3396454
1000,160588107,-0.4357379078865051,-2.697794914245605,10.077821731567385,-0.13610852,0.15285902,0.30561447
1001,160604774,-0.3831630349159241,-2.705437421798706,9.93161678314209,-0.36159405,0.39575216,0.2584715
1002,160621441,-0.317888468503952,-2.677051544189453,9.898113250732422,-0.33452368,0.367863,0.31202984
1003,160638108,-0.2884304821491241,-2.657186269760132,9.931846618652344,-0.15234523,0.6950626,0.28977013
1004,160654775,-0.2121346890926361,-2.6382625102996826,10.029576301574709,0.007634644,-0.4971079,0.34833813
1005,160671442,-0.1865392476320266,-2.5316548347473145,9.601946830749512,0.1753461,-0.3136152,0.3575287
1006,160688109,-0.2459464967250824,-2.5111069679260254,9.474967002868652,0.04822278,0.56079286,0.4791937
1007,160704776,-0.3042540550231933,-2.5192084312438965,9.47073745727539,-0.43232626,0.202225,0.25173473
1008,160721443,-0.3778449594974518,-2.4514710903167725,9.510091781616213,-0.4289707,1.1015849,0.31230927
1009,160738110,-0.4093883037567138,-2.342878580093384,10.028105735778809,0.115253195,0.9506888,0.23454094
1010,160754777,-0.4285231530666351,-2.2105674743652344,10.31547737121582,0.019223735,-0.50260967,0.30999374
1011,160771444,-0.4410677850246429,-2.110695600509644,10.460542678833008,0.30829766,0.0047101444,0.47210884
1012,160788111,-0.4983751177787781,-2.065638303756714,10.688924789428713,0.4538426,-0.47471055,0.4027338
1013,160804778,-0.5243276953697205,-2.063218593597412,10.875465393066406,0.37808123,-0.5174713,0.43376446
1014,160821445,-0.5547095537185669,-2.077767372131348,10.90625286102295,-0.023501493,0.06209205,0.26141167
1015,160838112,-0.5480466485023499,-2.0971767902374268,10.81113338470459,-0.05929183,0.3643675,0.29591942
1016,160854779,-0.5357415080070496,-2.1490304470062256,10.670266151428224,0.14685614,0.21508504,0.39468098
1017,160871446,-0.5329869985580444,-2.202409267425537,10.608152389526367,-0.22629319,0.6411467,0.35316467
1018,160888113,-0.5265172123908997,-2.252781629562378,10.657255172729492,0.042145923,0.2627004,0.26753044
1019,160904780,-0.4916380941867828,-2.2759523391723637,10.697362899780272,0.19640431,-0.032984186,0.38222408
1020,160921447,-0.4404692649841308,-2.300544500350952,10.675823211669922,0.030156368,0.10091448,0.32943726
1021,160938114,-0.4270331859588623,-2.3431384563446045,10.487663269042969,-0.3127319,0.2051023,0.33603764
1022,160954781,-0.3920669853687286,-2.379606246948242,10.12057876586914,-0.5691726,0.56833756,0.29426003
1023,160971448,-0.332288533449173,-2.39119553565979,9.831903457641602,-0.474151,0.6282797,0.3233261
1024,160988115,-0.2870106995105743,-2.385649919509888,9.623579025268556,-0.34497795,0.25988716,0.30552387
1025,161004782,-0.2695952653884887,-2.380025625228882,9.40982151031494,-0.095953025,0.4825257,0.38696766
1026,161021449,-0.2894071936607361,-2.3888373374938965,9.355748176574709,0.030195622,0.3509276,0.37493134
1027,161038116,-0.315804123878479,-2.415555238723755,9.189009666442873,-0.014554256,0.161097,0.34173393
1028,161054783,-0.3253516852855682,-2.4362945556640625,8.933807373046875,-0.030405669,0.12196305,0.33317184
1029,161071450,-0.3345882594585418,-2.4506194591522217,8.70406436920166,0.091184095,-0.53905785,0.2931471
1030,161088117,-0.3504104316234588,-2.459282636642456,8.424251556396484,0.23444302,-0.36571425,0.3932619
1031,161104784,-0.4187323153018951,-2.48847770690918,8.314447402954102,0.13021316,0.14815693,0.360713
1032,161121451,-0.5011112689971924,-2.518559455871582,8.57606029510498,0.06583944,0.96147877,0.32007313
1033,161138118,-0.5473414063453674,-2.5245134830474854,9.216469764709473,-0.103486985,0.5581952,0.34487343
1034,161154785,-0.6027328372001648,-2.53875470161438,9.608716011047363,-0.03149081,-0.50754285,0.34295273
1035,161171452,-0.6606339812278748,-2.5487399101257324,9.75505542755127,-0.17323549,-0.36686057,0.31983662
1036,161188119,-0.7508215308189392,-2.5633962154388428,9.715685844421388,0.18004502,-0.23537068,0.43589878
1037,161204786,-0.9175992012023926,-2.5820207595825195,9.733099937438965,0.03015975,0.105835885,0.41602898
1038,161221453,-1.1690419912338257,-2.583095073699951,9.688185691833496,-0.18526308,0.009585689,0.39615822
1039,161238120,-1.395299792289734,-2.574345111846924,9.588796615600586,0.03871239,0.13309659,0.3283186
1040,161254787,-1.6571595668792725,-2.5400631427764893,9.870125770568848,0.05463928,0.122575134,0.2754345
1041,161271454,-1.8968034982681277,-2.488892078399658,10.384282112121582,0.053203963,-0.1455729,0.3680725
1042,161288121,-2.1218421459198,-2.42421555519104,10.83161735534668,-0.12748714,-0.13430989,0.30066204
1043,161304788,-2.2230570316314697,-2.3780593872070312,10.996764183044434,-0.49008986,0.980867,0.22032166
1044,161321455,-2.2357938289642334,-2.3407349586486816,11.044251441955566,-0.12108912,0.6750461,0.31011963
1045,161338122,-2.255198240280152,-2.320449113845825,11.044266700744627,0.005845115,0.0634814,0.4369135
1046,161354789,-2.4181103706359863,-2.3926329612731934,11.104740142822266,-0.022997346,-0.101451695,0.21187973
1047,161371456,-2.479130268096924,-2.4708166122436523,11.02145767211914,-0.014640029,0.04318994,0.3514862
1048,161388123,-2.4672765731811523,-2.463408946990967,11.024645805358888,-0.024853664,-0.0062323236,0.35904503
1049,161404790,-2.4724462032318115,-2.466933012008667,11.02593994140625,-0.02247719,0.009713468,0.31535053
1050,161421457,-2.472122430801392,-2.467702627182007,11.025835037231444,-0.01745597,0.012717929,0.32703114
1051,161438124,-2.472729444503784,-2.467223644256592,11.025785446166992,-0.00843021,0.0069987494,0.33206367
1052,161454791,-2.4729695320129395,-2.469705820083618,11.027244567871094,-0.008546633,0.004837547,0.35042667
1053,161471458,-2.474283456802368,-2.470015525817871,11.02834701538086,-0.00857066,0.0026639532,0.3386011
1054,161488125,-2.474782705307007,-2.4698119163513184,11.027999877929688,-0.0076236078,-0.0010879772,0.34039783
1055,161504792,-2.474825620651245,-2.471098661422729,11.028523445129396,-0.0011840599,0.011600671,0.32937717
1056,161521459,-2.474738121032715,-2.47171688079834,11.029219627380373,-0.0038182999,0.012358674,0.3435831
1057,161538126,-2.4751992225646973,-2.472819805145264,11.029593467712402,-0.015780754,0.00046201525,0.34667492
1058,161554793,-2.4746501445770264,-2.472969055175781,11.02978229522705,-0.012913936,0.021143949,0.36273003
1059,161571460,-2.4753310680389404,-2.472354888916016,11.030647277832031,-0.024122635,0.006629073,0.3378601
1060,161588127,-2.476133346557617,-2.473015785217285,11.031550407409668,-0.006062272,0.018937038,0.3508196
1061,161604794,-2.476440191268921,-2.474210500717163,11.030338287353516,-0.016669247,0.0038300343,0.3550558
1062,161621461,-2.476256847381592,-2.474663257598877,11.03154468536377,0.001875553,0.0051257806,0.33314514
1063,161638128,-2.4764420986175537,-2.474848985671997,11.030667304992676,0.0005900742,0.014611252,0.3473072
1064,161654795,-2.475917100906372,-2.4756593704223637,11.032127380371094,-0.0127333095,-0.010236489,0.31992245
1065,161671462,-2.4761221408843994,-2.476139068603516,11.033135414123535,-0.017094187,-0.0036267492,0.3557291
1066,161688129,-2.47549057006836,-2.4765098094940186,11.032482147216797,-0.006880958,0.0073621534,0.3323908
1067,161704796,-2.475754499435425,-2.477375268936157,11.031460762023926,-0.013412914,-0.0044880565,0.32158184
1068,161721463,-2.4774112701416016,-2.477466344833374,11.03113842010498,-0.0055022044,-0.009919854,0.3428898
1069,161738130,-2.4762051105499268,-2.4785187244415283,11.0309419631958,-0.012270428,0.00056586496,0.33790302
1070,161754797,-2.4755101203918457,-2.4789416790008545,11.02969741821289,-0.026363939,-0.010302201,0.32312965
1071,161771464,-2.4755489826202397,-2.478466033935547,11.028599739074709,-0.0025754,0.002580569,0.32458878
1072,161788131,-2.475210428237915,-2.4793543815612797,11.028891563415527,-0.004959515,0.014615219,0.3518963
1073,161804798,-2.475231885910034,-2.478659152984619,11.02868366241455,-0.0069275047,0.00043291665,0.33984947
1074,161821465,-2.4751267433166504,-2.479661703109741,11.027756690979004,-0.012739372,0.009927104,0.3370247
1075,161838132,-2.4758529663085938,-2.47986102104187,11.02759838104248,-0.01662569,-0.011024665,0.33708096
1076,161854799,-2.475790977478028,-2.480751037597656,11.027469635009766,-0.02366252,-0.006645948,0.33845425
1077,161871466,-2.47549057006836,-2.480802536010742,11.028470039367676,-0.022802932,0.0016832202,0.30335712
1078,161888133,-2.4776527881622314,-2.4819600582122803,11.027595520019531,-0.025222361,-0.0034281719,0.3422928
1079,161904800,-2.474404573440552,-2.482473611831665,11.029272079467772,-0.024117257,0.023204137,0.35280323
1080,161921467,-2.4753894805908203,-2.484185218811035,11.029603004455566,-0.014576328,-0.0034694101,0.30018425
1081,161938134,-2.4774980545043945,-2.4843122959136963,11.028997421264648,0.068694726,-0.013461766,0.33093166
1082,161954801,-2.4774773120880127,-2.4835193157196045,11.028796195983888,0.009561605,0.0081602065,0.34682083
1083,161971468,-2.4784605503082275,-2.484585285186768,11.029725074768066,-0.030043801,0.010318043,0.28539467
1084,161988135,-2.47747802734375,-2.4830687046051025,11.030875205993652,-0.034114517,0.020805871,0.38755798
1085,162004802,-2.477257251739502,-2.482783555984497,11.030488014221191,-0.02223634,0.00080459076,0.32218075
1086,162021469,-2.478555917739868,-2.483398675918579,11.030572891235352,0.0029663243,-0.0043213577,0.32041645
1087,162038136,-2.4787943363189697,-2.482391119003296,11.029678344726562,0.0047747674,0.0077955034,0.35095406
1088,162054803,-2.478529453277588,-2.483017444610596,11.029389381408691,-0.016362965,0.0054104803,0.30293274
1089,162071470,-2.478055953979492,-2.482260465621948,11.029825210571287,-0.036461625,0.010961397,0.3341093
1090,162088137,-2.478165626525879,-2.482948541641236,11.029953002929688,-0.023005825,-0.0020424335,0.32823372
1091,162104804,-2.478529453277588,-2.4830050468444824,11.02894687652588,-0.010671249,0.00010579148,0.35977268
1092,162121471,-2.477156162261963,-2.4837679862976074,11.02851104736328,-0.016955568,0.007089356,0.35019016
1093,162138138,-2.476867914199829,-2.4859061241149902,11.027159690856934,-0.0024025408,2.6472315e-05,0.32529068
1094,162154805,-2.475648164749145,-2.485125064849853,11.027113914489746,0.0017953678,-0.006256435,0.32602882
1095,162171472,-2.476346492767334,-2.485770463943481,11.027259826660156,-0.026713962,0.007928633,0.32776356
1096,162188139,-2.476763963699341,-2.48575210571289,11.02702808380127,-0.057518825,0.0073333625,0.3510046
1097,162204806,-2.4770331382751465,-2.485396385192871,11.026382446289062,-0.031078372,0.008249123,0.34042072
1098,162221473,-2.476973533630371,-2.4854226112365723,11.024758338928224,-0.036315992,0.0016907777,0.3375759
1099,162238140,-2.477790117263794,-2.487867593765259,11.022693634033203,0.041565392,-0.008807472,0.33022976
1100,162254807,-2.4777331352233887,-2.4893808364868164,11.023183822631836,0.14004919,-0.034374002,0.3450985
1101,162271474,-2.4767749309539795,-2.488027572631836,11.0270357131958,0.09363408,-0.029528702,0.35355186
1102,162288141,-2.476043939590454,-2.4857583045959477,11.03101921081543,-0.13271011,0.022435477,0.32470417
1103,162304808,-2.4760167598724365,-2.485745429992676,11.03151035308838,-0.18413574,0.032396834,0.3183546
1104,162321475,-2.477083683013916,-2.485823392868042,11.029115676879885,-0.021276742,0.011531327,0.34638405
1105,162338142,-2.476266860961914,-2.486828327178955,11.027813911437988,0.0705051,-0.011624238,0.35568428
1106,162354809,-2.475721597671509,-2.486483573913574,11.028255462646484,-0.0011774942,0.0036070242,0.33966827
1107,162371476,-2.4767508506774902,-2.4870474338531494,11.027701377868652,-0.049678925,0.010691477,0.33397198
1108,162388143,-2.4757351875305176,-2.487872362136841,11.025946617126465,-0.031505268,0.0010757679,0.33650208
1109,162404810,-2.474477529525757,-2.489144325256348,11.02366828918457,-0.0038015642,-0.0053415266,0.3192501
1110,162421477,-2.4753692150115967,-2.4883289337158203,11.02334690093994,0.0007686331,0.010716915,0.31522083
1111,162438144,-2.475735902786255,-2.4875099658966064,11.022333145141602,-0.002239935,0.015265209,0.349432
1112,162454811,-2.4759609699249268,-2.487318515777588,11.02365493774414,-0.0057100155,0.008829474,0.3354168
1113,162471478,-2.4759843349456787,-2.4878995418548584,11.024622917175291,-0.0014041642,0.011335921,0.32568645
1114,162488145,-2.477017402648926,-2.4879167079925537,11.023591995239258,-0.01008823,-0.008383412,0.34923744
