sep=,
DeviceTag:,Movella DOT,,,,,,,,,,,,,,,,,
FirmwareVersion:,3.0.0,,,,,,,,,,,,,,,,,
AppVersion:,2023.6.1,,,,,,,,,,,,,,,,,
SyncStatus:,Un-synced,,,,,,,,,,,,,,,,,
OutputRate:,60Hz,,,,,,,,,,,,,,,,,
FilterProfile:,Dynamic,,,,,,,,,,,,,,,,,
Measurement Mode:,Sensor fusion Mode - Complete (Euler),,,,,,,,,,,,,,,,,
StartTime:,2024-10-24 07:29:22.883 +0700,,,,,,,,,,,,,,,,,
 2024,,,,,,,,,,,,,,,,,,,

PacketCounter,SampleTimeFine,Euler_X,Euler_Y,Euler_Z,FreeAcc_X,FreeAcc_Y,FreeAcc_Z
1, 24037488, -0.22478358447551727, -0.6260177493095398, 7.700401306152344, 0.004369902, -0.0035583873, 0.32639503
2, 24054155, -0.23331382870674133, -0.6504837274551392, 7.691251754760742, -1.7005844E-4, -0.0153889945, 0.32492924
3, 24070822, -0.2549244463443756, -0.6684339642524719, 7.6723761558532715, -0.015222965, 0.006883262, 0.32767582
4, 24087489, -0.26082250475883484, -0.6756584644317627, 7.683916091918945, -0.010398895, -9.4812975E-4, 0.30876732
5, 24104156, -0.26609495282173157, -0.6849187016487122, 7.699799537658691, -0.0083548445, 0.003943413, 0.33154392
6, 24120823, -0.2691956162452698, -0.6965839266777039, 7.718055725097656, 0.0035191695, 5.0203107E-5, 0.33018494
7, 24137490, -0.2733704745769501, -0.7143425345420837, 7.735790252685547, -0.02185722, 0.0031649785, 0.30609703
8, 24154157, -0.27718156576156616, -0.7284544110298157, 7.731069087982178, -0.023583425, 7.9922646E-4, 0.32611656
9, 24170824, -0.2808783948421478, -0.7414370775222778, 7.726534843444824, -0.020629412, 0.012046182, 0.31716347
10, 24187491, -0.282816082239151, -0.7551162838935852, 7.742626667022705, -8.1592705E-4, -0.007135232, 0.30784607
11, 24204158, -0.2860678434371948, -0.7702174186706543, 7.742807388305664, -0.024727777, -0.002030142, 0.32781696
12, 24220825, -0.29027822613716125, -0.7851155996322632, 7.730112552642822, -0.032896355, 0.013061473, 0.31819916
13, 24237492, -0.2938756048679352, -0.7985973358154297, 7.751839637756348, -0.025227606, -0.0066948887, 0.32602024
14, 24254159, -0.2975360155105591, -0.8123860359191895, 7.763055801391602, -0.037012827, 0.009997294, 0.33837795
15, 24270826, -0.30218705534935, -0.8260306119918823, 7.759191513061523, -0.039006885, 0.013826368, 0.32835197
16, 24287493, -0.30560123920440674, -0.8390301465988159, 7.7784552574157715, -0.040529463, 1.4724265E-4, 0.31317902
17, 24304160, -0.30902230739593506, -0.8516477346420288, 7.763993263244629, -0.042959884, -1.2183028E-4, 0.30653667
18, 24320827, -0.31223931908607483, -0.8649661540985107, 7.77493953704834, -0.038575083, 0.027945591, 0.3082037
19, 24337494, -0.3139793574810028, -0.8782275915145874, 7.770186424255371, -0.04457618, 0.0052249385, 0.32116127
20, 24354161, -0.3173864483833313, -0.8915939927101135, 7.791473388671875, -0.04928831, 0.0073214043, 0.31391335
21, 24370828, -0.3204214870929718, -0.9039238691329956, 7.790494441986084, -0.038586397, 0.003533979, 0.31941605
22, 24387495, -0.3239257037639618, -0.9184818267822266, 7.786070823669434, -0.058928773, -8.709811E-4, 0.33455944
23, 24404162, -0.3260399103164673, -0.9322184920310974, 7.787242412567139, -0.05896171, 0.0040481463, 0.33284187
24, 24420829, -0.32872411608695984, -0.9467476606369019, 7.788060188293457, -0.06562599, -0.006983907, 0.3527794
25, 24437496, -0.3321683704853058, -0.959597110748291, 7.792020797729492, -0.060791418, 0.011690335, 0.33497143
26, 24454163, -0.33537420630455017, -0.9735283255577087, 7.801017761230469, -0.06472625, 0.004028673, 0.3233347
27, 24470830, -0.33972907066345215, -0.9876356720924377, 7.781336784362793, -0.07024282, 0.011082609, 0.31471157
28, 24487497, -0.34254372119903564, -0.9998030066490173, 7.780571460723877, -0.09098148, 0.019840598, 0.34635925
29, 24504164, -0.34610918164253235, -1.0126235485076904, 7.762974739074707, -0.07198212, 0.015578935, 0.33025646
30, 24520831, -0.3487829864025116, -1.025824785232544, 7.755937099456787, -0.08016271, 0.011672496, 0.3265667
31, 24537498, -0.35245782136917114, -1.0398344993591309, 7.746629238128662, -0.07821655, 0.0059173447, 0.35609055
32, 24554165, -0.3558236062526703, -1.053413987159729, 7.7410101890563965, -0.08276147, 0.02058782, 0.31709766
33, 24570832, -0.3602311909198761, -1.0665838718414307, 7.744750022888184, -0.08225106, 0.008909174, 0.3396206
34, 24587499, -0.36422431468963623, -1.0794939994812012, 7.748088836669922, -0.07166222, 0.00832312, 0.31144333
35, 24604166, -0.36781206727027893, -1.09290611743927, 7.745417594909668, -0.084620856, 0.0038777473, 0.32909966
36, 24620833, -0.37196874618530273, -1.1061551570892334, 7.723791599273682, -0.07260525, 0.005678242, 0.33344364
37, 24637500, -0.37542834877967834, -1.1184875965118408, 7.719718933105469, -0.088346764, 0.0120191015, 0.30562496
38, 24654167, -0.37948906421661377, -1.1311947107315063, 7.7012200355529785, -0.096924774, 0.014326915, 0.3192835
39, 24670834, -0.38184282183647156, -1.146345615386963, 7.69817590713501, -0.09724842, 0.014688744, 0.32532692
40, 24687501, -0.3850780427455902, -1.1604483127593994, 7.68978214263916, -0.09375777, 0.010289258, 0.329031
41, 24704168, -0.388555645942688, -1.1741487979888916, 7.685839653015137, -0.09777257, 0.01007953, 0.3174019
42, 24720835, -0.393012672662735, -1.1875561475753784, 7.6831135749816895, -0.096199766, 0.013685469, 0.33561707
43, 24737502, -0.3962413966655731, -1.2016193866729736, 7.6699371337890625, -0.11391748, 0.0067333695, 0.3452177
44, 24754169, -0.3993702232837677, -1.2163214683532715, 7.663454532623291, -0.10124125, 0.022672426, 0.3262453
45, 24770836, -0.40274888277053833, -1.2295863628387451, 7.652205944061279, -0.1062689, 0.011895671, 0.32045555
46, 24787503, -0.405283659696579, -1.2424064874649048, 7.650358200073242, -0.113434695, 0.01826843, 0.33593464
47, 24804170, -0.40943005681037903, -1.2566639184951782, 7.6527533531188965, -0.10649896, 0.017017119, 0.30974674
48, 24820837, -0.41136956214904785, -1.2705985307693481, 7.650507926940918, -0.115213186, 0.015263033, 0.32378387
49, 24837504, -0.41543400287628174, -1.2849730253219604, 7.64853572845459, -0.11819706, 0.019663453, 0.33490467
50, 24854171, -0.41792941093444824, -1.299618124961853, 7.644335746765137, -0.122359246, 0.010943387, 0.31396675
51, 24870838, -0.42035457491874695, -1.3136398792266846, 7.638856410980225, -0.12425651, 0.014844913, 0.31936264
52, 24887505, -0.42496582865715027, -1.327352523803711, 7.638209342956543, -0.12978224, 0.012162161, 0.32395744
53, 24904172, -0.42901575565338135, -1.3402057886123657, 7.644590377807617, -0.13483295, 0.013362132, 0.33067703
54, 24920839, -0.43237540125846863, -1.3527824878692627, 7.634397983551025, -0.124177516, 0.019040523, 0.35129833
55, 24937506, -0.4353184700012207, -1.3663235902786255, 7.6389031410217285, -0.1411568, 0.0021538127, 0.33238602
56, 24954173, -0.4388319253921509, -1.3796145915985107, 7.641805171966553, -0.13164228, 0.026871663, 0.34212208
57, 24970840, -0.442010760307312, -1.3930176496505737, 7.635300159454346, -0.13516352, 0.011735066, 0.31221008
58, 24987507, -0.44583985209465027, -1.4067343473434448, 7.633326530456543, -0.13150719, 0.019355582, 0.32200336
59, 25004174, -0.449324369430542, -1.419942855834961, 7.619049549102783, -0.13492443, 0.012115072, 0.32087803
60, 25020841, -0.452197790145874, -1.4331490993499756, 7.615727424621582, -0.15646505, 0.029828142, 0.34918976
61, 25037508, -0.45515894889831543, -1.4460561275482178, 7.610233783721924, -0.15477337, 0.028148564, 0.3418913
62, 25054175, -0.4589785933494568, -1.4588372707366943, 7.602499961853027, -0.15078962, 0.011003173, 0.3505907
63, 25070842, -0.4632408320903778, -1.472519040107727, 7.598668575286865, -0.14635637, 0.010973756, 0.34313202
64, 25087509, -0.46484890580177307, -1.4858113527297974, 7.59246301651001, -0.14496653, 0.013938621, 0.33149242
65, 25104176, -0.4674072861671448, -1.4981944561004639, 7.585690021514893, -0.1549885, 0.017087737, 0.31870937
66, 25120843, -0.4720543920993805, -1.5118027925491333, 7.582420349121094, -0.15939249, 0.025677346, 0.3128643
67, 25137510, -0.4758639931678772, -1.5250643491744995, 7.579914569854736, -0.15931264, 0.020396672, 0.33879185
68, 25154177, -0.47956475615501404, -1.536421298980713, 7.5731987953186035, -0.14359531, 0.020566452, 0.3236351
69, 25170844, -0.4825868010520935, -1.549972653388977, 7.570662975311279, -0.15439218, 0.017730346, 0.3156023
70, 25187511, -0.48670321702957153, -1.5620698928833008, 7.563945293426514, -0.17174558, 0.012622612, 0.3265171
71, 25204178, -0.4911472201347351, -1.5744377374649048, 7.559286117553711, -0.17320558, 0.020311303, 0.33485222
72, 25220845, -0.4942917227745056, -1.5871928930282593, 7.554049968719482, -0.17291267, 0.019643566, 0.32438374
73, 25237512, -0.4982619285583496, -1.59952712059021, 7.550588130950928, -0.17201887, 0.014141895, 0.3128929
74, 25254179, -0.5008858442306519, -1.6118590831756592, 7.543830394744873, -0.17619549, 0.026557008, 0.32213783
75, 25270846, -0.5041629672050476, -1.6227283477783203, 7.542995452880859, -0.170691, 0.009175318, 0.3164959
76, 25287513, -0.5077035427093506, -1.6351839303970337, 7.529613494873047, -0.17811227, 0.021666624, 0.32817078
77, 25304180, -0.5107821226119995, -1.6473420858383179, 7.527287006378174, -0.19788136, 0.0127538, 0.33184433
78, 25320847, -0.5146052241325378, -1.6584748029708862, 7.526350975036621, -0.19638737, 0.028225332, 0.32194233
79, 25337514, -0.5169453620910645, -1.6715612411499023, 7.522093296051025, -0.18172057, 0.030002674, 0.34107304
80, 25354181, -0.5182029604911804, -1.6838959455490112, 7.515347957611084, -0.18484339, 0.01746535, 0.33873272
81, 25370848, -0.5214142203330994, -1.6962647438049316, 7.507918357849121, -0.17647932, 0.031444456, 0.3350172
82, 25387515, -0.5248420834541321, -1.707221508026123, 7.503439426422119, -0.20266028, 0.033323105, 0.34277916
83, 25404182, -0.5275322794914246, -1.717995524406433, 7.495405197143555, -0.19310625, 0.031455215, 0.32356644
84, 25420849, -0.5310359001159668, -1.7289607524871826, 7.487550735473633, -0.19980566, 0.018665336, 0.325922
85, 25437516, -0.5337265729904175, -1.7397191524505615, 7.482644557952881, -0.19929148, 0.021915255, 0.3194561
86, 25454183, -0.5363133549690247, -1.7512331008911133, 7.482032775878906, -0.20389466, 0.024840288, 0.3117361
87, 25470850, -0.5388068556785583, -1.762739896774292, 7.477330684661865, -0.1970417, 0.025083693, 0.32005215
88, 25487517, -0.5407751798629761, -1.7735947370529175, 7.470385551452637, -0.20492728, 0.036123868, 0.33689785
89, 25504184, -0.5424391627311707, -1.7852431535720825, 7.463047027587891, -0.2270089, 0.012028439, 0.32282543
90, 25520851, -0.5449826121330261, -1.7950106859207153, 7.458060264587402, -0.20415933, 0.017938843, 0.31676102
91, 25537518, -0.5476605892181396, -1.8041201829910278, 7.447778224945068, -0.2140403, 0.035740566, 0.32926464
92, 25554185, -0.5498690009117126, -1.8138395547866821, 7.444354057312012, -0.20616531, 0.03760643, 0.330348
93, 25570852, -0.5525887608528137, -1.8241137266159058, 7.438363075256348, -0.2179459, 0.029997345, 0.35267544
94, 25587519, -0.5554491281509399, -1.8340961933135986, 7.431443214416504, -0.20152597, 0.03473611, 0.33873558
95, 25604186, -0.5581594705581665, -1.8440266847610474, 7.424149513244629, -0.22004405, 0.024610572, 0.32099915
96, 25620853, -0.5599376559257507, -1.8525680303573608, 7.416646480560303, -0.2264365, 0.028193235, 0.32298756
97, 25637520, -0.5624169707298279, -1.862210988998413, 7.40885066986084, -0.22851065, 0.02370118, 0.3255186
98, 25654187, -0.565192699432373, -1.8728517293930054, 7.402355194091797, -0.22771442, 0.027926734, 0.33858204
99, 25670854, -0.5667310357093811, -1.8821706771850586, 7.395528316497803, -0.23036242, 0.025949184, 0.32882595
100, 25687521, -0.5687907934188843, -1.8895496129989624, 7.385413646697998, -0.2234841, 0.03837555, 0.3113985
101, 25704188, -0.570423424243927, -1.8986485004425049, 7.3760085105896, -0.23562889, 0.030296218, 0.32836437
102, 25720855, -0.5717663764953613, -1.907157063484192, 7.368413925170898, -0.23774154, 0.044464674, 0.32023525
103, 25737522, -0.5737690925598145, -1.9159235954284668, 7.363455295562744, -0.2256944, 0.018371608, 0.33281994
104, 25754189, -0.5759281516075134, -1.9244287014007568, 7.356103420257568, -0.25440925, 0.035181448, 0.30701447
105, 25770856, -0.5776371955871582, -1.9320693016052246, 7.350200653076172, -0.24378422, 0.027062966, 0.326519
106, 25787523, -0.5788715481758118, -1.9414072036743164, 7.33964204788208, -0.23715359, 0.021936666, 0.32520103
107, 25804190, -0.5801798701286316, -1.947972297668457, 7.334465503692627, -0.24138105, 0.03255101, 0.33516407
108, 25820857, -0.5821335315704346, -1.9561858177185059, 7.325710773468018, -0.24773273, 0.010625862, 0.33006382
109, 25837524, -0.5843299627304077, -1.963545799255371, 7.316695213317871, -0.24905194, 0.028266871, 0.33528233
110, 25854191, -0.5861924290657043, -1.9698587656021118, 7.309998035430908, -0.25234455, 0.015457845, 0.32021904
111, 25870858, -0.587844967842102, -1.9767359495162964, 7.301973342895508, -0.24944378, 0.02737632, 0.3144188
112, 25887525, -0.589375913143158, -1.9840171337127686, 7.293205261230469, -0.25057217, 0.02298295, 0.331398
113, 25904192, -0.591607391834259, -1.9905047416687012, 7.285464763641357, -0.23995072, 0.017630666, 0.3357458
114, 25920859, -0.5936673283576965, -1.9976295232772827, 7.275792598724365, -0.23975816, 0.02814181, 0.32456207
115, 25937526, -0.5958410501480103, -2.0053513050079346, 7.267150402069092, -0.24919069, 0.029758403, 0.34049416
116, 25954193, -0.5974811315536499, -2.0111911296844482, 7.260754108428955, -0.2609043, 0.027389763, 0.31459522
117, 25970860, -0.6005826592445374, -2.0166187286376953, 7.254611015319824, -0.24609318, 0.04422648, 0.3385105
118, 25987527, -0.602317214012146, -2.0228073596954346, 7.245131969451904, -0.25096694, 0.041620005, 0.33405113
119, 26004194, -0.6040619611740112, -2.0290307998657227, 7.236838340759277, -0.25309843, 0.020141426, 0.33288097
120, 26020861, -0.2488871067762375, -0.5894776582717896, 6.888473987579346, 0.0098803025, 0.0037381737, 0.33276558
121, 26037528, -0.24727141857147217, -0.5906773209571838, 6.897882461547852, -0.002116109, -0.001108888, 0.32997608
122, 26054195, -0.24749056994915009, -0.5911233425140381, 6.904704570770264, 0.00344072, 0.012734743, 0.33923912
123, 26070862, -0.24718999862670898, -0.590526282787323, 6.9104905128479, 0.008517709, 0.0055338456, 0.34384918
124, 26087529, -0.246498703956604, -0.5898148417472839, 6.918725490570068, -0.0026623292, -0.004472124, 0.3235073
125, 26104196, -0.24601690471172333, -0.5894911885261536, 6.924307823181152, 0.0060162703, 2.1022442E-4, 0.32471752
126, 26120863, -0.24587446451187134, -0.589300811290741, 6.9311699867248535, -0.013522667, -0.0021475544, 0.32740402
127, 26137530, -0.24611353874206543, -0.5882455110549927, 6.935332298278809, 0.00939719, 0.009145248, 0.32343197
128, 26154197, -0.24542169272899628, -0.5887788534164429, 6.941407680511475, 0.009485872, -0.012554787, 0.32145405
129, 26170864, -0.24460455775260925, -0.5892191529273987, 6.94649076461792, 0.0069025517, -0.0041993125, 0.33334255
130, 26187531, -0.24276891350746155, -0.5895183086395264, 6.951398849487305, -0.0046156473, -0.0041352445, 0.33051872
131, 26204198, -0.2436269074678421, -0.5889590978622437, 6.956427097320557, 2.1841755E-4, -0.009972136, 0.34241104
132, 26220865, -0.24259090423583984, -0.5877223610877991, 6.965241432189941, 7.7964464E-4, -0.014263685, 0.32146072
133, 26237532, -0.24330292642116547, -0.5882890820503235, 6.972593307495117, -0.008258283, -0.0056374525, 0.3525896
134, 26254199, -0.24166466295719147, -0.5876818299293518, 6.977418422698975, 0.0040925606, -0.004439891, 0.33223534
135, 26270866, -0.2411927580833435, -0.5876055359840393, 6.982968330383301, 0.009865262, 0.002944008, 0.33743763
136, 26287533, -0.240558460354805, -0.5864338874816895, 6.98980188369751, 0.0050591077, -7.9670845E-4, 0.3334589
137, 26304200, -0.23994214832782745, -0.5867949724197388, 6.994874000549316, 0.0015443558, 0.009444298, 0.31829166
138, 26320867, -0.23927612602710724, -0.5865660905838013, 7.000422954559326, 0.0018371682, -0.015705956, 0.32202435
139, 26337534, -0.23993854224681854, -0.5873486995697021, 7.00502872467041, -9.014976E-4, -0.0071524493, 0.32965374
140, 26354201, -0.2400643676519394, -0.5879399180412292, 7.010858535766602, 0.0070639453, 3.1843613E-4, 0.31498146
141, 26370868, -0.23973987996578217, -0.5858060717582703, 7.015474796295166, -0.006840726, 0.0032031834, 0.33027363
142, 26387535, -0.2409534454345703, -0.5867368578910828, 7.020618438720703, -0.0053408807, -0.009709447, 0.3280611
143, 26404202, -0.2397458553314209, -0.5867230892181396, 7.023647785186768, -0.007698914, -0.0030930422, 0.3278103
144, 26420869, -0.23985274136066437, -0.5859577655792236, 7.027969837188721, 0.008234057, -0.004986883, 0.3417902
145, 26437536, -0.2398623675107956, -0.5837374329566956, 7.0340728759765625, 0.009762983, -4.337094E-4, 0.31931877
146, 26454203, -0.23995980620384216, -0.5847401022911072, 7.039190769195557, -0.0059304275, 0.005441161, 0.33907986
147, 26470870, -0.24026839435100555, -0.5844270586967468, 7.043118476867676, 0.002708359, -0.0012989123, 0.32612514
148, 26487537, -0.24002835154533386, -0.5843307375907898, 7.048962593078613, 0.006890793, 0.0055097733, 0.33775902
149, 26504204, -0.23858141899108887, -0.5836461186408997, 7.053889274597168, 0.005546785, -0.0025727109, 0.3437147
150, 26520871, -0.23895272612571716, -0.5851917862892151, 7.059211730957031, 0.015764952, 0.01140064, 0.3455658
151, 26537538, -0.23926816880702972, -0.5850396752357483, 7.0622029304504395, 0.012844985, -0.008747756, 0.32206345
152, 26554205, -0.23906011879444122, -0.5855389833450317, 7.065618515014648, 0.0070382413, 0.0053978814, 0.3084793
153, 26570872, -0.23953354358673096, -0.584865927696228, 7.069662570953369, 0.008539379, -0.0026904114, 0.3539505
154, 26587539, -0.23992247879505157, -0.5858720541000366, 7.076000213623047, 0.0074435086, 0.0036618232, 0.34683228
155, 26604206, -0.24004222452640533, -0.585165798664093, 7.078071117401123, 0.015434062, 0.0066516637, 0.3306284
156, 26620873, -0.2401009500026703, -0.5862728357315063, 7.082248210906982, 0.02519862, 0.0077823005, 0.29744148
157, 26637540, -0.2394258826971054, -0.5870556235313416, 7.085441589355469, 0.0077457437, 0.012810043, 0.35343933
158, 26654207, -0.2394464761018753, -0.5868881940841675, 7.0885539054870605, 0.019116934, 0.006789655, 0.323205
159, 26670874, -0.23845727741718292, -0.5862486958503723, 7.093852519989014, 0.0017597908, -0.014612571, 0.32914352
160, 26687541, -0.2375374436378479, -0.5853126645088196, 7.097111701965332, -0.009693956, 0.0030619965, 0.32718658
161, 26704208, -0.23628468811511993, -0.5836997032165527, 7.101631164550781, 0.0064107603, 0.01781206, 0.33067226
162, 26720875, -0.23619170486927032, -0.5823513865470886, 7.106266975402832, 0.00978312, 0.0063289064, 0.3264017
163, 26737542, -0.23613739013671875, -0.5821692943572998, 7.10878324508667, 0.016848488, -0.008187681, 0.33956432
164, 26754209, -0.23678849637508392, -0.5819048285484314, 7.112917423248291, 0.012531676, -0.005092327, 0.35036945
165, 26770876, -0.2367740124464035, -0.5810193419456482, 7.115592956542969, -0.0026907118, 0.0063191485, 0.34167957
166, 26787543, -0.236528679728508, -0.5810230374336243, 7.120610237121582, 0.003900413, -0.0053574466, 0.32573223
167, 26804210, -0.2367304116487503, -0.5808188319206238, 7.1250128746032715, 0.016439375, -0.006941392, 0.3359127
168, 26820877, -0.2367742955684662, -0.5826060771942139, 7.128935813903809, 0.0045866743, -0.004628756, 0.33110237
169, 26837544, -0.23547965288162231, -0.5825284123420715, 7.1352081298828125, 0.005113278, -0.0044276416, 0.32778454
170, 26854211, -0.23625661432743073, -0.5832667350769043, 7.138659477233887, 0.020083379, 0.007262043, 0.35322475
171, 26870878, -0.2364896982908249, -0.5846409797668457, 7.1425933837890625, 0.00496124, -0.0054506483, 0.3337469
172, 26887545, -0.23677504062652588, -0.5866141319274902, 7.144618511199951, 0.008379137, 0.0053623104, 0.3308277
173, 26904212, -0.23762433230876923, -0.5873035788536072, 7.149726390838623, 0.009352362, -0.0043506376, 0.34554863
174, 26920879, -0.23693779110908508, -0.587716281414032, 7.153175354003906, 0.006046193, 0.0023066327, 0.31948662
175, 26937546, -0.23761112987995148, -0.5877516865730286, 7.1565680503845215, 0.007877253, 0.0018453283, 0.3256302
176, 26954213, -0.2368631660938263, -0.5870537757873535, 7.160226345062256, 0.006696137, 0.012962249, 0.31531334
177, 26970880, -0.23683246970176697, -0.5863182544708252, 7.162801742553711, 6.6727E-4, -0.0057842867, 0.31792164
178, 26987547, -0.23766911029815674, -0.5868828892707825, 7.165491580963135, -0.002144076, -0.011160704, 0.3273182
179, 27004214, -0.2373015284538269, -0.5874106287956238, 7.169966220855713, 8.9024514E-4, -0.0041211983, 0.3374071
180, 27020881, -0.23635610938072205, -0.5876206755638123, 7.174595355987549, 0.0058907536, 7.3933894E-5, 0.33608723
181, 27037548, -0.23609168827533722, -0.5877771973609924, 7.179097652435303, -0.003939601, 0.0012254727, 0.3313675
182, 27054215, -0.2360084354877472, -0.5892989635467529, 7.1820173263549805, 0.012939042, -0.0025772424, 0.3159647
183, 27070882, -0.2358473688364029, -0.5902740955352783, 7.18562650680542, -0.0024766144, -0.003826189, 0.34584904
184, 27087549, -0.2361496537923813, -0.5896308422088623, 7.187449932098389, -0.0033221638, -0.01563329, 0.34319496
185, 27104216, -0.23676669597625732, -0.5909308195114136, 7.190344333648682, -2.8340744E-5, -0.0030226756, 0.330348
186, 27120883, -0.23609118163585663, -0.5900917053222656, 7.192564010620117, 0.011758318, -0.0032402202, 0.34721565
187, 27137550, -0.23592695593833923, -0.5901721119880676, 7.1976165771484375, 0.019084109, -0.0012689249, 0.33031273
188, 27154217, -0.2356874942779541, -0.5912629961967468, 7.200615406036377, 0.0070159007, -0.010353551, 0.3272257
189, 27170884, -0.23582103848457336, -0.5904622077941895, 7.204971790313721, 0.007173648, 0.004529943, 0.3142414
190, 27187551, -0.2347370833158493, -0.5894027948379517, 7.206051826477051, 0.004702765, 0.003031618, 0.34841633
191, 27204218, -0.2356431633234024, -0.589190661907196, 7.210418224334717, 0.013688747, 0.008203943, 0.33215237
192, 27220885, -0.2352951616048813, -0.5896822810173035, 7.214727401733398, 0.00964531, 0.014322075, 0.32869148
193, 27237552, -0.23559211194515228, -0.5891807079315186, 7.21933650970459, 0.008768246, -0.0034682227, 0.32234383
194, 27254219, -0.23479972779750824, -0.588452935218811, 7.2224016189575195, 0.012194255, 0.0034550605, 0.31993294
195, 27270886, -0.2342902421951294, -0.5889853239059448, 7.225624084472656, -1.3162818E-5, -0.010491708, 0.34557056
196, 27287553, -0.2337239533662796, -0.5891404151916504, 7.23013973236084, 0.009634872, 0.016897872, 0.31210518
197, 27304220, -0.23361653089523315, -0.587990403175354, 7.234134197235107, 0.0062113726, -0.008016533, 0.3481884
198, 27320887, -0.23186923563480377, -0.5881209969520569, 7.236381530761719, 0.013858408, -0.003982238, 0.33420277
199, 27337554, -0.23212233185768127, -0.5878698825836182, 7.239280700683594, -5.193184E-4, 0.0061532366, 0.33439922
200, 27354221, -0.2325754463672638, -0.5885757803916931, 7.2422990798950195, 0.007237559, -0.0027216666, 0.32937813
201, 27370888, -0.23198188841342926, -0.5878319144248962, 7.244218349456787, 0.0015172514, -0.0044741496, 0.34348297
202, 27387555, -0.2327064424753189, -0.5879010558128357, 7.246663570404053, 0.019135566, -0.0035830734, 0.35346603
203, 27404222, -0.23242327570915222, -0.5889630317687988, 7.248648643493652, -0.012197622, 0.0028906118, 0.338212
204, 27420889, -0.2328464835882187, -0.5882875323295593, 7.249766826629639, 0.008994175, 0.003028577, 0.31959057
205, 27437556, -0.233004629611969, -0.5875002145767212, 7.254050254821777, -0.00844799, -0.0053105336, 0.32958412
206, 27454223, -0.23251952230930328, -0.5877004265785217, 7.258406162261963, -0.003025241, -0.0024796526, 0.34462643
207, 27470890, -0.23337529599666595, -0.5880612730979919, 7.261427879333496, -0.005859514, 0.003908386, 0.3517866
208, 27487557, -0.23388983309268951, -0.5881355404853821, 7.263674736022949, -0.0030852715, -5.8105163E-4, 0.32925797
209, 27504224, -0.23283813893795013, -0.5880881547927856, 7.265676975250244, 0.008380161, -0.0048739095, 0.32614422
210, 27520891, -0.23193924129009247, -0.587274968624115, 7.2691755294799805, 0.01994103, -0.0043587647, 0.33053112
211, 27537558, -0.23263992369174957, -0.5866870284080505, 7.272532939910889, 0.01663461, -0.01111517, 0.32514
212, 27554225, -0.23117280006408691, -0.5861802697181702, 7.27399206161499, -0.0014993179, 0.002581491, 0.32435226
213, 27570892, -0.23118704557418823, -0.5867893099784851, 7.277069568634033, 0.0011140235, 0.0020160344, 0.32899952
214, 27587559, -0.23036931455135345, -0.5868400931358337, 7.2805633544921875, 4.0833023E-4, -0.0085833045, 0.33463
215, 27604226, -0.23065994679927826, -0.5878419876098633, 7.281681060791016, 0.015815036, -0.011156097, 0.3408022
216, 27620893, -0.22978463768959045, -0.588416576385498, 7.283089637756348, -0.0033336992, 0.0036454622, 0.3385849
217, 27637560, -0.23011961579322815, -0.5872393846511841, 7.2858500480651855, -0.0014226984, 0.0027372513, 0.34197426
218, 27654227, -0.2295086532831192, -0.5873814821243286, 7.287031650543213, 0.003875767, -0.009336602, 0.32208157
219, 27670894, -0.2309359759092331, -0.5872240662574768, 7.290942668914795, -0.00415124, -0.006516323, 0.33198738
220, 27687561, -0.23169533908367157, -0.5881704092025757, 7.290923118591309, 7.9288427E-4, 0.0014375253, 0.34534645
221, 27704228, -0.23197326064109802, -0.5871152877807617, 7.292869567871094, 0.006513866, -3.1541695E-4, 0.35254574
222, 27720895, -0.23208294808864594, -0.5865241289138794, 7.295311450958252, 0.008246311, 0.012046126, 0.30333233
223, 27737562, -0.23173364996910095, -0.5869519710540771, 7.297229290008545, 0.0029782788, 0.008841418, 0.32076263
224, 27754229, -0.23224756121635437, -0.5867757797241211, 7.296494007110596, -8.0705987E-4, -0.0057662604, 0.32443333
225, 27770896, -0.23111069202423096, -0.5851643085479736, 7.300983905792236, -0.0045229103, 0.0039943834, 0.33126736
226, 27787563, -0.23086832463741302, -0.5845437049865723, 7.303455829620361, 0.005271539, -0.0036084282, 0.34512806
227, 27804230, -0.2312135100364685, -0.5844217538833618, 7.303990840911865, 0.0031583358, 0.0031148687, 0.31212997
228, 27820897, -0.23194369673728943, -0.5848501920700073, 7.306519985198975, -8.7128143E-4, 0.0021665024, 0.327322
229, 27837564, -0.23215524852275848, -0.5847920775413513, 7.310354232788086, 8.1215875E-4, -0.0095811905, 0.34126377
230, 27854231, -0.23220370709896088, -0.584791362285614, 7.313075065612793, -0.005455396, 0.001231855, 0.33372498
231, 27870898, -0.23246346414089203, -0.5846549868583679, 7.312814712524414, 0.016355952, 0.002147935, 0.33244324
232, 27887565, -0.23111984133720398, -0.5833419561386108, 7.313220977783203, 0.019410348, 3.772759E-4, 0.31688786
233, 27904232, -0.23046155273914337, -0.5833480358123779, 7.315814971923828, 0.0040260656, 0.008768071, 0.3568163
234, 27920899, -0.22994418442249298, -0.5834800601005554, 7.317440509796143, -0.0019015155, -0.003997456, 0.31789684
235, 27937566, -0.22882044315338135, -0.5838300585746765, 7.318065166473389, 0.013585565, -0.0016593741, 0.34427452
236, 27954233, -0.22934859991073608, -0.583552896976471, 7.319528579711914, 0.0016846556, 0.0013563482, 0.3217163
237, 27970900, -0.22909869253635406, -0.5826266407966614, 7.320216178894043, -0.0051785647, 0.007927198, 0.35543346
238, 27987567, -0.22889088094234467, -0.5821847915649414, 7.322885990142822, 0.0059646424, -0.001371809, 0.32095146
239, 28004234, -0.2280602604150772, -0.5824727416038513, 7.3259711265563965, 0.0063020946, -0.00868838, 0.32450676
240, 28020901, -0.24639542400836945, -0.5864406228065491, 7.32504940032959, 0.0031220673, -0.0070198574, 0.3198204
241, 28037568, -0.24668650329113007, -0.5876408219337463, 7.327112197875977, 0.011686326, 0.0072182724, 0.35679626
242, 28054235, -0.2461438775062561, -0.5880613327026367, 7.328745365142822, -0.0024616914, -0.0028851193, 0.32344627
243, 28070902, -0.24683497846126556, -0.5861356854438782, 7.3301777839660645, 0.00442519, 6.8141766E-5, 0.3519907
244, 28087569, -0.24557964503765106, -0.5843830108642578, 7.333993434906006, -0.0045691985, 0.009849421, 0.3505268
245, 28104236, -0.24629592895507812, -0.5835914611816406, 7.336390018463135, 0.009063806, 0.0014135955, 0.34571648
246, 28120903, -0.24823583662509918, -0.5837472677230835, 7.3374552726745605, 0.0014368531, -0.0020328015, 0.3314619
247, 28137570, -0.24904978275299072, -0.5844475030899048, 7.339987754821777, 0.0021691932, 0.008670417, 0.32826424
248, 28154237, -0.2491830736398697, -0.5841008424758911, 7.3410515785217285, 0.007304679, -0.0017643763, 0.33596802
249, 28170904, -0.24845221638679504, -0.5838902592658997, 7.344664096832275, 0.015845133, 0.021995468, 0.3255949
250, 28187571, -0.24792402982711792, -0.5840694308280945, 7.345397472381592, 0.010771628, 0.004065662, 0.34953213
251, 28204238, -0.2476809173822403, -0.5844601988792419, 7.349013805389404, -0.0013084135, 0.010115806, 0.34941673
252, 28220905, -0.24768118560314178, -0.584250271320343, 7.352077960968018, -0.0068108765, 0.0031811255, 0.33346367
253, 28237572, -0.24701645970344543, -0.58343106508255, 7.353366374969482, 0.0041548265, -0.0054792017, 0.33183575
254, 28254239, -0.24702510237693787, -0.5818095803260803, 7.355785846710205, 0.004149015, 0.0048673195, 0.35287285
255, 28270906, -0.24696587026119232, -0.582575798034668, 7.358093738555908, -0.0018130777, 0.004866178, 0.32603264
256, 28287573, -0.24609705805778503, -0.5824286937713623, 7.361158847808838, 0.0028196508, 0.0041499757, 0.33551788
257, 28304240, -0.24533377587795258, -0.582121729850769, 7.3630218505859375, 0.011410623, 0.015257581, 0.33022118
258, 28320907, -0.24576450884342194, -0.5822400450706482, 7.3647003173828125, 0.006608419, -0.0066637998, 0.32649517
259, 28337574, -0.24564754962921143, -0.5825022459030151, 7.367885589599609, 0.015374785, 0.013705554, 0.31484318
260, 28354241, -0.2458139955997467, -0.5820226073265076, 7.371171951293945, 0.001879035, -0.007054233, 0.33203316
261, 28370908, -0.24682895839214325, -0.5816376209259033, 7.3741302490234375, 0.002554128, -0.0062918672, 0.3444624
262, 28387575, -0.24603796005249023, -0.5813286900520325, 7.375534534454346, 0.013261477, 0.0019314244, 0.32855606
263, 28404242, -0.24559520184993744, -0.5814611315727234, 7.378902912139893, 0.013552945, -0.005688553, 0.34972
264, 28420909, -0.2463090866804123, -0.5818905830383301, 7.379787445068359, 0.0043059597, 0.0056302566, 0.32684612
265, 28437576, -0.24626748263835907, -0.5820375680923462, 7.379759788513184, 0.004255844, 0.009433084, 0.3177023
266, 28454243, -0.2459368109703064, -0.5812584757804871, 7.379164695739746, 4.4479777E-4, 0.012389978, 0.32096767
267, 28470910, -0.24648626148700714, -0.5811930894851685, 7.382293701171875, 0.0031941398, -6.161676E-4, 0.3450737
268, 28487577, -0.24698583781719208, -0.5811564922332764, 7.384634971618652, 0.014506043, 3.8412973E-4, 0.34069633
269, 28504244, -0.2466517686843872, -0.580618143081665, 7.386817932128906, 0.006303373, -0.0037842088, 0.32487965
270, 28520911, -0.2457219809293747, -0.5798158049583435, 7.387118816375732, -5.495974E-4, -0.0074475775, 0.343091
271, 28537578, -0.24529428780078888, -0.579517126083374, 7.391961097717285, 0.010648314, 0.002902768, 0.35355473
272, 28554245, -0.24459713697433472, -0.5808202624320984, 7.394162178039551, 0.013234244, 0.00218226, 0.34458256
273, 28570912, -0.2451397329568863, -0.582441508769989, 7.3953070640563965, 0.009524456, -0.0030139675, 0.33367252
274, 28587579, -0.24497994780540466, -0.5820621252059937, 7.39607048034668, 0.0021354847, 0.009594952, 0.35992718
275, 28604246, -0.2448607087135315, -0.5813899040222168, 7.397096633911133, 0.003054301, -0.002435432, 0.33641624
276, 28620913, -0.24550053477287292, -0.5827919840812683, 7.397697925567627, 0.01260196, -0.010109732, 0.3364992
277, 28637580, -0.2460651397705078, -0.5842388272285461, 7.399845123291016, -0.0019319797, -0.0029558751, 0.3333292
278, 28654247, -0.2456095814704895, -0.58403080701828, 7.401149749755859, -0.0068096574, -0.0067676213, 0.33724117
279, 28670914, -0.24479924142360687, -0.5834645628929138, 7.40302038192749, -0.0019739023, -0.010155732, 0.33886814
280, 28687581, -0.24449588358402252, -0.5847010016441345, 7.405444145202637, 0.0063682576, -0.0026548903, 0.32756615
281, 28704248, -0.24504555761814117, -0.5837369561195374, 7.406614303588867, 0.0070366627, -0.0025424948, 0.3452139
282, 28720915, -0.24637389183044434, -0.5848158597946167, 7.408296585083008, 0.012013004, -0.0020091755, 0.3395071
283, 28737582, -0.24686791002750397, -0.5856558680534363, 7.4090657234191895, 0.0065570422, 0.012188899, 0.33930397
284, 28754249, -0.24653495848178864, -0.5832822322845459, 7.409002304077148, 0.009431199, 0.0097769555, 0.3219614
285, 28770916, -0.24664685130119324, -0.5821517109870911, 7.4099860191345215, 0.011408157, -7.9210894E-4, 0.32908535
286, 28787583, -0.24660080671310425, -0.5815384387969971, 7.409076690673828, 0.012214881, 0.010831088, 0.3417902
287, 28804250, -0.24656739830970764, -0.582859456539154, 7.408536434173584, -0.0039199283, 0.0035802568, 0.32053947
288, 28820917, -0.24669575691223145, -0.583096981048584, 7.410038948059082, 0.013805386, -0.00890176, 0.3342638
289, 28837584, -0.24624064564704895, -0.5844470262527466, 7.411474227905273, 0.0069210366, 0.017768413, 0.35013676
290, 28854251, -0.24583910405635834, -0.5836500525474548, 7.413332939147949, -0.0075473515, 0.009840633, 0.33106804
291, 28870918, -0.24619510769844055, -0.5845685005187988, 7.4149932861328125, 0.020608213, 1.032106E-4, 0.32369518
292, 28887585, -0.24636295437812805, -0.582970142364502, 7.416982650756836, 0.017656969, 7.5132307E-4, 0.33155155
293, 28904252, -0.24553431570529938, -0.5821586847305298, 7.419272422790527, 0.0055602444, -0.003815277, 0.33225918
294, 28920919, -0.24564793705940247, -0.5816518664360046, 7.419964790344238, -0.0010825675, 0.009578492, 0.3369856
295, 28937586, -0.24706876277923584, -0.5812268257141113, 7.42154598236084, -0.011779468, 0.0049820533, 0.33874226
296, 28954253, -0.24597623944282532, -0.581080973148346, 7.421578407287598, 0.018133415, -0.0077206125, 0.33312035
297, 28970920, -0.2466612607240677, -0.581623375415802, 7.422991752624512, 0.014309785, -0.0018381933, 0.34082413
298, 28987587, -0.24617871642112732, -0.581028938293457, 7.423599720001221, 0.0063843927, 7.3220924E-4, 0.326622
299, 29004254, -0.24655070900917053, -0.5807368159294128, 7.424039363861084, -0.0028253435, 0.011363567, 0.3336277
300, 29020921, -0.24688972532749176, -0.5812076926231384, 7.423983573913574, 0.012288386, 0.0064903377, 0.33152676
301, 29037588, -0.24717573821544647, -0.5836074352264404, 7.425218105316162, 0.0030481266, -0.010681902, 0.31361485
302, 29054255, -0.24684837460517883, -0.5841414332389832, 7.427563667297363, -0.00276357, 0.004915043, 0.35052395
303, 29070922, -0.24561293423175812, -0.5829476714134216, 7.430643081665039, -0.010451703, -0.0060831057, 0.3269453
304, 29087589, -0.2459592968225479, -0.583614706993103, 7.433576583862305, 0.009254669, 0.012120523, 0.31952858
305, 29104256, -0.24612726271152496, -0.5822673439979553, 7.434051513671875, -0.0012682126, 0.00711175, 0.33171558
306, 29120923, -0.2465263158082962, -0.5811987519264221, 7.434586524963379, 0.012593324, 0.0071661887, 0.3378811
307, 29137590, -0.24672599136829376, -0.5804800987243652, 7.436829566955566, 0.008056762, -0.009519965, 0.33594322
308, 29154257, -0.24682080745697021, -0.5806795954704285, 7.438171863555908, -0.0068179974, -7.8532327E-4, 0.32275963
309, 29170924, -0.24593937397003174, -0.5806111097335815, 7.439998149871826, 0.005953624, -9.304827E-4, 0.3384323
310, 29187591, -0.24561256170272827, -0.5808525085449219, 7.438538074493408, 0.0151941, 0.0021865347, 0.33051205
311, 29204258, -0.2453487515449524, -0.5814574956893921, 7.439454078674316, 0.010795319, -0.0058822865, 0.31807232
312, 29220925, -0.24442702531814575, -0.5818114876747131, 7.441763401031494, 5.7551096E-4, 0.016141413, 0.3209095
313, 29237592, -0.24377602338790894, -0.5808904767036438, 7.445475101470947, 0.0022964245, 0.0063114525, 0.33157825
314, 29254259, -0.24383307993412018, -0.5798711180686951, 7.445526123046875, 0.0012089153, -0.0013994513, 0.3253832
315, 29270926, -0.24401941895484924, -0.5801718235015869, 7.445870399475098, 0.012783177, 0.010047002, 0.3309269
316, 29287593, -0.2448708713054657, -0.5801236033439636, 7.447022914886475, -0.00385051, -0.0072303875, 0.34434032
317, 29304260, -0.2444847822189331, -0.5807657241821289, 7.448170185089111, 0.010289737, 0.008413036, 0.34079838
318, 29320927, -0.24327175319194794, -0.5817244648933411, 7.448125839233398, 0.005438706, 0.0070259674, 0.3402233
319, 29337594, -0.24262365698814392, -0.581575334072113, 7.447258472442627, 0.0020797008, 0.0026710217, 0.34223366
320, 29354261, -0.24190297722816467, -0.5823941826820374, 7.448364734649658, 0.001978079, 0.0030193266, 0.32564735
321, 29370928, -0.24181076884269714, -0.5820938348770142, 7.448591232299805, -0.005278269, 2.547908E-4, 0.3427229
322, 29387595, -0.2426529824733734, -0.5824465751647949, 7.451897621154785, 0.00462142, 0.011944717, 0.32907295
323, 29404262, -0.2428620308637619, -0.5810378789901733, 7.451092720031738, 0.018600168, -0.0019052785, 0.30840206
324, 29420929, -0.24303539097309113, -0.5801409482955933, 7.452678203582764, 0.014162231, -0.012905803, 0.33660126
325, 29437596, -0.2429426610469818, -0.579989492893219, 7.454763889312744, 0.018130114, -0.007546262, 0.33271408
326, 29454263, -0.2425639033317566, -0.5795386433601379, 7.454949378967285, 0.0075482596, -0.006017559, 0.33194637
327, 29470930, -0.24287723004817963, -0.5801663994789124, 7.456462860107422, 7.615226E-4, 0.01450011, 0.3392048
328, 29487597, -0.24289628863334656, -0.5803408026695251, 7.458451271057129, 9.461129E-4, 0.006636164, 0.34803295
329, 29504264, -0.2430972456932068, -0.5804291367530823, 7.458913326263428, 0.0039635273, 0.0100788195, 0.34303093
330, 29520931, -0.242616668343544, -0.5794987678527832, 7.461218357086182, 0.009895889, -0.0037936557, 0.3509617
331, 29537598, -0.24244384467601776, -0.5783436894416809, 7.462643623352051, 0.0093914, 0.0129621, 0.3448038
332, 29554265, -0.2425929605960846, -0.5782508850097656, 7.463825225830078, 0.0055943127, -1.14855975E-4, 0.33446884
333, 29570932, -0.2430073767900467, -0.5783346891403198, 7.464206695556641, 0.0019194105, 0.0022560246, 0.34238148
334, 29587599, -0.2418544441461563, -0.578062891960144, 7.464868545532227, 0.0024904336, -0.011103652, 0.33452034
335, 29604266, -0.24090595543384552, -0.5782914757728577, 7.466196060180664, 0.0075988607, -0.008950644, 0.29840088
336, 29620933, -0.2408905327320099, -0.5782656073570251, 7.466914653778076, 0.0068386826, 0.007580913, 0.3433199
337, 29637600, -0.24112801253795624, -0.5789659023284912, 7.46805477142334, 0.0024261912, -0.007414707, 0.33183002
338, 29654267, -0.2420903742313385, -0.5787578225135803, 7.468630313873291, -0.010127302, 5.9784827E-4, 0.30793476
339, 29670934, -0.24223509430885315, -0.5787713527679443, 7.468521595001221, 0.0035553158, 0.008865177, 0.3006525
340, 29687601, -0.24224597215652466, -0.5790742635726929, 7.4696125984191895, 0.009901662, -0.0067847604, 0.34657478
341, 29704268, -0.24383817613124847, -0.5787875056266785, 7.471738815307617, 0.012717489, 0.006411053, 0.336895
342, 29720935, -0.24467821419239044, -0.578220009803772, 7.474274158477783, 0.0054788683, 0.009365997, 0.344841
343, 29737602, -0.24484123289585114, -0.5776386857032776, 7.475509166717529, 0.003907541, 0.008221818, 0.3190775
344, 29754269, -0.24371246993541718, -0.5772854089736938, 7.477151393890381, 0.0022242856, 0.0030292554, 0.34294605
345, 29770936, -0.24245978891849518, -0.577410876750946, 7.477719306945801, 5.661304E-4, 0.013169771, 0.35614777
346, 29787603, -0.2427791804075241, -0.5763906836509705, 7.478509902954102, 0.00217322, -0.005556242, 0.34005928
347, 29804270, -0.24424318969249725, -0.5755817294120789, 7.480274677276611, 0.005939567, 0.003029512, 0.32440567
348, 29820937, -0.2449713498353958, -0.5742491483688354, 7.481276988983154, 0.0041384157, 0.0073918267, 0.33742046
349, 29837604, -0.24403730034828186, -0.5750699639320374, 7.4826483726501465, -0.0018052757, -0.0056480346, 0.34082222
350, 29854271, -0.24421125650405884, -0.5751476287841797, 7.482858180999756, 0.0045903623, 0.011053533, 0.31378078
351, 29870938, -0.2442338764667511, -0.5743288993835449, 7.4839091300964355, 0.019899491, -0.0018356525, 0.33278656
352, 29887605, -0.2447403222322464, -0.5742112398147583, 7.484003067016602, -0.0048813657, 0.006641162, 0.3287735
353, 29904272, -0.24531713128089905, -0.5738537907600403, 7.484918594360352, 0.0042197118, 0.0031592527, 0.33648682
354, 29920939, -0.24574969708919525, -0.5734220743179321, 7.485740661621094, 0.0119462265, 0.007803815, 0.30952168
355, 29937606, -0.24566368758678436, -0.5724412798881531, 7.486185550689697, 0.0066752145, 0.0027025947, 0.32643795
356, 29954273, -0.24478259682655334, -0.5728380084037781, 7.486980438232422, -0.0042228894, 0.010889588, 0.31806946
357, 29970940, -0.24516460299491882, -0.5730139017105103, 7.487070560455322, 0.004632987, 0.020258078, 0.2965803
358, 29987607, -0.24583777785301208, -0.5741686820983887, 7.486955642700195, 0.0039952244, 0.016506359, 0.30938244
359, 30004274, -0.24602432548999786, -0.5730652809143066, 7.488744258880615, 0.003869526, 0.013861426, 0.32442665
360, 30020941, -0.24365198612213135, -0.5884258151054382, 7.494181156158447, 8.220527E-4, 0.001073304, 0.28961658
361, 30037608, -0.24440377950668335, -0.5887093544006348, 7.494942665100098, 0.0041396627, -0.0031175378, 0.33185768
362, 30054275, -0.2440444529056549, -0.5885410308837891, 7.492393970489502, 0.0067956285, -7.5979735E-4, 0.31225777
363, 30070942, -0.24474409222602844, -0.5881654620170593, 7.492615222930908, 0.0084580965, -0.002244189, 0.33716393
364, 30087609, -0.24414663016796112, -0.5885547399520874, 7.493142127990723, -0.0081662135, -0.01318808, 0.33240414
365, 30104276, -0.24494153261184692, -0.5888948440551758, 7.495145797729492, 0.007993983, 0.0024923703, 0.321949
366, 30120943, -0.2447052150964737, -0.58967125415802, 7.496772289276123, 0.013600547, -0.011363901, 0.3342638
367, 30137610, -0.24435335397720337, -0.5901921391487122, 7.497929096221924, -0.005378343, 0.0070508365, 0.3401785
368, 30154277, -0.2442784309387207, -0.5906521677970886, 7.497148513793945, 0.010404057, 0.015186134, 0.32778168
369, 30170944, -0.24350325763225555, -0.5898955464363098, 7.497610569000244, 0.0020888892, 0.003722355, 0.34775162
370, 30187611, -0.24400834739208221, -0.5896644592285156, 7.497005939483643, -4.7058557E-4, 0.0048810304, 0.33934784
371, 30204278, -0.24321314692497253, -0.5885432958602905, 7.496824264526367, 0.0015784834, 0.0022628922, 0.32540607
372, 30220945, -0.24241213500499725, -0.5874410271644592, 7.498717308044434, 0.0024727378, 0.009376802, 0.3396778
373, 30237612, -0.24331319332122803, -0.5873441696166992, 7.498864650726318, 5.6312344E-4, -0.0053898385, 0.33929253
374, 30254279, -0.24381987750530243, -0.5869392156600952, 7.499848365783691, 0.0019787357, 0.001998693, 0.32416248
375, 30270946, -0.24497057497501373, -0.5880246758460999, 7.500547409057617, 0.015463968, 0.005257353, 0.31430912
376, 30287613, -0.24403129518032074, -0.5881682634353638, 7.500579833984375, 0.020893268, 0.010813575, 0.3221035
377, 30304280, -0.24274514615535736, -0.58802330493927, 7.500462055206299, 0.0024385788, 0.003072596, 0.34804916
378, 30320947, -0.2427787333726883, -0.5889703631401062, 7.501521587371826, 0.004357326, 0.011805191, 0.33427525
379, 30337614, -0.24360588192939758, -0.5886057615280151, 7.501338958740234, -0.002936356, 0.007986971, 0.3190918
380, 30354281, -0.2437141239643097, -0.5870959162712097, 7.502997875213623, 0.017077912, -0.0022924973, 0.3542652
381, 30370948, -0.24291984736919403, -0.5881825685501099, 7.503570079803467, 0.0045167985, 0.011667464, 0.32751083
382, 30387615, -0.24294942617416382, -0.588683545589447, 7.505293846130371, 0.009318395, -0.0012634262, 0.3335352
383, 30404282, -0.24428176879882812, -0.5870293378829956, 7.505815505981445, 0.011924025, -0.0058976375, 0.34334564
384, 30420949, -0.2443161904811859, -0.5848016738891602, 7.505456924438477, -0.00876783, -0.008862213, 0.34135628
385, 30437616, -0.24405880272388458, -0.5844516158103943, 7.506547927856445, 0.007660463, -0.009130635, 0.3203392
386, 30454283, -0.24437589943408966, -0.5847691893577576, 7.507199287414551, 0.00987561, -0.0075097806, 0.32634068
387, 30470950, -0.2448882758617401, -0.5849425792694092, 7.50665283203125, -0.0038659011, 3.699052E-4, 0.34448338
388, 30487617, -0.24456879496574402, -0.5847799777984619, 7.505677223205566, -0.0012681043, -0.0019260286, 0.3245573
389, 30504284, -0.2445434331893921, -0.5847383737564087, 7.504903316497803, 0.0075723883, 4.51566E-4, 0.3464527
390, 30520951, -0.2453000545501709, -0.5845670104026794, 7.504289627075195, 0.008009039, 0.00383796, 0.3189001
391, 30537618, -0.24591130018234253, -0.5845852494239807, 7.504750728607178, 0.009216909, -0.013854936, 0.33353233
392, 30554285, -0.24632002413272858, -0.5844762921333313, 7.505685806274414, 0.004459834, 0.0032328775, 0.36323166
393, 30570952, -0.24658893048763275, -0.584041953086853, 7.507130146026611, -0.0072276304, 4.5117663E-4, 0.31940842
394, 30587619, -0.2465624213218689, -0.5846314430236816, 7.507148742675781, 0.004165803, -0.006128954, 0.32554436
395, 30604286, -0.2475278228521347, -0.5837583541870117, 7.507152557373047, 0.0040262714, 6.242525E-4, 0.31356812
396, 30620953, -0.24697183072566986, -0.5844253301620483, 7.507421970367432, -0.011194852, -0.0025016582, 0.3356142
397, 30637620, -0.24650448560714722, -0.586441159248352, 7.509570121765137, 0.0048314803, 0.0010668954, 0.340127
398, 30654287, -0.24588020145893097, -0.5861502289772034, 7.51003360748291, 0.0033384245, 0.0057717753, 0.32933235
399, 30670954, -0.2456960529088974, -0.5861486792564392, 7.509617328643799, 0.0120484345, 0.008079983, 0.33229637
400, 30687621, -0.24602936208248138, -0.5867882966995239, 7.509565353393555, -0.002543525, -0.006217257, 0.34370804
401, 30704288, -0.24632376432418823, -0.5867047905921936, 7.510223388671875, 0.0045240247, -0.0017879412, 0.31970978
402, 30720955, -0.24584035575389862, -0.5872027277946472, 7.510588645935059, 0.0043851426, -0.014250346, 0.3218565
403, 30737622, -0.24550893902778625, -0.5863401293754578, 7.512315273284912, 0.024784192, -0.0026604624, 0.30891228
404, 30754289, -0.244560107588768, -0.5857283473014832, 7.512435436248779, -0.004917973, 0.011866097, 0.3338127
405, 30770956, -0.2448381632566452, -0.5866749286651611, 7.514193534851074, 8.5485325E-4, 0.00837095, 0.32217407
406, 30787623, -0.24506545066833496, -0.5864352583885193, 7.5159010887146, -0.0014037836, 0.00934209, 0.33223152
407, 30804290, -0.24581629037857056, -0.5857827663421631, 7.515652656555176, -1.0899749E-5, -0.005003741, 0.33130932
408, 30820957, -0.24760258197784424, -0.5846394896507263, 7.515923023223877, -0.0031353105, 0.0068717166, 0.3481369
409, 30837624, -0.24685917794704437, -0.5840967893600464, 7.51781702041626, -0.009687334, -0.010971219, 0.3287096
410, 30854291, -0.2471267580986023, -0.5851839184761047, 7.5196027755737305, 0.0115327975, 0.0074894684, 0.34316158
411, 30870958, -0.24777185916900635, -0.5849978923797607, 7.519384384155273, 0.012239101, 0.010047896, 0.3531809
412, 30887625, -0.24645131826400757, -0.5852965712547302, 7.520533561706543, -8.604166E-4, 0.002780014, 0.31798458
413, 30904292, -0.2455962896347046, -0.5857195854187012, 7.5218706130981445, 0.009850737, 0.0037795464, 0.33005524
414, 30920959, -0.24601079523563385, -0.5853014588356018, 7.521594047546387, 0.0023767634, -0.0020919207, 0.34430122
415, 30937626, -0.2465849369764328, -0.5848467350006104, 7.521164417266846, 0.013402249, 0.01527004, 0.34601402
416, 30954293, -0.24627621471881866, -0.585128903388977, 7.521939754486084, -0.0012524688, 0.013766557, 0.31692696
417, 30970960, -0.24597130715847015, -0.5848830342292786, 7.52394962310791, 0.013349014, 0.0026738523, 0.35838318
418, 30987627, -0.24727876484394073, -0.5847723484039307, 7.525551795959473, 0.012455504, -0.003235647, 0.32628632
419, 31004294, -0.24624966084957123, -0.5842522382736206, 7.526012420654297, 0.010186438, 0.00421546, 0.32122612
420, 31020961, -0.2463916838169098, -0.5838271379470825, 7.527847766876221, 0.003376404, 0.0029326612, 0.33085728
421, 31037628, -0.24719996750354767, -0.5832304358482361, 7.5292181968688965, 0.0067724357, -0.0070423554, 0.35612297
422, 31054295, -0.2472030371427536, -0.5839112997055054, 7.530683994293213, 0.012619894, -0.006782703, 0.32425117
423, 31070962, -0.2470037043094635, -0.583532452583313, 7.531349182128906, -0.006320709, -0.004522512, 0.34769917
424, 31087629, -0.24761706590652466, -0.5829200148582458, 7.534299850463867, 4.5195717E-4, 0.0022464327, 0.32710934
425, 31104296, -0.24711699783802032, -0.5823853015899658, 7.535980224609375, -0.005617565, 0.003465055, 0.33450508
426, 31120963, -0.24690483510494232, -0.5819337368011475, 7.535904884338379, 0.0035638197, 0.0030901365, 0.3430109
427, 31137630, -0.2470857799053192, -0.5815547108650208, 7.536677360534668, 0.01022029, 0.006938997, 0.33918858
428, 31154297, -0.2466260939836502, -0.5813946723937988, 7.537127494812012, 0.0077575827, 0.0044376063, 0.32582378
429, 31170964, -0.2463914453983307, -0.5813741087913513, 7.536566734313965, -9.7015797E-4, -0.0035871577, 0.33267975
430, 31187631, -0.24565650522708893, -0.580352246761322, 7.537360668182373, 0.0021330959, 0.0063402653, 0.32169247
431, 31204298, -0.24616217613220215, -0.579125702381134, 7.539432048797607, 0.0026725794, 0.008983378, 0.34356403
432, 31220965, -0.2461048662662506, -0.5780611634254456, 7.540167808532715, 0.0018918067, 0.0033643746, 0.3235321
433, 31237632, -0.24590937793254852, -0.5798004269599915, 7.539641857147217, 0.013102801, 0.0015599335, 0.33386803
434, 31254299, -0.24538010358810425, -0.5795313119888306, 7.539996147155762, 0.018624196, 0.0042728814, 0.33314514
435, 31270966, -0.24562004208564758, -0.5793485641479492, 7.540409564971924, -0.0016343757, -0.017320005, 0.334548
436, 31287633, -0.24497413635253906, -0.5784491300582886, 7.54187536239624, 0.012069322, 0.0012237002, 0.33603382
437, 31304300, -0.24459771811962128, -0.5787245631217957, 7.542606830596924, 0.0035580364, 0.0017022415, 0.34178448
438, 31320967, -0.2445586621761322, -0.578555703163147, 7.542491912841797, 0.023771012, 0.0043786424, 0.34753418
439, 31337634, -0.24440111219882965, -0.5783259272575378, 7.543708324432373, 0.012889356, -1.0466692E-5, 0.32866955
440, 31354301, -0.24435503780841827, -0.5797417163848877, 7.543065547943115, -6.58092E-4, 0.0024065936, 0.33534622
441, 31370968, -0.24375972151756287, -0.579677402973175, 7.543944835662842, 0.015298641, -0.005114881, 0.32257557
442, 31387635, -0.24368591606616974, -0.579287052154541, 7.544431686401367, 0.019786365, 0.012323205, 0.3406725
443, 31404302, -0.2436435967683792, -0.5803331136703491, 7.544301986694336, -1.8754134E-6, -0.0038889928, 0.32458973
444, 31420969, -0.24355833232402802, -0.5808577537536621, 7.544305801391602, 0.012081204, 0.009384756, 0.3297491
445, 31437636, -0.2437739074230194, -0.5813180208206177, 7.545178413391113, -0.0028491477, 0.007423501, 0.34618855
446, 31454303, -0.24292542040348053, -0.5803086161613464, 7.545426368713379, 0.003986193, -0.011259041, 0.33403015
447, 31470970, -0.24242673814296722, -0.5814805030822754, 7.546419143676758, 0.010510456, -0.0014862564, 0.35050678
448, 31487637, -0.24199789762496948, -0.5825453400611877, 7.546526908874512, 0.006370287, -0.0029940607, 0.3578806
449, 31504304, -0.24297918379306793, -0.5814418196678162, 7.547724723815918, 0.013382164, 0.0074730674, 0.3378229
450, 31520971, -0.24293817579746246, -0.5813472270965576, 7.548111438751221, -3.7678698E-4, -0.007384779, 0.31503296
451, 31537638, -0.24287453293800354, -0.5809540152549744, 7.5486578941345215, 0.0045255297, -0.0044451663, 0.3494959
452, 31554305, -0.2429158091545105, -0.5816400647163391, 7.549520015716553, 0.014947621, -0.008501989, 0.33670616
453, 31570972, -0.2429266721010208, -0.5819534659385681, 7.548068523406982, 0.012789118, -0.0025025262, 0.3158741
454, 31587639, -0.24231654405593872, -0.5826745629310608, 7.548153877258301, 0.019311758, -0.005946433, 0.3422594
455, 31604306, -0.24335743486881256, -0.582133412361145, 7.548682689666748, 0.0043330537, 4.8520646E-4, 0.34152603
456, 31620973, -0.2425595223903656, -0.5806340575218201, 7.54854154586792, -0.011882371, 0.0023278263, 0.35133553
457, 31637640, -0.24287614226341248, -0.5803839564323425, 7.550276279449463, 0.0048472453, -0.0025515924, 0.3366537
458, 31654307, -0.24390816688537598, -0.5793417096138, 7.5515265464782715, 0.007355165, -0.0043424466, 0.35329342
459, 31670974, -0.24413041770458221, -0.5793416500091553, 7.552785873413086, 0.013589766, -0.001722335, 0.35409546
460, 31687641, -0.24412110447883606, -0.5791252851486206, 7.552608966827393, 0.011545447, 0.0054192357, 0.3470831
461, 31704308, -0.24299387633800507, -0.5791628360748291, 7.552186489105225, 0.005964929, -0.0025607548, 0.3240385
462, 31720975, -0.2433687150478363, -0.5793173909187317, 7.552695274353027, 0.0014617433, 0.0050147735, 0.33848953
463, 31737642, -0.24315162003040314, -0.5784996747970581, 7.553606033325195, 0.0024067631, 0.0046781944, 0.3253498
464, 31754309, -0.24368412792682648, -0.5786086320877075, 7.553373336791992, -0.0032890874, 0.004995014, 0.32944298
465, 31770976, -0.24404677748680115, -0.5782308578491211, 7.553736686706543, 0.018086707, -0.004313741, 0.3410263
466, 31787643, -0.24348987638950348, -0.5779290199279785, 7.553980827331543, 0.01034096, -0.003113499, 0.3362999
467, 31804310, -0.24257518351078033, -0.5787054896354675, 7.553842544555664, 0.0034587407, 0.0012555142, 0.3249607
468, 31820977, -0.24326567351818085, -0.5787604451179504, 7.553542137145996, 0.01704258, 0.008891405, 0.32978916
469, 31837644, -0.24334461987018585, -0.5796077251434326, 7.554289817810059, 0.007366292, 0.003749545, 0.339159
470, 31854311, -0.24388642609119415, -0.5800501704216003, 7.554698944091797, 0.0043233936, -0.0033132564, 0.3409357
471, 31870978, -0.245318204164505, -0.580328643321991, 7.556869983673096, 0.010932969, 0.0029897215, 0.33783722
472, 31887645, -0.2455068826675415, -0.5786280035972595, 7.5572896003723145, -0.0036189158, 0.006704498, 0.32340908
473, 31904312, -0.24563686549663544, -0.5775103569030762, 7.559032917022705, 0.002025188, 0.004681815, 0.31880856
474, 31920979, -0.2439333200454712, -0.5775954723358154, 7.559169292449951, 0.027102381, 0.0071691456, 0.35034657
475, 31937646, -0.24401280283927917, -0.5766270160675049, 7.56060266494751, 0.0093871495, -6.243939E-4, 0.3449669
476, 31954313, -0.24323277175426483, -0.5765944123268127, 7.561501979827881, -0.0024239107, 0.0028093308, 0.34689903
477, 31970980, -0.24403399229049683, -0.5770981311798096, 7.5632758140563965, 0.0044221096, -0.007595744, 0.32553577
478, 31987647, -0.24381066858768463, -0.5771267414093018, 7.563613414764404, 0.010125235, 4.588948E-4, 0.3592434
479, 32004314, -0.24350108206272125, -0.5767844915390015, 7.564258575439453, 0.0075454903, 0.0017679404, 0.3515587
480, 32020981, -0.2422773838043213, -0.5874976515769958, 7.572784423828125, 0.001233774, -0.0068072528, 0.33721638
481, 32037648, -0.243007093667984, -0.5862352848052979, 7.571354389190674, 0.012885948, 0.0040888935, 0.36281013
482, 32054315, -0.24148747324943542, -0.5870110988616943, 7.571659088134766, -5.048529E-4, 0.007090657, 0.35954762
483, 32070982, -0.2413165420293808, -0.5876145958900452, 7.571639537811279, 0.011087661, 0.013236281, 0.33995152
484, 32087649, -0.24193795025348663, -0.5867007970809937, 7.570663928985596, 0.007981257, 0.0057778535, 0.33786297
485, 32104316, -0.24153921008110046, -0.58697909116745, 7.571056365966797, 0.0012108535, 0.007650084, 0.32730484
486, 32120983, -0.241791769862175, -0.5874553322792053, 7.57183837890625, 0.018508881, 0.0038132078, 0.3290701
487, 32137650, -0.24167394638061523, -0.5880287885665894, 7.573148250579834, 0.013118293, 0.0043196753, 0.3293743
488, 32154317, -0.24078746140003204, -0.588392436504364, 7.572656631469727, -0.0019616964, 2.6608518E-4, 0.3181486
489, 32170984, -0.23980380594730377, -0.5883888602256775, 7.570824146270752, -0.008555849, 0.0018915867, 0.3243332
490, 32187651, -0.23936742544174194, -0.5879364013671875, 7.571265697479248, 0.007037707, 0.0020848415, 0.35672188
491, 32204318, -0.23965682089328766, -0.5887755155563354, 7.571468830108643, 0.010989475, -0.0052442076, 0.3212185
492, 32220985, -0.23949797451496124, -0.5879098773002625, 7.570842266082764, 0.0076110284, -0.005354864, 0.34731865
493, 32237652, -0.23831509053707123, -0.5880520939826965, 7.571157932281494, 0.014191145, -0.0143578, 0.32077694
494, 32254319, -0.23849281668663025, -0.5880146026611328, 7.571637153625488, -0.0145998, 0.0058496073, 0.3432541
495, 32270986, -0.2379615753889084, -0.5877305865287781, 7.572625637054443, 0.005929715, 0.0010847189, 0.3297367
496, 32287653, -0.23803777992725372, -0.5880582332611084, 7.573500156402588, -6.78271E-4, 0.01026769, 0.34616756
497, 32304320, -0.2384592443704605, -0.5873165130615234, 7.573559761047363, 0.017457735, -0.0016208426, 0.3200798
498, 32320987, -0.23807518184185028, -0.587134063243866, 7.571864128112793, 0.003363898, -0.0024597445, 0.33719063
499, 32337654, -0.23834601044654846, -0.5871472954750061, 7.57243013381958, -8.9119154E-4, -0.0019585202, 0.33434486
500, 32354321, -0.23913714289665222, -0.5868735909461975, 7.573606491088867, 0.0024692663, 0.006441452, 0.34565544
501, 32370988, -0.2388361096382141, -0.5877996683120728, 7.575804233551025, -0.005072012, -0.011436887, 0.36194038
502, 32387655, -0.2378482073545456, -0.5880654454231262, 7.575371265411377, -0.01167705, -0.001113662, 0.34463596
503, 32404322, -0.23855233192443848, -0.5889965891838074, 7.576635837554932, 0.012512944, 0.01632378, 0.32729053
504, 32420989, -0.2386896014213562, -0.587972104549408, 7.5761799812316895, 0.0017236096, 0.008560303, 0.35983372
505, 32437656, -0.23840828239917755, -0.5871054530143738, 7.577064514160156, -0.006058633, 0.002543986, 0.32071114
506, 32454323, -0.23909933865070343, -0.5871919989585876, 7.5773820877075195, 0.010117394, -0.009713341, 0.35432434
507, 32470990, -0.23886530101299286, -0.5888163447380066, 7.578014850616455, -8.5145165E-4, 0.003176753, 0.33113575
508, 32487657, -0.23849444091320038, -0.5897872447967529, 7.578341484069824, 0.011608544, 0.0026291392, 0.34444046
509, 32504324, -0.23878902196884155, -0.5908063650131226, 7.577561378479004, 0.0021022896, -0.0017635871, 0.35063744
510, 32520991, -0.23792926967144012, -0.5903118252754211, 7.57931661605835, 0.006742642, -0.003401916, 0.34221935
511, 32537658, -0.23813708126544952, -0.5913125276565552, 7.579963207244873, 0.019358067, -0.0045261164, 0.34719658
512, 32554325, -0.23758584260940552, -0.5910789966583252, 7.578921318054199, -0.0015065752, 0.0042180247, 0.3263569
513, 32570992, -0.2367594689130783, -0.5917255282402039, 7.580194473266602, -0.0042994395, 0.0053695505, 0.34482574
514, 32587659, -0.23694835603237152, -0.5906994342803955, 7.582148551940918, 0.0061606527, 0.005869787, 0.33692932
515, 32604326, -0.2380700558423996, -0.5902465581893921, 7.582504749298096, 0.004992141, -0.005795904, 0.3362732
516, 32620993, -0.2371802181005478, -0.5900656580924988, 7.5817670822143555, 0.010691735, -0.0018612256, 0.3180418
517, 32637660, -0.23710347712039948, -0.5903934240341187, 7.582037925720215, -0.0035200391, -3.9198584E-4, 0.3391571
518, 32654327, -0.23738424479961395, -0.5890251398086548, 7.582530498504639, 0.010862761, 0.0124230115, 0.329957
519, 32670994, -0.23712804913520813, -0.5893309712409973, 7.582732677459717, -0.004603878, -0.0032988016, 0.32807636
520, 32687661, -0.2369823306798935, -0.5901787281036377, 7.582355499267578, 9.999656E-4, 0.0017083444, 0.3374529
521, 32704328, -0.23635806143283844, -0.5908161401748657, 7.581428050994873, 0.0045074355, -0.0036173703, 0.31639576
522, 32720995, -0.23670081794261932, -0.5911010503768921, 7.580536842346191, 0.019904273, -0.008005829, 0.3239603
523, 32737662, -0.23681077361106873, -0.5913215279579163, 7.579719543457031, 0.0028850075, 0.0086491965, 0.33010006
524, 32754329, -0.23611438274383545, -0.591759979724884, 7.580530643463135, 0.013642494, 0.0022248009, 0.34064865
525, 32770996, -0.23675185441970825, -0.5914127826690674, 7.581079006195068, 0.0031855206, -4.7860236E-4, 0.33175373
526, 32787663, -0.2368806004524231, -0.5913189053535461, 7.582269191741943, -0.002221691, 0.0010399726, 0.33760834
527, 32804330, -0.23713944852352142, -0.5901532769203186, 7.582175254821777, 0.0029161316, -0.012837227, 0.33989334
528, 32820997, -0.23793938755989075, -0.5893293619155884, 7.582174301147461, 0.010788775, -0.0065361457, 0.3306179
529, 32837664, -0.23749595880508423, -0.5898962020874023, 7.581653594970703, 0.0072698114, 0.01304243, 0.34614754
530, 32854331, -0.23826026916503906, -0.5903762578964233, 7.581902027130127, -0.0027187627, -0.011643274, 0.335804
531, 32870998, -0.2386653572320938, -0.590918242931366, 7.582057476043701, 0.010807938, -0.006951265, 0.3330183
532, 32887665, -0.23880751430988312, -0.5913359522819519, 7.58229398727417, 0.010990003, 0.0043336386, 0.3151245
533, 32904332, -0.2381511628627777, -0.5915043950080872, 7.583064556121826, 0.010332546, -0.0060764914, 0.337183
534, 32920999, -0.23888376355171204, -0.5920897126197815, 7.5839338302612305, 0.007883701, -0.0052213743, 0.31636143
535, 32937666, -0.23932278156280518, -0.5918282866477966, 7.584773063659668, -3.7326314E-4, 0.0033895983, 0.34740543
536, 32954333, -0.23928962647914886, -0.5907835960388184, 7.584682464599609, 1.4016358E-4, 0.0022758963, 0.33935165
537, 32971000, -0.24034453928470612, -0.5901203751564026, 7.5855302810668945, 0.005914362, -0.003810105, 0.3296671
538, 32987667, -0.24045489728450775, -0.5888420939445496, 7.586205005645752, 0.003129412, 0.0039329967, 0.33796978
539, 33004334, -0.24073348939418793, -0.5884197950363159, 7.586642742156982, 0.013004399, 0.011012691, 0.32893562
540, 33021001, -0.24172106385231018, -0.5887857675552368, 7.5866899490356445, 0.008125929, -0.008774621, 0.34228992
541, 33037668, -0.2411760687828064, -0.5868259072303772, 7.587077617645264, 0.0035021268, -0.003887779, 0.34755802
542, 33054335, -0.24107974767684937, -0.5869033336639404, 7.589033603668213, 0.010594053, -0.0011919248, 0.355587
543, 33071002, -0.24148155748844147, -0.5870200991630554, 7.590052127838135, 0.0058887177, -0.0076797097, 0.31577206
544, 33087669, -0.24087561666965485, -0.5862302780151367, 7.589900016784668, 0.0053800372, -0.015616555, 0.33613777
545, 33104336, -0.24070844054222107, -0.5853807926177979, 7.592199325561523, 0.009945383, -0.0029550036, 0.3113861
546, 33121003, -0.24101673066616058, -0.5856305360794067, 7.593067646026611, 9.939203E-4, 0.005948793, 0.34429264
547, 33137670, -0.24233031272888184, -0.5857985019683838, 7.593069076538086, 0.018155249, 0.0059547904, 0.3463688
548, 33154337, -0.2418329417705536, -0.5847703814506531, 7.593461036682129, -0.004210949, 0.003949569, 0.3288107
549, 33171004, -0.24246865510940552, -0.5846951603889465, 7.593347549438477, 9.878051E-4, -0.0019387671, 0.3402424
550, 33187671, -0.24217654764652252, -0.5848566293716431, 7.594061374664307, 3.8487883E-4, -0.00889698, 0.32686043
551, 33204338, -0.24198219180107117, -0.5840575695037842, 7.595065593719482, -0.005074254, 0.009621838, 0.3243599
552, 33221005, -0.24296770989894867, -0.582769513130188, 7.596147060394287, 0.0168167, -0.0020067657, 0.34609413
553, 33237672, -0.24236932396888733, -0.5834797024726868, 7.59723424911499, 0.0014255587, 0.0017640899, 0.32755184
554, 33254339, -0.24202384054660797, -0.5831572413444519, 7.598324298858643, 0.013669466, -9.119084E-4, 0.33713913
555, 33271006, -0.2413686364889145, -0.5830952525138855, 7.5980048179626465, 0.003899662, 0.0032351178, 0.33934784
556, 33287673, -0.24126167595386505, -0.5829769968986511, 7.599003791809082, 0.0019505591, -0.0023238398, 0.35442448
557, 33304340, -0.23954232037067413, -0.5832736492156982, 7.598964691162109, 0.01201306, 0.016918968, 0.33139133
558, 33321007, -0.23969286680221558, -0.5823429226875305, 7.599021911621094, 0.0034599176, -0.011238794, 0.32861614
559, 33337674, -0.23972758650779724, -0.5814648270606995, 7.599340915679932, 0.0019174827, 0.0021855342, 0.32725143
560, 33354341, -0.2386707216501236, -0.580938994884491, 7.599771499633789, 0.010525075, 0.0035632697, 0.33142662
561, 33371008, -0.23869846761226654, -0.5805546641349792, 7.601531028747559, 0.01738723, -0.015419026, 0.34631062
562, 33387675, -0.23851898312568665, -0.5803249478340149, 7.602429389953613, 0.0068166177, -6.8234664E-4, 0.3342018
563, 33404342, -0.2384939342737198, -0.5808473229408264, 7.6027069091796875, 0.0036611457, 4.968047E-4, 0.3156109
564, 33421009, -0.23750780522823334, -0.5812724232673645, 7.602746963500977, 0.0046686023, 0.0038105703, 0.3245821
565, 33437676, -0.23714710772037506, -0.5810378789901733, 7.602539539337158, 0.0099006705, -0.0011302421, 0.3262148
566, 33454343, -0.23759044706821442, -0.581977903842926, 7.602657318115234, 0.009995911, -0.0028518, 0.31771278
567, 33471010, -0.23757527768611908, -0.5814486742019653, 7.602005958557129, -0.0033984866, 0.0046523996, 0.31287384
568, 33487677, -0.23754753172397614, -0.579954981803894, 7.600163459777832, 0.0034668955, -0.0071789953, 0.35303307
569, 33504344, -0.23703289031982422, -0.578171968460083, 7.599919319152832, 0.0058850753, -0.003818946, 0.33169842
570, 33521011, -0.23731940984725952, -0.5793518424034119, 7.599447727203369, 0.006747608, -0.0028549677, 0.34534454
571, 33537678, -0.23778636753559113, -0.5811983346939087, 7.600810527801514, 0.0030001446, -0.0149271395, 0.32575035
572, 33554345, -0.23891998827457428, -0.5817252993583679, 7.601337432861328, 0.007911352, 6.1381893E-4, 0.32639027
573, 33571012, -0.23907116055488586, -0.5810602903366089, 7.601709365844727, 0.012611222, -0.0054913973, 0.32118034
574, 33587679, -0.23957416415214539, -0.5807756185531616, 7.602237224578857, 0.0020428386, -0.010694094, 0.32658386
575, 33604346, -0.24005518853664398, -0.5801721811294556, 7.602861404418945, 0.02185869, 0.00895737, 0.32909203
576, 33621013, -0.23984254896640778, -0.5796688199043274, 7.603457927703857, 0.0065249754, 0.0015617252, 0.3542366
577, 33637680, -0.24016866087913513, -0.5798287987709045, 7.604048728942871, 0.005472561, -7.3866145E-4, 0.34815884
578, 33654347, -0.23999479413032532, -0.5800762176513672, 7.605018615722656, -0.006394248, -0.0035136114, 0.3342476
579, 33671014, -0.2399015724658966, -0.5805832743644714, 7.606750011444092, 0.0072191088, 0.0010616464, 0.33687782
580, 33687681, -0.24025732278823853, -0.5814658403396606, 7.607229232788086, 0.010432914, 0.003798154, 0.334383
581, 33704348, -0.23980754613876343, -0.5820438861846924, 7.6094489097595215, 0.008574851, -2.5327335E-4, 0.33798027
582, 33721015, -0.23975753784179688, -0.5809962153434753, 7.609828948974609, 0.010420219, -0.018788293, 0.34796715
583, 33737682, -0.2404748499393463, -0.5803750157356262, 7.610589504241943, 1.3034297E-4, -0.0048382855, 0.34522152
584, 33754349, -0.24051599204540253, -0.5809406042098999, 7.61000394821167, 0.004403076, -0.0011560265, 0.32801914
585, 33771016, -0.24082116782665253, -0.5807787775993347, 7.610193252563477, 0.004775763, -0.007264489, 0.34773254
586, 33787683, -0.24102742969989777, -0.580747663974762, 7.610628128051758, 0.018679438, 0.0036086726, 0.30750465
587, 33804350, -0.23944903910160065, -0.5805104970932007, 7.611453533172607, 0.0047998047, 6.445852E-4, 0.32126236
588, 33821017, -0.23892197012901306, -0.5815823674201965, 7.61159610748291, 0.0021974049, 0.0034666415, 0.3482294
589, 33837684, -0.23914435505867004, -0.5833615660667419, 7.611330032348633, 0.0036041848, -0.004957348, 0.33132076
590, 33854351, -0.23873931169509888, -0.5832640528678894, 7.611758232116699, 0.018453987, -1.339122E-4, 0.33475304
591, 33871018, -0.2399308830499649, -0.5814672708511353, 7.61171817779541, 0.014458592, 0.0038350562, 0.33301544
592, 33887685, -0.24644280970096588, -0.5724651217460632, 7.6118550300598145, 0.020642536, 4.3234564E-4, 0.3397827
593, 33904352, -0.25467464327812195, -0.5725395083427429, 7.609717845916748, 9.4158325E-4, -0.014062133, 0.34692192
594, 33921019, -0.25771525502204895, -0.6110683083534241, 7.612270832061768, 0.012340587, -0.0021729511, 0.36468124
595, 33937686, -0.2817344069480896, -0.6927781701087952, 7.577045917510986, 0.17699388, -0.06878443, 0.38041782
596, 33954353, -0.28170832991600037, -0.7523015737533569, 7.238466262817383, 0.3210937, -0.14700189, 0.29882908
597, 33971020, -0.2813957929611206, -0.7439352869987488, 6.914141654968262, -0.3807043, 0.16584209, 0.3150587
598, 33987687, -0.30383968353271484, -0.7170820236206055, 6.909832000732422, -0.038967676, 0.07253079, 0.3351221
599, 34004354, -0.3017733097076416, -0.6685821413993835, 6.923032283782959, 0.066346236, 0.008977034, 0.33291626
600, 34021021, -0.3037578761577606, -0.6129473447799683, 7.0672783851623535, 0.6961355, -0.02617065, 0.37415218
601, 34037688, -0.3350110948085785, -0.5988488793373108, 7.248363494873047, 0.9829243, -0.11645784, 0.32155132
602, 34054355, -0.377702534198761, -0.6278641819953918, 7.560574531555176, 0.16631167, 0.2649204, 0.32597733
603, 34071022, -0.41929173469543457, -0.6185097694396973, 7.810542583465576, -0.6746707, 0.08638042, 0.34901237
604, 34087689, -0.44786837697029114, -0.5967637300491333, 7.8758955001831055, -0.41049564, 0.08373784, 0.3094082
605, 34104356, -0.4502297341823578, -0.5621930956840515, 7.897917747497559, 0.14354947, 0.019231848, 0.33638954
606, 34121023, -0.44878312945365906, -0.5219080448150635, 7.86553430557251, 0.20889905, -0.026352482, 0.34154034
607, 34137690, -0.45748910307884216, -0.5054051280021667, 7.838818550109863, 0.22376679, 0.074163854, 0.31671143
608, 34154357, -0.4506370425224304, -0.537228524684906, 7.883291721343994, 0.14129442, 0.045888495, 0.3444271
609, 34171024, -0.44840124249458313, -0.5584219694137573, 7.8914690017700195, -0.19589654, 0.08876922, 0.33203316
610, 34187691, -0.4350549876689911, -0.5667861700057983, 7.883647918701172, 0.019588016, 0.15722865, 0.34121895
611, 34204358, -0.40314480662345886, -0.5758460760116577, 7.9282307624816895, 0.20613132, 0.0030007698, 0.32069016
612, 34221025, -0.37845608592033386, -0.5857322812080383, 7.884738922119141, -0.07475951, -0.11471071, 0.31682968
613, 34237692, -0.3829156756401062, -0.5985593795776367, 7.719672203063965, -0.28763476, -0.14942454, 0.33928108
614, 34254359, -0.35889312624931335, -0.6484867930412292, 7.469265460968018, -0.16296312, -0.20533608, 0.3323927
615, 34271026, -0.34601178765296936, -0.679219126701355, 7.195054531097412, -0.1621561, -0.057690963, 0.33901215
616, 34287693, -0.3305846154689789, -0.6738595366477966, 7.004019260406494, 0.3436533, 0.03078929, 0.36580086
617, 34304360, -0.3089958429336548, -0.6507355570793152, 6.9477410316467285, 0.58831596, 0.016570322, 0.31462383
618, 34321027, -0.3051315248012543, -0.6109871864318848, 6.911811828613281, 0.20735173, -0.10302646, 0.37079525
619, 34337694, -0.3612813949584961, -0.5279783010482788, 6.809325695037842, 0.14955182, -0.0078052455, 0.36884594
620, 34354361, -0.3958270847797394, -0.5628480315208435, 6.735747814178467, 0.07851558, -0.05813357, 0.25126076
621, 34371028, -0.42334622144699097, -0.6558516025543213, 6.754825592041016, 0.025273077, 0.11983949, 0.37477684
622, 34387695, -0.45757994055747986, -0.6676883697509766, 6.751410484313965, -0.48361096, 0.240914, 0.31418133
623, 34404362, -0.4839510917663574, -0.6197806000709534, 6.64314603805542, -0.09580812, 0.122534536, 0.2958603
624, 34421029, -0.4869442582130432, -0.5911276936531067, 6.531653881072998, 0.2629998, -0.044934038, 0.37282372
625, 34437696, -0.4806106984615326, -0.594092071056366, 6.470464706420898, 0.3366056, 0.005378689, 0.33585072
626, 34454363, -0.4636212885379791, -0.6343858242034912, 6.525417804718018, 0.052146193, 0.055797517, 0.35382462
627, 34471030, -0.45386192202568054, -0.6740235090255737, 6.554471969604492, -0.17255868, 0.020513684, 0.32909775
628, 34487697, -0.4361339807510376, -0.6967146992683411, 6.555299282073975, -0.11979198, -0.018127494, 0.32547665
629, 34504364, -0.38254979252815247, -0.7071236371994019, 6.5234832763671875, 0.09639836, 0.09932137, 0.32861042
630, 34521031, -0.2875027656555176, -0.6819908022880554, 6.443663597106934, 0.08593381, 0.037299354, 0.33584023
631, 34537698, -0.17999310791492462, -0.6533730030059814, 6.37490177154541, -0.15464671, -0.04575285, 0.32418633
632, 34554365, -0.06086793914437294, -0.6068530678749084, 6.31734037399292, -0.073727086, 0.13667107, 0.33475494
633, 34571032, 0.08504648506641388, -0.5544617176055908, 6.31341552734375, -0.047355585, 0.036622122, 0.33600616
634, 34587699, 0.20689572393894196, -0.507875382900238, 6.286700248718262, 0.020372434, -0.14018258, 0.340518
635, 34604366, 0.27768442034721375, -0.49945154786109924, 6.269668102264404, 0.092911474, -0.097245835, 0.3733902
636, 34621033, 0.33213329315185547, -0.5476857423782349, 6.400714874267578, 0.01871028, 0.012398317, 0.3040123
637, 34637700, 0.37345758080482483, -0.591928243637085, 6.599728584289551, -0.19863409, -0.077957235, 0.33001328
638, 34654367, 0.397266685962677, -0.5958160758018494, 6.694100379943848, -0.040651575, -0.074298434, 0.3348837
639, 34671034, 0.41879069805145264, -0.5839489698410034, 6.751097679138184, 0.0042778286, -0.055998467, 0.35943604
640, 34687701, 0.4359515607357025, -0.5788366198539734, 6.732285976409912, 0.031249413, -0.040315785, 0.3256445
641, 34704368, 0.454062283039093, -0.5896731615066528, 6.7360053062438965, 0.09351708, 0.007875891, 0.3464203
642, 34721035, 0.46838438510894775, -0.5889005661010742, 6.72123384475708, -0.039712314, -0.036596783, 0.35900974
643, 34737702, 0.4845224618911743, -0.594041645526886, 6.824561595916748, -0.020590695, -0.0400486, 0.3149643
644, 34754369, 0.47930362820625305, -0.5769015550613403, 6.8871283531188965, 0.118766345, -0.08189851, 0.31246758
645, 34771036, 0.4511183202266693, -0.5959932208061218, 6.9535651206970215, 0.23565303, -0.17992225, 0.3355074
646, 34787703, 0.3862564265727997, -0.6140226721763611, 6.9668049812316895, 0.0022063488, -0.1895394, 0.3234558
647, 34804370, 0.29570239782333374, -0.6353269219398499, 6.99056339263916, -0.029022997, -0.016823934, 0.3256216
648, 34821037, 0.20043668150901794, -0.6231837272644043, 6.981706619262695, 0.10828693, 0.010226748, 0.3243723
649, 34837704, 0.08369001746177673, -0.6060662865638733, 6.942058086395264, 0.059897814, -0.121502005, 0.33882046
650, 34854371, -0.06324324011802673, -0.6097015142440796, 6.856308460235596, 0.15245016, -0.031391915, 0.3467207
651, 34871038, -0.24571122229099274, -0.6341617107391357, 6.819608688354492, -0.017153023, 0.001784758, 0.39310932
652, 34887705, -0.4229941666126251, -0.6623388528823853, 6.796384811401367, -0.3006662, 0.14503635, 0.29952908
653, 34904372, -0.4942617416381836, -0.6706827878952026, 6.775166988372803, -0.36820167, 0.24095272, 0.31698895
654, 34921039, -0.5004541277885437, -0.6547457575798035, 6.680572509765625, -0.046191838, 0.046145815, 0.30642986
655, 34937706, -0.4914127588272095, -0.6600185036659241, 6.638911724090576, 0.08598989, 0.06516868, 0.33702087
656, 34954373, -0.47476527094841003, -0.6617675423622131, 6.590994834899902, 0.030354282, 0.04210577, 0.36762905
657, 34971040, -0.4512483477592468, -0.6608566641807556, 6.568291187286377, 0.029279478, 0.028279232, 0.3374834
658, 34987707, -0.4208427369594574, -0.6625547409057617, 6.561034202575684, 0.04986927, -0.043918375, 0.2901268
659, 35004374, -0.3919968008995056, -0.6777427792549133, 6.5495219230651855, -0.066207916, 0.029594773, 0.38059807
660, 35021041, -0.3520834743976593, -0.7022472023963928, 6.528113842010498, 0.014535516, 0.02651074, 0.33863926
661, 35037708, -0.3207683265209198, -0.7307865619659424, 6.491940975189209, -0.099879056, -0.14452899, 0.34636402
662, 35054375, -0.31727465987205505, -0.7257199287414551, 6.424674034118652, -0.31059188, -0.010501171, 0.32828426
663, 35071042, -0.2810991108417511, -0.7310323119163513, 6.44394063949585, -0.15376914, 0.0883457, 0.32209396
664, 35087709, -0.19407106935977936, -0.7210264205932617, 6.4391350746154785, -0.051934324, 0.15806897, 0.29796505
665, 35104376, -0.07795517146587372, -0.7210119366645813, 6.386492729187012, -0.03696047, 0.04719957, 0.34744644
666, 35121043, 0.026362214237451553, -0.7338048815727234, 6.358088493347168, 0.037678026, -0.09657998, 0.35543823
667, 35137710, 0.10150541365146637, -0.7309377193450928, 6.319570064544678, 0.2236167, -0.10641385, 0.31026363
668, 35154377, 0.12482329457998276, -0.7239226698875427, 6.3414154052734375, 0.30504042, -0.25309256, 0.40347385
669, 35171044, 0.09709252417087555, -0.708252489566803, 6.365285396575928, 0.08869888, -0.15718715, 0.32512093
670, 35187711, 0.02871946431696415, -0.7097507119178772, 6.399435997009277, -0.18932879, -0.037210323, 0.31492615
671, 35204378, -0.032362740486860275, -0.696408748626709, 6.361974716186523, -0.36428323, 0.05591016, 0.34251022
672, 35221045, -0.05191842094063759, -0.6872692704200745, 6.282411098480225, -0.022880675, 0.10667381, 0.33050728
673, 35237712, -0.054746195673942566, -0.6777885556221008, 6.267699241638184, 0.21886718, 0.04388117, 0.3277197
674, 35254379, -0.07385667413473129, -0.690151572227478, 6.381329536437988, 0.20819165, 0.007345926, 0.35442066
675, 35271046, -0.120384581387043, -0.6911348700523376, 6.543542385101318, -0.078001305, -0.09383744, 0.32724285
676, 35287713, -0.17114382982254028, -0.6896668672561646, 6.597475051879883, -0.13882421, 0.016319243, 0.30309582
677, 35304380, -0.20780421793460846, -0.6931040287017822, 6.646008014678955, -0.2424033, 0.04004296, 0.3609438
678, 35321047, -0.23588642477989197, -0.6918164491653442, 6.696993827819824, -0.14524186, -0.03376553, 0.30400848
679, 35337714, -0.24613256752490997, -0.6760792136192322, 6.698727130889893, 0.06555129, 0.0480161, 0.32213593
680, 35354381, -0.2443392425775528, -0.6723170280456543, 6.726223468780518, 0.23895465, 0.029443523, 0.35843277
681, 35371048, -0.2613024115562439, -0.6838036179542542, 6.7808837890625, 0.012083173, -0.041777615, 0.3413086
682, 35387715, -0.2734850347042084, -0.692974328994751, 6.794498920440674, -0.07045148, 0.012784134, 0.32166672
683, 35404382, -0.27819696068763733, -0.708929717540741, 6.871304988861084, 0.02689583, 0.0038415522, 0.3194809
684, 35421049, -0.3050384521484375, -0.7249553203582764, 6.946224689483643, 0.18192482, -0.100796506, 0.3386507
685, 35437716, -0.35328516364097595, -0.7295010089874268, 6.981524467468262, -0.21106602, -0.068162136, 0.2580061
686, 35454383, -0.3890516757965088, -0.7434077262878418, 6.987668037414551, -0.16185987, 0.07302243, 0.36350346
687, 35471050, -0.4056341350078583, -0.7398538589477539, 6.976118087768555, -0.1609664, 0.068774626, 0.3112154
688, 35487717, -0.38596418499946594, -0.7289035320281982, 6.918001174926758, 0.17379661, -0.0017356025, 0.33472538
689, 35504384, -0.3733220100402832, -0.7236184477806091, 6.889591217041016, 0.21016815, -0.022796813, 0.325387
690, 35521051, -0.3754667341709137, -0.729465663433075, 6.8454155921936035, 0.22795916, -0.04225972, 0.37701988
691, 35537718, -0.4103619456291199, -0.7672544121742249, 6.935702800750732, 0.2751574, 0.027768703, 0.3333435
692, 35554385, -0.4565155506134033, -0.8026726245880127, 7.040635585784912, -0.055602428, 8.01968E-4, 0.3346815
693, 35571052, -0.48448747396469116, -0.8216649293899536, 7.128489017486572, 0.021307595, 0.024028953, 0.3393011
694, 35587719, -0.49187272787094116, -0.8225322961807251, 7.165623188018799, -0.04009078, -0.010598265, 0.3592863
695, 35604386, -0.48226141929626465, -0.8084124326705933, 7.14089298248291, 0.20138778, -0.04386195, 0.3177004
696, 35621053, -0.48453235626220703, -0.8010806441307068, 7.114943981170654, 0.3078334, -0.015217995, 0.36645412
697, 35637720, -0.4959109127521515, -0.8221007585525513, 7.146658897399902, 0.1985266, -0.03541708, 0.3386879
698, 35654387, -0.5081124901771545, -0.8435896635055542, 7.179649829864502, -0.030226031, 0.17888866, 0.33100796
699, 35671054, -0.515460729598999, -0.8472164869308472, 7.2199225425720215, 0.028684976, 0.2970759, 0.31514168
700, 35687721, -0.5061985850334167, -0.8434693813323975, 7.244887828826904, 0.19376536, -0.039021753, 0.34428406
701, 35704388, -0.4961845278739929, -0.8432323932647705, 7.2040276527404785, 0.09102631, -0.04822903, 0.35007477
702, 35721055, -0.47794046998023987, -0.855383574962616, 7.15806770324707, 0.040749345, -0.00392296, 0.32299042
703, 35737722, -0.4504564702510834, -0.8470231890678406, 7.110748767852783, -0.026650092, 0.030554682, 0.3144951
704, 35754389, -0.395560085773468, -0.8361743092536926, 7.119570255279541, 0.24419244, 0.08402138, 0.34527206
705, 35771056, -0.36264464259147644, -0.8240777254104614, 7.119190692901611, 0.055945467, -0.16436936, 0.34126377
706, 35787723, -0.35645630955696106, -0.8389108180999756, 7.1181230545043945, 0.23250042, -0.00929944, 0.30873203
707, 35804390, -0.36561426520347595, -0.8232423663139343, 7.105240821838379, -0.009246612, 0.06104662, 0.3540306
708, 35821057, -0.35292506217956543, -0.8038398623466492, 7.094234943389893, -0.06514411, 0.03912586, 0.31878757
709, 35837724, -0.33061420917510986, -0.7717576026916504, 7.033135414123535, 0.04999695, -0.024682814, 0.33311653
710, 35854391, -0.32252299785614014, -0.7416020631790161, 6.955841541290283, 0.09581932, -0.111912474, 0.34343433
711, 35871058, -0.3566127419471741, -0.7445594668388367, 6.904458522796631, 0.16312043, -0.12296955, 0.34364223
712, 35887725, -0.436122864484787, -0.770880401134491, 7.152397632598877, 0.5465687, 0.041152086, 0.38724327
713, 35904392, -0.47577664256095886, -0.7899075150489807, 7.701040267944336, 0.027269887, 0.0075367643, 0.2803669
714, 35921059, -0.4931178390979767, -0.8003310561180115, 8.136961936950684, -0.33960634, 0.013373837, 0.32359123
715, 35937726, -0.5067567825317383, -0.8008946180343628, 8.457104682922363, -0.27131596, 0.16942975, 0.3095274
716, 35954393, -0.5057989954948425, -0.7933077812194824, 8.648966789245605, -0.26577216, 0.16116436, 0.3343954
717, 35971060, -0.4971276521682739, -0.7856969833374023, 8.663742065429688, -0.18754841, 0.0055389446, 0.31349468
718, 35987727, -0.48881208896636963, -0.7969589233398438, 8.537664413452148, -0.1264349, -0.10230965, 0.30418015
719, 36004394, -0.4717254340648651, -0.8124536275863647, 8.40948486328125, -0.07306233, -0.032415997, 0.3641901
720, 36021061, -0.4572862982749939, -0.8231254816055298, 8.30000114440918, -0.018772546, -0.09696234, 0.28849697
721, 36037728, -0.4428664445877075, -0.8202893137931824, 8.117097854614258, -0.18393806, -0.057375036, 0.34927273
722, 36054395, -0.42923593521118164, -0.8068397641181946, 7.919601917266846, 0.06281628, -0.0016999138, 0.34443188
723, 36071062, -0.4082653224468231, -0.7984362840652466, 7.745410919189453, -0.09623334, -0.033822674, 0.35255146
724, 36087729, -0.39609259366989136, -0.8006441593170166, 7.558104515075684, -0.091154195, -0.020198617, 0.32685852
725, 36104396, -0.383464515209198, -0.8062495589256287, 7.420917987823486, -0.06736879, 0.0741828, 0.2908001
726, 36121063, -0.3597777485847473, -0.8019192218780518, 7.285186767578125, -0.008051097, 0.0026382613, 0.33346462
727, 36137730, -0.3247193694114685, -0.8215383291244507, 7.180170059204102, 0.35825786, -0.025347658, 0.34319305
728, 36154397, -0.33947572112083435, -0.8418525457382202, 7.086843490600586, 0.21450862, -0.07777197, 0.31735516
729, 36171064, -0.37425634264945984, -0.8577086925506592, 6.97842264175415, -0.053477686, -0.057459068, 0.31740093
730, 36187731, -0.38799065351486206, -0.8415071368217468, 6.822604656219482, -0.19167484, 0.012141475, 0.3499546
731, 36204398, -0.37879082560539246, -0.8382437825202942, 6.698197364807129, 0.0591384, 0.09277821, 0.3174324
732, 36221065, -0.37133046984672546, -0.8489447832107544, 6.676333904266357, 0.052276306, 0.026914757, 0.35085678
733, 36237732, -0.3658325970172882, -0.8757714033126831, 6.655438423156738, 0.16328706, -0.04337002, 0.34972954
734, 36254399, -0.3774685561656952, -0.8987918496131897, 6.630228042602539, 0.11387928, -0.055411957, 0.33471394
735, 36271066, -0.3851810097694397, -0.8999862670898438, 6.523683547973633, 0.10805933, -0.00746611, 0.3407297
736, 36287733, -0.3918667435646057, -0.899190366268158, 6.447527885437012, 0.0046113166, 0.04232192, 0.31649303
737, 36304400, -0.3852806091308594, -0.8994124531745911, 6.406898021697998, -0.041369647, 0.09671577, 0.3300047
738, 36321067, -0.355760782957077, -0.875326931476593, 6.342310905456543, -0.13876806, 0.039328486, 0.3432541
739, 36337734, -0.2918355166912079, -0.8579525351524353, 6.251986503601074, 0.060280383, 0.015149235, 0.32264328
740, 36354401, -0.2383604794740677, -0.8599011898040771, 6.264310836791992, 0.64880055, 0.019322472, 0.37202168
741, 36371068, -0.3073681890964508, -0.926723301410675, 6.471553802490234, 0.40447032, -0.22728698, 0.37880993
742, 36387735, -0.3954079747200012, -0.9648327231407166, 6.711981773376465, -0.37300462, 0.11087111, 0.286541
743, 36404402, -0.4219919741153717, -0.9723693132400513, 6.88741397857666, -0.02254293, 0.06736448, 0.3293171
744, 36421069, -0.44049587845802307, -0.9626283049583435, 7.00067138671875, 0.1052179, -0.0598705, 0.35691357
745, 36437736, -0.4606900215148926, -0.9451915621757507, 7.077157974243164, 0.016790573, -0.0023651058, 0.30112934
746, 36454403, -0.47135627269744873, -0.9247889518737793, 7.092756748199463, 0.090303704, 0.03104456, 0.34232044
747, 36471070, -0.4888118803501129, -0.9334546327590942, 7.1103315353393555, 0.18868396, -0.03423983, 0.33281136
748, 36487737, -0.5116368532180786, -0.9558923244476318, 7.066435813903809, -0.021634301, 0.07802255, 0.31070805
749, 36504404, -0.5133882761001587, -0.9564046263694763, 6.9622297286987305, -0.11133451, -0.023128705, 0.31870556
750, 36521071, -0.5252185463905334, -0.9381840229034424, 6.9366984367370605, 0.092252575, 0.07365814, 0.39150524
751, 36537738, -0.5404640436172485, -0.9017171263694763, 6.943183422088623, -0.07168332, 0.0029007127, 0.33802795
752, 36554405, -0.5378044247627258, -0.8581384420394897, 6.912349700927734, 0.024842326, 0.037181523, 0.29150677
753, 36571072, -0.5235077142715454, -0.8190118670463562, 6.865681171417236, 0.2523763, 0.0016031571, 0.33434582
754, 36587739, -0.5115070343017578, -0.7859159111976624, 6.737926006317139, 0.0742054, -0.12256792, 0.35215092
755, 36604406, -0.5218892693519592, -0.7589137554168701, 6.616485595703125, 0.19394189, -0.030930012, 0.34156895
756, 36621073, -0.5486943125724792, -0.7222684621810913, 6.61613655090332, 0.041964628, 0.04713315, 0.3415985
757, 36637740, -0.5542001724243164, -0.6846738457679749, 6.660353183746338, -0.19385166, 0.02548075, 0.32320786
758, 36654407, -0.5302188992500305, -0.6408063173294067, 6.676323413848877, 0.07754082, 0.0495294, 0.32330132
759, 36671074, -0.516875147819519, -0.6166614890098572, 6.667635440826416, -0.007930665, -0.0066391625, 0.3727913
760, 36687741, -0.5061344504356384, -0.5850252509117126, 6.602743625640869, -0.09604321, -0.027782325, 0.35055923
761, 36704408, -0.5014621615409851, -0.5706227421760559, 6.508442401885986, -0.25289157, -0.1376793, 0.3176403
762, 36721075, -0.4930487871170044, -0.5572546124458313, 6.395024299621582, -0.21760121, 0.029711347, 0.41495705
763, 36737742, -0.49012520909309387, -0.551565408706665, 6.318161964416504, 0.0027845488, -0.019380305, 0.32257366
764, 36754409, -0.48703625798225403, -0.5448518395423889, 6.255244255065918, -0.15031807, -0.017293027, 0.30282593
765, 36771076, -0.48344069719314575, -0.551680862903595, 6.202866554260254, -0.10128976, -0.024051517, 0.33223343
766, 36787743, -0.49019327759742737, -0.5600923299789429, 6.159739017486572, -0.078510344, -0.05332419, 0.3662386
767, 36804410, -0.49356985092163086, -0.5739264488220215, 6.140548229217529, -0.1273514, -0.06432975, 0.2791252
768, 36821077, -0.49301549792289734, -0.5728444457054138, 6.099031448364258, 0.059957195, 0.06308168, 0.3518591
769, 36837744, -0.49468153715133667, -0.5783110857009888, 6.091472625732422, 0.023421695, -0.03571584, 0.36403275
770, 36854411, -0.4957265555858612, -0.594696044921875, 6.04944372177124, 0.08368744, -0.04797064, 0.3506632
771, 36871078, -0.4919343888759613, -0.6125356554985046, 5.962846755981445, 0.04806535, -0.14025994, 0.348588
772, 36887745, -0.48596295714378357, -0.6320160031318665, 5.896976470947266, 0.20915088, -0.0044282456, 0.32480526
773, 36904412, -0.4887576103210449, -0.6491924524307251, 5.912903308868408, -0.20764002, 0.06436564, 0.33228588
774, 36921079, -0.4903835654258728, -0.6616309285163879, 5.926231861114502, -0.19067065, 0.09470667, 0.29628563
775, 36937746, -0.48577484488487244, -0.669486403465271, 5.9314985275268555, -0.009694068, 6.717787E-4, 0.35176277
776, 36954413, -0.48031967878341675, -0.674528956413269, 5.914885997772217, 0.12503807, 0.043921787, 0.33757496
777, 36971080, -0.47306740283966064, -0.6730219125747681, 5.861283302307129, 0.079137005, 0.039953873, 0.32964516
778, 36987747, -0.46355879306793213, -0.6686773300170898, 5.8123393058776855, 0.060866665, -0.04714841, 0.31458092
779, 37004414, -0.457234263420105, -0.6733734607696533, 5.7938761711120605, 0.05287023, -0.11781399, 0.38037968
780, 37021081, -0.45396918058395386, -0.6841423511505127, 5.75811767578125, -0.085633256, -0.078731224, 0.3532095
781, 37037748, -0.44869551062583923, -0.692233145236969, 5.6988019943237305, -0.028249757, 0.06393525, 0.3148117
782, 37054415, -0.4428192973136902, -0.704512894153595, 5.702891826629639, 0.33068147, -0.007955284, 0.3490038
783, 37071082, -0.44056880474090576, -0.7137361764907837, 5.703275680541992, 1.6680353E-4, -0.017062943, 0.34883404
784, 37087749, -0.4337861239910126, -0.714479386806488, 5.695261478424072, -0.05257379, 0.023717767, 0.33508396
785, 37104416, -0.4310786724090576, -0.7231979966163635, 5.664124011993408, -0.118016884, 0.0892471, 0.28043938
786, 37121083, -0.430652916431427, -0.7211695313453674, 5.647401332855225, 0.14309391, 0.05312657, 0.33879185
787, 37137750, -0.4270283281803131, -0.724102258682251, 5.6686530113220215, -0.07649028, 0.1092569, 0.36636066
788, 37154417, -0.42408835887908936, -0.7372553944587708, 5.737175464630127, 0.24405794, -0.009901554, 0.32285404
789, 37171084, -0.4164668917655945, -0.7518260478973389, 5.787902355194092, -0.0018459865, -0.014719403, 0.3665142
790, 37187751, -0.4055667817592621, -0.7668251395225525, 5.792481422424316, 0.029406853, 0.0515757, 0.32383823
791, 37204418, -0.40017157793045044, -0.781156063079834, 5.798722743988037, -0.20858026, 0.12926678, 0.3361597
792, 37221085, -0.38228267431259155, -0.7853777408599854, 5.812958717346191, 0.13374208, 0.012128003, 0.3333559
793, 37237752, -0.36312976479530334, -0.7932201027870178, 5.793185710906982, 0.37042114, -0.19982159, 0.35579586
794, 37254419, -0.353671133518219, -0.8062145709991455, 5.701566696166992, 0.104923815, -0.22899352, 0.30982018
795, 37271086, -0.34925949573516846, -0.8184829950332642, 5.571090221405029, -0.10266686, -0.067672156, 0.34933186
796, 37287753, -0.349438339471817, -0.8310487866401672, 5.413769721984863, -0.3329233, -0.034385283, 0.32817554
797, 37304420, -0.3509165942668915, -0.8386125564575195, 5.309987545013428, -0.09666718, 0.08462631, 0.33807945
798, 37321087, -0.3572920262813568, -0.857966423034668, 5.320367813110352, 0.009516463, 0.22966532, 0.2923355
799, 37337754, -0.3597886264324188, -0.8723705410957336, 5.400262355804443, 0.07194168, 0.108186714, 0.31612968
800, 37354421, -0.364342600107193, -0.88226717710495, 5.425741195678711, -0.06644627, 0.006183535, 0.36244583
801, 37371088, -0.3649170398712158, -0.8901113271713257, 5.384501934051514, 0.14053556, -0.14981467, 0.3168316
802, 37387755, -0.3678753674030304, -0.887708306312561, 5.358848571777344, 0.52535987, -0.22887579, 0.3108778
803, 37404422, -0.3730176091194153, -0.8937968611717224, 5.3303704261779785, 0.30780652, -0.2035196, 0.3835907
804, 37421089, -0.3799990117549896, -0.8918283581733704, 5.256658554077148, 0.23980585, -0.14243054, 0.3281126
805, 37437756, -0.3787540793418884, -0.8920254111289978, 5.191364288330078, 0.6407046, -0.42261454, 0.32105923
806, 37454423, -0.3836054801940918, -0.8827396631240845, 5.124813079833984, 0.013965515, -0.16704509, 0.3565712
807, 37471090, -0.39601024985313416, -0.872767448425293, 5.111171722412109, -0.68824357, 0.36262536, 0.3053236
808, 37487757, -0.40124714374542236, -0.8637034296989441, 5.159292221069336, -0.21725102, 0.34931695, 0.3349743
809, 37504424, -0.40717339515686035, -0.8666393160820007, 5.246758937835693, -0.08244179, 0.079086415, 0.31761932
810, 37521091, -0.4120106101036072, -0.8659617304801941, 5.264676570892334, -0.105630666, 0.13811605, 0.3168583
811, 37537758, -0.41153445839881897, -0.873645544052124, 5.2347187995910645, 0.15655272, -0.013543383, 0.35745716
812, 37554425, -0.41276684403419495, -0.8838071823120117, 5.178537368774414, 0.1265358, -0.15557344, 0.32065773
813, 37571092, -0.41138404607772827, -0.8982561230659485, 5.083737850189209, -0.18242042, -0.12839916, 0.32789516
814, 37587759, -0.4115094840526581, -0.9023576378822327, 4.9544548988342285, -0.28549057, 0.09957392, 0.30680752
815, 37604426, -0.4192645847797394, -0.907345712184906, 4.909560203552246, -0.2561401, 0.24492243, 0.36852646
816, 37621093, -0.4274274408817291, -0.9126637578010559, 4.905379295349121, -0.03611835, 0.16667667, 0.32300472
817, 37637760, -0.4330581724643707, -0.9238189458847046, 4.990013122558594, 0.16095243, -0.06449046, 0.31832695
818, 37654427, -0.4342986047267914, -0.9226253628730774, 5.0240864753723145, -0.1337138, -0.07388528, 0.33813
819, 37671094, -0.43936336040496826, -0.9199376702308655, 4.988162040710449, -0.037746448, -0.039629854, 0.27236652
820, 37687761, -0.4536232352256775, -0.9103332757949829, 4.9216718673706055, -0.16613604, 0.17627507, 0.32357883
821, 37704428, -0.471941202878952, -0.8962472081184387, 4.842342853546143, -0.19318804, 0.15910812, 0.3252983
822, 37721095, -0.49194639921188354, -0.8661047220230103, 4.710424423217773, -0.17815386, 0.16079067, 0.30467033
823, 37737762, -0.5033272504806519, -0.8335619568824768, 4.639362335205078, -0.09023282, -0.057737377, 0.3447342
824, 37754429, -0.5196142792701721, -0.8132796287536621, 4.576286315917969, -0.13688745, 0.03415814, 0.31854725
825, 37771096, -0.5379816889762878, -0.7989066243171692, 4.587006568908691, -0.038654182, -0.053380977, 0.3627634
826, 37787763, -0.5486803650856018, -0.786857545375824, 4.596175193786621, 0.0026427892, -0.093179084, 0.31623173
827, 37804430, -0.5580049753189087, -0.7712635397911072, 4.540832042694092, -0.28032175, -0.111045875, 0.3428583
828, 37821097, -0.5660666227340698, -0.762173056602478, 4.485039710998535, -0.086817056, -0.051330633, 0.2922516
829, 37837764, -0.5633496046066284, -0.7595880031585693, 4.452956199645996, -0.023101252, 0.0018926902, 0.33206272
830, 37854431, -0.5694318413734436, -0.7541874051094055, 4.435614109039307, 0.013327931, -0.11114322, 0.3377304
831, 37871098, -0.5720954537391663, -0.752261757850647, 4.386282920837402, 0.07342539, -0.020184135, 0.3494711
832, 37887765, -0.577675461769104, -0.7588726282119751, 4.373010635375977, -0.051767495, 0.028736256, 0.33984756
833, 37904432, -0.58772212266922, -0.7595189213752747, 4.350188255310059, 0.029297309, 0.025406, 0.34655952
834, 37921099, -0.585159182548523, -0.7741053104400635, 4.32171630859375, -0.2291186, -0.05660402, 0.29946995
835, 37937766, -0.5862197279930115, -0.781988263130188, 4.269909858703613, 0.06317054, 0.07229713, 0.3801489
836, 37954433, -0.5905597805976868, -0.7903095483779907, 4.244926929473877, -0.18175557, 0.029157618, 0.30301094
837, 37971100, -0.588593065738678, -0.7912577986717224, 4.206131935119629, 0.112246305, -0.01983674, 0.36466122
838, 37987767, -0.5800483226776123, -0.7965679168701172, 4.157867431640625, 0.04929081, -0.0023594412, 0.3699627
839, 38004434, -0.5883836150169373, -0.806176483631134, 4.116791725158691, -0.11036866, 0.046559498, 0.2824688
840, 38021101, -0.5921956300735474, -0.8161259889602661, 4.062961101531982, -0.025942275, 0.017527191, 0.31868553
841, 38037768, -0.5891005396842957, -0.823488175868988, 4.061121463775635, 0.058604237, -0.03268419, 0.3105421
842, 38054435, -0.5761257410049438, -0.8291369676589966, 4.032479763031006, 0.022799537, -0.09024728, 0.3428154
843, 38071102, -0.5522040724754333, -0.8341094851493835, 3.997758388519287, 0.22127049, -0.06030346, 0.31135273
844, 38087769, -0.5315322875976562, -0.8326100707054138, 3.956263303756714, 0.07216112, -0.086636774, 0.32685566
845, 38104436, -0.5235351920127869, -0.8327606916427612, 3.9098193645477295, -0.03884893, -0.0037420783, 0.32530212
846, 38121103, -0.5028718709945679, -0.8178040981292725, 3.911167860031128, 0.13652086, -0.015513109, 0.36655712
847, 38137770, -0.49782800674438477, -0.8222000002861023, 3.9200799465179443, -6.933791E-4, -0.026451072, 0.29885578
848, 38154437, -0.48255154490470886, -0.8173901438713074, 3.9107024669647217, -0.0025268698, 0.012596577, 0.35432625
849, 38171104, -0.4779917895793915, -0.8061238527297974, 3.916841506958008, 0.1382262, -0.019259825, 0.33501625
850, 38187771, -0.46674707531929016, -0.7974733114242554, 3.918633222579956, -0.21885858, -0.04461649, 0.31107998
851, 38204438, -0.4555908143520355, -0.7779003977775574, 3.9153378009796143, 0.20063238, -0.09497341, 0.31515598
852, 38221105, -0.45767876505851746, -0.7746530175209045, 3.9356040954589844, 0.08897741, -0.13057376, 0.35136795
853, 38237772, -0.4648943245410919, -0.7684187293052673, 3.866370677947998, -0.36537555, 0.033475664, 0.31506824
854, 38254439, -0.4520403742790222, -0.7508417963981628, 3.8216300010681152, -0.11388433, 0.11728979, 0.34242725
855, 38271106, -0.4419451355934143, -0.7521400451660156, 3.8997819423675537, 0.09620039, 0.044651728, 0.3332672
856, 38287773, -0.4185381531715393, -0.7509352564811707, 3.9388809204101562, -0.38521296, 0.049139623, 0.30667782
857, 38304440, -0.3743204176425934, -0.7340171337127686, 3.9240691661834717, 0.105367936, 0.05676456, 0.31902122
858, 38321107, -0.31798064708709717, -0.7156729102134705, 3.9208266735076904, 0.23011371, -0.10831987, 0.3569107
859, 38337774, -0.29668062925338745, -0.6909594535827637, 3.870264768600464, 0.13455445, -0.075276874, 0.3539667
860, 38354441, -0.3052351176738739, -0.6861052513122559, 3.8472704887390137, -0.10990339, -0.06548728, 0.32152367
861, 38371108, -0.30389106273651123, -0.6817281246185303, 3.7973880767822266, -0.03628422, 0.038730007, 0.32106876
862, 38387775, -0.30405664443969727, -0.6736901998519897, 3.764282464981079, -0.27166668, 0.012725214, 0.36258507
863, 38404442, -0.29498302936553955, -0.6565704941749573, 3.778428316116333, -0.19183047, 0.06439229, 0.286026
864, 38421109, -0.2799460291862488, -0.634211540222168, 3.814434766769409, -0.054864794, -0.0061591263, 0.34503078
865, 38437776, -0.24790416657924652, -0.6194118857383728, 3.8117856979370117, 0.027422221, 0.001139064, 0.34075546
866, 38454443, -0.21895132958889008, -0.6107967495918274, 3.8082001209259033, 0.039831776, 0.026832975, 0.28853416
867, 38471110, -0.19738450646400452, -0.5970752835273743, 3.8489179611206055, -0.09204525, 0.10850885, 0.3422165
868, 38487777, -0.15508124232292175, -0.5792813897132874, 4.008674621582031, -0.098719485, -0.00749986, 0.35633755
869, 38504444, -0.11792424321174622, -0.5669503211975098, 4.184504508972168, -0.07926715, -0.025546284, 0.3316326
870, 38521111, -0.09258139878511429, -0.5588605403900146, 4.28071928024292, -0.45433813, -0.18393163, 0.32536793
871, 38537778, -0.06210687756538391, -0.543382465839386, 4.333371162414551, -0.19295236, -0.030435903, 0.33813858
872, 38554445, -0.01778733730316162, -0.5456832647323608, 4.33199405670166, -0.5049647, -0.07981815, 0.33452225
873, 38571112, 0.017885299399495125, -0.5309787392616272, 4.35887336730957, 0.23675528, 0.16868207, 0.31356907
874, 38587779, 0.06922725588083267, -0.5296344757080078, 4.434980392456055, -0.19640471, -0.107062176, 0.332469
875, 38604446, 0.11236404627561569, -0.5352932214736938, 4.526566028594971, -0.10405727, -0.10821152, 0.34233952
876, 38621113, 0.14028827846050262, -0.5371774435043335, 4.558863162994385, 0.0833378, -0.06055723, 0.32512093
877, 38637780, 0.14891386032104492, -0.5359832048416138, 4.543057918548584, -0.2764828, -0.08897199, 0.3458109
878, 38654447, 0.1550053209066391, -0.5378538370132446, 4.532803058624268, -0.17209303, -0.028253548, 0.34050083
879, 38671114, 0.16212794184684753, -0.5449855327606201, 4.519281387329102, -0.20410399, -0.044595797, 0.33778095
880, 38687781, 0.1738562434911728, -0.5544978380203247, 4.530923366546631, -0.030306624, -0.0062446175, 0.30680847
881, 38704448, 0.18201030790805817, -0.5578250885009766, 4.529821872711182, 0.026033472, -0.022194102, 0.3293333
882, 38721115, 0.18664447963237762, -0.5594782829284668, 4.514298915863037, -0.019856079, -0.014969385, 0.30750942
883, 38737782, 0.1869412064552307, -0.5644438862800598, 4.526955604553223, -0.11645242, -0.018950239, 0.323534
884, 38754449, 0.18833650648593903, -0.5685974955558777, 4.547091007232666, 0.023856431, -0.0049220957, 0.33285236
885, 38771116, 0.19422057271003723, -0.5761381983757019, 4.56921911239624, -0.010686751, -0.02745254, 0.34114647
886, 38787783, 0.19539973139762878, -0.5821184515953064, 4.580515384674072, -0.034924675, -0.03456878, 0.3210621
887, 38804450, 0.19880780577659607, -0.5944793820381165, 4.578303813934326, -0.006934898, -0.0027945335, 0.30439186
888, 38821117, 0.19791482388973236, -0.599697470664978, 4.569880962371826, -0.013587792, -0.018640023, 0.32989407
889, 38837784, 0.1978352814912796, -0.603499710559845, 4.5536322593688965, 0.07883308, -0.020885376, 0.35021782
890, 38854451, 0.19381767511367798, -0.6086094975471497, 4.567169189453125, 0.113358505, -0.0035902555, 0.3321314
891, 38871118, 0.18074440956115723, -0.6094236373901367, 4.6505560874938965, -0.008481664, -0.014984536, 0.34668827
892, 38887785, 0.1570994108915329, -0.611158013343811, 4.73970365524292, 0.29566002, -0.056506537, 0.3500948
893, 38904452, 0.10625309497117996, -0.6119698882102966, 4.85311222076416, 0.28132325, -0.11675941, 0.32830048
894, 38921119, 0.03165896236896515, -0.6314566731452942, 4.950144290924072, -0.2827602, 0.061200593, 0.32610798
895, 38937786, -0.033802103251218796, -0.6454749703407288, 4.978960037231445, -0.0929243, -3.3429114E-4, 0.3526802
896, 38954453, -0.06894584000110626, -0.6606754660606384, 4.972707748413086, -0.21573126, 0.028575815, 0.30709743
897, 38971120, -0.08242876082658768, -0.6736176609992981, 4.948227405548096, -0.077035174, 0.004632395, 0.32301998
898, 38987787, -0.09065648913383484, -0.6819428205490112, 4.91170597076416, -0.14441535, 0.0066533107, 0.3409977
899, 39004454, -0.09582170099020004, -0.6889520287513733, 4.868668079376221, -0.012878139, 0.004935414, 0.3405981
900, 39021121, -0.10240890830755234, -0.6884809732437134, 4.863499641418457, -0.013841829, 0.008999118, 0.32268524
901, 39037788, -0.10771256685256958, -0.6817986369132996, 4.865981578826904, -0.016117094, 0.013234599, 0.31851864
902, 39054455, -0.11013610661029816, -0.6737852096557617, 4.8759942054748535, 0.017754653, -0.004699529, 0.339983
903, 39071122, -0.11436533182859421, -0.6710553169250488, 4.892292022705078, 0.010965929, -0.015006703, 0.35452557
904, 39087789, -0.1170128658413887, -0.6729187965393066, 4.898986339569092, -0.069280505, 0.014793656, 0.32180214
905, 39104456, -0.11700692027807236, -0.6765990853309631, 4.898261070251465, -0.010254247, 0.0023906173, 0.32761288
906, 39121123, -0.11751680821180344, -0.681067943572998, 4.895287036895752, -0.0011772218, -0.01626727, 0.33338833
907, 39137790, -0.11784259974956512, -0.6858171820640564, 4.889552116394043, 0.035261836, 0.004129972, 0.29244804
908, 39154457, -0.11474936455488205, -0.6942325234413147, 4.694192886352539, 0.11514151, -0.15562923, 0.3358593
909, 39171124, -0.12209037691354752, -0.6973271369934082, 4.661518573760986, -0.11955362, 0.12971635, 0.3270645
910, 39187791, -0.1270519345998764, -0.7001317143440247, 4.652304172515869, 0.065304495, -0.029400013, 0.34448433
911, 39204458, -0.13404463231563568, -0.704569399356842, 4.640364170074463, -0.06144404, 0.01917465, 0.30768394
912, 39221125, -0.13687889277935028, -0.7009562253952026, 4.64199161529541, -0.007828737, -0.013065577, 0.32289886
913, 39237792, -0.1392274647951126, -0.6971035599708557, 4.6420369148254395, -0.009321747, -0.0070895627, 0.32627392
914, 39254459, -0.14098578691482544, -0.6949743628501892, 4.6420063972473145, 6.126141E-4, -0.016271548, 0.33626747
915, 39271126, -0.14449229836463928, -0.6919332146644592, 4.640667915344238, -0.0048854626, -0.007314422, 0.3170557
916, 39287793, -0.14623181521892548, -0.690108597278595, 4.639138698577881, -0.015464397, -0.019847557, 0.33551502
917, 39304460, -0.1454845815896988, -0.6878663301467896, 4.6391215324401855, 0.010916275, 6.61828E-4, 0.3325529
918, 39321127, -0.1444971263408661, -0.6797822713851929, 4.638987064361572, -0.0044783405, -0.0063976618, 0.3364792
919, 39337794, -0.14426691830158234, -0.6743295192718506, 4.640719413757324, -0.0024091727, 0.008746607, 0.33067322
920, 39354461, -0.1448136568069458, -0.6726928949356079, 4.640069007873535, -0.009344923, 0.004943016, 0.33825874
921, 39371128, -0.1432867795228958, -0.6728180646896362, 4.64293098449707, 0.009522281, 9.011117E-4, 0.33595753
922, 39387795, -0.1422048807144165, -0.6716283559799194, 4.652046203613281, 0.021327725, -0.015486914, 0.33114433
923, 39404462, -0.15797153115272522, -0.6846598982810974, 4.735074996948242, 0.36523402, -0.018845651, 0.37106895
924, 39421129, -0.17618779838085175, -0.698603093624115, 4.793609619140625, -0.33219945, 0.0036099814, 0.31211376
925, 39437796, -0.1974269598722458, -0.7205182313919067, 4.8255510330200195, 0.22485928, -0.034578778, 0.3483162
926, 39454463, -0.2073126584291458, -0.7246686220169067, 4.8438639640808105, -0.22126777, 0.029430883, 0.31298828
927, 39471130, -0.21470989286899567, -0.7338990569114685, 4.857895374298096, -0.04828499, 6.95148E-4, 0.32836628
928, 39487797, -0.22145603597164154, -0.7360770106315613, 4.855947494506836, -0.029316451, 0.020441836, 0.32141685
929, 39504464, -0.23025961220264435, -0.7335110306739807, 4.8538713455200195, -5.348735E-4, -0.012484077, 0.32225227
930, 39521131, -0.23696373403072357, -0.7251273393630981, 4.854044437408447, -0.005539147, 0.008687448, 0.3238144
931, 39537798, -0.23911884427070618, -0.7171914577484131, 4.853593349456787, -0.0093282955, -0.0033624975, 0.33647156
932, 39554465, -0.23732629418373108, -0.7118304967880249, 4.8527045249938965, -0.0018256329, -0.0053453282, 0.33240128
933, 39571132, -0.2342389076948166, -0.7093283534049988, 4.850745677947998, -0.0044251443, 0.0036105409, 0.35272026
934, 39587799, -0.2307404726743698, -0.7068405151367188, 4.849681377410889, -0.009495731, -0.01415401, 0.3513527
935, 39604466, -0.22860980033874512, -0.7074605226516724, 4.848855972290039, 5.864142E-4, -0.013218413, 0.3404255
936, 39621133, -0.22677583992481232, -0.7092486619949341, 4.848308563232422, 0.005528097, -0.0031772123, 0.32649136
937, 39637800, -0.22594866156578064, -0.7129810452461243, 4.849066257476807, -0.010791935, -0.002082746, 0.33958626
938, 39654467, -0.22464855015277863, -0.7184150218963623, 4.849159240722656, -0.0070573934, -0.011033228, 0.324152
939, 39671134, -0.22299222648143768, -0.7213339805603027, 4.849352836608887, 0.0012483618, -0.008721453, 0.3579893
940, 39687801, -0.2232513725757599, -0.7239155173301697, 4.848013877868652, 0.0097821355, -7.6434444E-5, 0.3571663
941, 39704468, -0.22347316145896912, -0.7251172661781311, 4.84688138961792, 4.9640832E-5, -0.005860026, 0.34048462
942, 39721135, -0.2228650003671646, -0.725740373134613, 4.845101356506348, 0.0039857947, -0.020451402, 0.32715416
943, 39737802, -0.2396685630083084, -0.739343523979187, 4.8049211502075195, 0.12172864, -0.066425055, 0.34192944
944, 39754469, -0.23944079875946045, -0.7363322377204895, 4.805112838745117, -0.13679464, 0.034937736, 0.32451534
945, 39771136, -0.236189067363739, -0.7359575033187866, 4.805233478546143, -0.017961914, 0.0035345936, 0.31261444
946, 39787803, -0.23487035930156708, -0.7365506291389465, 4.802091598510742, -1.3241745E-4, 0.0045891237, 0.31934357
947, 39804470, -0.23721164464950562, -0.7401655912399292, 4.7684807777404785, 0.068678595, -0.065723985, 0.33933544
948, 39821137, -0.2635420560836792, -0.7420830130577087, 4.667286396026611, 0.30598024, -0.011079403, 0.3564806
949, 39837804, -0.26913660764694214, -0.7226720452308655, 4.52802038192749, 0.29213116, -0.04402912, 0.3395319
950, 39854471, -0.2854698896408081, -0.734362006187439, 4.313175678253174, -0.34693798, 0.016125817, 0.31128502
951, 39871138, -0.29934507608413696, -0.7297942042350769, 4.271769046783447, -0.3360789, 0.12859233, 0.3421116
952, 39887805, -0.30549418926239014, -0.7240034341812134, 4.277469158172607, 1.9782993E-4, 9.4179454E-4, 0.31052208
953, 39904472, -0.3120823800563812, -0.7168246507644653, 4.292461395263672, 0.008267122, -0.010503979, 0.31875324
954, 39921139, -0.32350507378578186, -0.7171779870986938, 4.32485818862915, 0.103386685, 0.02131635, 0.33938694
955, 39937806, -0.3342554569244385, -0.7229418158531189, 4.348837852478027, -0.13895193, -0.042803068, 0.30513096
956, 39954473, -0.3357622027397156, -0.7275406718254089, 4.347894668579102, -0.015188289, 9.097466E-4, 0.32001972
957, 39971140, -0.33598873019218445, -0.7338985204696655, 4.359927177429199, 0.103312574, 0.018825408, 0.35456085
958, 39987807, -0.342049241065979, -0.7456809878349304, 4.405242919921875, -0.05005319, -0.0063631674, 0.32584095
959, 40004474, -0.3433787226676941, -0.7483940124511719, 4.432368755340576, -0.027527366, -0.014167568, 0.31669807
960, 40021141, -0.3507578670978546, -0.7611257433891296, 4.502713680267334, 0.04795346, 0.019253097, 0.33292103
961, 40037808, -0.3541575074195862, -0.7643328309059143, 4.510354518890381, -0.11567678, -0.035356194, 0.30063725
962, 40054475, -0.35594281554222107, -0.7644842863082886, 4.511194229125977, -0.0133602, 0.011514984, 0.30037308
963, 40071142, -0.36103400588035583, -0.764256477355957, 4.509402275085449, -0.0146342525, -0.0043836497, 0.3482256
964, 40087809, -0.3696623742580414, -0.7652224898338318, 4.5065436363220215, -0.010417716, 0.0017912975, 0.36190128
965, 40104476, -0.3736549913883209, -0.7640290260314941, 4.504436492919922, -0.0020407431, -0.0052713086, 0.33069706
966, 40121143, -0.3745482861995697, -0.7627063393592834, 4.5027289390563965, -0.0029890807, -0.017839048, 0.3557968
967, 40137810, -0.3760986030101776, -0.7592518329620361, 4.502852439880371, -0.008325383, 0.005720938, 0.3214674
968, 40154477, -0.37710490822792053, -0.75633305311203, 4.50360107421875, -0.013315135, -0.01569875, 0.33129787
969, 40171144, -0.377314954996109, -0.7530972957611084, 4.504350662231445, -0.004142177, -0.004573721, 0.34488678
970, 40187811, -0.3775235414505005, -0.7504060864448547, 4.505113124847412, 0.0035103548, -0.0033065423, 0.34095383
971, 40204478, -0.3792012333869934, -0.7450652122497559, 4.5052971839904785, -0.0015893307, -0.010604369, 0.31289005
972, 40221145, -0.3768996000289917, -0.7372307777404785, 4.507049560546875, -0.009571562, 0.004619566, 0.36215496
973, 40237812, -0.3707043528556824, -0.7265860438346863, 4.510510444641113, -0.004595224, -0.017554533, 0.34035015
974, 40254479, -0.3583078384399414, -0.7133629322052002, 4.515005588531494, -0.004980546, -0.01149706, 0.3425541
975, 40271146, -0.34345418214797974, -0.7025323510169983, 4.523183822631836, 9.619858E-4, 0.0020722235, 0.33629513
976, 40287813, -0.32605302333831787, -0.6911509037017822, 4.5366530418396, 0.0024347964, -7.2376465E-4, 0.33910847
977, 40304480, -0.3087427616119385, -0.672848641872406, 4.575439929962158, -0.009888684, -0.005267879, 0.33207703
978, 40321147, -0.3005097806453705, -0.6568065881729126, 4.632587432861328, -0.036289968, 0.0076660877, 0.32739925
979, 40337814, -0.313065767288208, -0.7157814502716064, 4.6816277503967285, -0.05102618, 0.007956406, 0.3424654
980, 40354481, -0.29816168546676636, -0.7137789726257324, 4.688088893890381, -0.039815396, -0.04724517, 0.32016373
981, 40371148, -0.2917756140232086, -0.7559550404548645, 4.69356632232666, 0.063905194, 0.018653179, 0.35766602
982, 40387815, -0.2866724729537964, -0.755560576915741, 4.695015907287598, -0.024765965, -0.008490115, 0.33446026
983, 40404482, -0.287166029214859, -0.7566953897476196, 4.696195602416992, 0.008693621, -3.516662E-4, 0.34236717
984, 40421149, -0.28726524114608765, -0.758296012878418, 4.6971435546875, -0.007926244, -0.009506996, 0.33207417
985, 40437816, -0.2862947881221771, -0.7598588466644287, 4.697081089019775, -0.0130225215, 6.615058E-4, 0.3304119
986, 40454483, -0.28379392623901367, -0.7594640254974365, 4.697606563568115, -0.0036119134, -0.012494775, 0.31902504
987, 40471150, -0.2835361063480377, -0.7608522176742554, 4.696583271026611, 0.011234984, -0.0062160683, 0.33447075
988, 40487817, -0.28281068801879883, -0.7626251578330994, 4.695311546325684, 8.7288796E-4, -0.0068035177, 0.34050465
989, 40504484, -0.28144827485084534, -0.7626085877418518, 4.696294784545898, 0.008970469, 0.0053564007, 0.3386202
990, 40521151, -0.28225186467170715, -0.7629286646842957, 4.697620391845703, 0.0046950434, -0.0063755466, 0.3348484
991, 40537818, -0.2822827696800232, -0.7626592516899109, 4.697905540466309, 0.0017731353, -0.0016442294, 0.3353443
992, 40554485, -0.2819991707801819, -0.7627395391464233, 4.697072505950928, 4.7381953E-4, -0.010508957, 0.3438778
993, 40571152, -0.28145214915275574, -0.7642059922218323, 4.696637153625488, -0.004236255, -0.004976111, 0.33574772
994, 40587819, -0.2816476821899414, -0.7656009197235107, 4.696235179901123, -0.0080915885, -0.005392236, 0.34623432
995, 40604486, -0.28131890296936035, -0.7658820748329163, 4.697195529937744, 0.0049006054, -0.0027984749, 0.33070755
996, 40621153, -0.2821977436542511, -0.7659915685653687, 4.6970438957214355, -0.00568318, -0.007489104, 0.3098507
997, 40637820, -0.2823563814163208, -0.7669953107833862, 4.6978440284729, -0.010890113, 0.0033013807, 0.33527088
998, 40654487, -0.28290170431137085, -0.7690162062644958, 4.698014259338379, -0.0025598381, -0.0033516467, 0.3209877
999, 40671154, -0.2830292582511902, -0.7693342566490173, 4.698932647705078, -0.00927664, -0.0037295634, 0.33228207
1000, 40687821, -0.2826189696788788, -0.7693064212799072, 4.699065685272217, -0.0019752819, -0.0027291437, 0.33968258
1001, 40704488, -0.28235772252082825, -0.7698642611503601, 4.699402809143066, -0.014047737, -0.005907215, 0.33401203
1002, 40721155, -0.2818686068058014, -0.7696251273155212, 4.699859142303467, -0.0051815403, -0.0077212863, 0.34225082
1003, 40737822, -0.28190410137176514, -0.7679517269134521, 4.6998372077941895, 0.0038417617, -0.016424503, 0.34519482
1004, 40754489, -0.28098970651626587, -0.7695339918136597, 4.699629306793213, -0.004564735, -0.0046951743, 0.3557825
1005, 40771156, -0.2803218960762024, -0.7697824835777283, 4.699946880340576, -0.0029725197, -0.0054829144, 0.34216118
1006, 40787823, -0.27932676672935486, -0.769864559173584, 4.701357364654541, -0.024789944, -0.015630985, 0.33631802
1007, 40804490, -0.2775387465953827, -0.7696310877799988, 4.700904846191406, -0.010376925, -0.007846421, 0.34108543
1008, 40821157, -0.27695751190185547, -0.7696374654769897, 4.70190954208374, -0.0021848322, -0.010400938, 0.32257652
1009, 40837824, -0.27714353799819946, -0.7698148488998413, 4.702016353607178, -0.005665334, -0.0088062305, 0.3484192
1010, 40854491, -0.2776130437850952, -0.771385133266449, 4.7027974128723145, -0.0045939875, -8.601896E-4, 0.33043003
1011, 40871158, -0.2793372869491577, -0.7707747220993042, 4.702386856079102, -0.0044075497, -0.010487339, 0.34561825
1012, 40887825, -0.27868881821632385, -0.7716248035430908, 4.701959609985352, -0.0026922275, -0.0059268773, 0.3354349
1013, 40904492, -0.2786198854446411, -0.7720248699188232, 4.702442646026611, -0.0133234365, -0.010018261, 0.33812618
1014, 40921159, -0.2779233753681183, -0.7722684144973755, 4.701648712158203, -0.012122285, 9.371759E-4, 0.3513794
1015, 40937826, -0.27791035175323486, -0.7719774842262268, 4.701643466949463, -0.010544391, 9.838708E-4, 0.31990623
1016, 40954493, -0.2793295681476593, -0.7726330757141113, 4.7019877433776855, -0.016695524, -0.008792945, 0.33606625
1017, 40971160, -0.27824071049690247, -0.773552656173706, 4.702111721038818, -0.017053723, -0.014112769, 0.34520054
1018, 40987827, -0.27744778990745544, -0.7739501595497131, 4.701822757720947, -0.018531794, -0.013745984, 0.33719063
1019, 41004494, -0.27812129259109497, -0.7726296782493591, 4.701662063598633, -0.006228049, -0.0011597231, 0.334795
1020, 41021161, -0.27784645557403564, -0.7721542716026306, 4.701634883880615, -0.0030919805, -0.0019187225, 0.340106
1021, 41037828, -0.2778627276420593, -0.7725963592529297, 4.7005157470703125, -0.0016155167, 0.0033077386, 0.3226328
1022, 41054495, -0.2766576409339905, -0.7711882591247559, 4.700320720672607, 0.0034931721, -0.012824564, 0.32803822
1023, 41071162, -0.2773027718067169, -0.7704885005950928, 4.700501918792725, -0.010476122, -0.013331535, 0.32466125
1024, 41087829, -0.2771727740764618, -0.7704244256019592, 4.701234817504883, 0.0010474096, -0.006542645, 0.32831097
1025, 41104496, -0.2782471776008606, -0.7700413465499878, 4.701010704040527, -0.015969047, -0.003265706, 0.32588577
1026, 41121163, -0.2790747880935669, -0.7709848284721375, 4.701023578643799, -0.009623867, -0.0039161057, 0.31567955
1027, 41137830, -0.27852368354797363, -0.7716856002807617, 4.700830459594727, -0.0065273955, -0.009380146, 0.32625675
1028, 41154497, -0.2785052955150604, -0.7714934945106506, 4.699456214904785, -0.005539175, -0.0020396588, 0.30515766
1029, 41171164, -0.27828121185302734, -0.7699122428894043, 4.6995673179626465, 0.0042943265, -0.012329051, 0.32139397
1030, 41187831, -0.2789151966571808, -0.7701820731163025, 4.698323726654053, -0.007850341, -0.013287049, 0.33857632
1031, 41204498, -0.27833837270736694, -0.7700854539871216, 4.6983537673950195, -0.0040529184, -0.006778582, 0.32343388
1032, 41221165, -0.278280109167099, -0.7694900631904602, 4.698126316070557, 0.0011392316, -0.0032699404, 0.3251915
1033, 41237832, -0.2777397334575653, -0.7689058184623718, 4.698110580444336, 0.00819717, -0.003617234, 0.3394432
1034, 41254499, -0.27728697657585144, -0.7681103348731995, 4.6969685554504395, -0.009762487, -0.005356795, 0.3545084
1035, 41271166, -0.27706432342529297, -0.7667728662490845, 4.696857929229736, -0.013103287, 0.0041160365, 0.33372688
1036, 41287833, -0.2784256041049957, -0.765903651714325, 4.697643280029297, -0.0019648676, -0.0054955864, 0.32731056
1037, 41304500, -0.2779960334300995, -0.7654023766517639, 4.697909832000732, -0.013250641, -0.008210645, 0.3129177
1038, 41321167, -0.27777618169784546, -0.7653536200523376, 4.698089122772217, -0.008784926, -0.0035134247, 0.32539272
1039, 41337834, -0.277459055185318, -0.7658089995384216, 4.696787357330322, -0.011475235, -0.0038998558, 0.33713818
1040, 41354501, -0.27756163477897644, -0.7659449577331543, 4.695143222808838, 0.0029670927, 0.0054308777, 0.34170628
1041, 41371168, -0.27743467688560486, -0.7665383219718933, 4.6957173347473145, -0.018863808, -0.0060629547, 0.32807827
1042, 41387835, -0.27738162875175476, -0.7667730450630188, 4.697343349456787, -0.00937947, -0.0025336696, 0.339015
1043, 41404502, -0.2781205177307129, -0.7663695812225342, 4.697982311248779, -0.0012939514, -0.0017222652, 0.30845356
1044, 41421169, -0.27793851494789124, -0.7670831084251404, 4.697941780090332, 0.0013160512, 0.0033913255, 0.32892132
1045, 41437836, -0.27769604325294495, -0.7679913640022278, 4.697643280029297, -0.0046687876, -0.016183792, 0.31558037
1046, 41454503, -0.2783219516277313, -0.7685171365737915, 4.698101043701172, -0.011722053, -0.0015200924, 0.3229084
1047, 41471170, -0.27857616543769836, -0.7687363624572754, 4.698252201080322, -0.00290307, -0.0074518537, 0.34432697
1048, 41487837, -0.27761805057525635, -0.7684608101844788, 4.698897838592529, -0.004995277, -6.8606256E-4, 0.32649708
1049, 41504504, -0.27732914686203003, -0.7685489058494568, 4.699660301208496, -0.0127390195, -0.0021374107, 0.34083557
