sep=,
DeviceTag:,Movella DOT,,,,,,,,,,,,,,,,,
FirmwareVersion:,3.0.0,,,,,,,,,,,,,,,,,
AppVersion:,2023.6.1,,,,,,,,,,,,,,,,,
SyncStatus:,Un-synced,,,,,,,,,,,,,,,,,
OutputRate:,60Hz,,,,,,,,,,,,,,,,,
FilterProfile:,Dynamic,,,,,,,,,,,,,,,,,
Measurement Mode:,Sensor fusion Mode - Complete (Euler),,,,,,,,,,,,,,,,,
StartTime:,2024-10-26 11:38:37.108 +0700,,,,,,,,,,,,,,,,,
 2024,,,,,,,,,,,,,,,,,,,

PacketCounter,SampleTimeFine,Euler_X,Euler_Y,Euler_Z,FreeAcc_X,FreeAcc_Y,FreeAcc_Z
1, 118738426, -0.687246561050415, -0.5580700635910034, -10.522218704223633, 0.012903221, 0.0023057037, 0.32972622
2, 118755093, -0.6879900693893433, -0.592590868473053, -10.413382530212402, -0.003938169, -0.0011750634, 0.31788826
3, 118771760, -0.693361759185791, -0.614798367023468, -10.470766067504883, -0.011277469, 0.011137187, 0.35564518
4, 118788427, -0.6912873983383179, -0.6256087422370911, -10.533380508422852, 0.008857926, -0.0049051805, 0.3204975
5, 118805094, -0.6938980221748352, -0.6483025550842285, -10.588963508605957, 0.002016513, 0.005287031, 0.33610153
6, 118821761, -0.6951007843017578, -0.6719459295272827, -10.575296401977539, -0.028300595, 0.009011096, 0.33446884
7, 118838428, -0.696829617023468, -0.6883220672607422, -10.495379447937012, -0.013201144, 0.0069445614, 0.32295895
8, 118855095, -0.6986474394798279, -0.702568769454956, -10.566797256469727, -0.018381465, 0.018392298, 0.34440708
9, 118871762, -0.6999062299728394, -0.7167224287986755, -10.503013610839844, -0.029769942, 0.0037513925, 0.33922672
10, 118888429, -0.7014275193214417, -0.7301947474479675, -10.470621109008789, -0.028480817, 0.0066804113, 0.34158993
11, 118905096, -0.7033593654632568, -0.7445077300071716, -10.465498924255371, -0.018348916, 0.0089627085, 0.36536217
12, 118921763, -0.7059139609336853, -0.7597522735595703, -10.425956726074219, -0.029857527, 0.0067215655, 0.31763458
13, 118938430, -0.7092171311378479, -0.7742458581924438, -10.45361614227295, -0.021487404, 0.021437805, 0.36123085
14, 118955097, -0.7112187743186951, -0.7893685698509216, -10.500004768371582, -0.026939927, 0.0050212746, 0.34167576
15, 118971764, -0.7140784859657288, -0.8057487607002258, -10.479646682739258, -0.024808353, 0.0149424765, 0.3403406
16, 118988431, -0.717119038105011, -0.8220996260643005, -10.45471477508545, -0.045894828, 0.028703352, 0.37469482
17, 119005098, -0.7198349833488464, -0.8375293612480164, -10.507375717163086, -0.038789153, 0.02466181, 0.3173666
18, 119021765, -0.7215787172317505, -0.8543649911880493, -10.508302688598633, -0.03729196, 0.014692079, 0.32637978
19, 119038432, -0.7239354252815247, -0.8707119822502136, -10.529766082763672, -0.03530084, 0.022432337, 0.33461666
20, 119055099, -0.72669917345047, -0.8864062428474426, -10.540703773498535, -0.05998466, 0.02200448, 0.3251152
21, 119071766, -0.7298240065574646, -0.9023893475532532, -10.621288299560547, -0.04343136, 0.006154883, 0.3444214
22, 119088433, -0.7331807017326355, -0.9195246696472168, -10.63347053527832, -0.05497934, 0.019424463, 0.35871124
23, 119105100, -0.7363219261169434, -0.9362034797668457, -10.645336151123047, -0.055301126, 0.034439903, 0.33872986
24, 119121767, -0.7384044528007507, -0.952024519443512, -10.667024612426758, -0.059028514, 0.033221688, 0.37115002
25, 119138434, -0.7406272888183594, -0.9685843586921692, -10.681426048278809, -0.049227834, 0.02624569, 0.3341732
26, 119155101, -0.7423666715621948, -0.9842630624771118, -10.690271377563477, -0.06371343, 0.0068929787, 0.33713436
27, 119171768, -0.7451456785202026, -1.0002593994140625, -10.673968315124512, -0.07868659, 0.032723684, 0.3535223
28, 119188435, -0.7477467060089111, -1.015458583831787, -10.680809020996094, -0.06829795, 0.03834938, 0.33797264
29, 119205102, -0.7507088780403137, -1.0314936637878418, -10.622085571289062, -0.07615589, 0.022331288, 0.3450842
30, 119221769, -0.7539277076721191, -1.0470412969589233, -10.623821258544922, -0.0770879, 0.03400765, 0.35930824
31, 119238436, -0.7579299211502075, -1.0631883144378662, -10.643041610717773, -0.062585376, 0.04557089, 0.31287766
32, 119255103, -0.7610454559326172, -1.078210473060608, -10.614314079284668, -0.09293462, 0.02551246, 0.32644844
33, 119271770, -0.7638423442840576, -1.0953395366668701, -10.613763809204102, -0.07269995, 0.03798194, 0.33572578
34, 119288437, -0.7662610411643982, -1.110559105873108, -10.606826782226562, -0.08130688, 0.028545497, 0.33327866
35, 119305104, -0.7694219946861267, -1.1264543533325195, -10.613541603088379, -0.07709406, 0.03869534, 0.3442173
36, 119321771, -0.7718737125396729, -1.1414213180541992, -10.611881256103516, -0.089605235, 0.038688205, 0.3470106
37, 119338438, -0.7751756310462952, -1.1571400165557861, -10.597064018249512, -0.10095283, 0.029142387, 0.35346508
38, 119355105, -0.7785610556602478, -1.172113060951233, -10.612112998962402, -0.10045365, 0.044554923, 0.35130978
39, 119371772, -0.7808632254600525, -1.1883195638656616, -10.615006446838379, -0.095499694, 0.03996829, 0.3207636
40, 119388439, -0.782725989818573, -1.2026195526123047, -10.6083345413208, -0.10628749, 0.04676496, 0.3511324
41, 119405106, -0.7869114875793457, -1.2198503017425537, -10.606451034545898, -0.099439174, 0.04542454, 0.3512907
42, 119421773, -0.7909131646156311, -1.2360551357269287, -10.596089363098145, -0.10712882, 0.05243337, 0.3528471
43, 119438440, -0.7942807674407959, -1.2510325908660889, -10.643257141113281, -0.10465479, 0.04083065, 0.32387066
44, 119455107, -0.7972627282142639, -1.2653577327728271, -10.64534854888916, -0.11097995, 0.04304811, 0.348279
45, 119471774, -0.8004852533340454, -1.2810662984848022, -10.608105659484863, -0.10444759, 0.046322268, 0.33995152
46, 119488441, -0.8043994903564453, -1.2989108562469482, -10.60275650024414, -0.12088764, 0.050373778, 0.32434082
47, 119505108, -0.8066880702972412, -1.3145887851715088, -10.602180480957031, -0.124891385, 0.05462647, 0.33389378
48, 119521775, -0.810309886932373, -1.3294837474822998, -10.643387794494629, -0.13070168, 0.039330468, 0.3614607
49, 119538442, -0.8144721984863281, -1.3461978435516357, -10.654407501220703, -0.13045134, 0.049532063, 0.33396912
50, 119555109, -0.8162339329719543, -1.3606692552566528, -10.6258544921875, -0.129467, 0.0480119, 0.35873604
51, 119571776, -0.8195225596427917, -1.3750756978988647, -10.626435279846191, -0.14017989, 0.044106334, 0.32288456
52, 119588443, -0.8221225142478943, -1.3902753591537476, -10.652898788452148, -0.14160578, 0.052962802, 0.3387804
53, 119605110, -0.8258779048919678, -1.4048833847045898, -10.672370910644531, -0.14046654, 0.04923074, 0.37152576
54, 119621777, -0.8286612629890442, -1.4208886623382568, -10.672242164611816, -0.13300328, 0.059086293, 0.34656334
55, 119638444, -0.8315590023994446, -1.4369184970855713, -10.670308113098145, -0.14404483, 0.062268496, 0.3467226
56, 119655111, -0.8349964618682861, -1.4523069858551025, -10.664556503295898, -0.13547051, 0.053523734, 0.33476925
57, 119671778, -0.8377900719642639, -1.4680644273757935, -10.68781566619873, -0.12799162, 0.07002848, 0.3418808
58, 119688445, -0.8401159048080444, -1.4825506210327148, -10.699705123901367, -0.15268093, 0.061954048, 0.3453989
59, 119705112, -0.8423445820808411, -1.4979788064956665, -10.703229904174805, -0.14467688, 0.05981148, 0.32245636
60, 119721779, -0.8447772860527039, -1.5112649202346802, -10.702868461608887, -0.14906588, 0.062549695, 0.352643
61, 119738446, -0.8470709919929504, -1.526207685470581, -10.712968826293945, -0.16107835, 0.06776794, 0.3408718
62, 119755113, -0.8494278788566589, -1.539215087890625, -10.7217378616333, -0.15164113, 0.0649586, 0.3613882
63, 119771780, -0.8530892133712769, -1.5538208484649658, -10.758875846862793, -0.16237503, 0.058151625, 0.35911846
64, 119788447, -0.8566070199012756, -1.5685408115386963, -10.80515193939209, -0.15113261, 0.05867169, 0.34864807
65, 119805114, -0.8587994575500488, -1.5835719108581543, -10.78846549987793, -0.15833196, 0.08141832, 0.33118153
66, 119821781, -0.8625783324241638, -1.5976229906082153, -10.794975280761719, -0.15709895, 0.083953775, 0.3523941
67, 119838448, -0.865892231464386, -1.61216402053833, -10.811402320861816, -0.16463289, 0.059723683, 0.33408546
68, 119855115, -0.8684086799621582, -1.624207854270935, -10.821951866149902, -0.16673373, 0.079774246, 0.3618164
69, 119871782, -0.8711228370666504, -1.6390825510025024, -10.819117546081543, -0.1795739, 0.066789985, 0.32799625
70, 119888449, -0.8736522197723389, -1.6530390977859497, -10.835366249084473, -0.17492804, 0.07151072, 0.3349495
71, 119905116, -0.8773105144500732, -1.6669514179229736, -10.83177661895752, -0.1746279, 0.07721396, 0.33870602
72, 119921783, -0.8797988295555115, -1.6808218955993652, -10.838082313537598, -0.18794657, 0.065849274, 0.3429346
73, 119938450, -0.8823602199554443, -1.6943185329437256, -10.841806411743164, -0.1753553, 0.06229475, 0.35473633
74, 119955117, -0.8848778605461121, -1.7073853015899658, -10.860798835754395, -0.1798502, 0.06878649, 0.34660053
75, 119971784, -0.8871829509735107, -1.7228084802627563, -10.862456321716309, -0.17651246, 0.08268218, 0.33582497
76, 119988451, -0.8897294402122498, -1.7366312742233276, -10.919394493103027, -0.18027535, 0.083829485, 0.361866
77, 120005118, -0.8934505581855774, -1.749017596244812, -10.904369354248047, -0.18470424, 0.07892162, 0.35827827
78, 120021785, -0.8963607549667358, -1.7614306211471558, -10.933979988098145, -0.18846914, 0.07993937, 0.34038067
79, 120038452, -0.8991751074790955, -1.7737089395523071, -10.951516151428223, -0.19756997, 0.08433722, 0.35226154
80, 120055119, -0.901960015296936, -1.787196159362793, -10.948257446289062, -0.1964749, 0.0824545, 0.33914948
81, 120071786, -0.9040827751159668, -1.80092191696167, -10.95130729675293, -0.21780547, 0.082144745, 0.336092
82, 120088453, -0.9071894884109497, -1.813332200050354, -10.94914722442627, -0.19616875, 0.08717707, 0.33335972
83, 120105120, -0.9096960425376892, -1.8258639574050903, -10.961579322814941, -0.2033401, 0.090072416, 0.34797096
84, 120121787, -0.9115805625915527, -1.8379228115081787, -10.968491554260254, -0.212876, 0.083561726, 0.3489828
85, 120138454, -0.9137937426567078, -1.8489042520523071, -10.972766876220703, -0.20982444, 0.089816265, 0.33865833
86, 120155121, -0.9167903661727905, -1.8605231046676636, -10.984199523925781, -0.20386754, 0.10330291, 0.34858513
87, 120171788, -0.9190430641174316, -1.8722317218780518, -10.989123344421387, -0.1972112, 0.09148698, 0.3514681
88, 120188455, -0.9222511053085327, -1.884200096130371, -10.989500999450684, -0.22499578, 0.1006908, 0.3339138
89, 120205122, -0.9247320890426636, -1.8963038921356201, -10.999433517456055, -0.21685158, 0.08918419, 0.3482647
90, 120221789, -0.9280819296836853, -1.9073431491851807, -11.004088401794434, -0.21809055, 0.09609073, 0.35343552
91, 120238456, -0.929963231086731, -1.9188176393508911, -11.01485538482666, -0.22482096, 0.095603555, 0.3583536
92, 120255123, -0.9322415590286255, -1.9302483797073364, -10.99959945678711, -0.22380304, 0.10157245, 0.32989883
93, 120271790, -0.9340721368789673, -1.9413679838180542, -11.00390911102295, -0.2208582, 0.0936204, 0.3490219
94, 120288457, -0.9360931515693665, -1.952848196029663, -11.007969856262207, -0.22665815, 0.08523793, 0.3247738
95, 120305124, -0.9381318092346191, -1.9644711017608643, -11.00114631652832, -0.22194824, 0.07740475, 0.33969116
96, 120321791, -0.9392388463020325, -1.9759007692337036, -11.007001876831055, -0.24746245, 0.10401731, 0.33573246
97, 120338458, -0.9410073161125183, -1.9874093532562256, -11.02420425415039, -0.22420989, 0.100391015, 0.33861065
98, 120355125, -0.9428920149803162, -1.998962640762329, -11.02106761932373, -0.23583864, 0.099674635, 0.33533096
99, 120371792, -0.9437010884284973, -2.009781837463379, -11.027591705322266, -0.23597595, 0.09297794, 0.34638977
100, 120388459, -0.9447984099388123, -2.020582675933838, -11.05262565612793, -0.2246066, 0.09701021, 0.33848953
101, 120405126, -0.9467272162437439, -2.0295655727386475, -11.06501293182373, -0.23538381, 0.09383667, 0.34590626
102, 120421793, -0.9486144781112671, -2.0378966331481934, -11.067407608032227, -0.24156596, 0.09554326, 0.357049
103, 120438460, -0.9498091340065002, -2.0465331077575684, -11.074668884277344, -0.2402481, 0.10415612, 0.35068035
104, 120455127, -0.9512040615081787, -2.0568959712982178, -11.086252212524414, -0.24142584, 0.095624216, 0.3532467
105, 120471794, -0.9526853561401367, -2.0647356510162354, -11.100851058959961, -0.24129221, 0.097717054, 0.333601
106, 120488461, -0.9547528624534607, -2.073052167892456, -11.11671257019043, -0.2490348, 0.10884954, 0.33472633
107, 120505128, -0.956089973449707, -2.081265687942505, -11.126277923583984, -0.24245612, 0.09601724, 0.32954884
108, 120521795, -0.9567868113517761, -2.0875093936920166, -11.134134292602539, -0.25525877, 0.10387285, 0.3339672
109, 120538462, -0.9588497281074524, -2.096785068511963, -11.136412620544434, -0.2403681, 0.09231053, 0.31793594
110, 120555129, -0.9614125490188599, -2.1070098876953125, -11.14494514465332, -0.26010036, 0.0982499, 0.33872032
111, 120571796, -0.9629942774772644, -2.1156957149505615, -11.157343864440918, -0.24869038, 0.10912268, 0.31543255
112, 120588463, -0.9647169709205627, -2.1228439807891846, -11.158090591430664, -0.26327613, 0.096497476, 0.32470894
113, 120605130, -0.9650616645812988, -2.1310458183288574, -11.170480728149414, -0.25258026, 0.10886062, 0.34463406
114, 120621797, -0.9665371179580688, -2.1383466720581055, -11.169221878051758, -0.2604283, 0.10690492, 0.35198307
115, 120638464, -0.967368483543396, -2.145857095718384, -11.178057670593262, -0.2548872, 0.11909487, 0.33813953
116, 120655131, -0.9682880640029907, -2.150982618331909, -11.174775123596191, -0.26121446, 0.11665587, 0.33588886
117, 120671798, -0.9695924520492554, -2.1584362983703613, -11.169708251953125, -0.26872894, 0.115300894, 0.34091568
118, 120688465, -0.9715667963027954, -2.1654653549194336, -11.177132606506348, -0.26881513, 0.10641618, 0.3275814
119, 120705132, -0.9734686613082886, -2.1733381748199463, -11.189374923706055, -0.26111627, 0.111494035, 0.3487978
120, 120721799, -0.6671677231788635, -0.5533257722854614, -11.470203399658203, 0.0016132327, -8.735375E-4, 0.3258505
121, 120738466, -0.6656888723373413, -0.5524213910102844, -11.47533130645752, 0.014073364, -0.010964882, 0.34287167
122, 120755133, -0.6660418510437012, -0.5517999529838562, -11.480167388916016, 0.018535629, -0.0054417024, 0.35278702
123, 120771800, -0.6648759245872498, -0.5518711805343628, -11.484132766723633, 0.009612161, 0.0041755363, 0.35642815
124, 120788467, -0.6651562452316284, -0.5521960854530334, -11.489156723022461, -0.012403628, 0.013543816, 0.33583736
125, 120805134, -0.6647990942001343, -0.5513319373130798, -11.493572235107422, 0.004298409, -0.004470147, 0.3719511
126, 120821801, -0.6651253700256348, -0.5516013503074646, -11.49748420715332, -0.013354609, 0.0074715037, 0.3846426
127, 120838468, -0.6631380319595337, -0.552350640296936, -11.500809669494629, 0.0015546234, -0.0049267355, 0.3514223
128, 120855135, -0.6633977293968201, -0.5520196557044983, -11.504152297973633, 0.007097895, 0.0039197747, 0.33921242
129, 120871802, -0.6630700826644897, -0.5520563721656799, -11.508012771606445, 0.011403439, 0.010959301, 0.3281603
130, 120888469, -0.6631847023963928, -0.550475537776947, -11.50928783416748, 0.004845464, -0.010947958, 0.35361004
131, 120905136, -0.6634722352027893, -0.5504246354103088, -11.512341499328613, 0.0047540646, 0.002022492, 0.34913635
132, 120921803, -0.6627392172813416, -0.5497099757194519, -11.515423774719238, 0.017793426, -0.0023000112, 0.33854198
133, 120938470, -0.6633535027503967, -0.551163911819458, -11.518057823181152, 0.00700981, 0.002455157, 0.34562206
134, 120955137, -0.6631770730018616, -0.5501821041107178, -11.520498275756836, 2.2767938E-4, 0.0023956958, 0.3306055
135, 120971804, -0.6626120209693909, -0.5504048466682434, -11.520362854003906, 0.014582069, 0.003238116, 0.3175125
136, 120988471, -0.6627907752990723, -0.5500396490097046, -11.521556854248047, 0.0147065865, -0.016775165, 0.33604622
137, 121005138, -0.6628007292747498, -0.549801230430603, -11.52328872680664, 0.0058246884, 0.0020531341, 0.34712505
138, 121021805, -0.663458526134491, -0.549774706363678, -11.523589134216309, -0.0016587211, 0.0012830622, 0.36947155
139, 121038472, -0.6627706289291382, -0.5499261021614075, -11.52513313293457, 0.014246387, 2.603856E-4, 0.3234663
140, 121055139, -0.6622282862663269, -0.5507105588912964, -11.526121139526367, 0.011216952, -0.0015007848, 0.32787895
141, 121071806, -0.6621060967445374, -0.550694465637207, -11.526687622070312, 0.012117786, -0.0068426467, 0.34078693
142, 121088473, -0.6622883677482605, -0.5509832501411438, -11.52819538116455, -0.0034152814, -0.008692419, 0.3388586
143, 121105140, -0.6628351807594299, -0.5513702034950256, -11.530525207519531, 0.004801701, 0.011081231, 0.3516569
144, 121121807, -0.6632639765739441, -0.5511896014213562, -11.531113624572754, -0.0032345573, -2.024748E-4, 0.3359995
145, 121138474, -0.6632947325706482, -0.553676962852478, -11.531718254089355, 0.025751144, -0.005382583, 0.35132694
146, 121155141, -0.6634821891784668, -0.5532488822937012, -11.531035423278809, 0.009413884, 0.0045055635, 0.32867718
147, 121171808, -0.6633834838867188, -0.5528587102890015, -11.531583786010742, -0.00907603, -0.004506692, 0.3338375
148, 121188475, -0.6636504530906677, -0.551349401473999, -11.532546043395996, 0.0041913884, -0.011411377, 0.3755827
149, 121205142, -0.663852334022522, -0.5506855845451355, -11.532565116882324, -0.0040037595, 0.0032756382, 0.35110474
150, 121221809, -0.6630169153213501, -0.5509241223335266, -11.533356666564941, 5.0841516E-4, 0.010555605, 0.35287762
151, 121238476, -0.663154661655426, -0.5491174459457397, -11.531845092773438, -5.317548E-4, -0.0056605563, 0.32408905
152, 121255143, -0.6627370715141296, -0.548871636390686, -11.531384468078613, 0.0051333033, -0.0065223943, 0.34131908
153, 121271810, -0.6623461842536926, -0.5490696430206299, -11.531475067138672, -0.004541867, -0.005249055, 0.33831882
154, 121288477, -0.6625684499740601, -0.5483693480491638, -11.53189754486084, 0.0037091067, 0.0032011038, 0.34841728
155, 121305144, -0.6624175906181335, -0.5482029318809509, -11.531085968017578, 0.007365056, 0.007469894, 0.34344578
156, 121321811, -0.6618571281433105, -0.5481688976287842, -11.531027793884277, 0.0025858423, 0.0023366325, 0.34776688
157, 121338478, -0.6610490083694458, -0.5482658743858337, -11.531253814697266, 0.022404684, -0.0036441903, 0.3423872
158, 121355145, -0.660690188407898, -0.5478771924972534, -11.498226165771484, 0.004806866, 0.0041453866, 0.3214016
159, 121371812, -0.6608709692955017, -0.5478233695030212, -11.496833801269531, 0.0053512147, -0.004618937, 0.34737015
160, 121388479, -0.6610446572303772, -0.547420859336853, -11.46590518951416, -0.00590824, -0.009208028, 0.35057735
161, 121405146, -0.6615368127822876, -0.5478953719139099, -11.433340072631836, -0.006559061, 0.005314653, 0.33747196
162, 121421813, -0.6615505218505859, -0.5471402406692505, -11.421436309814453, 0.012697558, 0.0021146212, 0.32039738
163, 121438480, -0.6614912152290344, -0.5469781160354614, -11.39724349975586, 0.011164423, -0.011356484, 0.346076
164, 121455147, -0.6597102880477905, -0.5463359951972961, -11.392136573791504, 0.0025768739, -7.151297E-4, 0.3530712
165, 121471814, -0.660454273223877, -0.5466484427452087, -11.38213062286377, -0.0037482774, 0.0019239436, 0.3332901
166, 121488481, -0.6596803069114685, -0.5460919737815857, -11.360097885131836, -0.0071690455, -0.011641344, 0.36106586
167, 121505148, -0.6593095660209656, -0.5469984412193298, -11.34811782836914, 0.0015397668, 0.016530998, 0.3393116
168, 121521815, -0.6592805981636047, -0.5468603372573853, -11.359365463256836, 0.011734381, 9.185754E-4, 0.33944893
169, 121538482, -0.6594059467315674, -0.5479868054389954, -11.342991828918457, 0.012376248, -3.1432905E-4, 0.34874058
170, 121555149, -0.6590309739112854, -0.5477453470230103, -11.331422805786133, 0.010765054, -0.0013247404, 0.3513794
171, 121571816, -0.658381462097168, -0.548866331577301, -11.324094772338867, 0.009566494, 0.021509092, 0.31699848
172, 121588483, -0.6592456102371216, -0.5487633943557739, -11.316121101379395, 0.0075430386, -2.1741525E-4, 0.34701347
173, 121605150, -0.6595190763473511, -0.5497136116027832, -11.31010627746582, 0.0085180225, 0.016813999, 0.3233633
174, 121621817, -0.6585871577262878, -0.5481388568878174, -11.307437896728516, 0.0045555327, 0.01894434, 0.36881828
175, 121638484, -0.6586897373199463, -0.5488754510879517, -11.303308486938477, -0.003049555, 0.0050111185, 0.34431458
176, 121655151, -0.6582602262496948, -0.5488684177398682, -11.286633491516113, 0.01343822, 0.01015111, 0.34040642
177, 121671818, -0.6591939926147461, -0.5488260984420776, -11.282454490661621, 0.0096574845, 0.001599815, 0.34333038
178, 121688485, -0.6602464318275452, -0.5485049486160278, -11.273366928100586, -0.0074781356, -0.003916869, 0.33074093
179, 121705152, -0.6595139503479004, -0.5498690009117126, -11.266653060913086, -0.007609006, 0.0016968964, 0.32986164
180, 121721819, -0.6601024866104126, -0.5504853129386902, -11.260293006896973, -0.009999282, -0.0047115902, 0.34370708
181, 121738486, -0.65995192527771, -0.5513097047805786, -11.253355979919434, 0.0038047808, -0.0083284695, 0.3455248
182, 121755153, -0.6591973304748535, -0.5522508025169373, -11.247593879699707, 0.005059914, 0.015395097, 0.35590363
183, 121771820, -0.6599351763725281, -0.5527978539466858, -11.239545822143555, 0.0016103236, 0.019585334, 0.35481453
184, 121788487, -0.6596346497535706, -0.5536189079284668, -11.235413551330566, 4.6427135E-4, 0.008143373, 0.3449602
185, 121805154, -0.6604098677635193, -0.5520476698875427, -11.22930908203125, 5.8973895E-4, -0.0050404966, 0.34749794
186, 121821821, -0.6607692241668701, -0.5527512431144714, -11.223577499389648, -0.0035726521, -0.00527288, 0.3381939
187, 121838488, -0.6602054238319397, -0.5531269907951355, -11.219738960266113, -0.0035809989, 0.006539734, 0.34978962
188, 121855155, -0.6600916981697083, -0.5533290505409241, -11.221665382385254, 0.0027060923, 0.009577132, 0.33806896
189, 121871822, -0.658690869808197, -0.5540274381637573, -11.217790603637695, 0.0039356477, 0.0074335975, 0.36250877
190, 121888489, -0.6593871116638184, -0.5531063675880432, -11.205435752868652, -0.005817728, -0.011510128, 0.35021877
191, 121905156, -0.6601191759109497, -0.5520744323730469, -11.199952125549316, 0.0013358531, -0.010614239, 0.33743
192, 121921823, -0.6591156721115112, -0.5509646534919739, -11.202258110046387, -0.008416894, -0.011924982, 0.36073303
193, 121938490, -0.6579623222351074, -0.5492243766784668, -11.193050384521484, -0.0030718644, 0.0023005211, 0.35731125
194, 121955157, -0.6590447425842285, -0.5509523749351501, -11.187643051147461, 3.9945258E-4, -0.010061457, 0.3563795
195, 121971824, -0.6599406599998474, -0.5511984825134277, -11.18240737915039, 0.0074717132, -0.0031220568, 0.358943
196, 121988491, -0.6594451069831848, -0.5506680607795715, -11.17097282409668, 0.0060348567, 0.0012526294, 0.35557938
197, 122005158, -0.6604453325271606, -0.5506824851036072, -11.162543296813965, 0.008847484, -0.008116545, 0.36134434
198, 122021825, -0.6601589322090149, -0.5499352216720581, -11.15574836730957, 0.009786532, 0.003764482, 0.35857677
199, 122038492, -0.659778892993927, -0.5499805212020874, -11.14903450012207, 0.003884554, 0.0046178405, 0.3448248
200, 122055159, -0.6589546203613281, -0.5502747893333435, -11.149215698242188, 0.0070471363, -6.886644E-4, 0.32438278
201, 122071826, -0.6592126488685608, -0.5509645342826843, -11.140525817871094, 0.005776626, 0.011601471, 0.36088753
202, 122088493, -0.6590208411216736, -0.5510907173156738, -11.136024475097656, -0.0026412038, -0.0030731005, 0.34054947
203, 122105160, -0.6591291427612305, -0.55186927318573, -11.132085800170898, -0.0016577363, -0.0018889289, 0.3282585
204, 122121827, -0.6599028706550598, -0.5507442355155945, -11.121017456054688, -6.1170605E-4, 0.0016395653, 0.3382597
205, 122138494, -0.659355640411377, -0.5498966574668884, -11.117873191833496, 0.008762288, -0.003711286, 0.35512543
206, 122155161, -0.6595830321311951, -0.5509225130081177, -11.112739562988281, 0.0057436964, 0.0047739292, 0.3449068
207, 122171828, -0.6586107611656189, -0.552119255065918, -11.110077857971191, 0.0015949185, -0.0044976883, 0.32696533
208, 122188495, -0.6591931581497192, -0.552647054195404, -11.101778030395508, 0.008811017, 5.071928E-4, 0.33160305
209, 122205162, -0.6589126586914062, -0.5527970194816589, -11.105719566345215, -0.0021865785, 0.00654762, 0.33592987
210, 122221829, -0.6595093607902527, -0.551530122756958, -11.10063648223877, 0.020148987, -0.001892163, 0.32243252
211, 122238496, -0.6595079302787781, -0.5512458682060242, -11.101322174072266, 0.0042691464, 0.0012942867, 0.35297585
212, 122255163, -0.6596046090126038, -0.551419198513031, -11.095282554626465, -0.01316462, 0.0011652359, 0.36289692
213, 122271830, -0.6598641276359558, -0.5509178638458252, -11.092147827148438, 0.0033658675, -0.007276129, 0.36163998
214, 122288497, -0.6605318188667297, -0.5502350330352783, -11.08820915222168, 0.0012587446, -0.008073253, 0.35134792
215, 122305164, -0.6613306999206543, -0.5510894656181335, -11.082855224609375, -0.0048060385, 6.891743E-4, 0.34138107
216, 122321831, -0.6617762446403503, -0.550470232963562, -11.07832145690918, 0.010503792, -0.011457344, 0.35552406
217, 122338498, -0.6628004312515259, -0.5506210923194885, -11.073956489562988, 0.006726912, -0.0010698169, 0.3440237
218, 122355165, -0.6627219319343567, -0.5515047311782837, -11.070199966430664, -2.4475367E-4, 0.0027024671, 0.34145927
219, 122371832, -0.6619659066200256, -0.5503908395767212, -11.067883491516113, -3.7430038E-4, 0.0068283835, 0.3486042
220, 122388499, -0.6622228026390076, -0.550775408744812, -11.067367553710938, -0.003060825, 0.007961654, 0.35949802
221, 122405166, -0.6614068746566772, -0.5504158139228821, -11.0614652633667, 6.7021407E-4, 0.009452604, 0.34272766
222, 122421833, -0.6608801484107971, -0.5501736402511597, -11.058067321777344, 2.5095965E-4, 0.009535139, 0.3454094
223, 122438500, -0.6615676879882812, -0.5504217147827148, -11.051806449890137, 0.008687781, -0.0031809316, 0.2943039
224, 122455167, -0.662297248840332, -0.5500161647796631, -11.049816131591797, -0.008430148, -0.0024683862, 0.35334015
225, 122471834, -0.6623124480247498, -0.5495067834854126, -11.043451309204102, 0.013592354, 0.009800928, 0.343215
226, 122488501, -0.6631731986999512, -0.5505344867706299, -11.03948974609375, 0.008264468, 7.8017195E-4, 0.34695435
227, 122505168, -0.6626471281051636, -0.5481783151626587, -11.037046432495117, 0.002588493, 0.0075619007, 0.38258553
228, 122521835, -0.6624769568443298, -0.5477916598320007, -11.03130054473877, 0.0066177333, 0.003795753, 0.32454967
229, 122538502, -0.6623797416687012, -0.5479216575622559, -11.02728271484375, 0.0016544638, -0.0031288182, 0.35589027
230, 122555169, -0.6622247099876404, -0.547385573387146, -11.022966384887695, 0.009073805, 0.0021319364, 0.35538006
231, 122571836, -0.6614547371864319, -0.547089159488678, -11.021042823791504, 0.007122034, 0.0036957797, 0.34592247
232, 122588503, -0.6619598269462585, -0.5473158955574036, -11.016914367675781, -0.0013173155, -0.0029322037, 0.3390484
233, 122605170, -0.6608396172523499, -0.5484603643417358, -11.014204978942871, 0.0037778579, -7.528056E-4, 0.3472271
234, 122621837, -0.6596086621284485, -0.5481327176094055, -11.008955955505371, 0.0071233404, 0.0010132121, 0.3592949
235, 122638504, -0.6597102880477905, -0.5481452941894531, -11.003772735595703, 0.009075108, -0.003079757, 0.34433937
236, 122655171, -0.6610217690467834, -0.5490055680274963, -11.001937866210938, 0.017155198, -0.008013547, 0.34558487
237, 122671838, -0.6610337495803833, -0.5495659112930298, -10.996176719665527, 0.007973447, 0.00302742, 0.35360718
238, 122688505, -0.6615097522735596, -0.549670398235321, -10.99492073059082, -0.0026021309, 0.008822901, 0.3513546
239, 122705172, -0.6617661714553833, -0.5489134192466736, -10.990499496459961, 0.021224983, -0.0030600042, 0.35845757
240, 122721839, -0.6614307761192322, -0.5537659525871277, -11.002518653869629, 0.0014130839, 0.009646948, 0.35651588
241, 122738506, -0.6605157256126404, -0.5530349612236023, -10.998427391052246, 0.008030607, -0.0010496727, 0.3650303
242, 122755173, -0.6596189737319946, -0.5522240996360779, -10.99378490447998, -2.5076407E-4, -0.0052001756, 0.35020733
243, 122771840, -0.6599128842353821, -0.5527569055557251, -10.988612174987793, -9.4153086E-4, 0.0016894925, 0.3566084
244, 122788507, -0.6594555974006653, -0.5541317462921143, -10.98281192779541, 0.0052538607, -0.0046477355, 0.360425
245, 122805174, -0.6597051024436951, -0.5555036664009094, -10.974954605102539, 0.00394873, 0.007072924, 0.34863472
246, 122821841, -0.659378170967102, -0.5555484294891357, -10.973965644836426, 0.0027627668, 0.013999357, 0.34388924
247, 122838508, -0.6582005023956299, -0.5560015439987183, -10.969428062438965, -8.791847E-4, 0.007407757, 0.34296513
248, 122855175, -0.6578148603439331, -0.5558492541313171, -10.965066909790039, 0.008574394, 0.0016345154, 0.34601974
249, 122871842, -0.6575196981430054, -0.5543365478515625, -10.97038745880127, -0.0015614405, 0.0016499307, 0.32416534
250, 122888509, -0.6565486788749695, -0.5549832582473755, -10.970890045166016, 0.010793479, 1.2203109E-4, 0.3319645
251, 122905176, -0.6555097699165344, -0.5548891425132751, -10.966320037841797, 3.1274E-4, 0.00842085, 0.32915878
252, 122921843, -0.6560810804367065, -0.554114818572998, -10.962644577026367, -9.912206E-4, 0.0073398827, 0.34427643
253, 122938510, -0.6556473970413208, -0.5529353022575378, -10.957331657409668, -0.008721178, 0.0077524106, 0.3661356
254, 122955177, -0.6563577055931091, -0.5537159442901611, -10.955981254577637, 0.019216597, 0.008930219, 0.347188
255, 122971844, -0.6570326089859009, -0.5546100735664368, -10.952187538146973, 0.0034038858, 0.006564059, 0.339859
256, 122988511, -0.6580074429512024, -0.5544792413711548, -10.947821617126465, 0.010066181, 0.0023700476, 0.32837582
257, 123005178, -0.6580025553703308, -0.5548991560935974, -10.948909759521484, 0.009192491, 3.0521394E-4, 0.35003567
258, 123021845, -0.6582324504852295, -0.5548261404037476, -10.946560859680176, 0.00891012, 0.0074013905, 0.34355164
259, 123038512, -0.658187747001648, -0.5554011464118958, -10.94228458404541, -0.0011877303, -0.001701667, 0.34923077
260, 123055179, -0.6578102111816406, -0.5542009472846985, -10.940338134765625, 0.010398123, 6.3833904E-5, 0.3582716
261, 123071846, -0.6575820446014404, -0.5540621876716614, -10.94320297241211, -0.008776428, 0.008160982, 0.34434128
262, 123088513, -0.6578317284584045, -0.5540821552276611, -10.941429138183594, -0.010640544, 0.013734714, 0.34264565
263, 123105180, -0.6581847667694092, -0.5540496110916138, -10.939558029174805, 0.01622061, -0.0018125084, 0.33667088
264, 123121847, -0.658164918422699, -0.5548707842826843, -10.938234329223633, 0.010224297, -0.0071340376, 0.33644104
265, 123138514, -0.65850830078125, -0.5567899346351624, -10.936954498291016, 0.01575386, -0.0012474118, 0.33996487
266, 123155181, -0.658147394657135, -0.5559766292572021, -10.936342239379883, -0.0046621975, 0.009683454, 0.329134
267, 123171848, -0.6581670641899109, -0.5551533699035645, -10.924654960632324, -0.008953559, 0.0119098285, 0.30853176
268, 123188515, -0.6579750776290894, -0.5539219975471497, -10.92158031463623, 0.002413231, 0.007608552, 0.34649658
269, 123205182, -0.6580227017402649, -0.5533948540687561, -10.918967247009277, -0.003097666, 0.006566507, 0.3279295
270, 123221849, -0.6569507718086243, -0.5528348684310913, -10.91333293914795, -2.8933404E-4, 0.003017774, 0.34015083
271, 123238516, -0.6565666198730469, -0.5527094006538391, -10.917644500732422, 6.7627337E-4, 7.917946E-4, 0.35454464
272, 123255183, -0.6561951041221619, -0.5535573363304138, -10.914953231811523, 0.00233797, 0.0124187395, 0.34179497
273, 123271850, -0.6565806865692139, -0.5533086061477661, -10.911080360412598, 0.007698872, 0.010375035, 0.34469318
274, 123288517, -0.6555207371711731, -0.5527838468551636, -10.908395767211914, 0.008189609, -0.003906504, 0.33308792
275, 123305184, -0.6543304324150085, -0.5528282523155212, -10.9089937210083, 0.01041687, -0.003278544, 0.33332443
276, 123321851, -0.6544750928878784, -0.5546145439147949, -10.90637493133545, 0.00711806, -0.001359797, 0.33926392
277, 123338518, -0.654140293598175, -0.5542668104171753, -10.898077011108398, -0.0053252275, 0.0054452787, 0.34766388
278, 123355185, -0.6524003744125366, -0.5545370578765869, -10.896512985229492, -0.005932956, 0.0096931355, 0.33348942
279, 123371852, -0.653571367263794, -0.5548551678657532, -10.890504837036133, -0.008528507, 0.015126547, 0.31840706
280, 123388519, -0.6539759635925293, -0.5556521415710449, -10.887308120727539, 0.006588261, -0.0025631418, 0.3579588
281, 123405186, -0.6544753313064575, -0.5558467507362366, -10.885733604431152, 0.0017253803, -0.004082017, 0.3588562
282, 123421853, -0.6541920304298401, -0.554554283618927, -10.883635520935059, 0.005323003, -3.5545544E-4, 0.33612156
283, 123438520, -0.6534282565116882, -0.5549817085266113, -10.88144302368164, 0.002497663, 0.0043296623, 0.35058308
284, 123455187, -0.6535710692405701, -0.555050790309906, -10.87864875793457, -0.001718647, 0.008619581, 0.32835865
285, 123471854, -0.654011607170105, -0.5552915930747986, -10.876251220703125, 0.0062484303, -0.0056599486, 0.34771347
286, 123488521, -0.6539465188980103, -0.5548126697540283, -10.876184463500977, 0.014661255, -9.869005E-4, 0.3431177
287, 123505188, -0.652977466583252, -0.5563724637031555, -10.872588157653809, -0.008803833, 0.0025606272, 0.3424139
288, 123521855, -0.6525948643684387, -0.5566008687019348, -10.86993408203125, -0.0045223795, 0.009079421, 0.35779762
289, 123538522, -0.6529638767242432, -0.5549500584602356, -10.868557929992676, 0.0067918184, 0.012017171, 0.340374
290, 123555189, -0.6527379751205444, -0.5540240406990051, -10.865962028503418, 0.010292374, 0.0038636206, 0.31070518
291, 123571856, -0.652995765209198, -0.5539177060127258, -10.86380386352539, 0.004099982, 0.0056636124, 0.32696438
292, 123588523, -0.6525534391403198, -0.5532858967781067, -10.861664772033691, -0.007134715, 0.019490018, 0.34689903
293, 123605190, -0.6522465348243713, -0.5540050268173218, -10.861824989318848, 0.005183534, -0.005648005, 0.34397507
294, 123621857, -0.6519401669502258, -0.5528534054756165, -10.858930587768555, -0.001801008, 0.01031038, 0.34401035
295, 123638524, -0.6513999104499817, -0.5532940626144409, -10.856989860534668, 0.0020620222, 6.285184E-4, 0.36890697
296, 123655191, -0.6518148183822632, -0.5526813268661499, -10.856431007385254, 0.013002021, -0.0025954393, 0.36006927
297, 123671858, -0.6516633629798889, -0.5526630878448486, -10.854289054870605, 0.01677214, 0.008944399, 0.354002
298, 123688525, -0.6511914134025574, -0.554060161113739, -10.851310729980469, 0.0060733673, 0.013274525, 0.35242367
299, 123705192, -0.6503242254257202, -0.5553293228149414, -10.847875595092773, 0.0064513627, 0.0130397845, 0.3262577
300, 123721859, -0.6508682370185852, -0.5555910468101501, -10.844261169433594, 0.01245029, 0.019895028, 0.33891392
301, 123738526, -0.6498584747314453, -0.5559974908828735, -10.843215942382812, -0.0021352367, -0.0011574619, 0.3244772
302, 123755193, -0.6498005390167236, -0.5562489628791809, -10.840291976928711, 0.002599735, 7.0734165E-4, 0.32769108
303, 123771860, -0.6509250998497009, -0.5551038980484009, -10.838957786560059, 0.018614784, 0.002806191, 0.3475008
304, 123788527, -0.6501287817955017, -0.5548704862594604, -10.83535099029541, 0.011876151, 0.009224167, 0.3333273
305, 123805194, -0.6499071717262268, -0.5518844127655029, -10.8339204788208, 0.011870766, 0.0062028826, 0.3425846
306, 123821861, -0.6495586633682251, -0.5523252487182617, -10.831685066223145, 0.0048306948, 0.012135748, 0.3362894
307, 123838528, -0.6503413915634155, -0.5522933602333069, -10.831260681152344, 0.0025207757, 0.0040013567, 0.3444872
308, 123855195, -0.6507577896118164, -0.553030252456665, -10.828665733337402, 0.009331289, -0.0021470934, 0.3579197
309, 123871862, -0.6502004861831665, -0.5514025688171387, -10.82853889465332, 7.283449E-4, 0.016140852, 0.33854294
310, 123888529, -0.6506209373474121, -0.5505331158638, -10.820429801940918, -0.0066668605, 0.019770462, 0.32501984
311, 123905196, -0.6499147415161133, -0.5497706532478333, -10.818338394165039, 0.0057314136, 0.007687061, 0.32560825
312, 123921863, -0.6502811908721924, -0.5503541827201843, -10.816583633422852, 0.0056572384, 0.010739706, 0.33425426
313, 123938530, -0.6506821513175964, -0.5515919923782349, -10.814130783081055, 0.013874682, -0.003189495, 0.3492689
314, 123955197, -0.6503450870513916, -0.5516865849494934, -10.811513900756836, 3.4733565E-4, 0.013594083, 0.33745575
315, 123971864, -0.6497811079025269, -0.5502749681472778, -10.804145812988281, 0.020027567, 0.008090122, 0.31930733
316, 123988531, -0.6493576765060425, -0.5497042536735535, -10.799025535583496, 0.0067660096, 0.010182992, 0.34706306
317, 124005198, -0.6494566202163696, -0.5506621599197388, -10.799257278442383, -0.005755616, 0.0029653779, 0.32441902
318, 124021865, -0.6505488157272339, -0.5507876873016357, -10.799971580505371, 0.0090821665, -0.004511665, 0.34060955
319, 124038532, -0.6505401134490967, -0.5499967932701111, -10.799185752868652, 0.013423406, -1.4570949E-4, 0.34142303
320, 124055199, -0.6503311991691589, -0.5503349304199219, -10.799142837524414, -5.6652154E-4, 0.0025372352, 0.36124706
321, 124071866, -0.6507976055145264, -0.5505456924438477, -10.79824161529541, -0.0013428275, 0.0027683966, 0.35846233
322, 124088533, -0.6504425406455994, -0.5506995916366577, -10.794081687927246, 0.008879502, -0.004906899, 0.3677225
323, 124105200, -0.6503345370292664, -0.5500817894935608, -10.792017936706543, 0.005809147, 8.8260375E-4, 0.33081627
324, 124121867, -0.6513757705688477, -0.5488776564598083, -10.789931297302246, -0.0020882501, -0.016736748, 0.35517216
325, 124138534, -0.6512094736099243, -0.5489012598991394, -10.788549423217773, 0.007610326, -0.002397337, 0.33931446
326, 124155201, -0.6521325707435608, -0.5491318106651306, -10.787097930908203, 0.005670143, 0.00803674, 0.376894
327, 124171868, -0.6528430581092834, -0.5496726632118225, -10.785995483398438, 0.0036339539, -0.0020639745, 0.33672905
328, 124188535, -0.6524633765220642, -0.550236701965332, -10.783201217651367, 0.009087569, -0.0061313584, 0.34960365
329, 124205202, -0.6520621180534363, -0.5518413186073303, -10.778423309326172, 0.0146532785, -0.0022299539, 0.3500414
330, 124221869, -0.6521734595298767, -0.5501088500022888, -10.777101516723633, 0.007138941, 0.009604711, 0.33381557
331, 124238536, -0.6518421769142151, -0.5499140024185181, -10.776618003845215, 0.0025135323, 0.0070439097, 0.34138107
332, 124255203, -0.6502869129180908, -0.5507839322090149, -10.776188850402832, 0.0139746135, 0.010931956, 0.34166336
333, 124271870, -0.6496189832687378, -0.550605058670044, -10.774273872375488, 0.00268818, 0.0076803137, 0.35319614
334, 124288537, -0.6502412557601929, -0.5508647561073303, -10.774165153503418, 0.0059520905, 0.0010937047, 0.35024357
335, 124305204, -0.6509904265403748, -0.5501297116279602, -10.775076866149902, 0.025543833, 0.005744035, 0.3389635
336, 124321871, -0.6503124833106995, -0.550675630569458, -10.773157119750977, 0.0031034844, 0.0035707138, 0.34815788
337, 124338538, -0.6501641273498535, -0.5496401786804199, -10.771241188049316, 0.017844912, 0.0018019475, 0.34895802
338, 124355205, -0.6503881216049194, -0.5499188303947449, -10.769854545593262, 0.016718846, -0.006726937, 0.35232735
339, 124371872, -0.6511522531509399, -0.5494512915611267, -10.7678804397583, 0.004870536, -0.004034255, 0.36775017
340, 124388539, -0.651005208492279, -0.549567699432373, -10.765913009643555, 0.010442501, -2.0465404E-6, 0.33242035
341, 124405206, -0.65159010887146, -0.5505810976028442, -10.766571998596191, -0.0013535665, 0.0056940415, 0.36340046
342, 124421873, -0.6518381237983704, -0.5511781573295593, -10.762415885925293, 0.0068346, -0.0053261183, 0.3570261
343, 124438540, -0.6513494253158569, -0.5528082251548767, -10.76294994354248, 0.003638777, 0.01407292, 0.32694626
344, 124455207, -0.6510672569274902, -0.5549152493476868, -10.761581420898438, 5.9589604E-4, -0.0078044576, 0.34105492
345, 124471874, -0.6503857970237732, -0.5544394254684448, -10.756047248840332, 0.011725923, -0.0041474644, 0.34185314
346, 124488541, -0.650654673576355, -0.5557811260223389, -10.753117561340332, 0.019996252, -0.00856311, 0.33755302
347, 124505208, -0.6506025791168213, -0.5559335350990295, -10.752695083618164, 0.005572653, -0.0021542527, 0.3335247
348, 124521875, -0.6495256423950195, -0.554661214351654, -10.753809928894043, -0.0011292642, 0.014150891, 0.32837486
349, 124538542, -0.6504897475242615, -0.5554990768432617, -10.752872467041016, 0.007839085, -0.0049253386, 0.35467815
350, 124555209, -0.6503965258598328, -0.554305911064148, -10.752642631530762, 0.01420391, 0.005028242, 0.3510666
351, 124571876, -0.6495689153671265, -0.5533280372619629, -10.753203392028809, -5.691932E-4, -0.0039685704, 0.3363104
352, 124588543, -0.648833692073822, -0.5540457963943481, -10.752129554748535, 0.006247145, 0.0060511595, 0.3479948
353, 124605210, -0.6488854289054871, -0.5529958605766296, -10.752679824829102, 0.015283666, 0.014309785, 0.32580566
354, 124621877, -0.648173987865448, -0.5531274676322937, -10.75301456451416, 0.014114717, 0.0058588646, 0.34921646
355, 124638544, -0.6479626893997192, -0.5527626872062683, -10.752347946166992, 0.0013682764, 0.0058906944, 0.34942722
356, 124655211, -0.647827684879303, -0.5528720617294312, -10.751119613647461, -0.0031388937, -0.0019403578, 0.34377098
357, 124671878, -0.64699786901474, -0.5517909526824951, -10.752585411071777, 0.011907677, 0.0021606998, 0.34456348
358, 124688545, -0.6475381851196289, -0.5512769818305969, -10.753989219665527, -0.0023297453, 0.0021397525, 0.33925056
359, 124705212, -0.6461187601089478, -0.5515764951705933, -10.753501892089844, 0.008697661, 0.0036990242, 0.32157612
360, 124721879, -0.6528176665306091, -0.5523647665977478, -10.754961967468262, 0.009557466, 0.004195314, 0.34854317
361, 124738546, -0.6522812247276306, -0.5529986619949341, -10.752169609069824, 0.0072099273, -0.007942016, 0.33629417
362, 124755213, -0.6519826054573059, -0.55243319272995, -10.748908042907715, 0.0055105025, 0.0012253749, 0.33282852
363, 124771880, -0.6519187092781067, -0.551989734172821, -10.745439529418945, 0.013913252, -0.010199867, 0.3506117
364, 124788547, -0.652083158493042, -0.5515612363815308, -10.74443244934082, 0.011757766, 0.008240196, 0.35597038
365, 124805214, -0.65254807472229, -0.5499395728111267, -10.74272346496582, 0.011708762, 0.00700491, 0.3508711
366, 124821881, -0.6525511741638184, -0.5496758818626404, -10.74059009552002, 0.012736704, 0.002929263, 0.32946682
367, 124838548, -0.6526555418968201, -0.5492343902587891, -10.737760543823242, 0.009901401, 0.009792613, 0.34714603
368, 124855215, -0.6519268751144409, -0.5495189428329468, -10.736358642578125, 0.0037745575, 0.013093717, 0.36389923
369, 124871882, -0.6516059041023254, -0.5503720641136169, -10.736275672912598, 0.022342198, -2.4352435E-4, 0.3412485
370, 124888549, -0.6514523029327393, -0.5502080917358398, -10.734647750854492, 0.010691246, -9.812219E-5, 0.35277653
371, 124905216, -0.6515800952911377, -0.5504119396209717, -10.736193656921387, 0.0010123006, 0.0066703986, 0.33850384
372, 124921883, -0.652163565158844, -0.5502097606658936, -10.733083724975586, 7.103835E-4, 0.003707357, 0.3413229
373, 124938550, -0.6520427465438843, -0.5506871342658997, -10.733283042907715, 0.0043556457, -0.0019285955, 0.34281063
374, 124955217, -0.6520358324050903, -0.549359142780304, -10.73144245147705, 0.008369261, 0.0066955434, 0.34756947
375, 124971884, -0.6514866352081299, -0.548893392086029, -10.731284141540527, 0.0051112943, 0.0064257705, 0.33295727
376, 124988551, -0.6520549058914185, -0.5503977537155151, -10.7301607131958, -1.7557641E-4, 0.0035222254, 0.34464073
377, 125005218, -0.6545153856277466, -0.5499376654624939, -10.729707717895508, 0.0056861313, -0.0037266244, 0.3568287
378, 125021885, -0.6545639038085938, -0.5494880676269531, -10.72642993927002, 0.015004121, 0.004854998, 0.34100628
379, 125038552, -0.6544738411903381, -0.5507147908210754, -10.725034713745117, 0.017175678, 0.009564992, 0.3427534
380, 125055219, -0.6542477607727051, -0.5496044754981995, -10.723688125610352, 0.017766906, -0.008346638, 0.35197735
381, 125071886, -0.6548041105270386, -0.5497216582298279, -10.72166633605957, 0.019417174, 0.012156255, 0.36218357
382, 125088553, -0.6535015106201172, -0.5506580471992493, -10.72460651397705, 0.014003432, -0.009969328, 0.32129574
383, 125105220, -0.6539252996444702, -0.5515508651733398, -10.723465919494629, -0.0073399316, 0.0018871687, 0.34967518
384, 125121887, -0.6538163423538208, -0.5514059662818909, -10.722108840942383, 0.011301095, 0.0023646692, 0.3178444
385, 125138554, -0.6544196009635925, -0.5504206418991089, -10.72156047821045, 0.013856455, 0.010679044, 0.3477621
386, 125155221, -0.6549097895622253, -0.5505655407905579, -10.72101879119873, 0.013478771, -0.001818208, 0.3312378
387, 125171888, -0.6549490094184875, -0.5506746172904968, -10.721908569335938, 0.007922263, -0.008471344, 0.3417921
388, 125188555, -0.6549674868583679, -0.5513628721237183, -10.720389366149902, 0.018425293, -0.005243055, 0.3469448
389, 125205222, -0.6546058654785156, -0.5496871471405029, -10.717093467712402, 0.0061065103, 0.0045526656, 0.33568096
390, 125221889, -0.654962420463562, -0.5499423742294312, -10.718013763427734, 0.00525238, 5.443728E-4, 0.35143185
391, 125238556, -0.6544848680496216, -0.5503486394882202, -10.71572208404541, 0.012514735, 4.613098E-4, 0.34274673
392, 125255223, -0.6542165279388428, -0.5510517954826355, -10.718851089477539, 0.006792185, -0.007980802, 0.33424187
393, 125271890, -0.6541580557823181, -0.5507687330245972, -10.714203834533691, 0.0014633044, 0.0010642569, 0.3467102
394, 125288557, -0.65340656042099, -0.5512255430221558, -10.713257789611816, 2.8170666E-4, -0.0036834027, 0.34925842
395, 125305224, -0.6538029313087463, -0.5520821809768677, -10.712748527526855, 0.012860988, 0.0023745666, 0.3181162
396, 125321891, -0.6525460481643677, -0.5522527694702148, -10.712574005126953, 0.003449877, 0.013476903, 0.3378992
397, 125338558, -0.6518139839172363, -0.5536935329437256, -10.71257495880127, 0.007826721, 0.0015191477, 0.336236
398, 125355225, -0.6514509320259094, -0.5541718602180481, -10.71086597442627, 0.0077313446, 0.0071327244, 0.35274982
399, 125371892, -0.6512382626533508, -0.5537627935409546, -10.709573745727539, 0.012001846, -0.0021977471, 0.34978962
400, 125388559, -0.6507524251937866, -0.5540443658828735, -10.709914207458496, 0.0070569045, -0.0012431302, 0.36292458
401, 125405226, -0.6497608423233032, -0.5550102591514587, -10.709911346435547, 0.0057492913, 0.008141344, 0.353261
402, 125421893, -0.6498174071311951, -0.5549543499946594, -10.709349632263184, 0.00443785, 0.0048086997, 0.3600216
403, 125438560, -0.6497511267662048, -0.5546672344207764, -10.711112022399902, 0.0032005939, -3.2709726E-5, 0.33789253
404, 125455227, -0.6494683623313904, -0.5549182295799255, -10.709303855895996, 0.010836963, 8.7733724E-4, 0.3654089
405, 125471894, -0.6498476266860962, -0.553196132183075, -10.709031105041504, -0.0012506703, 0.0065102233, 0.3329687
406, 125488561, -0.6503463983535767, -0.5530224442481995, -10.710590362548828, 0.009081897, -0.0065818, 0.35900974
407, 125505228, -0.6498578190803528, -0.5528947710990906, -10.708662986755371, 0.004260017, 0.004926994, 0.3232031
408, 125521895, -0.6487594842910767, -0.5524824857711792, -10.708309173583984, 0.008810252, -0.007784069, 0.3483019
409, 125538562, -0.6482555270195007, -0.5534401535987854, -10.706443786621094, -0.0026733757, 0.007573366, 0.3425045
410, 125555229, -0.6489543318748474, -0.5539175868034363, -10.70590591430664, 0.018871415, 0.003573431, 0.34339333
411, 125571896, -0.6488913893699646, -0.553796112537384, -10.704972267150879, 7.075233E-5, 0.007839835, 0.34573078
412, 125588563, -0.6486971974372864, -0.5522587895393372, -10.708484649658203, 0.008692174, 0.0014518144, 0.36886978
413, 125605230, -0.6498355865478516, -0.5527013540267944, -10.708780288696289, -0.0073456243, -6.625064E-4, 0.33098412
414, 125621897, -0.6497255563735962, -0.5535997748374939, -10.707615852355957, 0.008529823, -0.0011393643, 0.32306385
415, 125638564, -0.6502837538719177, -0.5528005957603455, -10.708306312561035, 0.015145325, -0.011892978, 0.33757687
416, 125655231, -0.6499711871147156, -0.552919328212738, -10.706703186035156, 6.858111E-4, 0.006117469, 0.34535408
417, 125671898, -0.6497267484664917, -0.5535169839859009, -10.706019401550293, -0.0062844125, -0.003478658, 0.3371048
418, 125688565, -0.6494261622428894, -0.5534010529518127, -10.703630447387695, 0.0036993246, -0.00583709, 0.32228565
419, 125705232, -0.6487140655517578, -0.5532251000404358, -10.704195022583008, -0.004311404, -0.0010442805, 0.3580475
420, 125721899, -0.6497247815132141, -0.5528874397277832, -10.70178508758545, 0.0053111287, 4.207282E-4, 0.346591
421, 125738566, -0.6493474841117859, -0.5544440150260925, -10.701350212097168, 0.011377773, -0.0042877747, 0.31707573
422, 125755233, -0.6492086052894592, -0.5554457902908325, -10.696426391601562, 0.012949454, 0.0055272905, 0.33843327
423, 125771900, -0.6493716239929199, -0.5555110573768616, -10.696192741394043, 0.009887357, 0.0062721474, 0.33448887
424, 125788567, -0.6484735012054443, -0.5556970834732056, -10.696537017822266, 0.0022502062, -0.009219434, 0.35221577
425, 125805234, -0.6481536626815796, -0.5554972887039185, -10.696263313293457, -3.1167135E-4, -0.005705657, 0.33415508
426, 125821901, -0.6468591690063477, -0.5543122291564941, -10.694896697998047, 0.0114424, 0.01626525, 0.35167885
427, 125838568, -0.6467949748039246, -0.5538153052330017, -10.691644668579102, -0.007961189, -0.0059102625, 0.3492527
428, 125855235, -0.6470493674278259, -0.5550010800361633, -10.690938949584961, 0.005512598, 3.782398E-4, 0.3455143
429, 125871902, -0.6472715139389038, -0.5547213554382324, -10.687851905822754, 0.005661538, 0.0057393867, 0.3315897
430, 125888569, -0.646822452545166, -0.5533410310745239, -10.687227249145508, 0.01094837, -0.004421477, 0.34537983
431, 125905236, -0.6467611789703369, -0.5523332953453064, -10.689262390136719, 0.0024830543, -0.0031578888, 0.33532333
432, 125921903, -0.6473045349121094, -0.5534342527389526, -10.687248229980469, 0.010175106, 0.0066861175, 0.35867023
433, 125938570, -0.6475772261619568, -0.5533462166786194, -10.686972618103027, 0.009005529, 0.014837339, 0.33394623
434, 125955237, -0.6476151347160339, -0.5536194443702698, -10.687416076660156, 5.3686416E-4, 0.01371354, 0.33915615
435, 125971904, -0.647484302520752, -0.5537422895431519, -10.685591697692871, 0.004143106, 0.0038035759, 0.34054756
436, 125988571, -0.6479611992835999, -0.5541872978210449, -10.683679580688477, 0.0061121956, 0.0032527177, 0.30769634
437, 126005238, -0.6487439274787903, -0.554534912109375, -10.682310104370117, 0.004896886, 0.0059293797, 0.3234682
438, 126021905, -0.6484273672103882, -0.5539194941520691, -10.684563636779785, -0.0035208284, 0.008983849, 0.32942772
439, 126038572, -0.6473129391670227, -0.5545680522918701, -10.68254280090332, 0.007783025, -0.008425376, 0.33246613
440, 126055239, -0.6475424766540527, -0.5553714036941528, -10.680398941040039, -0.004496396, 0.010957479, 0.34514046
441, 126071906, -0.6482619643211365, -0.554074227809906, -10.680320739746094, 0.0052780663, 4.591515E-4, 0.32614422
442, 126088573, -0.6484202146530151, -0.5553373694419861, -10.680779457092285, 0.010162862, 0.011877811, 0.35300732
443, 126105240, -0.6480748057365417, -0.5547203421592712, -10.678582191467285, -0.009861937, 0.0025338058, 0.36490345
444, 126121907, -0.6482207179069519, -0.5530952215194702, -10.67764663696289, -0.0038990544, 0.01117239, 0.33638954
445, 126138574, -0.6480121612548828, -0.5522269606590271, -10.675581932067871, -0.006527902, -0.0075193183, 0.35844803
446, 126155241, -0.6485829949378967, -0.5521574020385742, -10.675264358520508, 0.0054323534, 0.0019059997, 0.332489
447, 126171908, -0.6487680077552795, -0.5514199733734131, -10.675399780273438, 0.01581233, -2.8365888E-4, 0.33912563
448, 126188575, -0.6484479308128357, -0.5511356592178345, -10.672621726989746, 0.0144612845, 0.009833005, 0.3364191
449, 126205242, -0.6484037637710571, -0.5509754419326782, -10.672350883483887, 0.019600825, -0.0027643524, 0.33730698
450, 126221909, -0.6470547914505005, -0.5516253113746643, -10.672110557556152, -3.4051848E-4, -0.007332301, 0.3119831
451, 126238576, -0.6464436054229736, -0.5511004328727722, -10.669902801513672, 0.007934385, 0.003663119, 0.34221172
452, 126255243, -0.6466897130012512, -0.549872875213623, -10.671073913574219, 0.019065129, -0.011262343, 0.33136368
453, 126271910, -0.6472992300987244, -0.5491839647293091, -10.666731834411621, 0.019390242, -0.007901477, 0.35315514
454, 126288577, -0.6477948427200317, -0.5493079423904419, -10.664649963378906, -0.006865494, 0.002803338, 0.3321314
455, 126305244, -0.6470257639884949, -0.5494737029075623, -10.663810729980469, 4.1675387E-4, 0.01074908, 0.33585644
456, 126321911, -0.6460955142974854, -0.5504363179206848, -10.66397476196289, 0.011612839, 0.008430678, 0.36804295
457, 126338578, -0.6456207633018494, -0.5502288341522217, -10.660651206970215, -9.111017E-4, -0.002693855, 0.3252716
458, 126355245, -0.6460762619972229, -0.5506592392921448, -10.65976333618164, 0.0038388036, 0.004978842, 0.35466576
459, 126371912, -0.646422266960144, -0.550573468208313, -10.658951759338379, 0.004895213, 1.8872177E-4, 0.32732964
460, 126388579, -0.6449680924415588, -0.5507368445396423, -10.658735275268555, 0.0022566707, 0.0032476713, 0.32379246
461, 126405246, -0.644842267036438, -0.5505341291427612, -10.659075736999512, 0.010611236, -0.0053553283, 0.38491058
462, 126421913, -0.6458472013473511, -0.5503590703010559, -10.657637596130371, 0.0035123944, 0.0014041223, 0.34557343
463, 126438580, -0.6451784372329712, -0.5502092838287354, -10.65473461151123, 0.0039349594, 0.019303752, 0.36636162
464, 126455247, -0.6459383368492126, -0.5510654449462891, -10.652294158935547, 0.015402749, 0.0036641108, 0.3427925
465, 126471914, -0.6546294093132019, -0.6010400056838989, -10.655051231384277, -0.035890274, 0.028099898, 0.3578329
466, 126488581, -0.6812477111816406, -0.6894657611846924, -10.840936660766602, -0.2646251, -0.13543789, 0.36356354
467, 126505248, -0.6609025001525879, -0.7448781728744507, -11.620087623596191, 0.04689416, -0.15415926, 0.3096943
468, 126521915, -0.6347525715827942, -0.8112776875495911, -12.310553550720215, 0.7850062, -0.010801584, 0.39640808
469, 126538582, -0.6143364906311035, -0.9007610082626343, -12.468249320983887, 1.1631916, 0.22123118, 0.3932991
470, 126555249, -0.6142500638961792, -0.956993818283081, -12.19726276397705, -0.4697085, 0.19066472, 0.28022957
471, 126571916, -0.6451513767242432, -0.8994637727737427, -12.15297794342041, -1.1705581, -0.1254251, 0.25439072
472, 126588583, -0.6582140326499939, -0.813121497631073, -12.246522903442383, 0.13324529, 0.060543995, 0.38005638
473, 126605250, -0.6378577947616577, -0.7643359303474426, -12.361543655395508, 0.5606353, 0.061162364, 0.34324646
474, 126621917, -0.6154378056526184, -0.7287072539329529, -12.435620307922363, 0.58870023, -0.21713986, 0.3642826
475, 126638584, -0.6015120148658752, -0.6987109780311584, -12.490252494812012, 0.24656463, -0.17450157, 0.3391142
476, 126655251, -0.6038168668746948, -0.6905885338783264, -12.4537935256958, -0.013612228, -0.020407118, 0.32236576
477, 126671918, -0.6061239242553711, -0.6911343932151794, -12.2282133102417, 0.45078686, 0.02572975, 0.35263634
478, 126688585, -0.6092084050178528, -0.6917300820350647, -11.916213035583496, 0.48425382, -0.28967065, 0.37741566
479, 126705252, -0.6130582094192505, -0.6952096819877625, -11.76006031036377, 0.28760672, -0.1988939, 0.33685398
480, 126721919, -0.615695059299469, -0.7015011310577393, -11.729681968688965, -0.04075063, 0.0023852673, 0.33513165
481, 126738586, -0.6250950694084167, -0.7046228051185608, -11.787114143371582, -0.20365228, 0.26298705, 0.33176613
482, 126755253, -0.6308444738388062, -0.7087551355361938, -11.86165714263916, -0.043161158, 0.13073342, 0.3514347
483, 126771920, -0.6343128681182861, -0.717699408531189, -11.883121490478516, 0.06919184, 0.094214804, 0.35231972
484, 126788587, -0.638161301612854, -0.7346492409706116, -11.838730812072754, 0.022535771, 0.23191233, 0.31950092
485, 126805254, -0.6478577256202698, -0.7345970869064331, -11.736858367919922, 0.30745858, 0.270405, 0.36431885
486, 126821921, -0.6595171689987183, -0.7277045249938965, -11.695955276489258, 0.1392353, -0.020868525, 0.35977077
487, 126838588, -0.6624945998191833, -0.7318706512451172, -11.667210578918457, 0.27265438, -0.2528648, 0.35313988
488, 126855255, -0.6672666668891907, -0.7332421541213989, -11.54991340637207, 0.0065657073, -0.059679355, 0.35113716
489, 126871922, -0.6766173839569092, -0.7336378693580627, -11.42308235168457, 0.214953, -0.20781617, 0.34601212
490, 126888589, -0.6850401759147644, -0.7379910349845886, -11.314014434814453, 0.49857712, -0.10674521, 0.34335613
491, 126905256, -0.6993743181228638, -0.7455846667289734, -11.172343254089355, 0.3504637, 0.053863227, 0.32624626
492, 126921923, -0.7209219932556152, -0.7512788772583008, -10.993387222290039, -0.011271779, 0.37523094, 0.33143234
493, 126938590, -0.7394424080848694, -0.7467842102050781, -10.814552307128906, -0.16594456, 0.24562408, 0.31120586
494, 126955257, -0.745463490486145, -0.7379980087280273, -10.516216278076172, -0.09549217, -0.036620997, 0.3410759
495, 126971924, -0.7633459568023682, -0.7179898619651794, -10.23733139038086, -0.43158367, 0.045444965, 0.30952358
496, 126988591, -0.769457995891571, -0.6949299573898315, -10.128175735473633, -0.006135434, -0.3739448, 0.34927464
497, 127005258, -0.7760788798332214, -0.6852103471755981, -10.12736988067627, 0.5112471, -0.4055779, 0.40327644
498, 127021925, -0.7868836522102356, -0.6847115159034729, -10.066374778747559, 0.3653856, -0.29918393, 0.36797523
499, 127038592, -0.7982178330421448, -0.6828708052635193, -9.970108032226562, -0.03658416, -0.24743742, 0.3097973
500, 127055259, -0.8096261024475098, -0.6707835793495178, -9.882697105407715, -0.08641246, -0.095702834, 0.36599064
501, 127071926, -0.8181322813034058, -0.6600774526596069, -9.77857780456543, -0.4762272, 0.07059879, 0.34269524
502, 127088593, -0.8270180225372314, -0.6432014107704163, -9.722681045532227, -0.32762378, 0.28574833, 0.3292799
503, 127105260, -0.8379130959510803, -0.6235201358795166, -9.676769256591797, 0.115098305, 0.23225728, 0.34072113
504, 127121927, -0.8431966304779053, -0.6246705651283264, -9.571695327758789, 0.48699847, 0.026325643, 0.3712654
505, 127138594, -0.8500767946243286, -0.627866804599762, -9.29843807220459, 0.39037797, 0.20373543, 0.35244656
506, 127155261, -0.8612138628959656, -0.6309962272644043, -8.853425979614258, 0.009743157, 0.21400228, 0.34746647
507, 127171928, -0.8707900643348694, -0.6302161812782288, -8.356925010681152, -0.3333804, 0.1813326, 0.33594418
508, 127188595, -0.8788408041000366, -0.6320412158966064, -7.943857669830322, -0.37649873, 0.03903269, 0.34135914
509, 127205262, -0.8824834823608398, -0.6319769620895386, -7.645543098449707, -0.08621158, -0.041391756, 0.3209896
510, 127221929, -0.8788659572601318, -0.630803108215332, -7.463609218597412, 0.060022213, -0.2206058, 0.38560104
511, 127238596, -0.8742396831512451, -0.6343306303024292, -7.426368236541748, 0.2809317, -0.27820352, 0.3453703
512, 127255263, -0.8654578328132629, -0.6400159001350403, -7.3932342529296875, 0.3586548, -0.13508996, 0.3878088
513, 127271930, -0.860426127910614, -0.649217963218689, -7.230616569519043, 0.3990678, 0.016287599, 0.31444645
514, 127288597, -0.8550440669059753, -0.6523147225379944, -6.965343952178955, 0.047138806, 0.060515035, 0.33435917
515, 127305264, -0.8526093363761902, -0.6493552923202515, -6.711503982543945, -0.16737878, 0.046224725, 0.31847668
516, 127321931, -0.842760443687439, -0.6414965987205505, -6.594570159912109, -0.14810704, -0.12417469, 0.35859108
517, 127338598, -0.8326321244239807, -0.6317955255508423, -6.622281074523926, -0.0072416067, -0.15993883, 0.3187418
518, 127355265, -0.8244379758834839, -0.6220162510871887, -6.720505714416504, -0.048845094, 0.08832428, 0.36812782
519, 127371932, -0.8205413818359375, -0.6155149340629578, -6.785276412963867, 0.22333768, 0.17812742, 0.34515476
520, 127388599, -0.8184078335762024, -0.6215958595275879, -6.619198799133301, 0.4686583, 0.12841246, 0.35880375
521, 127405266, -0.822104811668396, -0.6309764385223389, -6.261617660522461, 0.16306494, -0.005142663, 0.34912014
522, 127421933, -0.8252822160720825, -0.6439118385314941, -5.909025192260742, 0.034782477, -0.010856052, 0.34207535
523, 127438600, -0.8237168192863464, -0.6531569957733154, -5.695176124572754, -0.14119293, -0.078583434, 0.3255005
524, 127455267, -0.8245003819465637, -0.6638945937156677, -5.631976127624512, -0.038212452, 0.26394153, 0.35541344
525, 127471934, -0.8210766911506653, -0.6667259335517883, -5.6378068923950195, 0.11065477, 0.072000876, 0.34450436
526, 127488601, -0.8219332098960876, -0.6722644567489624, -5.670938968658447, 0.2241804, -0.087842934, 0.33602142
527, 127505268, -0.8205820918083191, -0.6743797659873962, -5.67642068862915, 0.06921534, -0.00704524, 0.34538364
528, 127521935, -0.8221052885055542, -0.6776515245437622, -5.6727375984191895, 0.0573365, 0.009244468, 0.3239355
529, 127538602, -0.8225386738777161, -0.6834113001823425, -5.619139194488525, 0.01975296, 0.14875935, 0.3608322
530, 127555269, -0.8275182247161865, -0.6838817000389099, -5.572605609893799, -0.02188651, 0.19515912, 0.31651878
531, 127571936, -0.8292520046234131, -0.6869239807128906, -5.446801662445068, 0.060577996, -0.042097263, 0.33323097
532, 127588603, -0.8334347009658813, -0.6907103061676025, -5.242330551147461, -0.032872584, -0.092866294, 0.33848095
533, 127605270, -0.834075927734375, -0.6873350739479065, -5.098161220550537, -0.24294542, 0.022654666, 0.31336975
534, 127621937, -0.8289136290550232, -0.673870325088501, -5.1054158210754395, -0.20626695, -0.13914718, 0.32812977
535, 127638604, -0.8287932276725769, -0.647388756275177, -5.191451072692871, -0.07457984, -0.15590954, 0.33146763
536, 127655271, -0.8270226716995239, -0.6165645718574524, -5.393150806427002, -0.22263315, -0.058898296, 0.30973148
537, 127671938, -0.8255502581596375, -0.5907469391822815, -5.628839492797852, -0.01175198, 0.15332107, 0.36950397
538, 127688605, -0.8178179264068604, -0.5757253766059875, -5.847561836242676, 0.13456471, -0.113799855, 0.32443237
539, 127705272, -0.8112466335296631, -0.5758231282234192, -6.064798355102539, 0.23239669, -0.13537191, 0.37430954
540, 127721939, -0.8108105659484863, -0.5801427364349365, -6.162186145782471, 0.13977446, -0.011353243, 0.36282158
541, 127738606, -0.8102031946182251, -0.5894352793693542, -6.198788642883301, 0.089277655, -0.041988328, 0.33832073
542, 127755273, -0.807594358921051, -0.597597599029541, -6.235453128814697, -0.009222214, -0.062040597, 0.37267017
543, 127771940, -0.7993735671043396, -0.6027780175209045, -6.327247142791748, 0.07845704, -0.14333947, 0.33990192
544, 127788607, -0.7964208126068115, -0.6087439060211182, -6.33445405960083, 0.17588225, 0.07548271, 0.3674221
545, 127805274, -0.7940047383308411, -0.6069173812866211, -6.302542686462402, -0.007804304, -0.026266111, 0.333992
546, 127821941, -0.797799289226532, -0.6108595132827759, -6.240945339202881, 0.0154700335, 0.045214567, 0.34305763
547, 127838608, -0.8014078736305237, -0.6197406649589539, -6.153157711029053, -0.07390135, 0.3103078, 0.3508587
548, 127855275, -0.8069798946380615, -0.622165858745575, -6.04755163192749, -0.10314666, 0.16196914, 0.31859398
549, 127871942, -0.8085985779762268, -0.619124710559845, -6.034303665161133, 0.054257095, -0.08213475, 0.32761288
550, 127888609, -0.8130354881286621, -0.5965331196784973, -6.010540962219238, 0.13839754, -0.17861909, 0.37025547
551, 127905276, -0.8193429112434387, -0.5699900984764099, -6.022825241088867, -0.10456778, -0.10022048, 0.3054371
552, 127921943, -0.8264669179916382, -0.5566303133964539, -6.058658123016357, -0.24778949, 0.14038855, 0.3543396
553, 127938610, -0.8312963843345642, -0.554587185382843, -6.142445087432861, -0.011512625, 0.14560196, 0.3530388
554, 127955277, -0.8350334167480469, -0.5576250553131104, -6.188009262084961, 0.35382488, 0.14592959, 0.35741138
555, 127971944, -0.8358508944511414, -0.5573244690895081, -6.221321105957031, 0.29565224, -0.003211497, 0.3505516
556, 127988611, -0.8399764895439148, -0.5596281290054321, -6.289520263671875, 0.38724092, -0.09541089, 0.33701706
557, 128005278, -0.8389112949371338, -0.567053496837616, -6.384003639221191, 0.2792728, -0.16985683, 0.3486023
558, 128021945, -0.8316290974617004, -0.5838598012924194, -6.474666118621826, 0.24911804, -0.2035308, 0.40369225
559, 128038612, -0.8287605047225952, -0.6048700213432312, -6.515293598175049, 0.038084157, -0.062405825, 0.3214035
560, 128055279, -0.8266823291778564, -0.6344557404518127, -6.569185733795166, 0.11383811, -0.23223276, 0.38262367
561, 128071946, -0.8298303484916687, -0.6543112993240356, -6.663058280944824, 0.12893228, -0.35137802, 0.33453465
562, 128088613, -0.8292801380157471, -0.6756024360656738, -6.823834419250488, 0.13880096, -0.10935715, 0.3075056
563, 128105280, -0.8249375820159912, -0.7058618068695068, -6.92724084854126, 0.11896033, 0.14496039, 0.35153866
564, 128121947, -0.8160496950149536, -0.733997106552124, -6.988734722137451, 0.073449545, 0.24961016, 0.34273338
565, 128138614, -0.8037272691726685, -0.7547674775123596, -7.036714553833008, 0.23662454, 0.06462891, 0.34908104
566, 128155281, -0.7928214073181152, -0.7527543306350708, -7.117846488952637, 0.34826526, -0.058793582, 0.3792343
567, 128171948, -0.7907233238220215, -0.7378305792808533, -7.155335426330566, 0.06376779, -0.09627793, 0.3148079
568, 128188615, -0.7899581789970398, -0.7194817662239075, -7.173809051513672, -0.24903819, -0.008138672, 0.33064175
569, 128205282, -0.7879447937011719, -0.7229304313659668, -7.197022438049316, -0.28800812, 0.097153, 0.37245655
570, 128221949, -0.7882084250450134, -0.7215498089790344, -7.2479023933410645, -0.18493602, 0.0549651, 0.33367443
571, 128238616, -0.789023220539093, -0.7252569794654846, -7.242502212524414, -0.06869981, 0.19123405, 0.32907677
572, 128255283, -0.7927129864692688, -0.7215498089790344, -7.151193618774414, -0.1794015, 0.2928439, 0.32839584
573, 128271950, -0.8009542226791382, -0.71235191822052, -7.034639835357666, -0.16225857, 0.1024306, 0.34572315
574, 128288617, -0.8036390542984009, -0.7052182555198669, -6.929858684539795, -0.19030665, -0.064070195, 0.31967068
575, 128305284, -0.8032429814338684, -0.6896392703056335, -6.910052299499512, -0.13454299, -0.27826068, 0.34719086
576, 128321951, -0.7998313307762146, -0.6728581786155701, -6.928221702575684, -0.015771793, -0.32593262, 0.36124706
577, 128338618, -0.7987353801727295, -0.6641807556152344, -7.0004472732543945, -0.13110955, -0.23798005, 0.33870697
578, 128355285, -0.8030945658683777, -0.6630722880363464, -7.073161602020264, -0.091470905, 0.028052304, 0.3491125
579, 128371952, -0.8139128088951111, -0.6618818640708923, -7.120073318481445, -0.20419915, 0.25156188, 0.33394718
580, 128388619, -0.8230872750282288, -0.6525488495826721, -7.13278865814209, -0.13321587, 0.34456807, 0.3387518
581, 128405286, -0.8330219388008118, -0.63181471824646, -7.067079544067383, -0.20465474, 0.21153085, 0.32827568
582, 128421953, -0.8357744216918945, -0.6089922785758972, -7.04002571105957, -0.35555023, 0.19570802, 0.35270596
583, 128438620, -0.8390973210334778, -0.5966089963912964, -7.0289082527160645, -0.2566879, 0.13777417, 0.30975056
584, 128455287, -0.8375807404518127, -0.5872399210929871, -7.079831600189209, -0.3013403, 0.21462588, 0.30912113
585, 128471954, -0.8326409459114075, -0.5881039500236511, -7.133171558380127, 0.106062636, -0.025808265, 0.35193443
586, 128488621, -0.8240798711776733, -0.5865962505340576, -7.194103240966797, 0.14140448, -0.24792823, 0.37116623
587, 128505288, -0.8193600177764893, -0.5865932106971741, -7.256924152374268, 0.112955496, -0.24140033, 0.34502697
588, 128521955, -0.8119938373565674, -0.5892497897148132, -7.359156608581543, -0.0976696, -0.07390961, 0.34077454
589, 128538622, -0.8016107082366943, -0.5883137583732605, -7.477504253387451, -0.09132581, 0.18710065, 0.36990356
590, 128555289, -0.7992983460426331, -0.6010344624519348, -7.519516944885254, -0.010972565, 0.27719668, 0.33896828
591, 128571956, -0.7926363945007324, -0.6126694083213806, -7.517388343811035, 0.20214607, 0.07149794, 0.34165668
592, 128588623, -0.7881308197975159, -0.6259660124778748, -7.511405944824219, 0.03245592, 0.04519742, 0.35292435
593, 128605290, -0.7778887748718262, -0.6391698122024536, -7.551852703094482, 0.11034048, -0.069357306, 0.34948158
594, 128621957, -0.7711250185966492, -0.6524077653884888, -7.632300853729248, 0.06276074, -0.16196965, 0.39155674
595, 128638624, -0.7691106796264648, -0.6778207421302795, -7.68029260635376, -0.11317913, 0.021073751, 0.31995678
596, 128655291, -0.7652364373207092, -0.6959161162376404, -7.719062328338623, -0.06102865, 0.23106992, 0.3324089
597, 128671958, -0.7639803886413574, -0.7114256024360657, -7.732341289520264, -0.117172755, 0.19860825, 0.34510803
598, 128688625, -0.7560979723930359, -0.7228248119354248, -7.732855796813965, 0.021669954, 0.22552814, 0.32341194
599, 128705292, -0.7554892897605896, -0.7384480237960815, -7.670746326446533, 0.02271331, 0.13572201, 0.35793972
600, 128721959, -0.7536998391151428, -0.7492979764938354, -7.618494510650635, -0.12515731, 0.06458193, 0.34845924
601, 128738626, -0.7549082636833191, -0.7509327530860901, -7.553711891174316, 0.01462411, -0.01803503, 0.31561375
602, 128755293, -0.75384122133255, -0.7461199760437012, -7.564824104309082, -0.16893628, -0.090392664, 0.35613346
603, 128771960, -0.7541826963424683, -0.7440006136894226, -7.610386371612549, -0.1017165, -0.09168759, 0.34555626
604, 128788627, -0.7588086724281311, -0.7385574579238892, -7.61012077331543, -0.13963406, -0.076128826, 0.3066225
605, 128805294, -0.7606408596038818, -0.7317601442337036, -7.583243370056152, -0.06812069, -0.06045492, 0.343544
606, 128821961, -0.7630332708358765, -0.7264538407325745, -7.573184967041016, -0.064472064, -0.05569224, 0.3609085
607, 128838628, -0.7667890191078186, -0.7202340960502625, -7.53745174407959, -0.155899, 0.04304043, 0.3399744
608, 128855295, -0.7740751504898071, -0.7158460021018982, -7.482041358947754, -0.32520062, 0.094173774, 0.3455763
609, 128871962, -0.774890124797821, -0.7141116261482239, -7.443168640136719, -0.20420666, 0.04182014, 0.33177948
610, 128888629, -0.7791987657546997, -0.7061113715171814, -7.440520286560059, -0.081609204, -2.2318467E-4, 0.35296345
611, 128905296, -0.7817280888557434, -0.697723388671875, -7.4425368309021, 0.010423995, -0.067564815, 0.36382103
612, 128921963, -0.785075306892395, -0.689660906791687, -7.47536563873291, -0.022716932, -0.027730227, 0.35376835
613, 128938630, -0.7820015549659729, -0.6743913292884827, -7.552443981170654, -0.15012658, -0.04425532, 0.32721233
614, 128955297, -0.7828034162521362, -0.6729496717453003, -7.6319098472595215, 0.001484332, -0.08192694, 0.31764126
615, 128971964, -0.7856941819190979, -0.6729137897491455, -7.633659362792969, 0.023773668, -0.01882475, 0.37738037
616, 128988631, -0.7891064882278442, -0.6725853681564331, -7.594014644622803, -0.08505996, 0.027807431, 0.3429327
617, 129005298, -0.794215738773346, -0.6687082052230835, -7.542644500732422, -0.18159053, 0.1393428, 0.2983961
618, 129021965, -0.8008605241775513, -0.6600828170776367, -7.53091287612915, -0.15009217, 0.11765116, 0.36620045
619, 129038632, -0.8018151521682739, -0.6526240706443787, -7.535787105560303, 0.042914875, 0.04726138, 0.3506546
620, 129055299, -0.8067374229431152, -0.6571294665336609, -7.469939708709717, 0.06714561, -0.0473102, 0.32323742
621, 129071966, -0.8063960075378418, -0.6563855409622192, -7.405266284942627, 0.026539482, -0.05423231, 0.35292912
622, 129088633, -0.8068107962608337, -0.6554394364356995, -7.359039783477783, -0.101512335, -0.02232861, 0.32758713
623, 129105300, -0.8113608360290527, -0.6518547534942627, -7.3490309715271, -0.13378227, 0.007893737, 0.33466244
624, 129121967, -0.8151037096977234, -0.6494514346122742, -7.349156379699707, -0.17483021, 0.017944325, 0.36016273
625, 129138634, -0.817165195941925, -0.6499121189117432, -7.329441070556641, -0.112427406, 0.03333581, 0.33965206
626, 129155301, -0.820801854133606, -0.6505662202835083, -7.291606903076172, -0.023872785, -0.02561119, 0.34488487
627, 129171968, -0.8251509070396423, -0.6546810269355774, -7.233644485473633, -0.045404177, -0.004102643, 0.35849762
628, 129188635, -0.8282943367958069, -0.6521912813186646, -7.206805229187012, -0.15306237, -0.010920899, 0.3261757
629, 129205302, -0.8310391306877136, -0.6517848372459412, -7.203096389770508, -0.15043826, 0.0258629, 0.3636942
630, 129221969, -0.8331500887870789, -0.6449694037437439, -7.238645553588867, -0.19537921, 0.06278739, 0.3337078
631, 129238636, -0.8340063095092773, -0.6398777961730957, -7.2476606369018555, -0.10400656, 0.044901274, 0.3606758
632, 129255303, -0.8359249830245972, -0.6320720314979553, -7.253164768218994, 0.052122213, -0.04832573, 0.32287788
633, 129271970, -0.8298408389091492, -0.6336806416511536, -7.285958290100098, -0.032162167, -0.09836289, 0.31636047
634, 129288637, -0.8258339166641235, -0.6392313241958618, -7.319176197052002, -0.29081747, -0.0036887322, 0.3329649
635, 129305304, -0.824840247631073, -0.6446670293807983, -7.304361343383789, -0.031108813, 0.0054563144, 0.3325863
636, 129321971, -0.827905535697937, -0.6458873748779297, -7.308241844177246, -0.3432638, 0.082148544, 0.3347044
637, 129338638, -0.8303372859954834, -0.6458803415298462, -7.282683372497559, -0.09303731, 0.03906899, 0.34274387
638, 129355305, -0.835616946220398, -0.6451252698898315, -7.250973224639893, 0.16455804, 0.012198178, 0.3558817
639, 129371972, -0.8411139249801636, -0.6443289518356323, -7.203288555145264, -0.23549077, -0.0083085075, 0.3012867
640, 129388639, -0.8390535116195679, -0.6414920091629028, -7.192195892333984, 0.3384355, -0.02599499, 0.35584164
641, 129405306, -0.8357546329498291, -0.6418331265449524, -7.201977729797363, 0.014799624, -0.050626997, 0.320776
642, 129421973, -0.827438473701477, -0.64769446849823, -7.214993476867676, 0.09299964, -0.057335608, 0.35607338
643, 129438640, -0.8237261176109314, -0.6512606143951416, -7.21014404296875, -0.09761479, -0.004822187, 0.3342867
644, 129455307, -0.8212088346481323, -0.6575790643692017, -7.229077339172363, 0.15947609, -0.050609346, 0.33682346
645, 129471974, -0.8207211494445801, -0.6599623560905457, -7.238117218017578, -0.21415852, 0.08229845, 0.3656664
646, 129488641, -0.8197599053382874, -0.6547097563743591, -7.306885242462158, 0.04082394, 0.0070216386, 0.3173151
647, 129505308, -0.8244544267654419, -0.651885449886322, -7.3769636154174805, 0.20956673, -0.011793549, 0.35384846
648, 129521975, -0.8268097639083862, -0.6523618698120117, -7.412587642669678, 0.13854066, 0.06785028, 0.33600044
649, 129538642, -0.8294104337692261, -0.6548954844474792, -7.403639793395996, -0.036611862, 0.030688388, 0.33112335
650, 129555309, -0.8295173645019531, -0.658176839351654, -7.381633758544922, -0.16342421, 0.015762936, 0.34225273
651, 129571976, -0.8295302391052246, -0.6588726043701172, -7.400699615478516, 0.0025589126, -0.0143383285, 0.33664417
652, 129588643, -0.8253120183944702, -0.6603644490242004, -7.444705486297607, 0.0015110803, -0.02818152, 0.35139656
653, 129605310, -0.8232528567314148, -0.6579223275184631, -7.509951114654541, -0.402403, 0.108855255, 0.3407402
654, 129621977, -0.8287180662155151, -0.653298556804657, -7.533921718597412, -0.055386618, 0.013977236, 0.3438835
655, 129638644, -0.8288363218307495, -0.6507996320724487, -7.534741401672363, -0.0058504064, 0.004206877, 0.34515285
656, 129655311, -0.8256778120994568, -0.6486222743988037, -7.535593032836914, 0.0037242917, -0.010606081, 0.3529997
657, 129671978, -0.8189746737480164, -0.6409934163093567, -7.537096977233887, 2.364348E-6, -0.008192322, 0.32803345
658, 129688645, -0.8111902475357056, -0.6291080117225647, -7.537219047546387, 0.010244115, -0.0027757236, 0.34836006
659, 129705312, -0.8009123206138611, -0.6159568428993225, -7.536203861236572, 0.0073413565, 3.5866845E-4, 0.32873058
660, 129721979, -0.8054236173629761, -0.6115683913230896, -7.535745143890381, 0.0016992189, 0.048032325, 0.35930634
661, 129738646, -0.8232748508453369, -0.5267707109451294, -7.547610282897949, 0.064132646, 0.009118086, 0.36945438
662, 129755313, -0.8314462900161743, -0.45414045453071594, -7.553431987762451, -0.026006958, 0.017250098, 0.31393337
663, 129771980, -0.9232056140899658, -0.47914695739746094, -7.5441131591796875, 0.010809942, 0.09146635, 0.49737644
664, 129788647, -0.9564205408096313, -0.7764489054679871, -5.97921085357666, 2.795838, 1.0941781, 0.42827415
665, 129805314, -0.9933307766914368, -0.8515506386756897, -4.744678020477295, -2.6558335, -0.99913955, 0.092289925
666, 129821981, -0.9662980437278748, -0.8918529748916626, -4.733945369720459, -0.16197702, -0.17179283, 0.30947685
667, 129838648, -0.9695373773574829, -0.914297342300415, -4.735886096954346, -0.0034791538, 0.034131102, 0.3925476
668, 129855315, -0.9983292818069458, -0.9502503871917725, -4.736314296722412, 9.3812577E-4, 0.043844074, 0.4080286
669, 129871982, -1.0588717460632324, -1.018904209136963, -4.734820365905762, 8.128887E-5, -0.0071156607, 0.32796574
670, 129888649, -1.0605307817459106, -1.0144197940826416, -4.7336530685424805, 0.021030635, -0.014247121, 0.30517483
671, 129905316, -1.061795711517334, -1.0207902193069458, -4.732492923736572, 0.022500392, -0.0015394734, 0.32033062
672, 129921983, -1.0640112161636353, -1.0268317461013794, -4.732163906097412, 0.0017229217, 0.009304551, 0.32063007
673, 129938650, -1.065945029258728, -1.0280314683914185, -4.731351852416992, -0.0068385047, -0.012761416, 0.3379526
674, 129955317, -1.06650710105896, -1.028630018234253, -4.730910778045654, 0.020763634, 0.008735578, 0.35939598
675, 129971984, -1.0673686265945435, -1.0310591459274292, -4.7307448387146, 0.0060901134, 0.008801989, 0.33097935
676, 129988651, -1.068210482597351, -1.0311312675476074, -4.730575084686279, 0.0077608866, 0.007127374, 0.3462181
677, 130005318, -1.0689095258712769, -1.0331388711929321, -4.731557846069336, 0.009823038, 0.003455664, 0.3534794
678, 130021985, -1.0699691772460938, -1.034560203552246, -4.730167388916016, 0.008603817, 0.02169919, 0.33647823
679, 130038652, -1.0710108280181885, -1.035753846168518, -4.7302470207214355, -0.0056542703, 0.006528143, 0.38832664
680, 130055319, -1.0718318223953247, -1.0364289283752441, -4.730356216430664, 0.0019812398, -0.0064247614, 0.35182858
681, 130071986, -1.0716246366500854, -1.0366120338439941, -4.730386734008789, 0.011401794, 0.010184682, 0.34673214
682, 130088653, -1.0722624063491821, -1.038150429725647, -4.729860782623291, 0.0044173077, 0.0019419015, 0.34607697
683, 130105320, -1.0715606212615967, -1.0393166542053223, -4.729814052581787, 0.017222498, 0.009701881, 0.33323574
684, 130121987, -1.0709079504013062, -1.0399136543273926, -4.729182720184326, -0.005413854, 0.023598421, 0.33948517
685, 130138654, -1.071806788444519, -1.0411653518676758, -4.728577613830566, -0.009544346, 0.010928345, 0.35688496
686, 130155321, -1.072161078453064, -1.0418870449066162, -4.728785514831543, 0.009647818, 0.015628934, 0.33922195
687, 130171988, -1.0722779035568237, -1.0404385328292847, -4.728277683258057, 0.0076773628, 0.008884158, 0.3623104
688, 130188655, -1.0734907388687134, -1.0406218767166138, -4.727609634399414, 0.011887306, 0.011460948, 0.31839085
689, 130205322, -1.074339509010315, -1.0396777391433716, -4.727777004241943, 0.00753078, 0.020351546, 0.32387638
690, 130221989, -1.0749582052230835, -1.0417466163635254, -4.727397441864014, 0.008871104, 0.012669825, 0.34534836
691, 130238656, -1.0745790004730225, -1.04091477394104, -4.727025985717773, 0.0071550896, 0.0138669675, 0.3475237
692, 130255323, -1.075165867805481, -1.0403069257736206, -4.725928783416748, 0.007827613, 0.017848361, 0.34343338
693, 130271990, -1.0751910209655762, -1.040787935256958, -4.725351333618164, 0.0060438532, 0.01597387, 0.34086418
694, 130288657, -1.074676513671875, -1.0411256551742554, -4.725543022155762, 0.009877911, -0.0095320735, 0.32818985
695, 130305324, -1.0749263763427734, -1.0423505306243896, -4.725808620452881, 0.011499735, 0.008277111, 0.3396082
696, 130321991, -1.0750659704208374, -1.0416254997253418, -4.7268900871276855, 8.01713E-5, 0.013523729, 0.3385439
697, 130338658, -1.0751876831054688, -1.040808081626892, -4.726655960083008, 3.1970735E-4, 7.1860815E-4, 0.35889435
698, 130355325, -1.076113224029541, -1.040923833847046, -4.7264723777771, -6.978284E-4, 0.008135585, 0.32763958
699, 130371992, -1.07575523853302, -1.0406615734100342, -4.726434707641602, 0.030671112, 0.012087553, 0.34368515
700, 130388659, -1.0761802196502686, -1.0421197414398193, -4.726744651794434, 0.009085606, 0.01183126, 0.3400507
701, 130405326, -1.0762571096420288, -1.0421737432479858, -4.72654390335083, 0.0036537943, 0.008514957, 0.32533836
702, 130421993, -1.0762898921966553, -1.04311203956604, -4.727414131164551, -0.0046645966, 0.006196652, 0.34772778
703, 130438660, -1.0751709938049316, -1.0427672863006592, -4.726690292358398, 0.015964888, 0.01578633, 0.34331894
704, 130455327, -1.0748261213302612, -1.0428277254104614, -4.7259931564331055, 0.022113206, 0.009988263, 0.34228325
705, 130471994, -1.074958086013794, -1.0432407855987549, -4.7268900871276855, 0.005583633, 3.352904E-4, 0.34410858
706, 130488661, -1.074459195137024, -1.0426263809204102, -4.7268757820129395, -0.00388432, -0.0027389417, 0.33546734
707, 130505328, -1.0747047662734985, -1.042048454284668, -4.727472305297852, 0.014800791, 0.007612076, 0.33992577
708, 130521995, -1.0754989385604858, -1.041032314300537, -4.727976322174072, 0.007697346, -0.004207904, 0.36067867
709, 130538662, -1.076343297958374, -1.039160132408142, -4.728389263153076, -0.005260964, 0.005447213, 0.33800697
710, 130555329, -1.0756986141204834, -1.0389827489852905, -4.729023456573486, 0.014542912, 0.0061243526, 0.36034107
711, 130571996, -1.076464295387268, -1.0401606559753418, -4.728806495666504, 0.010520754, 0.008822985, 0.35924816
712, 130588663, -1.0761317014694214, -1.0413256883621216, -4.728086471557617, -3.5382799E-4, 0.013315352, 0.33200836
713, 130605330, -1.0763354301452637, -1.0414286851882935, -4.728137969970703, 0.004207352, 0.010388708, 0.356246
714, 130621997, -1.075667381286621, -1.0407800674438477, -4.727633953094482, 0.0077981995, 0.012550658, 0.35720158
715, 130638664, -1.0762426853179932, -1.0395201444625854, -4.727569103240967, 0.01843933, 0.006356869, 0.33102798
716, 130655331, -1.075301170349121, -1.0403116941452026, -4.727483749389648, 0.009194178, 0.0010911553, 0.34022427
717, 130671998, -1.075276255607605, -1.0390651226043701, -4.727371692657471, 0.0052034445, -0.009235186, 0.35727882
718, 130688665, -1.073837399482727, -1.037792444229126, -4.72675895690918, 0.012530507, 0.010268465, 0.34761047
719, 130705332, -1.0739965438842773, -1.0375888347625732, -4.726310729980469, 0.0045738714, 0.008280568, 0.36231613
720, 130721999, -1.0737005472183228, -1.038201093673706, -4.726109027862549, 0.006529414, 0.0017194013, 0.34762573
721, 130738666, -1.073918104171753, -1.0380027294158936, -4.726822853088379, 0.014871686, 0.0073827584, 0.32240295
722, 130755333, -1.0738459825515747, -1.0367863178253174, -4.726844787597656, 0.015878793, -0.008796799, 0.34862804
723, 130772000, -1.074039101600647, -1.0354336500167847, -4.727294445037842, 0.007136985, -0.010129202, 0.3518572
724, 130788667, -1.0737022161483765, -1.0357019901275635, -4.727353096008301, 0.009581658, 0.007201343, 0.3341961
725, 130805334, -1.0735503435134888, -1.0352885723114014, -4.727305889129639, 0.007094071, 0.008481919, 0.34434414
726, 130822001, -1.0729889869689941, -1.0356667041778564, -4.727765083312988, 7.877924E-4, 0.0147267375, 0.3504734
727, 130838668, -1.0724741220474243, -1.0365879535675049, -4.728818893432617, 0.004036106, 0.0058725933, 0.3492775
728, 130855335, -1.0731799602508545, -1.0362575054168701, -4.728365421295166, -0.0022273415, 0.007875668, 0.34742165
729, 130872002, -1.0738638639450073, -1.0360007286071777, -4.728642463684082, 0.004930752, 0.0021768904, 0.33695698
730, 130888669, -1.0736719369888306, -1.036548376083374, -4.727480888366699, 0.014521623, -6.3419703E-4, 0.33828926
731, 130905336, -1.073728322982788, -1.0365209579467773, -4.727527141571045, 0.02537525, -1.240916E-4, 0.3294592
732, 130922003, -1.0728840827941895, -1.0364775657653809, -4.726790428161621, 0.011013964, 0.015693655, 0.31444836
733, 130938670, -1.0722014904022217, -1.0360521078109741, -4.72588586807251, 0.011545129, -0.0026781182, 0.34695053
734, 130955337, -1.072003722190857, -1.0364640951156616, -4.72632360458374, 0.0030030643, 0.008306167, 0.3537264
735, 130972004, -1.071977138519287, -1.0364946126937866, -4.724960803985596, 7.137537E-4, 0.0047694105, 0.32688618
736, 130988671, -1.0718693733215332, -1.0353302955627441, -4.724775791168213, 8.712116E-5, 0.018010128, 0.3569212
737, 131005338, -1.0728046894073486, -1.035199761390686, -4.724088191986084, 0.013201227, 0.012739037, 0.3287735
738, 131022005, -1.0732914209365845, -1.035903811454773, -4.72287130355835, 0.010930929, -0.0027974253, 0.34472275
739, 131038672, -1.0744017362594604, -1.0355726480484009, -4.722553730010986, 0.003879661, 0.012268752, 0.37705135
740, 131055339, -1.0744683742523193, -1.0347708463668823, -4.722135543823242, -0.007344391, 0.022602538, 0.35543728
741, 131072006, -1.074025273323059, -1.0335761308670044, -4.722478866577148, 0.018824784, -0.001453421, 0.34523106
742, 131088673, -1.0736545324325562, -1.0345537662506104, -4.72294807434082, 0.005671753, -0.007263871, 0.33094788
743, 131105340, -1.0732097625732422, -1.0357846021652222, -4.722236156463623, 0.016225412, 0.024228308, 0.35671806
744, 131122007, -1.0736780166625977, -1.0355838537216187, -4.721503734588623, 0.007031578, 0.002270214, 0.36326408
745, 131138674, -1.0743992328643799, -1.0348907709121704, -4.72274112701416, 0.008174358, 0.007290189, 0.3416357
746, 131155341, -1.0744539499282837, -1.0349202156066895, -4.72241735458374, 0.009068277, 0.013481764, 0.35156345
747, 131172008, -1.0740745067596436, -1.035314917564392, -4.7236328125, 0.0074443016, -0.0032438436, 0.34177876
748, 131188675, -1.0742034912109375, -1.0361577272415161, -4.723808765411377, 0.016263703, 0.016765673, 0.358593
749, 131205342, -1.074524998664856, -1.0371720790863037, -4.723739147186279, 0.009638067, 0.01931773, 0.3603363
750, 131222009, -1.0742107629776, -1.0353435277938843, -4.723526954650879, 0.009458684, 0.0130658895, 0.33095837
751, 131238676, -1.0731827020645142, -1.0351099967956543, -4.723086833953857, 0.0036403695, 0.006329091, 0.33830452
752, 131255343, -1.07358717918396, -1.0351852178573608, -4.722621440887451, 0.011507823, 0.0032199416, 0.34169388
753, 131272010, -1.0741876363754272, -1.0351903438568115, -4.72257137298584, 0.005131662, 0.0051176017, 0.366107
754, 131288677, -1.0743894577026367, -1.0343538522720337, -4.721779823303223, 0.015589183, 0.005808592, 0.35360718
755, 131305344, -1.0745041370391846, -1.034120798110962, -4.721231937408447, 0.014628595, 0.00333591, 0.3560562
756, 131322011, -1.075790286064148, -1.0327141284942627, -4.721643447875977, 0.013309225, 0.0033530924, 0.3413067
757, 131338678, -1.0759505033493042, -1.0337094068527222, -4.720645904541016, 0.011664429, -7.504657E-4, 0.35180092
758, 131355345, -1.0760962963104248, -1.035369634628296, -4.721564769744873, 0.007456776, 0.009537235, 0.3260107
759, 131372012, -1.0773563385009766, -1.0350403785705566, -4.721297264099121, 0.010145539, 0.005272873, 0.3643999
760, 131388679, -1.0776106119155884, -1.0338467359542847, -4.72258996963501, 0.00791298, 0.004537753, 0.33837605
761, 131405346, -1.0774483680725098, -1.0348670482635498, -4.722243309020996, 0.016242854, 0.017667875, 0.33127022
762, 131422013, -1.076254963874817, -1.034346342086792, -4.723346710205078, 0.008564074, 0.0049328124, 0.35465717
763, 131438680, -1.075955867767334, -1.0352329015731812, -4.722402095794678, 0.015262575, -0.009623692, 0.35477638
764, 131455347, -1.076175332069397, -1.0352526903152466, -4.723121643066406, 0.004775983, 0.01890425, 0.318388
765, 131472014, -1.0765732526779175, -1.0341310501098633, -4.723055839538574, 0.017549448, 0.0045222677, 0.36373138
766, 131488681, -1.0768035650253296, -1.0333665609359741, -4.722375392913818, 0.012132912, 0.01091383, 0.31488037
767, 131505348, -1.07627272605896, -1.0321147441864014, -4.7219038009643555, 0.019634629, 0.019564487, 0.33230972
768, 131522015, -1.0762611627578735, -1.0321097373962402, -4.722160816192627, 0.010386989, 0.014439126, 0.35557556
769, 131538682, -1.076165795326233, -1.0317081212997437, -4.722072124481201, 0.021773046, 0.003228966, 0.33184147
770, 131555349, -1.0760595798492432, -1.0320569276809692, -4.722263336181641, 0.0056403563, 0.012294686, 0.33703232
771, 131572016, -1.0758016109466553, -1.0310866832733154, -4.722319602966309, 0.021711847, 0.015518658, 0.34666348
772, 131588683, -1.0760958194732666, -1.031873345375061, -4.722159385681152, 0.02076339, 0.016415142, 0.34223652
773, 131605350, -1.0764096975326538, -1.0303539037704468, -4.72251033782959, 0.01526553, 0.013779581, 0.3415661
774, 131622017, -1.0765111446380615, -1.0300588607788086, -4.721312999725342, 0.018663632, 0.004799249, 0.3555689
775, 131638684, -1.0773670673370361, -1.0308119058609009, -4.7205705642700195, 1.2479706E-4, 0.0025834045, 0.34808826
776, 131655351, -1.0769095420837402, -1.0313128232955933, -4.721556186676025, 0.012725277, 0.008221037, 0.358428
777, 131672018, -1.0760339498519897, -1.0299803018569946, -4.722268104553223, -1.8103851E-4, 0.0120747425, 0.36592674
778, 131688685, -1.0745161771774292, -1.0294437408447266, -4.72221040725708, 0.0046835393, 0.0046280874, 0.3464365
779, 131705352, -1.074665904045105, -1.0308310985565186, -4.722992897033691, 0.0029354165, 0.017741969, 0.34831524
780, 131722019, -1.0754845142364502, -1.031755805015564, -4.723145961761475, -0.0046805567, -0.006161931, 0.352705
781, 131738686, -1.075592279434204, -1.0312812328338623, -4.724308490753174, -0.008355368, 0.008060709, 0.349576
782, 131755353, -1.0760287046432495, -1.0305917263031006, -4.7246623039245605, 0.007905018, 0.018327273, 0.3506508
783, 131772020, -1.074565052986145, -1.0312258005142212, -4.724997520446777, 0.013658954, 0.016924582, 0.3388567
784, 131788687, -1.074380874633789, -1.031655192375183, -4.725392818450928, 0.025996184, 0.005206553, 0.33652496
785, 131805354, -1.0738312005996704, -1.032368540763855, -4.724672794342041, 0.020374065, 8.560197E-4, 0.33699608
786, 131822021, -1.0734310150146484, -1.0315146446228027, -4.724679470062256, 0.019860048, 0.0019151918, 0.32295227
787, 131838688, -1.0732382535934448, -1.0301176309585571, -4.7246623039245605, 0.018385896, -0.007048572, 0.352602
788, 131855355, -1.0727747678756714, -1.030240774154663, -4.725845813751221, 0.013786684, 0.010268032, 0.34943962
789, 131872022, -1.0738505125045776, -1.0311102867126465, -4.726414203643799, 0.014158561, 0.011741135, 0.34391308
790, 131888689, -1.0736061334609985, -1.031761646270752, -4.726581573486328, 0.0078223385, 0.021456964, 0.3417797
791, 131905356, -1.0733964443206787, -1.033652424812317, -4.726718902587891, 0.024435023, 0.006125037, 0.3477192
792, 131922023, -1.07414972782135, -1.033508062362671, -4.728044509887695, 0.015408006, 0.006698956, 0.35483456
793, 131938690, -1.074013590812683, -1.0323646068572998, -4.7283101081848145, 0.013786865, 0.0064324164, 0.33731842
794, 131955357, -1.073349118232727, -1.0321563482284546, -4.727839469909668, 0.002898446, 0.007560612, 0.34438515
795, 131972024, -1.071899652481079, -1.0312528610229492, -4.728509902954102, 0.005339117, -1.5582345E-4, 0.33983135
796, 131988691, -1.072548270225525, -1.030647873878479, -4.728145122528076, 0.005378944, -0.003558508, 0.33020115
797, 132005358, -1.0720289945602417, -1.0303384065628052, -4.726470470428467, 0.026607562, 0.005018397, 0.3315363
798, 132022025, -1.0724653005599976, -1.0291697978973389, -4.727571964263916, 0.0064236647, 0.004125225, 0.33546734
799, 132038692, -1.0727230310440063, -1.028090476989746, -4.727120876312256, 0.0077375155, 0.008488317, 0.332469
800, 132055359, -1.071565866470337, -1.0287892818450928, -4.726492881774902, 0.0065896926, 0.0026350361, 0.3599682
801, 132072026, -1.0707391500473022, -1.0288375616073608, -4.726888656616211, 0.014499579, 0.011898042, 0.344779
802, 132088693, -1.0700726509094238, -1.029537320137024, -4.727066516876221, 0.014584828, 0.010321961, 0.33038235
803, 132105360, -1.0701676607131958, -1.0293772220611572, -4.727208137512207, 0.010352813, -0.005311052, 0.324584
804, 132122027, -1.0708260536193848, -1.0285638570785522, -4.727777004241943, 0.010421837, 0.009847646, 0.32927513
805, 132138694, -1.0704487562179565, -1.0288556814193726, -4.727727890014648, 0.014479525, 0.012829524, 0.3512497
806, 132155361, -1.0702862739562988, -1.0286712646484375, -4.727057456970215, 0.015847515, 1.672296E-4, 0.32506275
807, 132172028, -1.0710783004760742, -1.0272856950759888, -4.726621627807617, 0.01566288, -0.0018428084, 0.3611822
808, 132188695, -1.0704948902130127, -1.027074933052063, -4.725537300109863, 0.010236411, 0.0242047, 0.34933567
809, 132205362, -1.0701665878295898, -1.026902675628662, -4.726696491241455, 0.009391163, 0.005692316, 0.35974312
810, 132222029, -1.0715765953063965, -1.0277738571166992, -4.727067470550537, 0.004453293, 0.004421198, 0.33703327
811, 132238696, -1.071608066558838, -1.0291228294372559, -4.727162837982178, 0.012117175, 0.0041511594, 0.33350945
812, 132255363, -1.0705701112747192, -1.0280966758728027, -4.727586269378662, 0.0032268565, 0.01765695, 0.34970093
813, 132272030, -1.069949746131897, -1.029226541519165, -4.726589202880859, 0.00614713, 0.006846411, 0.34293556
814, 132288697, -1.069679856300354, -1.0287668704986572, -4.726145267486572, 0.0052563543, 3.5192815E-4, 0.32524395
815, 132305364, -1.068858027458191, -1.028271198272705, -4.726883888244629, 0.013566747, 0.0050065783, 0.33440208
816, 132322031, -1.0682035684585571, -1.028651475906372, -4.727392196655273, 0.0062451055, 0.0033074468, 0.3287468
817, 132338698, -1.069670557975769, -1.0283442735671997, -4.728052139282227, 0.0033902375, -0.0016152792, 0.3462
818, 132355365, -1.0701407194137573, -1.027960181236267, -4.727787971496582, 0.0042823125, 0.0135736065, 0.33373547
819, 132372032, -1.069105863571167, -1.0281717777252197, -4.727656841278076, -2.2616718E-4, 0.0018869173, 0.35107422
820, 132388699, -1.068304419517517, -1.027402400970459, -4.7275824546813965, 0.016613271, 0.009952655, 0.34700966
821, 132405366, -1.067978024482727, -1.027029037475586, -4.727897644042969, 0.013232986, 0.010255131, 0.34279728
822, 132422033, -1.0676500797271729, -1.0270750522613525, -4.728394508361816, 0.013556815, 0.0017980919, 0.32866573
823, 132438700, -1.0675517320632935, -1.0277513265609741, -4.730038642883301, 0.0021929275, 0.0031537819, 0.3478613
824, 132455367, -1.069520354270935, -1.0265167951583862, -4.729302883148193, 0.018065672, 0.015789248, 0.33470917
825, 132472034, -1.070031762123108, -1.026926040649414, -4.728636264801025, 0.0020266897, -0.0020540631, 0.35234642
826, 132488701, -1.0697245597839355, -1.0259618759155273, -4.7291083335876465, 0.009424402, -0.0046739983, 0.36675167
827, 132505368, -1.0697757005691528, -1.0257569551467896, -4.727911949157715, 0.0070427535, 0.009132879, 0.34668922
828, 132522035, -1.0693295001983643, -1.0239497423171997, -4.727051258087158, 0.012914271, 8.770369E-4, 0.33643246
829, 132538702, -1.0691182613372803, -1.0239064693450928, -4.726794242858887, 0.0037536486, 0.01078355, 0.33970356
830, 132555369, -1.0688248872756958, -1.0245859622955322, -4.7264275550842285, 0.0104724625, -0.0013265494, 0.32573318
831, 132572036, -1.068817138671875, -1.0241788625717163, -4.726371765136719, 0.017574914, 0.010879633, 0.34838963
832, 132588703, -1.068678617477417, -1.0245497226715088, -4.725441932678223, 0.01562642, 0.004718547, 0.3391533
833, 132605370, -1.0696372985839844, -1.022821307182312, -4.7256340980529785, 0.0029675257, 0.009156173, 0.3532648
834, 132622037, -1.0685142278671265, -1.0221394300460815, -4.725446701049805, 0.010642849, 0.0043575526, 0.3538847
835, 132638704, -1.0688683986663818, -1.0227700471878052, -4.725567817687988, 0.01570154, 0.01773166, 0.33808613
836, 132655371, -1.0689481496810913, -1.0240401029586792, -4.7251667976379395, 0.012276212, 4.5980807E-4, 0.35345078
837, 132672038, -1.06806480884552, -1.0231791734695435, -4.725198268890381, 0.015393345, -0.0018824401, 0.3648138
838, 132688705, -1.359709620475769, -0.678341805934906, -4.746565341949463, 0.09819527, 0.27691233, 0.78464794
839, 132705372, -1.7408714294433594, -0.5161598324775696, -5.072667598724365, -0.09069942, 0.031545136, 0.06703186
840, 132722039, -1.9244211912155151, -0.47668972611427307, -6.087449550628662, -0.11861704, 0.29224488, 0.4284582
841, 132738706, -2.1081783771514893, -0.4662710726261139, -7.458058834075928, 0.048918605, 0.08494968, 0.27617264
842, 132755373, -2.1970627307891846, -0.4773694574832916, -9.050750732421875, 0.23206134, -0.04147991, 0.27685738
843, 132772040, -2.0585386753082275, -0.4821225702762604, -9.727068901062012, -0.0014364305, -0.76055574, 0.023097992
844, 132788707, -1.6403872966766357, -0.5712513327598572, -9.717122077941895, -0.23031038, -0.09756451, 0.07475376
845, 132805374, -1.2609223127365112, -0.6726909875869751, -9.520134925842285, -0.18941098, -0.6955646, 1.0605564
846, 132822041, -0.9884130954742432, -0.7262670397758484, -8.971013069152832, 0.39428633, 0.7651882, 0.10977936
847, 132838708, -0.9325382113456726, -0.7153212428092957, -8.94658374786377, -0.030733528, 0.2283768, 0.37522793
848, 132855375, -0.9346016049385071, -0.6987254619598389, -8.94543170928955, 0.018056976, 0.040741425, 0.38978577
849, 132872042, -0.9156495332717896, -0.6946962475776672, -8.941841125488281, -0.017111985, 0.0035384546, 0.36720657
850, 132888709, -0.91428542137146, -0.7029420733451843, -8.945945739746094, -0.003974378, -0.03195997, 0.30310154
851, 132905376, -0.8779654502868652, -0.7086883187294006, -8.948357582092285, 0.00721343, -0.012717593, 0.32933712
852, 132922043, -0.8346889019012451, -0.7153295874595642, -8.949488639831543, 0.008092022, 0.0066278647, 0.35753632
853, 132938710, -0.8081762194633484, -0.7257676720619202, -8.948389053344727, 0.0106296055, 0.01890261, 0.3576002
854, 132955377, -0.8153140544891357, -0.7347006797790527, -8.956318855285645, -0.02945923, 0.008892882, 0.32670212
855, 132972044, -0.8234545588493347, -0.7275835871696472, -9.19422435760498, -0.5436637, -0.19315805, 0.30654526
856, 132988711, -0.7995550632476807, -0.7248486876487732, -9.67929458618164, 0.26156074, 0.09674487, 0.35282993
857, 133005378, -0.7866648435592651, -0.7083773016929626, -9.817903518676758, 0.3323442, 0.07113353, 0.3416376
858, 133022045, -0.7648813724517822, -0.6964987516403198, -9.97189998626709, -0.19818524, -0.2054692, 0.3503971
859, 133038712, -0.7334916591644287, -0.6967124938964844, -10.571220397949219, 0.0016626256, -0.018828746, 0.36415482
860, 133055379, -0.7137283682823181, -0.6992982625961304, -11.025607109069824, -0.015506906, -0.08117537, 0.3332529
861, 133072046, -0.7012969255447388, -0.7023786902427673, -11.748300552368164, -0.15414783, -0.16173343, 0.34948635
862, 133088713, -0.6861305832862854, -0.7078282237052917, -12.68575382232666, -0.113829814, -0.071111396, 0.35525322
863, 133105380, -0.6698678731918335, -0.7229011058807373, -13.87138557434082, -0.12985623, -0.076045334, 0.32658005
864, 133122047, -0.6331512331962585, -0.7448464035987854, -15.163827896118164, 0.055657625, 0.006964482, 0.3485279
865, 133138714, -0.5957604050636292, -0.7629279494285583, -16.295745849609375, 0.08280726, 0.04381696, 0.35986137
866, 133155381, -0.5608693361282349, -0.7719436883926392, -17.190656661987305, 0.1589554, 0.111150436, 0.3524618
867, 133172048, -0.5430386066436768, -0.7768602967262268, -17.97587013244629, -0.10334679, -0.102725714, 0.3455143
868, 133188715, -0.5298925042152405, -0.7824288606643677, -18.940032958984375, -0.15705565, -0.061946377, 0.36457634
869, 133205382, -0.514495313167572, -0.7927267551422119, -20.19218635559082, -0.20499851, -0.06681724, 0.33132744
870, 133222049, -0.4920992851257324, -0.8005279898643494, -21.272974014282227, 0.22381933, 0.24590875, 0.31955814
871, 133238716, -0.4771450161933899, -0.8112996816635132, -22.072166442871094, -0.0052724225, 0.04436659, 0.33673096
872, 133255383, -0.45876583456993103, -0.8184851408004761, -22.670455932617188, 0.13586591, 0.06592702, 0.34729576
873, 133272050, -0.43622732162475586, -0.8251617550849915, -23.43333625793457, -0.16935794, -0.14569667, 0.3551979
874, 133288717, -0.41594198346138, -0.8273323178291321, -24.41998291015625, -0.11583309, -0.08108297, 0.3400879
875, 133305384, -0.39821770787239075, -0.8301162719726562, -25.59171485900879, -0.13018242, 0.006131603, 0.32361126
876, 133322051, -0.3795202076435089, -0.833033561706543, -26.77311134338379, -0.075864136, 0.076628275, 0.3561554
877, 133338718, -0.35836726427078247, -0.8379124402999878, -27.797060012817383, 0.09452724, 0.08642856, 0.35842037
878, 133355385, -0.33348435163497925, -0.847389280796051, -28.66580581665039, -0.0062905275, -0.013101561, 0.34181404
879, 133372052, -0.3066096603870392, -0.8537684082984924, -29.249229431152344, 0.24440306, 0.081603944, 0.35351372
880, 133388719, -0.29228389263153076, -0.8537872433662415, -29.795772552490234, -0.15868238, -0.07891381, 0.34626865
881, 133405386, -0.2819036841392517, -0.8545293807983398, -30.4389705657959, -0.055483725, -5.654878E-5, 0.31928825
882, 133422053, -0.265559583902359, -0.8597928285598755, -31.176651000976562, -0.17782344, -0.049734235, 0.34885502
883, 133438720, -0.23685050010681152, -0.8647177815437317, -32.257633209228516, -0.32860446, -0.094644636, 0.33489418
884, 133455387, -0.19640696048736572, -0.8690891861915588, -33.604183197021484, -0.09049531, -0.07011282, 0.35737038
885, 133472054, -0.16057562828063965, -0.870812177658081, -34.83125305175781, 0.2327715, 0.05057905, 0.33242035
886, 133488721, -0.13527876138687134, -0.8717365264892578, -35.73725128173828, 0.17935601, 0.042807467, 0.34831047
887, 133505388, -0.11430346965789795, -0.8692595362663269, -36.46472930908203, 0.0067629223, 0.016268505, 0.34311867
888, 133522055, -0.09316860884428024, -0.8730160593986511, -37.26615905761719, -0.19552493, -0.048032045, 0.32295322
889, 133538722, -0.06823205202817917, -0.8775473833084106, -38.28441619873047, -0.3701891, -0.100231856, 0.3399601
890, 133555389, -0.041378479450941086, -0.8776894807815552, -39.643043518066406, -0.29188526, -0.005443365, 0.33397007
891, 133572056, -0.009252754040062428, -0.8747232556343079, -41.15924072265625, 0.10896592, 0.049626876, 0.37676907
892, 133588723, 0.018028099089860916, -0.8672891855239868, -42.363609313964844, 0.38619822, 0.07544733, 0.3456869
893, 133605390, 0.03438316658139229, -0.864188551902771, -43.07053756713867, 0.14248253, -7.681372E-4, 0.33559704
894, 133622057, 0.04335387423634529, -0.8627432584762573, -43.50202560424805, 0.013873833, 0.021191811, 0.3533764
895, 133638724, 0.05443177372217178, -0.8641473054885864, -44.03664016723633, -0.180881, 0.019685116, 0.32633018
896, 133655391, 0.06304425001144409, -0.8620670437812805, -44.72425842285156, -0.23422794, 0.022817316, 0.32297516
897, 133672058, 0.08222363889217377, -0.8545469641685486, -45.84996795654297, -0.420849, 0.020942412, 0.35071468
898, 133688725, 0.11552400887012482, -0.8486624360084534, -47.21257400512695, 0.018568004, -0.041560713, 0.32844067
899, 133705392, 0.14743947982788086, -0.8441117405891418, -48.28017807006836, 0.1435278, -0.06681052, 0.33841515
900, 133722059, 0.16901852190494537, -0.8392802476882935, -49.16521453857422, -0.012467354, 0.006382807, 0.3441944
901, 133738726, 0.18673110008239746, -0.8363205194473267, -49.932437896728516, -0.039904565, -0.0075660115, 0.33939457
902, 133755393, 0.20297205448150635, -0.829797625541687, -50.726524353027344, -0.21841304, 0.013987991, 0.3675661
903, 133772060, 0.2246684581041336, -0.8195427060127258, -51.93044662475586, -0.31086683, 0.02924266, 0.29998493
904, 133788727, 0.2580978274345398, -0.8092736005783081, -53.32322311401367, -0.22783104, 0.0024779667, 0.33366966
905, 133805394, 0.30022794008255005, -0.7979713678359985, -54.93722152709961, -0.14129716, -0.07905525, 0.37979126
906, 133822061, 0.3392904996871948, -0.7822479605674744, -56.5267333984375, 0.0049960595, -0.081745476, 0.32909393
907, 133838728, 0.36691826581954956, -0.7679446339607239, -57.885826110839844, 0.11983379, -0.007105988, 0.36219501
908, 133855395, 0.3852224349975586, -0.7556241750717163, -59.07572937011719, -0.07730513, 0.041872595, 0.33851528
909, 133872062, 0.40313857793807983, -0.7411643862724304, -60.44658660888672, -0.32285106, 0.1918571, 0.35356808
910, 133888729, 0.4253256320953369, -0.7148577570915222, -62.309242248535156, -0.43230355, 0.30146962, 0.33107853
911, 133905396, 0.46745169162750244, -0.6852284669876099, -64.58320617675781, -0.13592413, 0.06933268, 0.31957245
912, 133922063, 0.5175114274024963, -0.6628451347351074, -66.74171447753906, 0.07494301, -0.14761594, 0.36253452
913, 133938730, 0.563606321811676, -0.6425212025642395, -68.83097076416016, -0.107314214, -0.011392436, 0.34981155
914, 133955397, 0.6057664155960083, -0.6193889379501343, -70.91768646240234, -0.0059421794, -0.033908837, 0.3736992
915, 133972064, 0.6346080303192139, -0.5979179739952087, -72.69844055175781, 0.15592207, -0.08149043, 0.37954617
916, 133988731, 0.6532639265060425, -0.5808557868003845, -74.18135833740234, -0.020019734, 0.06788233, 0.32449055
917, 134005398, 0.671772837638855, -0.5655670166015625, -75.47699737548828, 0.09526659, 0.011855099, 0.33380985
918, 134022065, 0.6939995884895325, -0.5625905990600586, -76.29499816894531, 0.058760375, -0.16655245, 0.3405819
919, 134038732, 0.7146003842353821, -0.5607081055641174, -76.86962127685547, -0.04393995, -0.121945396, 0.32545662
920, 134055399, 0.7357812523841858, -0.557146430015564, -77.22369384765625, -0.030380202, -0.15329827, 0.33840466
921, 134072066, 0.7483075857162476, -0.5519907474517822, -77.60067749023438, -0.37377647, 0.13066125, 0.33743382
922, 134088733, 0.760127604007721, -0.5374950170516968, -78.24805450439453, -0.10992954, -0.042429205, 0.33072186
923, 134105400, 0.7656148672103882, -0.5231976509094238, -78.91412353515625, -0.11119029, 0.016697543, 0.3340664
924, 134122067, 0.7700660824775696, -0.5084649324417114, -79.66968536376953, -0.19513223, 0.065619566, 0.31332302
925, 134138734, 0.7773516774177551, -0.4826664626598358, -80.5733642578125, -0.19717985, 0.10102696, 0.33528423
926, 134155401, 0.7844723463058472, -0.4614648222923279, -81.5976791381836, -0.11593859, 0.0022301145, 0.3329115
927, 134172068, 0.7973244190216064, -0.45147082209587097, -82.18722534179688, 0.1742518, -0.22000353, 0.3331747
928, 134188735, 0.8052698969841003, -0.45110219717025757, -82.58100891113281, -0.13623288, 0.0389851, 0.37467957
929, 134205402, 0.811809778213501, -0.44484761357307434, -83.1523666381836, -0.2785225, 0.112122715, 0.32748127
930, 134222069, 0.8227138519287109, -0.4251103103160858, -84.10698699951172, -0.3455372, 0.15236193, 0.32467747
931, 134238736, 0.8479867577552795, -0.40081706643104553, -85.37581634521484, -0.11140656, -0.12976445, 0.36546707
932, 134255403, 0.8706008195877075, -0.3797338902950287, -86.53189849853516, -0.013563039, -0.09515278, 0.33262253
933, 134272070, 0.8830007910728455, -0.3717116117477417, -87.31241607666016, 0.0221993, -0.052993797, 0.38273144
934, 134288737, 0.8909134268760681, -0.3710811138153076, -87.83901977539062, -0.1199695, 0.054841325, 0.32066345
935, 134305404, 0.8992468118667603, -0.3711552917957306, -88.18892669677734, -0.033543278, -0.11043064, 0.33302784
936, 134322071, 0.9068304300308228, -0.3794332444667816, -88.27640533447266, -0.11428318, -0.097455055, 0.3625288
937, 134338738, 0.9153106808662415, -0.3856451213359833, -88.27921295166016, -0.14098015, 0.012515475, 0.31793213
938, 134355405, 0.9280790686607361, -0.38312408328056335, -88.33023071289062, -0.29147616, 0.25299627, 0.32270622
939, 134372072, 0.9442689418792725, -0.34915927052497864, -89.37732696533203, -0.5911926, 0.21548668, 0.3124361
940, 134388739, 0.9584869742393494, -0.3106924295425415, -90.87631225585938, -0.13944994, 0.013455579, 0.30811024
941, 134405406, 0.9796276688575745, -0.28932201862335205, -92.08470153808594, 0.104207814, -0.11911612, 0.34005833
942, 134422073, 0.992143988609314, -0.2857440114021301, -92.65691375732422, 0.14438744, -0.21998905, 0.33588886
943, 134438740, 1.0003548860549927, -0.2925804555416107, -92.68804168701172, -0.11440564, -0.075611345, 0.3292637
944, 134455407, 1.0103390216827393, -0.29789599776268005, -92.68214416503906, -0.15097569, 0.0070944442, 0.34092903
945, 134472074, 1.0112700462341309, -0.296402245759964, -92.6773452758789, -0.13849616, 0.002428898, 0.32784843
946, 134488741, 1.0085899829864502, -0.28886961936950684, -92.67852020263672, -0.16568291, 0.0163988, 0.33651447
947, 134505408, 1.0097707509994507, -0.2758304178714752, -92.68021392822266, -0.14573115, 0.027570546, 0.33985233
948, 134522075, 1.0105724334716797, -0.26875317096710205, -92.68566131591797, -0.15563737, 0.030667584, 0.34888935
949, 134538742, 1.000002384185791, -0.2519429624080658, -93.21316528320312, -0.48218292, 0.12856586, 0.351202
950, 134555409, 0.9956207871437073, -0.24941450357437134, -93.67517852783203, 0.12526146, -0.04390338, 0.29757786
951, 134572076, 1.0056780576705933, -0.26762112975120544, -93.70187377929688, -0.10843318, -0.022101216, 0.33892822
952, 134588743, 1.010407567024231, -0.2853195369243622, -93.70148468017578, -0.13499999, 0.01380072, 0.36573696
953, 134605410, 1.004987359046936, -0.2825555205345154, -93.70264434814453, -0.16328125, 0.0071781133, 0.32701206
954, 134622077, 1.0085407495498657, -0.27239441871643066, -93.70204162597656, -0.16619298, 0.014025981, 0.353446
955, 134638744, 1.017804741859436, -0.2558562457561493, -93.70455169677734, -0.1612591, 0.011824942, 0.3143568
956, 134655411, 1.0390965938568115, -0.2321157157421112, -94.11511993408203, -0.31568414, 0.062340055, 0.3247223
957, 134672078, 1.0687583684921265, -0.24066312611103058, -94.47869873046875, -0.07685299, 0.028160641, 0.34898472
958, 134688745, 1.1036866903305054, -0.2736467123031616, -94.50867462158203, -0.056535956, -0.019925822, 0.34289265
959, 134705412, 1.0979102849960327, -0.27630069851875305, -94.51111602783203, -0.13869311, -0.0046921796, 0.34296417
960, 134722079, 1.118032455444336, -0.32739588618278503, -94.52240753173828, -0.20578524, 0.20602936, 0.40937042
961, 134738746, 1.2864766120910645, -0.3989098072052002, -94.87542724609375, -0.33619025, 0.15045221, 0.20308113
962, 134755413, 1.379525899887085, -0.39802274107933044, -94.9047622680664, 0.09689923, -0.28375167, 0.4622574
963, 134772080, 1.4172496795654297, -0.3979972302913666, -94.90443420410156, -0.19485606, -0.0063727736, 0.2781725
964, 134788747, 1.4232311248779297, -0.39567315578460693, -94.9042739868164, -0.1932968, 0.03469108, 0.34985256
965, 134805414, 1.4272446632385254, -0.39855003356933594, -94.90399169921875, -0.15958805, 0.0073275194, 0.33262444
966, 134822081, 1.4309138059616089, -0.40120649337768555, -94.90485382080078, -0.14891732, -0.0014279614, 0.34474564
967, 134838748, 1.4336462020874023, -0.40195876359939575, -94.90477752685547, -0.16287488, 0.029432626, 0.3310032
968, 134855415, 1.4379453659057617, -0.40176287293434143, -94.90443420410156, -0.1543451, 0.021727938, 0.34344673
969, 134872082, 1.4412821531295776, -0.401533305644989, -94.90374755859375, -0.14606622, 0.025601314, 0.33135605
970, 134888749, 1.4441992044448853, -0.40150928497314453, -94.90341186523438, -0.15253742, 0.026365055, 0.34649372
971, 134905416, 1.4478366374969482, -0.4007539749145508, -94.90196228027344, -0.1637296, 0.010543581, 0.33115578
972, 134922083, 1.4492937326431274, -0.4019511938095093, -94.90274810791016, -0.15727755, 0.023601316, 0.32607174
973, 134938750, 1.4507341384887695, -0.40203213691711426, -94.90160369873047, -0.1658365, 0.015124102, 0.30905628
974, 134955417, 1.4533778429031372, -0.4037148356437683, -94.90251922607422, -0.1529597, 0.0048096916, 0.3375225
975, 134972084, 1.4559829235076904, -0.40245112776756287, -94.90312194824219, -0.1581628, 0.019283213, 0.34431553
976, 134988751, 1.4574744701385498, -0.40420350432395935, -94.90235900878906, -0.1565674, 0.016292747, 0.32145596
977, 135005418, 1.4582315683364868, -0.40446674823760986, -94.90147399902344, -0.15819298, 0.0040574204, 0.34290123
978, 135022085, 1.4593979120254517, -0.4057163894176483, -94.90126037597656, -0.1525955, 0.019407166, 0.3572588
979, 135038752, 1.4606788158416748, -0.4065055847167969, -94.90133666992188, -0.15725529, 0.02560497, 0.3335657
980, 135055419, 1.4616448879241943, -0.4073055684566498, -94.9013900756836, -0.16053215, 0.013716044, 0.35603046
981, 135072086, 1.4629355669021606, -0.40793806314468384, -94.9012680053711, -0.15839656, 0.012784969, 0.3221388
982, 135088753, 1.4645953178405762, -0.4094637632369995, -94.90057373046875, -0.1551686, 0.013002884, 0.33943462
983, 135105420, 1.4653626680374146, -0.40913233160972595, -94.90109252929688, -0.17254037, 0.021790529, 0.35579967
984, 135122087, 1.4660344123840332, -0.4097793996334076, -94.90110778808594, -0.16533306, 0.027403597, 0.34447575
985, 135138754, 1.4667739868164062, -0.4091481566429138, -94.90150451660156, -0.15899682, 0.025027158, 0.34833908
986, 135155421, 1.4683393239974976, -0.41052043437957764, -94.90277099609375, -0.15789595, 0.019537114, 0.3446436
987, 135172088, 1.4686578512191772, -0.41085976362228394, -94.90283966064453, -0.1482555, 0.031525176, 0.33490562
988, 135188755, 1.4674073457717896, -0.4115354120731354, -94.90152740478516, -0.14810902, 0.0033666813, 0.35064602
989, 135205422, 1.4674783945083618, -0.41193366050720215, -94.90160369873047, -0.15993333, 0.012047537, 0.33496952
990, 135222089, 1.4679350852966309, -0.4114777743816376, -94.90023040771484, -0.15826926, 0.021686904, 0.3341341
991, 135238756, 1.4682745933532715, -0.4107421338558197, -94.9002685546875, -0.16237347, 0.027220013, 0.34139538
992, 135255423, 1.469393253326416, -0.41081833839416504, -94.8995132446289, -0.16295786, 0.02596257, 0.33151817
993, 135272090, 1.4698853492736816, -0.4109719693660736, -94.89881134033203, -0.15912318, 0.012595618, 0.33200073
994, 135288757, 1.4712070226669312, -0.4119180142879486, -94.89873504638672, -0.15531048, 0.020226777, 0.35180283
995, 135305424, 1.4723314046859741, -0.41209176182746887, -94.8990707397461, -0.15486978, 0.01842704, 0.32158566
996, 135322091, 1.4726556539535522, -0.41178497672080994, -94.89899444580078, -0.15524456, 0.006794008, 0.36444664
997, 135338758, 1.4731417894363403, -0.4120456576347351, -94.8985366821289, -0.1650214, 0.016598495, 0.34716415
998, 135355425, 1.4736930131912231, -0.41149815917015076, -94.89781188964844, -0.15677474, 0.020164933, 0.34825516
999, 135372092, 1.474382996559143, -0.41154736280441284, -94.8975601196289, -0.15302707, 0.020847721, 0.33339882
1000, 135388759, 1.473764181137085, -0.4104843735694885, -94.89716339111328, -0.14812016, 0.023414645, 0.33968258
1001, 135405426, 1.4746769666671753, -0.4114260971546173, -94.89783477783203, -0.15679927, 0.015878007, 0.32860184
1002, 135422093, 1.475496530532837, -0.4117431640625, -94.89861297607422, -0.15449212, 0.036599558, 0.35196495
1003, 135438760, 1.4760169982910156, -0.4112837314605713, -94.89945983886719, -0.14932358, 0.020373331, 0.3265419
1004, 135455427, 1.4764823913574219, -0.41079601645469666, -94.90020751953125, -0.1545157, 0.0148567315, 0.33634567
1005, 135472094, 1.4775779247283936, -0.41144484281539917, -94.8992919921875, -0.15330282, 0.028575642, 0.32468796
1006, 135488761, 1.4778155088424683, -0.4115111827850342, -94.89860534667969, -0.15931839, 0.025485639, 0.33842945
1007, 135505428, 1.4793264865875244, -0.4105747938156128, -94.89693450927734, -0.15370786, 0.029395942, 0.34945107
1008, 135522095, 1.4798195362091064, -0.41117799282073975, -94.89619445800781, -0.1651846, 0.023654582, 0.3260994
1009, 135538762, 1.4800238609313965, -0.4110264480113983, -94.89481353759766, -0.16144279, 0.015861848, 0.35183334
1010, 135555429, 1.4800368547439575, -0.4115729033946991, -94.89578247070312, -0.1566328, 0.007690864, 0.33861542
1011, 135572096, 1.4789997339248657, -0.41195616126060486, -94.89551544189453, -0.15980281, 0.012516589, 0.3446951
1012, 135588763, 1.4795763492584229, -0.4122633635997772, -94.89551544189453, -0.1693855, 0.010328111, 0.34105587
1013, 135605430, 1.481174111366272, -0.4125223159790039, -94.89665222167969, -0.17327957, 0.007394133, 0.32701778
1014, 135622097, 1.4822194576263428, -0.4143003225326538, -94.89710235595703, -0.14783093, 0.020656697, 0.33471203
1015, 135638764, 1.4825040102005005, -0.4139096438884735, -94.89776611328125, -0.16667145, 0.024004387, 0.33877945
1016, 135655431, 1.4818847179412842, -0.4133707582950592, -94.8984603881836, -0.1547499, 0.026845098, 0.33077812
1017, 135672098, 1.4817813634872437, -0.41311052441596985, -94.89742279052734, -0.15094018, 0.022077862, 0.33999634
1018, 135688765, 1.4831082820892334, -0.41345304250717163, -94.89716339111328, -0.15607184, 0.024525305, 0.34768772
1019, 135705432, 1.4833214282989502, -0.4144161641597748, -94.89661407470703, -0.151334, 0.02398953, 0.34107018
1020, 135722099, 1.4833933115005493, -0.4142236113548279, -94.89543914794922, -0.16874321, 0.019492188, 0.36369896
1021, 135738766, 1.4830493927001953, -0.4136427044868469, -94.89527130126953, -0.16125464, 0.020577727, 0.3369789
1022, 135755433, 1.4819464683532715, -0.4146641492843628, -94.8945541381836, -0.14973938, 0.013109995, 0.34940147
1023, 135772100, 1.4803115129470825, -0.41515684127807617, -94.89506530761719, -0.15927611, -3.5406547E-4, 0.33361435
1024, 135788767, 1.4812448024749756, -0.4159265458583832, -94.8945541381836, -0.15672874, 0.01476193, 0.33417702
1025, 135805434, 1.481951117515564, -0.41618597507476807, -94.89341735839844, -0.15137722, 0.019181853, 0.3301983
1026, 135822101, 1.4811521768569946, -0.41595950722694397, -94.89371490478516, -0.14786658, 0.019439038, 0.34700584
1027, 135838768, 1.4798164367675781, -0.4147563874721527, -94.89273071289062, -0.14269811, 0.020335827, 0.34485912
1028, 135855435, 1.4799443483352661, -0.4157876670360565, -94.8932113647461, -0.14842595, 0.013622113, 0.3407936
1029, 135872102, 1.4795536994934082, -0.41621795296669006, -94.89396667480469, -0.16621904, 0.0106922835, 0.33805275
1030, 135888769, 1.4800055027008057, -0.41547924280166626, -94.89376068115234, -0.14375272, 0.020844748, 0.32112408
1031, 135905436, 1.4794600009918213, -0.4161495268344879, -94.8939437866211, -0.16115682, 0.020870294, 0.3118353
1032, 135922103, 1.479427456855774, -0.41518357396125793, -94.89231872558594, -0.1410359, 0.014017025, 0.34460354
1033, 135938770, 1.4792107343673706, -0.41366517543792725, -94.89175415039062, -0.16214594, 0.024581302, 0.35289288
1034, 135955437, 1.478610634803772, -0.41352003812789917, -94.89149475097656, -0.15024032, 0.018317875, 0.3165121
1035, 135972104, 1.4776719808578491, -0.4126933515071869, -94.89057922363281, -0.16327505, 0.012874231, 0.34928322
1036, 135988771, 1.4789315462112427, -0.4116189777851105, -94.89068603515625, -0.15522161, 0.017908609, 0.3416481
1037, 136005438, 1.4787609577178955, -0.4114342927932739, -94.89147186279297, -0.14722617, 0.008874027, 0.35658264
1038, 136022105, 1.478944182395935, -0.4103814661502838, -94.89151763916016, -0.14662737, 0.012134732, 0.33178997
1039, 136038772, 1.4788167476654053, -0.40940552949905396, -94.89136505126953, -0.16524123, 0.009993135, 0.31846142
