PacketCounter,SampleTimeFine,Euler_X,Euler_Y,Euler_Z,FreeAcc_X,FreeAcc_Y,FreeAcc_Z
1,12924056,-0.7870738506317139,-0.6344689726829529,-20.428407669067383,0.021514397,-0.001040404,0.3300562
2,12940723,-0.7840465307235718,-0.678025484085083,-20.456863403320312,-0.0072388235,0.0010631534,0.3335724
3,12957390,-0.7895488142967224,-0.6966263651847839,-20.443002700805664,-0.0039307023,-0.0017846532,0.33998013
4,12974057,-0.7967746257781982,-0.7153480052947998,-20.44978141784668,-0.009318472,0.011795575,0.3194046
5,12990724,-0.7990718483924866,-0.7293623089790344,-20.389148712158203,-0.0040842243,-0.00079331035,0.31020546
6,13007391,-0.8034639954566956,-0.7457996010780334,-20.368600845336918,-0.013040364,0.006586997,0.33390903
7,13024058,-0.8066426515579224,-0.7614588141441345,-20.40497589111328,-0.020938117,0.009692946,0.32937813
8,13040725,-0.8114147186279297,-0.7756633162498474,-20.38861656188965,-0.027068026,0.00063497934,0.31291962
9,13057392,-0.8171367049217224,-0.7878408432006836,-20.388160705566406,-0.02583429,0.018850313,0.31354618
10,13074059,-0.8207969069480896,-0.7988449335098267,-20.379905700683597,-0.027944257,0.024355948,0.348773
11,13090726,-0.8233945965766907,-0.8109909892082214,-20.39773178100586,-0.02357974,0.012060158,0.3393259
12,13107393,-0.8263401389122009,-0.8243712782859802,-20.392013549804688,-0.026621629,-0.00639421,0.3489933
13,13124060,-0.8303139805793762,-0.8396847248077393,-20.38072395324707,-0.026788399,0.007422118,0.3400755
14,13140727,-0.834585428237915,-0.8538525700569153,-20.36598396301269,-0.029453713,0.03324411,0.33774948
15,13157394,-0.8379414677619934,-0.8677874803543091,-20.370441436767575,-0.031137673,0.018514633,0.33830452
16,13174061,-0.8407054543495178,-0.881658673286438,-20.398197174072266,-0.031437274,0.02334616,0.32462502
17,13190728,-0.8445754647254944,-0.8959823250770569,-20.40904998779297,-0.030975802,0.03716144,0.33289242
18,13207395,-0.8459238409996033,-0.9105364680290222,-20.41878890991211,-0.03307201,0.0177141,0.33471298
19,13224062,-0.8497515916824341,-0.9253125190734864,-20.45746612548828,-0.052549798,0.03331384,0.35604572
20,13240729,-0.8527049422264099,-0.9395155906677246,-20.438610076904297,-0.052301664,0.016839389,0.33263874
21,13257396,-0.8552821278572083,-0.9540491700172424,-20.433881759643555,-0.052140225,0.020958446,0.3363285
22,13274063,-0.8594989776611328,-0.9689258337020874,-20.439632415771484,-0.051892348,0.03581566,0.3368454
23,13290730,-0.8625136613845825,-0.9828616976737976,-20.444019317626957,-0.04322193,0.015947433,0.35128498
24,13307397,-0.8669970631599426,-0.9971594214439392,-20.453128814697266,-0.051865462,0.034208197,0.36674595
25,13324064,-0.8711274862289429,-1.012279391288757,-20.45221900939941,-0.03648099,0.029654127,0.34148884
26,13340731,-0.8735011219978333,-1.027377963066101,-20.45277214050293,-0.06349225,0.045826778,0.33073425
27,13357398,-0.8771269917488098,-1.0433286428451538,-20.44701766967773,-0.052326117,0.029860402,0.34982586
28,13374065,-0.8803198933601379,-1.0581872463226318,-20.450571060180664,-0.053651784,0.037706424,0.34279728
29,13390732,-0.8835126161575317,-1.0736548900604248,-20.45821952819824,-0.06602403,0.034081392,0.33185387
30,13407399,-0.8871584534645081,-1.0880188941955566,-20.44845199584961,-0.06650116,0.051692463,0.33972168
31,13424066,-0.8912357687950134,-1.1025081872940063,-20.452192306518555,-0.063456476,0.057976633,0.34792995
32,13440733,-0.8941371440887451,-1.1179307699203491,-20.457902908325195,-0.068555616,0.036486484,0.3330574
33,13457400,-0.8959156274795532,-1.1321560144424438,-20.4691162109375,-0.076027706,0.049440037,0.33470345
34,13474067,-0.8984167575836182,-1.1482161283493042,-20.483661651611328,-0.08535502,0.04689426,0.3318081
35,13490734,-0.9010756015777588,-1.1633446216583252,-20.48265266418457,-0.068896435,0.046272974,0.3224907
36,13507401,-0.90545254945755,-1.1784765720367432,-20.48392105102539,-0.07643052,0.048740752,0.33473587
37,13524068,-0.9090307354927064,-1.1930391788482666,-20.486061096191406,-0.09099232,0.034697726,0.33917427
38,13540735,-0.912971556186676,-1.2090449333190918,-20.504762649536133,-0.08039559,0.04796557,0.3334484
39,13557402,-0.9158143997192384,-1.2237201929092407,-20.518400192260746,-0.09925766,0.05737595,0.33446312
40,13574069,-0.9195733666419984,-1.2394421100616455,-20.527103424072266,-0.09807253,0.052074175,0.32837963
41,13590736,-0.9235331416130066,-1.2541184425354004,-20.541034698486328,-0.091273405,0.060992837,0.3354311
42,13607403,-0.9261078238487244,-1.2688955068588257,-20.536556243896484,-0.092226215,0.05639149,0.3352461
43,13624070,-0.9294123649597168,-1.2846778631210327,-20.551586151123047,-0.103000425,0.0528595,0.3038826
44,13640737,-0.93350350856781,-1.2994784116744995,-20.56027603149414,-0.092363596,0.054695424,0.3441038
45,13657404,-0.9379135966300964,-1.3150204420089722,-20.58966445922852,-0.10627687,0.055579484,0.32297802
46,13674071,-0.941790759563446,-1.3299922943115234,-20.585908889770508,-0.118764445,0.06736412,0.32950878
47,13690738,-0.9439597725868224,-1.3448607921600342,-20.59012985229492,-0.113002,0.052126918,0.33472824
48,13707405,-0.9482062458992004,-1.360519528388977,-20.60929298400879,-0.10614296,0.06644758,0.34736633
49,13724072,-0.9509498476982116,-1.3743319511413574,-20.61038398742676,-0.108933866,0.06758089,0.33990765
50,13740739,-0.954702615737915,-1.3914693593978882,-20.608917236328125,-0.11092219,0.074936524,0.33155918
51,13757406,-0.9583907127380372,-1.4062001705169678,-20.607969284057617,-0.10367998,0.05836295,0.34475422
52,13774073,-0.961816132068634,-1.4201189279556274,-20.6148681640625,-0.12653953,0.07495092,0.34241486
53,13790740,-0.965782880783081,-1.433666110038757,-20.607969284057617,-0.12614968,0.067267746,0.3338251
54,13807407,-0.9692289233207704,-1.4482139348983765,-20.617284774780277,-0.116815224,0.07806515,0.34056568
55,13824074,-0.9727909564971924,-1.4622026681900024,-20.617366790771484,-0.11885,0.07057209,0.337924
56,13840741,-0.9762359857559204,-1.4768974781036377,-20.62248992919922,-0.11705983,0.075937755,0.34569263
57,13857408,-0.9783275127410888,-1.4912168979644775,-20.631385803222656,-0.13131984,0.07644583,0.3238201
58,13874075,-0.9810372591018676,-1.5054388046264648,-20.636659622192383,-0.14440435,0.0784894,0.34130192
59,13890742,-0.984915852546692,-1.520580172538757,-20.641082763671875,-0.15078723,0.082478054,0.3228073
60,13907409,-0.9887920022010804,-1.5345722436904907,-20.640596389770508,-0.124158874,0.081124194,0.3379736
61,13924076,-0.9923166036605836,-1.5488543510437012,-20.651525497436523,-0.132641,0.08517963,0.35590267
62,13940743,-0.9956013560295104,-1.563626050949097,-20.6514892578125,-0.14264923,0.09127716,0.36684895
63,13957410,-0.99882972240448,-1.577728033065796,-20.664644241333008,-0.13858978,0.10693641,0.34887218
64,13974077,-1.0024278163909912,-1.5912582874298096,-20.677431106567383,-0.133663,0.09152596,0.34309006
65,13990744,-1.0056841373443604,-1.6050636768341064,-20.685604095458984,-0.14535609,0.09118696,0.34142494
66,14007411,-1.009470820426941,-1.6180499792099,-20.684494018554688,-0.14604466,0.10404361,0.32932472
67,14024078,-1.0133368968963623,-1.630714774131775,-20.68257141113281,-0.15919553,0.09732957,0.3461647
68,14040745,-1.0166466236114502,-1.643800973892212,-20.68111228942871,-0.14509115,0.09746901,0.33905315
69,14057412,-1.020251750946045,-1.6573073863983154,-20.681550979614254,-0.15804468,0.08845765,0.3508711
70,14074079,-1.0224168300628662,-1.672513723373413,-20.68909454345703,-0.15690355,0.108188026,0.338336
71,14090746,-1.02691912651062,-1.6865826845169067,-20.6945743560791,-0.1493989,0.11731822,0.3678112
72,14107413,-1.029805302619934,-1.6988108158111572,-20.69952964782715,-0.15342532,0.09560759,0.36588764
73,14124080,-1.0325989723205566,-1.7113078832626345,-20.7025146484375,-0.17860009,0.11183269,0.35081482
74,14140747,-1.0355161428451538,-1.7250961065292358,-20.710124969482425,-0.16718999,0.11015284,0.3195877
75,14157414,-1.0386109352111816,-1.7385516166687012,-20.715167999267575,-0.16330038,0.09937343,0.34905434
76,14174081,-1.0400583744049072,-1.7511721849441528,-20.746654510498047,-0.1798884,0.107503586,0.34223366
77,14190748,-1.043379545211792,-1.76391863822937,-20.756908416748047,-0.16805224,0.097165965,0.35689163
78,14207415,-1.046347975730896,-1.7767226696014404,-20.759939193725582,-0.17401138,0.105393216,0.344512
79,14224082,-1.0489903688430786,-1.788976550102234,-20.761924743652344,-0.17143953,0.11624719,0.3301134
80,14240749,-1.0520495176315308,-1.801790714263916,-20.76469993591309,-0.17159064,0.11689813,0.3466854
81,14257416,-1.0551680326461792,-1.8152297735214236,-20.77239990234375,-0.18213248,0.10376126,0.31793022
82,14274083,-1.0582650899887085,-1.826432466506958,-20.776290893554688,-0.17691293,0.11068226,0.3602352
83,14290750,-1.0610183477401731,-1.838666081428528,-20.787199020385746,-0.16924784,0.11154726,0.35758495
84,14307417,-1.0648475885391235,-1.851014852523804,-20.80158805847168,-0.1880639,0.11937159,0.36374855
85,14324084,-1.066786527633667,-1.8620628118515012,-20.801908493041992,-0.1872313,0.12428277,0.3354988
86,14340751,-1.0685211420059204,-1.873659610748291,-20.810302734375,-0.20309669,0.11676163,0.33809662
87,14357418,-1.069856882095337,-1.8858174085617063,-20.8226318359375,-0.19957061,0.12491477,0.33962154
88,14374085,-1.0735037326812744,-1.8981044292449951,-20.82333755493164,-0.19192144,0.11684669,0.33597183
89,14390752,-1.077041506767273,-1.9091213941574097,-20.823596954345703,-0.18568803,0.119721375,0.34115887
90,14407419,-1.079777479171753,-1.919898509979248,-20.828310012817383,-0.20577465,0.116526105,0.3496437
91,14424086,-1.0819567441940308,-1.9318071603775024,-20.835901260375977,-0.20355119,0.13532847,0.34277725
92,14440753,-1.0846235752105713,-1.9423341751098635,-20.84354591369629,-0.19935794,0.12812234,0.3461113
93,14457420,-1.0868089199066162,-1.953511357307434,-20.84988784790039,-0.19660537,0.13145863,0.35026932
94,14474087,-1.088868498802185,-1.9650375843048096,-20.85360336303711,-0.20821945,0.13483605,0.35768032
95,14490754,-1.0918426513671875,-1.9756269454956052,-20.858970642089844,-0.19591653,0.14056708,0.3309698
96,14507421,-1.094413995742798,-1.985864281654358,-20.8656005859375,-0.20747237,0.12047209,0.34440804
97,14524088,-1.096675157546997,-1.9963343143463133,-20.87411880493164,-0.2044496,0.14385381,0.33111286
98,14540755,-1.0989798307418823,-2.006427049636841,-20.880762100219727,-0.209392,0.13480061,0.3564787
99,14557422,-1.1018047332763672,-2.0151541233062744,-20.88701438903809,-0.21500716,0.1325304,0.35250568
100,14574089,-1.1037625074386597,-2.0243442058563232,-20.87972068786621,-0.2028813,0.13507807,0.32538605
101,14590756,-1.1059198379516602,-2.033735513687134,-20.89352226257324,-0.2014537,0.12938856,0.32280827
102,14607423,-1.107678771018982,-2.042143583297729,-20.90987968444824,-0.21591274,0.12626289,0.3526821
103,14624090,-1.1096712350845337,-2.052052497863769,-20.919530868530277,-0.20584017,0.14292853,0.33584976
104,14640757,-1.1126688718795776,-2.06039834022522,-20.925785064697266,-0.21122147,0.12509124,0.34401226
105,14657424,-1.1135001182556152,-2.0690128803253174,-20.93162727355957,-0.20167212,0.14979914,0.34456253
106,14674091,-1.1154069900512695,-2.0785627365112305,-20.934734344482425,-0.2153046,0.15407668,0.33024597
107,14690758,-1.11766254901886,-2.086452007293701,-20.948829650878903,-0.23169042,0.14637491,0.34754372
108,14707425,-1.1189467906951904,-2.0942654609680176,-20.95820999145508,-0.21650499,0.13086005,0.35821438
109,14724092,-1.1205317974090576,-2.103126287460327,-20.95845031738281,-0.23075551,0.13233373,0.38557148
110,14740759,-1.1211620569229126,-2.1118922233581543,-20.95927619934082,-0.21572073,0.15003775,0.35132885
111,14757426,-1.1232149600982666,-2.118581771850586,-20.957618713378903,-0.21952423,0.14422894,0.33218288
112,14774093,-1.1254509687423706,-2.126620292663574,-20.9685115814209,-0.20968635,0.1459699,0.36408997
113,14790760,-1.127030372619629,-2.134202718734741,-20.97404670715332,-0.21267937,0.1396609,0.33567142
114,14807427,-1.1289314031600952,-2.1415865421295166,-20.97610282897949,-0.21367128,0.15394585,0.36666012
115,14824094,-1.1307594776153564,-2.149420976638794,-20.982690811157227,-0.2264638,0.1485016,0.34292984
116,14840761,-1.1329275369644165,-2.1565682888031006,-20.9868221282959,-0.21742496,0.13271458,0.36695194
117,14857428,-1.134490966796875,-2.164159059524536,-20.987836837768555,-0.22128737,0.1586875,0.33556652
118,14874095,-1.1358081102371216,-2.170194149017334,-20.994230270385746,-0.22637163,0.14970785,0.35777378
119,14890762,-1.137513279914856,-2.1760056018829346,-20.99750518798828,-0.23266634,0.14203061,0.36037445
120,14907429,-0.809336245059967,-0.6067948341369629,-21.27771377563477,0.002536645,-0.019293834,0.35763168
121,14924096,-0.8100401163101196,-0.6069393754005432,-21.282299041748047,0.017708387,-0.0150780305,0.3556385
122,14940763,-0.8107501268386841,-0.6064662337303162,-21.272647857666016,0.003127746,-0.00027744944,0.35974312
123,14957430,-0.8099952936172485,-0.6071537137031555,-21.266508102416992,0.0018517349,-0.0007665726,0.32430363
124,14974097,-0.8096433281898499,-0.608604371547699,-21.261165618896484,0.010875662,-0.0013012016,0.33955288
125,14990764,-0.8083183765411377,-0.6082059144973755,-21.25876235961914,0.011326648,-0.011316356,0.3361473
126,15007431,-0.8095284700393677,-0.6082409620285034,-21.257030487060547,0.0009557239,-0.00060023705,0.366539
127,15024098,-0.810814619064331,-0.6089036464691162,-21.255756378173828,0.0042373934,-0.008657103,0.32182217
128,15040765,-0.8118544220924377,-0.6074861288070679,-21.24034118652344,0.009923186,-0.003261466,0.3569317
129,15057432,-0.8116130232810974,-0.6065113544464111,-21.2322998046875,0.008764495,-0.0062345727,0.34981537
130,15074099,-0.8122484683990479,-0.6059207916259766,-21.2231559753418,-0.0049689547,-0.0034427282,0.3310032
131,15090766,-0.8127254843711853,-0.606452465057373,-21.215755462646484,0.009418668,-0.002805772,0.33425808
132,15107433,-0.812642514705658,-0.6067779660224915,-21.21027565002441,0.010875508,-0.0020778463,0.3640957
133,15124100,-0.8124753832817078,-0.6054431796073914,-21.202281951904297,0.0057672383,-0.007966973,0.329525
134,15140767,-0.812018871307373,-0.6049315333366394,-21.19698143005371,0.0063559753,0.014494368,0.34350204
135,15157434,-0.8119808435440063,-0.6055772304534912,-21.18716812133789,0.007460632,-0.008831227,0.35007095
136,15174101,-0.8124793171882629,-0.6054109334945679,-21.180280685424805,0.010934097,0.0071827564,0.35011673
137,15190768,-0.8126745820045471,-0.6053880453109741,-21.17274475097656,0.013359398,-0.007771853,0.3078308
138,15207435,-0.8115135431289673,-0.6058143377304077,-21.16520118713379,0.0051282602,0.0050170836,0.33126736
139,15224102,-0.8108178377151489,-0.6059455871582031,-21.160205841064453,0.00030409286,0.012004043,0.35049534
140,15240769,-0.8103452920913696,-0.6070603132247925,-21.153470993041992,0.0036977355,-0.011612434,0.33875275
141,15257436,-0.8101567029953003,-0.606606125831604,-21.14232063293457,-0.000760412,-0.0024385753,0.33502388
142,15274103,-0.8094443678855896,-0.6067680716514587,-21.1365909576416,0.006389268,-0.0014642264,0.32933712
143,15290770,-0.8101115226745605,-0.6067072749137878,-21.128257751464844,-0.009637355,0.0015184004,0.35412216
144,15307437,-0.8093498945236206,-0.6058158278465271,-21.12095260620117,0.0031034704,0.014777838,0.34740543
145,15324104,-0.8091521263122559,-0.6049899458885193,-21.11791229248047,0.008470114,-0.012019157,0.3337431
146,15340771,-0.8082796335220337,-0.6056383848190308,-21.111722946166992,0.0073554865,-0.006036596,0.3480234
147,15357438,-0.8075814247131348,-0.6057405471801758,-21.10282516479492,0.0039082393,-0.0016493021,0.34625435
148,15374105,-0.8082156777381897,-0.606418251991272,-21.0949764251709,0.0064364015,0.000425876,0.33717632
149,15390772,-0.8087235689163208,-0.6068896651268005,-21.090538024902344,0.008625752,0.015406308,0.3464384
150,15407439,-0.808620035648346,-0.6062842011451721,-21.08702850341797,-0.0075061866,-0.007633715,0.33464527
151,15424106,-0.8090214133262634,-0.6064478158950806,-21.08073616027832,-0.0025978282,-0.008055721,0.35638142
152,15440773,-0.8090652823448181,-0.6066029071807861,-21.071754455566406,0.0010295006,-0.0076251584,0.35234356
153,15457440,-0.8085495233535767,-0.6058473587036133,-21.067827224731445,0.004531079,-0.0064506675,0.34452248
154,15474107,-0.8070522546768188,-0.6060956120491028,-21.063385009765625,0.005574867,0.001931131,0.33010006
155,15490774,-0.8056926727294922,-0.6071385741233826,-21.05773162841797,-0.0027981028,-0.0068778847,0.33090878
156,15507441,-0.8064023852348328,-0.6070326566696167,-21.052553176879883,-0.004729908,0.0012395818,0.35992813
157,15524108,-0.8062876462936401,-0.6066821813583374,-21.04694557189941,0.0040831487,0.00798514,0.3541584
158,15540775,-0.8057562112808228,-0.6061813831329346,-21.042600631713867,0.0009370606,-0.010311365,0.3370247
159,15557442,-0.805659294128418,-0.6063417196273804,-21.03824615478516,-0.002189889,-0.0050129346,0.3420477
160,15574109,-0.8050280809402466,-0.6067488193511963,-21.032188415527344,0.009060276,-0.007816185,0.32643032
161,15590776,-0.8055724501609802,-0.6076982021331787,-21.02823638916016,-0.005383404,-0.012018313,0.33957672
162,15607443,-0.8049178719520569,-0.6075223684310913,-21.02305603027344,0.01128563,-0.00038216525,0.36178017
163,15624110,-0.8053308725357056,-0.6075119376182556,-21.01571083068848,-0.001457521,0.0054268525,0.3709154
164,15640777,-0.8045231699943542,-0.6066789031028748,-21.009435653686523,0.0120306825,-0.00093463337,0.33987713
165,15657444,-0.8053241968154907,-0.6051139831542969,-21.0052547454834,0.017942624,-0.003304737,0.36329365
166,15674111,-0.805174708366394,-0.6042754650115967,-21.00461769104004,0.012499718,-0.013294062,0.34298706
167,15690778,-0.8045493364334106,-0.6039198637008667,-21.001140594482425,0.022763321,0.0024352784,0.35605717
168,15707445,-0.8037405610084534,-0.6048130989074707,-20.993804931640625,0.0005187526,-0.0075264005,0.36525536
169,15724112,-0.8046324253082275,-0.605365514755249,-20.98727226257324,-0.009269117,0.0010166767,0.34039307
170,15740779,-0.8046599626541138,-0.6048671007156372,-20.98128890991211,0.00969492,-0.0013817361,0.34403324
171,15757446,-0.8045324087142944,-0.6063534617424011,-20.976566314697266,-0.0046656234,-0.008575152,0.34494877
172,15774113,-0.8045438528060913,-0.6068070530891418,-20.972431182861328,-0.00020618371,-0.0020749336,0.3644762
173,15790780,-0.80613112449646,-0.6061339974403381,-20.970569610595703,0.001976616,-0.00074542966,0.34308052
174,15807447,-0.8066243529319763,-0.6050935983657837,-20.9682731628418,-0.00057324086,-0.007020877,0.32218075
175,15824114,-0.8060868978500366,-0.6063408851623535,-20.96420288085937,0.0039254637,0.006315959,0.3256359
176,15840781,-0.8057529330253601,-0.6061756014823914,-20.96100807189941,-0.014136073,0.006916699,0.33991528
177,15857448,-0.8063896298408508,-0.6054192781448364,-20.957019805908203,0.006787327,0.014004337,0.2955799
178,15874115,-0.8075531721115112,-0.6052751541137695,-20.9527587890625,0.0067870547,-0.0011724302,0.33501148
179,15890782,-0.8067057132720947,-0.6057694554328918,-20.94805145263672,0.00433663,-0.0017352777,0.33049774
180,15907449,-0.8067089319229126,-0.6056430339813232,-20.945222854614254,0.006672878,-0.0004910021,0.3341503
181,15924116,-0.8061327934265137,-0.606830894947052,-20.937562942504883,0.011887219,-0.004410316,0.33883476
182,15940783,-0.8062002658843994,-0.6069638729095459,-20.93425941467285,0.006018603,-0.0008254683,0.325593
183,15957450,-0.8057472109794617,-0.6059017777442932,-20.92898750305176,0.010456593,0.0010919237,0.35625362
184,15974117,-0.8056023120880127,-0.6059725284576416,-20.924034118652344,0.009702767,-0.00092303863,0.36714077
185,15990784,-0.8057377934455872,-0.6058875322341919,-20.91872215270996,0.0110225445,0.00885485,0.3481493
186,16007451,-0.8058169484138489,-0.6059170365333557,-20.91628074645996,-0.0007174277,-0.006810349,0.33311367
187,16024118,-0.8057536482810974,-0.6050792932510376,-20.915987014770508,0.00817542,0.0030314294,0.3423319
188,16040785,-0.8050117492675781,-0.6069002151489258,-20.91160774230957,0.017313847,0.0020805146,0.34084797
189,16057452,-0.805752694606781,-0.6075302958488464,-20.909557342529297,0.0018466465,0.0047701853,0.32023335
190,16074119,-0.8059959411621094,-0.6070696711540222,-20.901540756225582,0.014635622,-0.013989655,0.30727577
191,16090786,-0.8063889145851135,-0.6070847511291504,-20.89751434326172,0.015934741,0.0054765283,0.33762264
192,16107453,-0.8061938881874084,-0.6063337922096252,-20.89193153381348,-0.011107015,0.0013945602,0.34670925
193,16124120,-0.8062285780906677,-0.6050508618354797,-20.88623809814453,5.0534883e-05,0.002996722,0.35867023
194,16140787,-0.8062080144882202,-0.6060959100723267,-20.881732940673828,-0.005290199,-0.0039878064,0.3379202
195,16157454,-0.8057732582092285,-0.6047048568725586,-20.87626075744629,-0.00041795176,0.0045302375,0.33534145
196,16174121,-0.8055583834648132,-0.6051164865493774,-20.87190055847168,-0.0039643934,-0.015694143,0.32029724
197,16190788,-0.8055777549743652,-0.6050494909286499,-20.868337631225582,-0.0045129186,-0.0055874186,0.34092903
198,16207455,-0.8057618141174316,-0.6050677299499512,-20.86299705505371,0.005537017,-0.0068531865,0.35198307
199,16224122,-0.8043083548545837,-0.6063218712806702,-20.860689163208008,0.01318701,-0.01000372,0.39079475
200,16240789,-0.8036286234855652,-0.6073765754699707,-20.85937118530273,0.000630799,0.002932567,0.3516512
201,16257456,-0.803245484828949,-0.6074033975601196,-20.85462188720703,0.0066825626,-0.0019183907,0.3386526
202,16274123,-0.8030155301094055,-0.6072477102279663,-20.852636337280277,-0.006792213,-0.008399324,0.34961605
203,16290790,-0.8030304312705994,-0.6068581938743591,-20.84768295288086,0.014147043,-0.0070193405,0.35023403
204,16307457,-0.8034659624099731,-0.6067805290222168,-20.84434127807617,-0.013927464,0.0035340402,0.37399197
205,16324124,-0.8048263788223267,-0.6068790555000305,-20.839744567871094,0.013276268,0.0134929605,0.3540659
206,16340791,-0.8046951293945312,-0.6054856181144714,-20.83458137512207,0.004662662,0.006123724,0.33571053
207,16357458,-0.8050671219825745,-0.6062548160552979,-20.830650329589844,0.004243156,0.010876713,0.33234978
208,16374125,-0.8049344420433044,-0.6059242486953735,-20.828901290893555,0.011690499,0.0005397349,0.3491993
209,16390792,-0.8054468035697937,-0.6052913665771484,-20.82613754272461,0.0005260727,-0.011353369,0.34267044
210,16407459,-0.8055365681648254,-0.605979859828949,-20.82214736938477,0.0042920774,-0.009959738,0.34803104
211,16424126,-0.805307924747467,-0.6078829765319824,-20.819896697998047,0.021491759,0.006828691,0.34844017
212,16440793,-0.8053781390190125,-0.6083704829216003,-20.816974639892575,0.0031976672,0.00076626526,0.34346008
213,16457460,-0.8052821755409241,-0.6081529259681702,-20.813522338867188,0.00010436658,-0.014407303,0.33191013
214,16474127,-0.8063313961029053,-0.6086465716362,-20.81039810180664,0.0044633094,0.000240018,0.3318329
215,16490794,-0.8071677088737488,-0.6082199811935425,-20.8068904876709,0.009843255,-0.006998051,0.34274197
216,16507461,-0.8076545000076294,-0.608891487121582,-20.803205490112305,0.012677337,-0.00999112,0.35659885
217,16524128,-0.8078031539916992,-0.6095661520957947,-20.798349380493164,0.011737102,-0.0018948939,0.33786488
218,16540795,-0.8088886141777039,-0.6096680164337158,-20.793476104736328,0.004471558,-0.00234968,0.32290554
219,16557462,-0.808940589427948,-0.6096511483192444,-20.792011260986328,0.005478135,0.0047569424,0.31928062
220,16574129,-0.8090335130691528,-0.6091585755348206,-20.79377174377441,-0.0069966507,-0.0022112555,0.3455124
221,16590796,-0.8091024160385132,-0.6087377667427063,-20.79131507873535,-0.00020775879,0.0048448946,0.38597107
222,16607463,-0.8092830181121826,-0.6088945865631104,-20.78782081604004,0.0036015306,0.0004888717,0.33106327
223,16624130,-0.8088352084159851,-0.609113872051239,-20.786693572998047,0.004411178,0.0064616827,0.30893707
224,16640797,-0.808308482170105,-0.6084596514701843,-20.78156471252441,0.01205617,0.004709013,0.33166313
225,16657464,-0.8086420893669128,-0.6087970733642578,-20.780691146850582,0.0035627582,0.003319321,0.3400116
226,16674131,-0.8095511794090271,-0.6087048053741455,-20.778148651123047,0.00950691,-0.0040290584,0.32466888
227,16690798,-0.8088791370391846,-0.6089227199554443,-20.774503707885746,0.01591012,0.006157803,0.338089
228,16707465,-0.8096500635147095,-0.6085568070411682,-20.770864486694336,-0.00046247276,-0.012944704,0.31895065
229,16724132,-0.8099851012229919,-0.6092334389686584,-20.77251434326172,0.0078114355,0.0028761367,0.3266325
230,16740799,-0.8092487454414368,-0.6098546981811523,-20.771299362182617,0.025002075,0.015097343,0.33406734
231,16757466,-0.8094785809516907,-0.610238790512085,-20.76640892028809,0.00794137,-0.0127757285,0.3299284
232,16774133,-0.8094893097877502,-0.6089913845062256,-20.76528549194336,-0.00028839108,-0.00835798,0.34087276
233,16790800,-0.8083756566047668,-0.6090163588523865,-20.76329040527344,0.006879942,-0.0002552099,0.31896877
234,16807467,-0.8071337938308716,-0.6084269881248474,-20.761558532714844,-0.006369424,0.0045271013,0.3525629
235,16824134,-0.8086912035942078,-0.607978105545044,-20.762020111083984,0.01169022,0.0064520994,0.35270405
236,16840801,-0.808278501033783,-0.6092277765274048,-20.759052276611328,0.0090120565,-0.0048813345,0.33553886
237,16857468,-0.8083937764167786,-0.6098144054412842,-20.75649070739746,0.011696911,0.001806278,0.34993935
238,16874135,-0.8091133832931519,-0.6104634404182434,-20.75272560119629,0.009899351,0.0026204938,0.3265772
239,16890802,-0.8093699812889099,-0.6105489134788513,-20.75093460083008,-0.0012860516,-0.0076449392,0.3405018
240,16907469,-0.808312177658081,-0.6107604503631592,-20.77103614807129,-0.0074977805,0.004739781,0.34945488
241,16924136,-0.8086273670196533,-0.6110943555831909,-20.76873016357422,0.011123664,-0.0026459533,0.3337574
242,16940803,-0.8090015649795532,-0.6114762425422668,-20.768808364868164,0.0014435269,0.002201372,0.33234882
243,16957470,-0.8093470931053162,-0.6119524836540222,-20.76828956604004,0.0028642206,-0.0048500006,0.3432541
244,16974137,-0.8089062571525574,-0.6121517419815063,-20.76445579528809,0.011606249,0.007440893,0.33233356
245,16990804,-0.8080273270606995,-0.6127298474311829,-20.76176071166992,0.0011575177,-0.013552163,0.35273838
246,17007471,-0.8080247044563293,-0.6127824783325195,-20.7581787109375,-0.004699545,-0.0006092474,0.32115173
247,17024138,-0.8088778853416443,-0.6137588024139404,-20.75396728515625,-0.007197592,-0.014595403,0.35921192
248,17040805,-0.8091168403625488,-0.6131324768066406,-20.752439498901367,0.00260826,-0.004886552,0.341424
249,17057472,-0.8086445927619934,-0.61415696144104,-20.7542781829834,0.01180601,0.014952954,0.31929302
250,17074139,-0.8093188405036926,-0.6137803196907043,-20.75444793701172,-0.00315279,0.008752152,0.33872032
251,17090806,-0.8089180588722229,-0.6137060523033142,-20.75290298461914,-0.0069055236,-0.008676619,0.33343124
252,17107473,-0.8095778822898865,-0.6146059632301331,-20.749704360961918,-0.0009878156,-0.00727842,0.36048985
253,17124140,-0.8090704679489136,-0.6142432689666748,-20.74557304382324,0.0037498837,0.003837892,0.33138466
254,17140807,-0.8098218441009521,-0.615142822265625,-20.74469947814941,0.011504439,0.0059093195,0.33618355
255,17157474,-0.8098739981651306,-0.6136365532875061,-20.743335723876957,0.005501258,0.0033479796,0.32566166
256,17174141,-0.8090854287147522,-0.6138896346092224,-20.74222755432129,0.0038291123,-0.0035595417,0.34228516
257,17190808,-0.8089085221290588,-0.6130014657974243,-20.737628936767575,0.006546862,0.00032811004,0.35688305
258,17207475,-0.8092753887176514,-0.6139695048332214,-20.73589134216309,0.009466741,0.0057311933,0.3372841
259,17224142,-0.8096476197242737,-0.6139166355133057,-20.73401641845703,-0.0040066023,-0.005462985,0.33567047
260,17240809,-0.808857262134552,-0.612065315246582,-20.73143768310547,0.0026408336,-0.008276713,0.31795597
261,17257476,-0.8071566224098206,-0.6110785603523254,-20.73150634765625,0.005002737,0.0011245705,0.3260994
262,17274143,-0.806739330291748,-0.61232990026474,-20.730457305908203,0.0036292532,-0.007014884,0.35372543
263,17290810,-0.806972086429596,-0.6134286522865295,-20.72516441345215,-0.004238361,-0.015457388,0.33470154
264,17307477,-0.8074535727500916,-0.6132712364196777,-20.723682403564453,0.010060489,-0.008123557,0.36375427
265,17324144,-0.8064075708389282,-0.612972617149353,-20.722898483276367,0.0049222615,0.0022435812,0.3417759
266,17340811,-0.8073198795318604,-0.613312304019928,-20.721540451049805,0.009903999,-0.00030307658,0.33845997
267,17357478,-0.8074008822441101,-0.6127373576164246,-20.71844291687012,0.014295372,-0.00994611,0.33403015
268,17374145,-0.8072493076324463,-0.6126779317855835,-20.714771270751957,0.0039602863,-0.0077325073,0.37059116
269,17390812,-0.8074025511741638,-0.6125456690788269,-20.711750030517575,-0.0024101087,0.009780124,0.35255432
270,17407479,-0.8076111674308777,-0.6131712794303894,-20.7083797454834,0.008056454,0.0048430576,0.33342934
271,17424146,-0.8083120584487915,-0.6134267449378967,-20.70562744140625,0.0019353987,0.020854963,0.3374176
272,17440813,-0.8083218932151794,-0.6132422685623169,-20.7053337097168,0.016331432,-0.006842933,0.33397007
273,17457480,-0.8089991211891174,-0.6144720315933228,-20.702362060546875,0.014580284,0.0038036178,0.3371601
274,17474147,-0.8089176416397095,-0.6147364377975464,-20.701736450195312,0.0023871183,-0.0013719295,0.33670807
275,17490814,-0.8090482950210571,-0.6150439977645874,-20.69958877563477,-0.0041759727,-0.014468622,0.34807396
276,17507481,-0.8095940947532654,-0.6142380833625793,-20.697912216186523,0.033187278,0.010694403,0.34438992
277,17524148,-0.8085382580757141,-0.6131787300109863,-20.700159072875977,0.028426489,0.012657232,0.3418026
278,17540815,-0.8075799942016602,-0.613560676574707,-20.698617935180664,0.0069317585,0.00067375187,0.32814312
279,17557482,-0.8077082633972168,-0.6124141812324524,-20.697490692138672,0.00042825082,-0.0065061757,0.35570145
280,17574149,-0.807033896446228,-0.6119661927223206,-20.69590377807617,0.007157206,-0.0023415915,0.34148502
281,17590816,-0.8079912662506104,-0.6130287647247314,-20.694541931152344,0.014644978,0.0073883533,0.32909775
282,17607483,-0.808076024055481,-0.6133773326873779,-20.692598342895508,-0.0021224755,-0.0030303607,0.3507614
283,17624150,-0.8070930242538452,-0.6142568588256836,-20.69167900085449,-0.0097201,-0.0048326994,0.3407507
284,17640817,-0.8077588081359863,-0.614503026008606,-20.689830780029297,0.010285602,-0.0034838964,0.354352
285,17657484,-0.8080078959465027,-0.6160805821418762,-20.688077926635746,0.011552075,0.0063219033,0.36671638
286,17674151,-0.8073084354400635,-0.6159706115722656,-20.68621826171875,0.009636541,0.0022801184,0.33658218
287,17690818,-0.8062482476234436,-0.6168333292007446,-20.684261322021484,0.009786176,0.003864532,0.3538046
288,17707485,-0.8057334423065186,-0.6176111698150635,-20.68319702148437,-0.0031986835,0.0054357443,0.348135
289,17724152,-0.80591881275177,-0.6188299655914307,-20.681276321411133,-0.013027018,-0.005497783,0.33180904
290,17740819,-0.8052064776420593,-0.6199618577957153,-20.68071937561035,-0.0104149105,-0.0119261835,0.362175
291,17757486,-0.8046243786811829,-0.6199007034301758,-20.67818832397461,0.00043338464,0.0062626377,0.34399128
292,17774153,-0.8043152689933777,-0.6202046275138855,-20.67862319946289,-0.005540666,0.0126584815,0.34443855
293,17790820,-0.8032144904136658,-0.621110200881958,-20.676740646362305,-0.0005929659,-0.007407359,0.33205128
294,17807487,-0.8022738695144653,-0.6218331456184387,-20.677051544189453,-0.0060610743,0.0044522383,0.35465717
295,17824154,-0.8010091781616211,-0.6211803555488586,-20.67616271972656,-0.012084258,-0.0017646138,0.34282207
296,17840821,-0.8001585006713867,-0.6191768050193787,-20.673961639404297,0.009979057,-0.0019261369,0.34239388
297,17857488,-0.7990753054618835,-0.6193791627883911,-20.6715087890625,-0.0066593974,-0.006749435,0.33275795
298,17874155,-0.7990134358406067,-0.6188133358955383,-20.668306350708008,-0.003950857,0.0016820189,0.34984684
299,17890822,-0.799232006072998,-0.6189274787902832,-20.66754150390625,-0.0014930421,-0.0132150985,0.33594704
300,17907489,-0.7998650670051575,-0.6180713176727295,-20.66405487060547,0.0038457115,0.0057703992,0.35685444
301,17924156,-0.8002589344978333,-0.6179465055465698,-20.66227912902832,0.008547341,-0.014076469,0.37547684
302,17940823,-0.8005227446556091,-0.6183710098266602,-20.661489486694336,-0.002169972,0.002721382,0.34012604
303,17957490,-0.8001976013183594,-0.6192659139633179,-20.65885734558105,-0.00040351422,0.0038109168,0.3322773
304,17974157,-0.7987030744552612,-0.6209997534751892,-20.656757354736328,-0.001637662,0.0014682915,0.3288107
305,17990824,-0.7985529899597168,-0.6224943399429321,-20.65591049194336,-0.014608366,-0.007937846,0.34200668
306,18007491,-0.7983012199401855,-0.6237849593162537,-20.65445899963379,0.0009976047,-0.01870867,0.35674286
307,18024158,-0.7983406782150269,-0.6239938139915466,-20.65270233154297,0.0023091228,-0.00959034,0.3593855
308,18040825,-0.7973851561546326,-0.6259952187538147,-20.653488159179688,-0.0013156321,-0.009577146,0.34343052
309,18057492,-0.7969356179237366,-0.6260294318199158,-20.65596389770508,0.0055124825,-0.010566638,0.36326122
310,18074159,-0.7969872951507568,-0.6272756457328796,-20.65416717529297,0.011938208,-0.00088720676,0.33896637
311,18090826,-0.7965087890625,-0.629609227180481,-20.65231132507324,0.0016562345,-0.012002073,0.35212708
312,18107493,-0.7965385317802429,-0.6287569403648376,-20.650623321533203,0.0011983437,-0.00013498087,0.36786366
313,18124160,-0.7960361838340759,-0.6294549107551575,-20.64794540405273,0.0022901942,0.009400046,0.34335804
314,18140827,-0.7950984239578247,-0.6310862898826599,-20.64773750305176,-0.005670398,0.008012199,0.3646555
315,18157494,-0.79494708776474,-0.6311178207397461,-20.647253036499023,-0.0020758277,-0.001750791,0.31462383
316,18174161,-0.7950779795646667,-0.6306028962135315,-20.64586639404297,-0.009694361,-0.009552909,0.35738087
317,18190828,-0.7941650152206421,-0.6309686303138733,-20.645414352416992,0.0082584545,0.0069866725,0.35794926
318,18207495,-0.7934688329696655,-0.6314433813095093,-20.64413833618164,-0.00991589,-0.0020159122,0.3478098
319,18224162,-0.7936342358589172,-0.632670521736145,-20.64320945739746,-0.00032279114,-0.00010812439,0.33791447
320,18240829,-0.7931393980979919,-0.6321719288825989,-20.6448917388916,-0.012167235,-0.0106409555,0.3531704
321,18257496,-0.7941709756851196,-0.6326198577880859,-20.64361953735352,-0.00013416715,-0.010117014,0.36122894
322,18274163,-0.7945449352264404,-0.6336888670921326,-20.64146614074707,0.006422994,0.0003073862,0.32321262
323,18290830,-0.793778121471405,-0.6336578130722046,-20.641082763671875,-0.007121186,-0.0013347635,0.34883213
324,18307497,-0.7936576008796692,-0.6339679956436157,-20.637962341308597,0.0058661257,-0.012085443,0.3348322
325,18324164,-0.7929937839508057,-0.6338030099868774,-20.635984420776367,-0.008933865,-0.0048908195,0.3204317
326,18340831,-0.7920464873313904,-0.6343134045600891,-20.635860443115234,-0.0023561933,0.0037893339,0.34224033
327,18357498,-0.7928407788276672,-0.6346510648727417,-20.635028839111328,-0.007482585,-0.017694501,0.35425854
328,18374165,-0.793437659740448,-0.6349719166755676,-20.633161544799805,0.00060680625,-0.005456098,0.33307552
329,18390832,-0.7927536964416504,-0.6340610384941101,-20.632699966430664,-0.0016249217,0.0032640155,0.3457451
330,18407499,-0.7919074296951294,-0.6339206695556641,-20.63054656982422,-0.00090977456,-0.0008159899,0.35321045
331,18424166,-0.7905893921852112,-0.6341764330863953,-20.62838554382324,-0.008000611,0.003609015,0.34235764
332,18440833,-0.7905634641647339,-0.6336460113525391,-20.62605094909668,0.0041899984,0.012512178,0.37637424
333,18457500,-0.791816234588623,-0.6348122954368591,-20.62554359436035,0.00016020291,-0.002740639,0.3419323
334,18474167,-0.7918164730072021,-0.6359602808952332,-20.622020721435547,0.0025420163,0.00013789353,0.31755257
335,18490834,-0.791480541229248,-0.6347331404685974,-20.622011184692383,-0.0018319401,0.008249681,0.34775448
336,18507501,-0.7916244268417358,-0.6330125331878662,-20.62223243713379,0.0028513025,0.005557084,0.33260632
337,18524168,-0.7923343181610107,-0.632782518863678,-20.62118530273437,0.002791181,0.002134374,0.33062172
338,18540835,-0.7918232679367065,-0.634122371673584,-20.61916732788086,-0.0070280856,0.00851326,0.34686184
339,18557502,-0.7909941077232361,-0.6346557140350342,-20.61702537536621,0.0016910746,-0.005076398,0.35129833
340,18574169,-0.7913562059402466,-0.6337714195251465,-20.616493225097656,0.0088578705,-0.010340233,0.32992268
341,18590836,-0.7919114828109741,-0.6352857351303101,-20.616153717041016,-0.01012908,-0.0036355918,0.3634653
342,18607503,-0.7913597822189331,-0.6353538632392883,-20.61600112915039,-0.0015434861,-0.006870257,0.3452406
343,18624170,-0.7911828756332397,-0.6354730129241943,-20.616748809814453,0.0016426456,0.009206086,0.34316158
344,18640837,-0.790258526802063,-0.6366193294525146,-20.615631103515625,0.002683727,-0.0014416865,0.3519802
345,18657504,-0.7894151210784912,-0.6370589137077332,-20.61629295349121,0.00025407836,-0.004485025,0.33050728
346,18674171,-0.7893096804618835,-0.6359556913375854,-20.615652084350582,-0.0062655257,-0.0050813225,0.34235287
347,18690838,-0.7896578907966614,-0.6338980793952942,-20.61564826965332,0.011932246,-0.010314459,0.3288412
348,18707505,-0.7894440293312073,-0.6343153715133667,-20.61431121826172,0.0005109576,-0.0059623895,0.3544731
349,18724172,-0.7890190482139587,-0.6347450613975525,-20.612380981445312,0.005641809,-0.0021040812,0.33487034
350,18740839,-0.788793683052063,-0.6355528831481934,-20.610952377319336,0.00056788354,0.0036053827,0.33057594
351,18757506,-0.7881278991699219,-0.6348879933357239,-20.610126495361328,0.0074031577,0.0007360631,0.3394909
352,18774173,-0.7884374856948853,-0.635809600353241,-20.608821868896484,0.0037676427,-0.0008622012,0.3350067
353,18790840,-0.7882199287414551,-0.6340579986572266,-20.60754776000977,-0.0092900125,-0.0031446875,0.35211182
354,18807507,-0.7883629202842712,-0.634358823299408,-20.606142044067383,-0.0014548703,-0.007976842,0.34498787
355,18824174,-0.7886437177658081,-0.6344187259674072,-20.60514259338379,0.008984446,0.002812694,0.35230064
356,18840841,-0.7872322797775269,-0.6346701979637146,-20.604677200317383,-0.0015433674,0.0043651313,0.34295368
357,18857508,-0.7869485020637512,-0.6347602009773254,-20.60512351989746,0.0004655356,-0.012045385,0.33230686
358,18874175,-0.7853443026542664,-0.633378803730011,-20.60560607910156,-0.0028341583,0.009440356,0.35469723
359,18890842,-0.7853068113327026,-0.632537305355072,-20.60405158996582,-0.0064815474,-0.0024237395,0.34392643
360,18907509,-0.8042823672294617,-0.6283422708511353,-20.608863830566406,0.008035898,0.018156998,0.33715057
361,18924176,-0.8048906922340393,-0.6279265284538269,-20.60665702819824,0.015211202,0.003623606,0.3397112
362,18940843,-0.8058923482894897,-0.6276281476020813,-20.60319328308105,-0.010246173,-0.007605692,0.3522215
363,18957510,-0.8065789937973022,-0.6276698708534241,-20.602149963378903,0.0021815808,0.009600727,0.3584423
364,18974177,-0.8057621121406555,-0.6277382969856262,-20.602258682250977,0.0032444582,-0.0022746564,0.34390354
365,18990844,-0.8058128356933594,-0.6280947327613831,-20.602027893066406,0.0049763867,0.0067270137,0.33670235
366,19007511,-0.8051521182060242,-0.6280557513237,-20.598337173461918,0.0055645155,0.0031725569,0.35325813
367,19024178,-0.8042218685150146,-0.6275463700294495,-20.59653854370117,0.010134619,-0.003094467,0.32458496
368,19040845,-0.8043537735939026,-0.6282154321670532,-20.595468521118164,0.00028396273,-0.0152235795,0.32313442
369,19057512,-0.8042936325073242,-0.6296840310096741,-20.59426689147949,-0.00039094512,0.009631844,0.33331966
370,19074179,-0.8053504824638367,-0.6296296119689941,-20.594940185546875,0.0048250617,0.0024823349,0.3430338
371,19090846,-0.8044725656509399,-0.6301160454750061,-20.593896865844727,-0.0028378393,-0.008776648,0.32420444
372,19107513,-0.8040651082992554,-0.6314307451248169,-20.59363555908203,-0.00826517,0.0034660015,0.33377552
373,19124180,-0.8042362928390503,-0.6308603286743164,-20.593936920166016,0.0058388393,0.0072852513,0.31882668
374,19140847,-0.8046023845672607,-0.6303651928901672,-20.592992782592773,0.0047092573,-0.0039455555,0.34916592
375,19157514,-0.8048850297927856,-0.630142331123352,-20.59293556213379,0.008576974,-0.009588266,0.35771275
376,19174181,-0.8045881986618042,-0.6305994391441345,-20.59349632263184,-0.0042419652,0.0021949392,0.35839653
377,19190848,-0.8050187230110168,-0.6296461820602417,-20.59035301208496,8.9014036e-05,-0.010050057,0.35306168
378,19207515,-0.806011974811554,-0.6295987963676453,-20.590984344482425,0.006093068,0.019296838,0.359416
379,19224182,-0.8063972592353821,-0.6307522058486938,-20.589216232299805,0.016240057,0.003155912,0.36078072
380,19240849,-0.80629962682724,-0.6303263306617737,-20.58822631835937,0.003031817,-0.00844974,0.33312416
381,19257516,-0.8063727021217346,-0.6314495801925659,-20.586545944213867,0.0025293424,0.0010233122,0.34906578
382,19274183,-0.8057981729507446,-0.6308855414390564,-20.58359146118164,-0.012577171,0.005054836,0.35159683
383,19290850,-0.8052663207054138,-0.6301387548446655,-20.585742950439453,-0.0031085762,0.009516511,0.3435459
384,19307517,-0.8052804470062256,-0.6305301785469055,-20.58538818359375,-0.008005926,0.015570457,0.3660097
385,19324184,-0.8045052886009216,-0.6303943991661072,-20.58573341369629,0.0017024248,-0.012917813,0.34152317
386,19340851,-0.8044667840003967,-0.6311824321746826,-20.58492088317871,-0.004232239,0.0015146565,0.36755466
387,19357518,-0.8050991296768188,-0.6314632296562195,-20.58497810363769,-0.0028946395,-0.0050733807,0.3344717
388,19374185,-0.8046546578407288,-0.6314144730567932,-20.58418655395508,-0.0047036484,0.005956928,0.3153305
389,19390852,-0.805269718170166,-0.6309182643890381,-20.5836124420166,-0.0034667559,0.0016055774,0.36008072
390,19407519,-0.8045896291732788,-0.6305674910545349,-20.584352493286133,0.0077855675,0.0061996346,0.33372974
391,19424186,-0.8041412234306335,-0.6301866769790649,-20.582693099975582,-0.004717887,-0.0019308376,0.35028934
392,19440853,-0.8053833246231079,-0.6292158365249634,-20.58099174499512,0.0029191596,-0.0040707714,0.3403883
393,19457520,-0.804555356502533,-0.6291621923446655,-20.580175399780277,0.004675472,0.0037958228,0.34575176
394,19474187,-0.8036810755729675,-0.6277899742126465,-20.580230712890625,0.0059280805,0.015794536,0.34544563
395,19490854,-0.8032750487327576,-0.6287915706634521,-20.580360412597656,0.008999086,0.0074977004,0.35351944
396,19507521,-0.8046171069145203,-0.6299672722816467,-20.580175399780277,-0.0012904102,-0.002044061,0.36882973
397,19524188,-0.8055338263511658,-0.6314111948013306,-20.580596923828125,-0.01085687,0.016359234,0.34298992
398,19540855,-0.8048526048660278,-0.6311975717544556,-20.580078125,0.0061004614,-0.011870061,0.3290491
399,19557522,-0.8048790693283081,-0.6324291825294495,-20.57982444763184,-0.0032825812,-0.0016509296,0.3323288
400,19574189,-0.8045743107795715,-0.6322405934333801,-20.580509185791016,-0.008626291,-0.0057780403,0.34048557
401,19590856,-0.8040493726730347,-0.6323695778846741,-20.57908058166504,0.00921932,-0.003457529,0.34279633
402,19607523,-0.8026460409164429,-0.6314893364906311,-20.5777645111084,0.0015386492,0.016995827,0.3224907
403,19624190,-0.8025737404823303,-0.6310163736343384,-20.576311111450195,0.0007998621,0.0059276475,0.32447433
404,19640857,-0.8025426864624023,-0.6301141381263733,-20.577407836914062,-0.004586168,0.0017792959,0.3408947
405,19657524,-0.8034769296646118,-0.6298090219497681,-20.575422286987305,-0.00622186,0.012678933,0.36302853
406,19674191,-0.8022184371948242,-0.6297162175178528,-20.57503700256348,0.00037463565,-5.076538e-05,0.34495163
407,19690858,-0.8021320104598999,-0.6296030879020691,-20.57541275024414,0.0077462327,0.010426258,0.34964466
408,19707525,-0.8019627332687378,-0.6296212077140808,-20.57410049438477,0.008726533,-0.00038397431,0.35835552
409,19724192,-0.801810085773468,-0.6297800540924072,-20.573261260986328,0.004148156,-0.0048373863,0.33425236
410,19740859,-0.8023870587348938,-0.6293441653251648,-20.573640823364254,-0.0025164695,-0.0090164775,0.32877064
411,19757526,-0.8027545809745789,-0.6294276714324951,-20.57351875305176,-0.00607255,-0.0084776785,0.33053017
412,19774193,-0.8015915751457214,-0.6285596489906311,-20.57368850708008,-0.0028015987,0.004412886,0.34851265
413,19790860,-0.8013308644294739,-0.6288421154022217,-20.572553634643555,-0.015125827,0.006630449,0.34206295
414,19807527,-0.8022720813751221,-0.6287782788276672,-20.57093048095703,0.002401458,0.0020510526,0.34360218
415,19824194,-0.8013797998428345,-0.6290530562400818,-20.570613861083984,-0.0014189581,-0.0015867813,0.34325695
416,19840861,-0.8011793494224548,-0.6297955513000488,-20.57175064086914,0.0059102206,-0.0020370062,0.34470654
417,19857528,-0.8005543351173401,-0.6314011812210083,-20.572067260742188,0.0045037824,0.008059507,0.3604355
418,19874195,-0.8004596829414368,-0.6314146518707275,-20.571443557739254,0.006277574,0.011472383,0.3621664
419,19890862,-0.7995642423629761,-0.6315961480140686,-20.572267532348636,-0.001576884,0.01167506,0.34803486
420,19907529,-0.7986692190170288,-0.6318965554237366,-20.56943893432617,0.0012654046,-0.001044504,0.3224964
421,19924196,-0.7986458539962769,-0.6322208046913147,-20.569425582885746,0.0011791077,0.01608525,0.33267117
422,19940863,-0.7983919978141785,-0.6327470541000366,-20.56904602050781,0.004205145,0.00034453825,0.33607483
423,19957530,-0.7990410327911377,-0.6325402855873108,-20.56824111938477,-0.0089309495,-0.0044938256,0.36537933
424,19974197,-0.7999022006988525,-0.6333774924278259,-20.568675994873047,-8.855304e-05,0.0111340955,0.3393469
425,19990864,-0.8004367351531982,-0.6339753866195679,-20.569061279296875,-0.00703023,-0.0091448575,0.3311262
426,20007531,-0.7997748255729675,-0.6344590187072754,-20.56881523132324,0.0028394843,0.0070440946,0.34958935
427,20024198,-0.8004429936408997,-0.6340365409851074,-20.567895889282227,-0.009745734,-0.010130082,0.33846474
428,20040865,-0.8009122014045715,-0.6343833804130554,-20.56842422485352,0.01956746,0.012354958,0.32133293
429,20057532,-0.8001307845115662,-0.6343721747398376,-20.56605339050293,-0.0034786335,0.0043191854,0.3253622
430,20074199,-0.8006467223167419,-0.633915901184082,-20.56602478027344,0.0030091654,0.0031819094,0.34876633
431,20090866,-0.8005589842796326,-0.6325618624687195,-20.56704330444336,0.0057933126,-0.010864735,0.33166122
432,20107533,-0.8006706833839417,-0.6320683360099792,-20.56614112854004,0.005852652,-0.014238139,0.3559971
433,20124200,-0.8008074164390564,-0.6319498419761658,-20.564178466796875,0.00095067394,-0.0019630375,0.34804344
434,20140867,-0.8012078404426575,-0.6323133111000061,-20.562328338623047,-0.0073868833,0.0032852353,0.33216095
435,20157534,-0.8019229173660278,-0.6317542791366577,-20.559606552124023,0.0064757396,0.0022149505,0.34081078
436,20174201,-0.8033449053764343,-0.631957471370697,-20.556827545166016,-0.004594588,-0.010063273,0.32599068
437,20190868,-0.8024504780769348,-0.6324770450592041,-20.555757522583008,0.013097552,0.014114585,0.3470602
438,20207535,-0.8025797009468079,-0.6340147256851196,-20.554611206054688,-0.006147923,-0.0050267293,0.35889053
439,20224202,-0.804382860660553,-0.6328334212303162,-20.553964614868164,0.0020704842,-0.016962502,0.34283543
440,20240869,-0.8029997944831848,-0.6315191984176636,-20.554975509643555,-0.01189697,0.0040997025,0.36160564
441,20257536,-0.8033040761947632,-0.632631778717041,-20.554128646850582,0.004143927,-0.002930723,0.3280325
442,20274203,-0.8037987351417542,-0.6341183185577393,-20.552879333496094,-0.00570704,0.0043805465,0.35418606
443,20290870,-0.8042674660682678,-0.6334490180015564,-20.554180145263672,0.013156224,0.0025142552,0.34205914
444,20307537,-0.8039388656616211,-0.6323714852333069,-20.555055618286133,0.0013503395,0.0036413614,0.34038162
445,20324204,-0.8052283525466919,-0.6325907707214355,-20.55227851867676,-0.004894686,-0.00011558414,0.36064816
446,20340871,-0.8056378960609436,-0.6349855065345764,-20.551374435424805,0.0077965753,0.002988082,0.33538914
447,20357538,-0.8062989115715027,-0.6350444555282593,-20.55159568786621,0.0025754874,-0.011312682,0.3384943
448,20374205,-0.8062667846679688,-0.633747398853302,-20.552663803100582,0.004428909,0.01023294,0.32645702
449,20390872,-0.8051901459693909,-0.6331427097320557,-20.55366325378418,-0.0006586927,0.0066201463,0.34151363
450,20407539,-0.8048557043075562,-0.6332519054412842,-20.55284118652344,-0.003626784,-0.008220953,0.33735752
451,20424206,-0.8041309714317322,-0.6337617635726929,-20.55261611938477,0.008360932,0.006749931,0.31747055
452,20440873,-0.8033284544944763,-0.6348739862442017,-20.5517520904541,-0.0021070635,0.008262282,0.34011364
453,20457540,-0.8031987547874451,-0.6359226703643799,-20.552568435668945,0.007233972,-0.0041739577,0.32899666
454,20474207,-0.8030579686164856,-0.6355463862419128,-20.55216217041016,0.007759734,-0.0019158273,0.329031
455,20490874,-0.8032070398330688,-0.6363197565078735,-20.55169486999512,-0.010776823,0.0034860338,0.34253025
456,20507541,-0.8032414317131042,-0.6361221075057983,-20.552175521850582,0.002259646,-0.0016949336,0.3477354
457,20524208,-0.8030389547348022,-0.6366989612579346,-20.55219268798828,0.017092938,0.0030308776,0.34161854
458,20540875,-0.8025729656219482,-0.6365770697593689,-20.552122116088867,-0.007271348,-0.007322976,0.3442011
459,20557542,-0.8022186160087585,-0.6360058188438416,-20.5516300201416,0.0027567914,0.0029949897,0.3571844
460,20574209,-0.8012577295303345,-0.637179434299469,-20.55129623413086,-0.0036181335,0.0059451093,0.34364033
461,20590876,-0.8007054924964905,-0.6376631259918213,-20.551807403564453,0.003557743,5.634622e-05,0.3330536
462,20607543,-0.8002995848655701,-0.6376714110374451,-20.54938316345215,0.0046320963,0.0030078907,0.32293987
463,20624210,-0.8003027439117432,-0.6367685198783875,-20.547786712646484,-0.0025676435,0.0022700324,0.33165646
464,20640877,-0.8004542589187622,-0.63630211353302,-20.545875549316406,-0.002524799,0.00037711524,0.34024715
465,20657544,-0.8019524216651917,-0.6352728605270386,-20.545440673828125,0.0017133979,0.0023073102,0.34148407
466,20674211,-0.801783561706543,-0.6361180543899536,-20.545093536376957,0.011832203,0.010227401,0.34109974
467,20690878,-0.8031676411628723,-0.6364924311637878,-20.54356002807617,0.0117396405,0.009224024,0.35683918
468,20707545,-0.8039705753326416,-0.6334749460220337,-20.543045043945312,0.006095464,0.010219187,0.35323524
469,20724212,-0.8041836619377136,-0.6331542730331421,-20.54181289672852,0.007532537,0.009734282,0.33927822
470,20740879,-0.8045286536216736,-0.6331037878990173,-20.541616439819336,-0.017597895,0.0036302346,0.32853985
471,20757546,-0.804339587688446,-0.6327887177467346,-20.54031562805176,-0.002951031,-0.0003766403,0.32253647
472,20774213,-0.8051124215126038,-0.6332340240478516,-20.539033889770508,0.006604001,0.008935265,0.35695457
473,20790880,-0.8052240014076233,-0.6332536935806274,-20.539201736450195,-0.02370305,0.0058702882,0.332263
474,20807547,-0.8045958280563354,-0.6339837312698364,-20.538915634155277,-0.010290735,0.002047148,0.32711792
475,20824214,-0.8040896654129028,-0.6343162059783936,-20.53994369506836,0.014229805,-0.003383588,0.34129333
476,20840881,-0.8038734793663025,-0.6347122192382812,-20.537715911865234,0.0061171865,-0.0052554323,0.34098053
477,20857548,-0.8039376139640808,-0.6348069906234741,-20.535232543945312,0.016615056,0.00078762474,0.34244823
478,20874215,-0.8037264943122864,-0.6345812678337097,-20.5352783203125,0.0012993786,-0.010304548,0.33581638
479,20890882,-0.8035950064659119,-0.6336120963096619,-20.53535270690918,0.0023461387,0.0023279502,0.3364792
480,20907549,-0.8020539879798889,-0.6311777234077454,-20.53730773925781,0.008462138,-0.002442899,0.35266972
481,20924216,-0.8020603060722351,-0.6300731301307678,-20.53749084472656,0.0034573614,-0.0027442712,0.34818935
482,20940883,-0.8029757142066956,-0.630665123462677,-20.536029815673828,-0.0074658985,0.013713729,0.33688068
483,20957550,-0.80308997631073,-0.6313783526420593,-20.5353946685791,0.011987778,0.0036043979,0.33017159
484,20974217,-0.8038919568061829,-0.6317906975746155,-20.534202575683597,-0.0051829754,0.008750644,0.33450127
485,20990884,-0.8040855526924133,-0.6331729888916016,-20.53267288208008,5.987353e-05,0.0005330784,0.32894897
486,21007551,-0.8051863312721252,-0.633006751537323,-20.53184509277344,-0.002434545,0.011834767,0.33932972
487,21024218,-0.8043999671936035,-0.6335477828979492,-20.530824661254883,-0.0047306027,-0.00045334015,0.35306644
488,21040885,-0.803239107131958,-0.632755696773529,-20.52928733825684,0.007992872,-0.0013486632,0.32905102
489,21057552,-0.8033302426338196,-0.6321347951889038,-20.52909278869629,-0.012951751,0.0031942865,0.3403654
490,21074219,-0.8044787645339966,-0.6319615244865417,-20.530656814575195,-0.0037182183,0.004281167,0.34897995
491,21090886,-0.8048291206359863,-0.6311623454093933,-20.52971076965332,0.0025747993,0.0021547347,0.3279953
492,21107553,-0.8045516610145569,-0.6317737698554993,-20.529170989990234,-0.0033263373,-0.008979794,0.33931446
493,21124220,-0.8044218420982361,-0.6332228779792786,-20.528594970703125,0.0039465055,-0.0031335608,0.34309578
494,21140887,-0.8039893507957458,-0.6328519582748413,-20.52782249450684,-0.0059445263,0.0056744493,0.34983253
495,21157554,-0.8035125732421875,-0.633071780204773,-20.528488159179688,0.0061963866,-0.0092299115,0.32356644
496,21174221,-0.803852915763855,-0.6320623159408569,-20.52709579467773,-0.0008581815,0.0067553995,0.32509804
497,21190888,-0.8035494089126587,-0.6302668452262878,-20.52735137939453,-0.016934978,-0.007970996,0.34487343
498,21207555,-0.8036372661590576,-0.6309703588485718,-20.525680541992188,0.012933179,-0.0019387933,0.34328747
499,21224222,-0.8041914701461792,-0.6314514875411987,-20.524633407592773,0.01245235,0.0031994414,0.3338108
500,21240889,-0.8045429587364197,-0.6315948367118835,-20.52449607849121,-0.0008333995,-0.0005999856,0.3398533
501,21257556,-0.8045823574066162,-0.6323307156562805,-20.52448272705078,0.0005262787,0.004512999,0.34182453
502,21274223,-0.8040712475776672,-0.6315452456474304,-20.52423667907715,0.013207545,0.014925231,0.3326397
503,21290890,-0.8050436973571777,-0.6311047673225403,-20.522314071655277,0.008480703,-0.0037160425,0.34762096
504,21307557,-0.8056424260139465,-0.6301005482673645,-20.521413803100582,0.011191751,-0.011876598,0.32619476
505,21324224,-0.8067120313644409,-0.6295850872993469,-20.520278930664062,0.008315133,0.005114682,0.32142448
506,21340891,-0.8074913024902344,-0.629109263420105,-20.520565032958984,0.0155167235,-0.0004601014,0.3459425
507,21357558,-0.8077956438064575,-0.6292697191238403,-20.520416259765625,-0.009836452,-0.0025842288,0.35489082
508,21374225,-0.8076674342155457,-0.6289268732070923,-20.52225112915039,-0.004763686,-0.010595038,0.3609028
509,21390892,-0.8077475428581238,-0.6279444694519043,-20.519847869873047,0.008086084,-0.00088175863,0.3270769
510,21407559,-0.8087323904037476,-0.6276843547821045,-20.51768493652344,0.0041319304,-0.0093188,0.32354164
511,21424226,-0.8096792697906494,-0.6279018521308899,-20.51557731628418,0.006353817,0.012473217,0.32764816
512,21440893,-0.8097410798072815,-0.6289454102516174,-20.51564598083496,0.010556,0.0053382087,0.33469296
513,21457560,-0.8097236752510071,-0.6281125545501709,-20.51592445373535,0.003156153,-0.01074906,0.35320187
514,21474227,-0.8101844191551208,-0.6282837986946106,-20.516679763793945,-0.0056304033,-0.012971253,0.31942368
515,21490894,-0.810741662979126,-0.6295023560523987,-20.51638984680176,0.009968573,-0.014268697,0.3264227
516,21507561,-0.8103126883506775,-0.6309940218925476,-20.51719093322754,0.0009282109,-0.0021282346,0.3325262
517,21524228,-0.8116580247879028,-0.6316909790039062,-20.516979217529297,0.007827417,0.00015326703,0.3449192
518,21540895,-0.8120918273925781,-0.6320573091506958,-20.5163516998291,0.004875097,0.0005579652,0.34464455
519,21557562,-0.8119061589241028,-0.6311911940574646,-20.516477584838867,-0.0064786384,0.0076869316,0.32929993
520,21574229,-0.8116720914840698,-0.6309266090393066,-20.51529884338379,0.011065229,-0.012324574,0.34798908
521,21590896,-0.8109264969825745,-0.6315681338310242,-20.51532745361328,-0.003294396,0.0011644606,0.3396473
522,21607563,-0.8114880919456482,-0.6320659518241882,-20.513011932373047,-0.007759357,0.019063057,0.32223797
523,21624230,-0.8123608827590942,-0.6328665018081665,-20.513202667236328,-0.004780041,0.0066710515,0.35591316
524,21640897,-0.8119080662727356,-0.631690263748169,-20.512529373168945,0.0037162486,-0.003510236,0.33964443
525,21657564,-0.811940610408783,-0.6328541040420532,-20.511775970458984,-0.003193871,-0.008710852,0.32483196
526,21674231,-0.8122256994247437,-0.6335282921791077,-20.51137924194336,0.0012961656,0.004780118,0.3576784
527,21690898,-0.812333345413208,-0.632975161075592,-20.51112937927246,-0.0003532832,0.0042277477,0.3636179
528,21707565,-0.8118175864219666,-0.6333224177360535,-20.51156997680664,0.011425479,0.0021245745,0.34959698
529,21724232,-0.8117861151695251,-0.6333640813827515,-20.512187957763672,0.0055910437,-0.003547926,0.3511963
530,21740899,-0.8115409016609192,-0.6330259442329407,-20.51195907592773,0.0049863923,-0.004140291,0.35580063
531,21757566,-0.8117126822471619,-0.6333939433097839,-20.511157989501957,-0.00671244,-0.0060069943,0.33855534
532,21774233,-0.8126441836357117,-0.6333450675010681,-20.511070251464844,-9.126663e-05,-0.0041778134,0.33790302
533,21790900,-0.8124850392341614,-0.6330996155738831,-20.509780883789062,0.014768193,0.0050693927,0.3249359
534,21807567,-0.8128350377082825,-0.632552444934845,-20.51093101501465,0.013501538,-0.008773547,0.34231567
535,21824234,-0.8125153183937073,-0.6324236392974854,-20.511045455932617,0.008612622,0.008479215,0.35449505
536,21840901,-0.8124068975448608,-0.6338710188865662,-20.510303497314453,-0.008494229,-0.020737126,0.34837818
537,21857568,-0.8126644492149353,-0.6335287094116211,-20.5091495513916,0.0038815923,0.0029305483,0.3263836
538,21874235,-0.8122333288192749,-0.6325883269309998,-20.50979423522949,0.0052055153,-0.009897266,0.3404684
539,21890902,-0.8117819428443909,-0.632168710231781,-20.508384704589844,-0.0020135408,-0.009755788,0.33818722
540,21907569,-0.8118209838867188,-0.6321960687637329,-20.50812721252441,0.0038534927,-0.006653513,0.3489523
541,21924236,-0.8112838268280029,-0.631950318813324,-20.50916862487793,0.008450288,-0.00833074,0.3578596
542,21940903,-0.8104161620140076,-0.6320667266845703,-20.50826072692871,0.004564662,0.009488216,0.34599304
543,21957570,-0.8094892501831055,-0.6322863101959229,-20.509132385253903,0.0009929354,0.0027477355,0.3548212
544,21974237,-0.8088982701301575,-0.6326916217803955,-20.509685516357425,0.0037051917,-0.003518492,0.3315029
545,21990904,-0.8091620802879333,-0.6327329874038696,-20.509870529174805,0.0033585092,0.0033082431,0.33909512
546,22007571,-0.8104108572006226,-0.6331619024276733,-20.50983047485352,0.005277808,-0.00044521687,0.36749363
547,22024238,-0.8113963603973389,-0.6331173777580261,-20.509477615356445,0.0034019055,-0.00027913976,0.3345394
548,22040905,-0.8117673993110657,-0.6326716542243958,-20.508684158325195,-0.0037966259,-0.0055311355,0.3248062
549,22057572,-0.8112396597862244,-0.6315158009529114,-20.50662612915039,0.012579935,0.0015672588,0.3518753
550,22074239,-0.8117693662643433,-0.6316642761230469,-20.506893157958984,-0.0007303461,0.0034424767,0.34173775
551,22090906,-0.8111011385917664,-0.6315427422523499,-20.50784111022949,-0.0039619245,0.0019859755,0.34217358
552,22107573,-0.8104575276374817,-0.6303679943084717,-20.50619888305664,-0.008673556,0.010111538,0.34246445
553,22124240,-0.811467170715332,-0.6301373243331909,-20.505495071411133,-0.0024431085,-0.006030149,0.31628895
554,22140907,-0.8121098875999451,-0.6288349032402039,-20.50532531738281,-0.006437159,0.01204774,0.32381058
555,22157574,-0.8121232390403748,-0.6279577016830444,-20.50530815124512,0.009324891,-0.008475702,0.3395071
556,22174241,-0.8128829598426819,-0.6290239095687866,-20.504852294921875,0.0007646448,-0.0012730041,0.34699154
557,22190908,-0.8125401735305786,-0.6302347183227539,-20.503211975097656,-0.004902858,-0.0027150468,0.32291412
558,22207575,-0.8126578330993652,-0.6307372450828552,-20.502700805664062,0.008024828,-0.0046104295,0.33227253
559,22224242,-0.8114219307899475,-0.6324113607406616,-20.502412796020508,-0.008053255,-0.004101819,0.33384705
560,22240909,-0.8113131523132324,-0.6321387887001038,-20.503087997436523,0.00092652056,0.006075753,0.34778786
561,22257576,-0.8110549449920654,-0.6314756870269775,-20.50162506103516,-0.013925688,-0.0022282216,0.33027554
562,22274243,-0.8102445006370544,-0.6311390995979309,-20.501205444335938,-0.008030646,0.00058036536,0.33581734
563,22290910,-0.8100542426109314,-0.6319484114646912,-20.50110244750977,0.007551455,-0.0033117705,0.33665562
564,22307577,-0.8102424144744873,-0.6327624320983887,-20.499685287475582,-0.005945298,0.0013008454,0.3409834
565,22324244,-0.8099223971366882,-0.6321316361427307,-20.49862098693848,0.008638367,-0.00764693,0.34683037
566,22340911,-0.809910237789154,-0.631031334400177,-20.49871253967285,0.009107605,-0.006532313,0.35154915
567,22357578,-0.8106801509857178,-0.6299803256988525,-20.498655319213867,-0.0031393862,-0.0063342243,0.3393669
568,22374245,-0.811144232749939,-0.6303525567054749,-20.49760627746582,0.0072509944,0.000695265,0.34099865
569,22390912,-0.8116406202316284,-0.6298757791519165,-20.496374130249023,0.010952522,-0.00814382,0.333086
570,22407579,-0.8114744424819946,-0.6297054290771484,-20.49612045288086,0.012199686,0.008590357,0.35174847
571,22424246,-0.8110590577125549,-0.6292532682418823,-20.494543075561523,0.0037325127,0.0007091368,0.3580742
572,22440913,-0.8103308081626892,-0.6305392384529114,-20.494600296020508,-0.004948664,0.0030796523,0.35812378
573,22457580,-0.8095008134841919,-0.6304574012756348,-20.49620056152344,0.0042794873,0.012367747,0.33620358
574,22474247,-0.8097731471061707,-0.6318168640136719,-20.497785568237305,0.003574964,0.005267502,0.32727528
575,22490914,-0.8097899556159973,-0.632239043712616,-20.49623680114746,0.007510849,0.009329494,0.34694386
576,22507581,-0.809928297996521,-0.6317384243011475,-20.496240615844727,-0.0025435705,0.008842026,0.35169506
577,22524248,-0.80950927734375,-0.6311224699020386,-20.495235443115234,0.005844668,0.0027794605,0.33299255
578,22540915,-0.8083650469779968,-0.630092442035675,-20.495502471923828,-0.013310982,0.0072905733,0.33174038
579,22557582,-0.8090920448303223,-0.63082355260849,-20.496103286743164,0.0039923675,0.005657853,0.3587761
580,22574249,-0.8088424205780029,-0.6312550902366638,-20.4952449798584,0.008155237,-0.0006963476,0.35893536
581,22590916,-0.8088178038597107,-0.6314284205436707,-20.49565887451172,-0.0020349214,0.0050957114,0.3331442
582,22607583,-0.8089267611503601,-0.6320453882217407,-20.49605941772461,0.0010534095,0.009923857,0.33545113
583,22624250,-0.8093398809432983,-0.6308338642120361,-20.49505424499512,-0.0013311978,0.0024041543,0.334136
584,22640917,-0.8090878129005432,-0.6294741630554199,-20.49595069885254,-0.0029624722,0.00020494741,0.33636093
585,22657584,-0.8099619150161743,-0.6284167170524597,-20.493572235107425,0.0045171827,-0.0067715556,0.34496117
586,22674251,-0.8090481758117676,-0.6279754638671875,-20.493995666503903,-0.0045190617,-0.0019513519,0.33712578
587,22690918,-0.808477520942688,-0.6277230978012085,-20.49570083618164,-0.007710184,-0.0030448122,0.3379898
588,22707585,-0.807521402835846,-0.6266052722930908,-20.49528312683105,-0.008480203,-0.004240711,0.34878826
589,22724252,-0.8073950409889221,-0.6256160140037537,-20.494428634643555,0.008517,-0.004573983,0.3609085
590,22740919,-0.8069180846214294,-0.6263831853866577,-20.49380111694336,0.0016513661,-0.0012795419,0.33821583
591,22757586,-0.8067184686660767,-0.6262571811676025,-20.49435806274414,0.0009709752,-0.002861357,0.3396654
592,22774253,-0.80719393491745,-0.627249538898468,-20.494060516357425,-0.00645606,0.008432683,0.31841564
593,22790920,-0.8071115612983704,-0.626211404800415,-20.49409484863281,0.008460587,0.01337542,0.35692883
594,22807587,-0.8071073889732361,-0.6248969435691833,-20.493783950805664,0.014774374,0.010892709,0.32348824
595,22824254,-0.8055567145347595,-0.6243242025375366,-20.494129180908203,-0.006922741,0.0038298666,0.33508396
596,22840921,-0.8065244555473328,-0.626250684261322,-20.494686126708984,-0.007760946,0.006712094,0.35912037
597,22857588,-0.8062624931335449,-0.6243687272071838,-20.491811752319336,0.0006213381,0.010823056,0.34452438
598,22874255,-0.805787980556488,-0.624889612197876,-20.49081420898437,0.011564718,-0.003935546,0.3402958
599,22890922,-0.8052046895027161,-0.6238833069801331,-20.490619659423828,0.0027961296,0.003682313,0.3463936
600,22907589,-0.8027741312980652,-0.6292625665664673,-20.491004943847656,0.008705941,0.01760673,0.34073162
601,22924256,-0.8025307655334473,-0.630161702632904,-20.490461349487305,-0.005147175,0.005454163,0.3327856
602,22940923,-0.8011149168014526,-0.6295971274375916,-20.489961624145508,-0.0038697112,0.007668485,0.34403706
603,22957590,-0.8007158637046814,-0.6284447312355042,-20.49110984802246,-0.012656437,0.0020281426,0.3408966
604,22974257,-0.800648033618927,-0.6276130676269531,-20.491708755493164,-0.0042320993,-0.0074705435,0.3526392
605,22990924,-0.8007086515426636,-0.6257265210151672,-20.490476608276367,0.015272487,0.0015427003,0.322855
606,23007591,-0.8008544445037842,-0.6257650852203369,-20.488574981689453,0.0062900875,-0.009593979,0.33201027
607,23024258,-0.800853967666626,-0.6263086795806885,-20.48891830444336,-0.0029661183,-0.0006640849,0.35639572
608,23040925,-0.800054669380188,-0.6256679892539978,-20.48826789855957,-0.0022633027,-0.003973907,0.34462357
609,23057592,-0.7998548150062561,-0.624229907989502,-20.486921310424805,-0.002923242,-0.0010189746,0.3317957
610,23074259,-0.8001973032951355,-0.623917818069458,-20.48626518249512,-0.0039591826,-0.004319835,0.33920956
611,23090926,-0.8006916642189026,-0.623008668422699,-20.485212326049805,-0.007862023,0.0020515835,0.32938766
612,23107593,-0.800939679145813,-0.6219304800033569,-20.48560905456543,0.007336404,0.00040648624,0.3307867
613,23124260,-0.8011462688446045,-0.6214087605476379,-20.486217498779297,-0.004442509,-0.0044407765,0.35591602
614,23140927,-0.8014688491821289,-0.6213395595550537,-20.486083984375,0.0011292049,-0.011240299,0.34140682
615,23157594,-0.8012987375259399,-0.6231164336204529,-20.48611831665039,-0.0057000206,-0.008023005,0.3220148
616,23174261,-0.8010931015014648,-0.6240090131759644,-20.487154006958008,0.0025818297,0.0018217703,0.33389473
617,23190928,-0.8010439276695251,-0.6231964230537415,-20.484317779541016,0.007609359,-0.0030227124,0.33455086
618,23207595,-0.8003652691841125,-0.6236994862556458,-20.48568153381348,0.010081056,-0.00093056826,0.35379505
619,23224262,-0.8005203008651733,-0.6230691075325012,-20.487234115600582,-0.012907236,-0.00088717183,0.32736588
620,23240929,-0.801218569278717,-0.6225627064704895,-20.488563537597656,-0.006355116,-0.015617311,0.35114002
621,23257596,-0.8009791374206543,-0.6222876310348511,-20.48746681213379,-0.009737443,-0.0006497382,0.3596468
622,23274263,-0.8012679219245911,-0.6223968863487244,-20.48638153076172,0.0054055387,-0.004722801,0.35005474
623,23290930,-0.8007934093475342,-0.622045636177063,-20.48730087280273,0.00094419555,-0.0022333416,0.34236526
624,23307597,-0.8002267479896545,-0.6229011416435242,-20.48715591430664,0.0033709072,-0.0050427457,0.3693285
625,23324264,-0.7988209128379822,-0.6222750544548035,-20.486330032348636,0.00462632,-0.011998399,0.3755617
626,23340931,-0.7998398542404175,-0.6213384866714478,-20.48657989501953,0.009651289,0.001787028,0.36303616
627,23357598,-0.8004013299942017,-0.6202403903007507,-20.48670959472656,0.0074953325,0.008111718,0.34763718
628,23374265,-0.7994878888130188,-0.6206169724464417,-20.486106872558597,0.014131355,0.014471975,0.34290314
629,23390932,-0.7984291911125183,-0.6194900274276733,-20.486188888549805,0.002192037,-0.0034975866,0.33168125
630,23407599,-0.7990796566009521,-0.6191507577896118,-20.485963821411133,0.011461556,0.010341882,0.3456478
631,23424266,-0.8002870082855225,-0.6200814843177795,-20.48607063293457,-0.00072175823,-0.0007955245,0.34927464
632,23440933,-0.7988499402999878,-0.6199784874916077,-20.484479904174805,0.012339864,0.0046128533,0.3314085
633,23457600,-0.7982016205787659,-0.6207761168479919,-20.482805252075195,-0.013954782,-0.016087813,0.35184288
634,23474267,-0.7983988523483276,-0.6199238300323486,-20.48291778564453,0.005959704,0.0037508756,0.35268116
635,23490934,-0.7981566190719604,-0.6207351684570312,-20.4831600189209,-0.009515806,-0.005841588,0.33884716
636,23507601,-0.7979761958122253,-0.619177520275116,-20.48318862915039,0.00290563,-0.0007444239,0.31673527
637,23524268,-0.7988147139549255,-0.6191681623458862,-20.48269844055176,0.010260017,0.004851593,0.3558445
638,23540935,-0.7972837686538696,-0.6187931895256042,-20.48162269592285,0.0067280685,0.008378907,0.32827377
639,23557602,-0.7968277931213379,-0.6185665130615234,-20.48141860961914,0.007433248,0.00165394,0.34278202
640,23574269,-0.7960249185562134,-0.6181376576423645,-20.481046676635746,0.010499144,0.00030864344,0.3598318
641,23590936,-0.7954752445220947,-0.6186217069625854,-20.47970199584961,0.007783528,-0.0073606726,0.33675575
642,23607603,-0.7954760789871216,-0.6184189319610596,-20.480239868164062,0.006897358,-0.004173797,0.32313728
643,23624270,-0.7961268424987793,-0.6183863878250122,-20.48036003112793,0.0050943703,-0.0084947,0.30507278
644,23640937,-0.7958872318267822,-0.6193875074386597,-20.47903823852539,0.00750034,0.007828465,0.34561634
645,23657604,-0.7956737875938416,-0.6193636059761047,-20.47881317138672,0.002648206,-0.007390791,0.34044647
646,23674271,-0.7951650619506836,-0.6188039779663086,-20.47812271118164,-0.004594166,-0.012865664,0.38007164
647,23690938,-0.7949178814888,-0.618202805519104,-20.477426528930664,0.0181329,-0.0025086605,0.352211
648,23707605,-0.7957748174667358,-0.6196742653846741,-20.47638511657715,0.00035884307,0.008204504,0.34807587
649,23724272,-0.7951257824897766,-0.6199578642845154,-20.475887298583984,0.023282671,0.0077482164,0.3287964
650,23740939,-0.7955478429794312,-0.6190146207809448,-20.47674369812012,0.013499431,-0.0017654729,0.33705616
651,23757606,-0.7958393096923828,-0.6176967620849609,-20.476945877075195,0.0023334438,-0.0017174106,0.34376907
652,23774273,-0.7963310480117798,-0.6183443069458008,-20.475027084350582,0.0048346203,-0.0031330858,0.33307648
653,23790940,-0.7961228489875793,-0.6185652613639832,-20.475173950195312,0.010953266,-0.0067519005,0.35661125
654,23807607,-0.7959983944892883,-0.6183151006698608,-20.474454879760746,-0.0029311455,0.005891117,0.33661556
655,23824274,-0.7961965203285217,-0.6181054711341858,-20.47443008422852,0.0087197255,-0.008596169,0.35605145
656,23840941,-0.7953763008117676,-0.6174947023391724,-20.473478317260746,0.012814113,0.008591076,0.33842754
657,23857608,-0.7952733039855957,-0.6171899437904358,-20.47428131103516,0.008043023,-0.0024842487,0.3340416
658,23874275,-0.7954275012016296,-0.6162762641906738,-20.47442054748535,0.0028862823,-0.0018252417,0.35341072
659,23890942,-0.796302318572998,-0.6155787110328674,-20.474578857421875,0.0030406108,0.010201382,0.32288265
660,23907609,-0.7955614924430847,-0.6150501370429993,-20.475902557373047,0.0035058076,0.013304986,0.3409319
661,23924276,-0.7949257493019104,-0.6153460741043091,-20.476505279541016,0.0023104185,0.0112084905,0.3400736
662,23940943,-0.794526219367981,-0.6151216626167297,-20.47547912597656,-0.0052573043,-0.0023291097,0.3205309
663,23957610,-0.7938559651374817,-0.6154385209083557,-20.475828170776367,0.0029654268,-0.0039169877,0.3461771
664,23974277,-0.7940949201583862,-0.6167699098587036,-20.475099563598636,0.008407995,-0.004848324,0.33838463
665,23990944,-0.7949410080909729,-0.6177306771278381,-20.47636604309082,0.007985346,-9.596389e-05,0.3558216
666,24007611,-0.794019877910614,-0.6197623014450073,-20.478355407714844,-0.015884556,0.0022352063,0.34885216
667,24024278,-0.7941315174102783,-0.6202300190925598,-20.475988388061523,0.0043196604,-0.010151169,0.36317253
668,24040945,-0.7942309975624084,-0.6196833252906799,-20.47518920898437,-0.006235987,0.0008634096,0.364851
669,24057612,-0.7942765355110168,-0.6204209327697754,-20.47495460510254,-0.0034100674,0.003432789,0.3533888
670,24074279,-0.793911874294281,-0.6199978590011597,-20.473358154296875,-0.00029423385,0.008684554,0.3183384
671,24090946,-0.7946276664733887,-0.6212744116783142,-20.472864151000977,-0.0040145093,-0.0035733017,0.34993935
672,24107613,-0.7940273284912109,-0.6204972863197327,-20.47131729125977,-0.0053652083,-0.014143404,0.3558216
673,24124280,-0.7941824793815613,-0.6194283962249756,-20.47119903564453,-0.010595691,0.0019721247,0.3398571
674,24140947,-0.793994665145874,-0.6197453737258911,-20.47151756286621,0.014871204,0.0035250438,0.35827827
675,24157614,-0.794903039932251,-0.6196918487548828,-20.472389221191406,0.013995372,-0.0020030113,0.3414383
676,24174281,-0.7952039241790771,-0.6199536323547363,-20.4718017578125,0.00053704577,-0.020780055,0.36520195
677,24190948,-0.7955626249313354,-0.6190808415412903,-20.471698760986328,0.0050920825,0.011858263,0.34290218
678,24207615,-0.7940221428871155,-0.612565279006958,-20.47246742248535,0.006266273,0.0022547639,0.33846283
679,24224282,-0.790913999080658,-0.6097800731658936,-20.472984313964844,-0.0024321247,0.0066171708,0.34411526
680,24240949,-0.7895477414131165,-0.6077247262001038,-20.47450065612793,0.0063286438,-0.0005832291,0.34984684
681,24257616,-0.7889631986618042,-0.6026932597160339,-20.472740173339844,-0.00072108774,0.0037890614,0.330698
682,24274283,-0.7831323742866516,-0.5927469730377197,-20.47285270690918,-0.0075163147,-0.006228433,0.3624649
683,24290950,-0.7913324236869812,-0.6118009686470032,-20.471355438232425,-0.0019863108,0.0017132058,0.3644619
684,24307617,-0.7915313243865967,-0.611380934715271,-20.469802856445312,0.013667845,-0.004867232,0.3586502
685,24324284,-0.7929126024246216,-0.6114863157272339,-20.4703426361084,-0.011282024,-0.009035301,0.32882404
686,24340951,-0.7937197089195251,-0.6100214123725891,-20.46934700012207,0.005097922,0.0074484088,0.34420395
687,24357618,-0.7947198152542114,-0.6096227169036865,-20.46883583068848,0.0035612006,0.003713591,0.32134342
688,24374285,-0.7949808239936829,-0.6095035076141357,-20.46937370300293,-0.0050624637,0.009705707,0.34674644
689,24390952,-0.790282666683197,-0.6126880645751953,-20.466232299804688,0.00676836,-0.010675244,0.3487625
690,24407619,-0.7884964942932129,-0.612621009349823,-20.46464157104492,0.008471068,0.007834157,0.36603737
691,24424286,-0.7929791212081909,-0.6188470721244812,-20.46415901184082,0.0012505096,0.015824668,0.32487488
692,24440953,-0.8054642677307129,-0.6332886815071106,-20.467775344848636,0.0054300553,0.02195009,0.34335327
693,24457620,-0.8095982670783997,-0.6303162574768066,-20.471206665039062,0.0034875704,-0.03746299,0.30827808
694,24474287,-0.7911292314529419,-0.5933829545974731,-20.476465225219727,0.006336149,-0.00052772806,0.35537243
695,24490954,-0.7811367511749268,-0.5735200047492981,-20.48286247253418,0.0016583195,0.010618591,0.3509512
696,24507621,-0.7747716307640076,-0.557375967502594,-20.50749397277832,0.0010047501,-0.00934104,0.33910465
697,24524288,-0.7712001800537109,-0.546140193939209,-20.598033905029297,0.025208382,0.01831118,0.3416319
698,24540955,-0.7666487097740173,-0.5378574132919312,-20.61445999145508,0.032387286,0.0012878886,0.3617382
699,24557622,-0.7593628168106079,-0.521231472492218,-20.663225173950195,0.01357011,-0.012563831,0.36297894
700,24574289,-0.7397334575653076,-0.4877490997314453,-20.781814575195312,0.09266347,-0.069838725,0.31806374
701,24590956,-0.723997950553894,-0.4613847136497497,-20.89556884765625,0.15150824,-0.11886983,0.31875515
702,24607623,-0.7177936434745789,-0.4497866332530975,-20.96776962280273,0.19458532,-0.13285407,0.3506136
703,24624290,-0.7223933935165405,-0.450561374425888,-20.991687774658203,-0.025441416,0.029331831,0.35168743
704,24640957,-0.7267498970031738,-0.4473079442977905,-21.03672409057617,-0.15361123,0.16022308,0.3213625
705,24657624,-0.7315651178359985,-0.4379245638847351,-21.15130043029785,0.11521235,-0.013641394,0.3566532
706,24674291,-0.7328718304634094,-0.4273026287555694,-21.305082321166992,-0.010912175,0.053604413,0.32163048
707,24690958,-0.7256026268005371,-0.40162193775177,-21.25917625427246,0.4589495,-0.46909675,0.3669386
708,24707625,-0.6944403648376465,-0.3007455468177795,-20.863401412963867,0.23022419,-0.86915493,0.40938473
709,24724292,-0.6427279114723206,-0.1220802441239357,-20.612749099731445,-0.39390683,-0.39548114,0.4152708
710,24740959,-0.3434751331806183,0.1563827842473983,-20.71198272705078,0.27580097,0.3600701,0.40314484
711,24757626,0.1112923100590705,0.5908670425415039,-21.22020530700684,0.13355155,0.54565537,0.8423157
712,24774293,0.1918633580207824,0.7753067016601562,-21.670005798339844,0.06898746,0.3283542,0.23189545
713,24790960,0.2632883489131927,0.7390616536140442,-21.92157554626465,-0.16016681,0.1182983,0.17569447
714,24807627,0.2855982482433319,0.7911830544471741,-21.98281478881836,0.15065558,0.06462852,0.35858345
715,24824294,0.3324984312057495,0.7440897822380066,-21.71637535095215,1.0231857,-0.02473073,0.9818411
716,24840961,0.3489315509796142,0.4153037667274475,-21.19415283203125,1.0521065,-0.5851078,0.95636845
717,24857628,0.3822643458843231,-0.0253379885107278,-20.73455619812012,0.36582544,-0.6755027,0.65930367
718,24874295,0.3562277853488922,-0.2699670195579529,-20.74538803100586,-0.98842436,0.24514577,0.05177784
719,24890962,0.4190217852592468,-0.2927557826042175,-21.23456573486328,-1.4953763,1.0755142,-0.4982643
720,24907629,0.5953158736228943,-0.1844272017478943,-21.91131591796875,-0.3645204,0.738827,0.08332634
721,24924296,0.7074406147003174,-0.1947042047977447,-22.212129592895508,0.8737425,-0.53973645,0.2844
722,24940963,0.7011778354644775,-0.420241504907608,-22.072641372680664,1.1324618,-0.6002701,0.4440632
723,24957630,0.62049800157547,-0.6973515152931213,-21.7905216217041,0.504589,-0.5069174,0.15887928
724,24974297,0.489189475774765,-0.9828387498855592,-21.55032539367676,0.18355764,-0.16936883,0.23172474
725,24990964,0.3794443905353546,-1.0572113990783691,-21.50462532043457,-0.58160436,0.5696298,0.078948975
726,25007631,0.4047018587589264,-0.941046953201294,-21.71937370300293,-0.16489346,0.28372332,0.37336445
727,25024298,0.4834689795970917,-0.7822456955909729,-21.8676700592041,0.55197436,-0.26384172,0.53993034
728,25040965,0.5616381168365479,-0.6875190138816833,-21.77928352355957,0.7931499,-0.28490853,0.60543346
729,25057632,0.5856328010559082,-0.6034382581710815,-21.484657287597656,0.22852156,-0.41925803,0.14657974
730,25074299,0.5443722009658813,-0.6629597544670105,-21.165428161621094,0.7170482,-1.0202215,0.29542923
731,25090966,0.3598886728286743,-0.8230345845222473,-20.958192825317383,-0.08060263,-0.2999211,0.09894085
732,25107633,0.2639588415622711,-0.8133631944656372,-21.06385612487793,-0.41317376,0.31670767,0.103375435
733,25124300,0.297804594039917,-0.6346012353897095,-21.288259506225582,0.2825201,0.45540532,0.55220795
734,25140967,0.445365697145462,-0.4279862642288208,-21.46615028381348,0.64385617,0.29054204,0.81041145
735,25157634,0.6029059886932373,-0.4166701436042785,-21.24662208557129,1.0756435,-0.4961007,0.7011137
736,25174301,0.6482094526290894,-0.6004594564437866,-20.740535736083984,0.5559348,-0.8799267,0.26215363
737,25190968,0.6172084212303162,-0.7534036040306091,-20.369150161743164,-0.5162142,-0.26725066,-0.32522488
738,25207635,0.656620979309082,-0.7337703704833984,-20.51722526550293,-0.6113306,0.51655525,0.08982563
739,25224302,0.4224939346313476,-0.6289442181587219,-20.807666778564453,-0.046590533,0.2928437,0.3648243
740,25240969,0.2226201146841049,-0.557073175907135,-21.148082733154297,0.34723425,0.28465787,0.578475
741,25257636,0.3058295845985412,-0.548363983631134,-21.24291038513184,1.0355226,-0.09879615,0.70256996
742,25274303,0.526434063911438,-0.6556306481361389,-21.045265197753903,0.59552634,-0.42724046,0.53145695
743,25290970,0.5521900057792664,-0.8508154153823853,-20.659358978271484,0.003014198,-0.2640549,0.30094147
744,25307637,0.4625756740570068,-0.9076958894729614,-20.354087829589844,-0.51355326,0.32935867,-0.13327503
745,25324304,0.5226602554321289,-0.7523635029792786,-20.31476402282715,-0.3257781,0.48016763,0.09816742
746,25340971,0.6027095317840576,-0.498471051454544,-20.43665885925293,0.3469804,-0.30819255,0.38661194
747,25357638,0.5959348082542419,-0.355567991733551,-20.6355037689209,0.6311082,-1.0698301,0.46853542
748,25374305,0.506851315498352,-0.434183269739151,-20.723880767822266,0.5690706,-0.929062,0.49816132
749,25390972,0.3388755619525909,-0.6338122487068176,-20.571178436279297,-0.13364257,0.023293445,0.46543217
750,25407639,0.1382467448711395,-0.7233899831771851,-20.316835403442383,-0.9785806,0.92863685,0.44133854
751,25424306,0.0849640667438507,-0.5222561955451965,-20.32428932189941,-0.64542717,1.212943,0.6378193
752,25440973,0.1401513814926147,-0.2614951729774475,-20.4153995513916,0.28511724,0.19024324,0.7917433
753,25457640,0.1552668213844299,-0.2236825972795486,-20.42496681213379,0.8056068,-0.78671926,0.6763706
754,25474307,0.0407857298851013,-0.4289921522140503,-20.357179641723636,0.11938138,-0.9383008,0.2596407
755,25490974,-0.1747316718101501,-0.5911595225334167,-20.33281135559082,-0.5882442,0.081339285,0.21382523
756,25507641,-0.3697509467601776,-0.6639314889907837,-20.328569412231445,-0.49236852,0.9628848,0.48986435
757,25524308,-0.4799222350120544,-0.7132147550582886,-20.288503646850582,-0.036029216,0.6905129,0.66555977
758,25540975,-0.56195467710495,-0.7798418998718262,-20.295751571655277,0.0029555084,0.18078807,0.41807175
759,25557642,-0.6706668138504028,-0.8611112236976624,-20.370088577270508,0.18745615,-0.25617877,0.21649456
760,25574309,-0.8126851916313171,-0.976015567779541,-20.430259704589844,0.38449234,-0.33134136,0.32221985
761,25590976,-0.943528652191162,-1.1111677885055542,-20.352840423583984,0.18740466,-0.04854042,0.27771854
762,25607643,-1.0595170259475708,-1.2975720167160034,-20.197662353515625,0.07107118,-0.25217128,0.11993694
763,25624310,-1.1601258516311646,-1.4295209646224976,-20.05990982055664,-0.42563802,0.28008473,-0.044322014
764,25640977,-1.191870093345642,-1.413561224937439,-20.04056167602539,-0.2500316,0.3317937,0.019972801
765,25657644,-1.1906416416168213,-1.3199505805969238,-20.129684448242188,0.1493544,0.0002697522,0.26456833
766,25674311,-1.1705338954925537,-1.2240636348724363,-20.32069396972656,0.30051506,-0.35506564,0.32650852
767,25690978,-1.1868085861206057,-1.2359774112701416,-20.464982986450195,0.29789063,-0.37250736,0.39869022
768,25707645,-1.2576779127120972,-1.380418300628662,-20.47812271118164,0.1886178,-0.26965937,0.43695068
769,25724312,-1.3387774229049685,-1.561174750328064,-20.455514907836918,0.14348437,0.020167511,0.44584656
770,25740979,-1.337812900543213,-1.6505255699157717,-20.452112197875977,-0.065828964,0.39937797,0.35549545
771,25757646,-1.285897731781006,-1.64283287525177,-20.51873588562012,-0.058492124,-0.116315275,0.1154871
772,25774313,-1.2959495782852173,-1.6514796018600464,-20.572877883911133,0.109376706,-0.3010923,0.23793507
773,25790980,-1.307302951812744,-1.7204272747039795,-20.591819763183597,0.37800005,-0.040371343,0.57079697
774,25807647,-1.2669934034347534,-1.8608685731887815,-20.571910858154297,0.49342296,-0.09507815,0.5682411
775,25824314,-1.178945541381836,-2.026925802230835,-20.493507385253903,0.32235026,-0.31074202,0.25227547
776,25840981,-1.0910369157791138,-2.108623743057251,-20.476001739501957,-0.29150033,-0.19890457,-0.08947945
777,25857648,-1.0979973077774048,-2.1373682022094727,-20.536846160888672,-0.4261211,-0.042087823,0.010068893
778,25874315,-1.1238914728164673,-2.143385410308838,-20.634292602539062,-0.38581198,0.61380714,0.33416843
779,25890982,-1.0313622951507568,-2.0669965744018555,-20.81638526916504,0.065626115,0.51376885,0.4995222
780,25907649,-0.90144944190979,-2.045862913131714,-20.998050689697266,0.3117338,0.0061420663,0.27878475
781,25924316,-0.8231492042541504,-2.080439329147339,-21.12840461730957,0.36672652,-0.59062153,-0.11624622
782,25940983,-0.8335539698600769,-2.1366636753082275,-21.156272888183597,0.21066764,-0.6142674,-0.17628479
783,25957650,-0.9282878041267396,-2.20160174369812,-21.176288604736328,-0.040657483,-0.64903533,-0.031834602
784,25974317,-1.0433293581008911,-2.2439088821411133,-21.27313041687012,-0.11099691,-0.18348324,0.21760082
785,25990984,-1.148956060409546,-2.248626708984375,-21.42592430114746,-0.19969063,0.16871938,0.23842812
786,26007651,-1.1781972646713257,-2.209270477294922,-21.62489318847656,0.03217001,0.43761384,0.46853352
787,26024318,-1.1203694343566897,-2.2204301357269287,-21.792015075683597,0.20227024,0.047260836,0.6419411
788,26040985,-1.0146422386169434,-2.291125059127808,-21.94091415405273,0.1590594,-0.333383,0.6186409
789,26057652,-0.9178901314735411,-2.373666524887085,-22.12970352172852,0.08491474,-0.7121862,0.2077446
790,26074319,-0.8835142254829407,-2.393538236618042,-22.27263832092285,-0.11931399,-0.5879587,-0.006169319
791,26090986,-0.919816792011261,-2.3957419395446777,-22.36457061767578,-0.56033236,-0.027147528,-0.09149742
792,26107653,-0.9750510454177856,-2.354602098464966,-22.49273681640625,-0.4443667,0.13485344,0.3005638
793,26124320,-1.0156967639923096,-2.313168525695801,-22.67012596130371,-0.22295317,0.1266051,0.74561024
794,26140987,-0.9973884224891664,-2.264486074447632,-22.93166923522949,-0.0019007262,0.08148556,0.9307642
795,26157654,-0.8392207622528076,-2.2014310359954834,-23.21660423278809,-0.04156775,0.39948308,0.74333763
796,26174321,-0.6031541228294373,-2.146800994873047,-23.507211685180664,-0.47907114,0.3868734,0.28995895
797,26190988,-0.4350931048393249,-2.116048574447632,-23.76376342773437,-0.50187457,0.17323822,0.07207966
798,26207655,-0.4074930548667907,-2.1245481967926025,-23.928916931152344,-0.3255719,-0.28949505,0.18973637
799,26224322,-0.4997628629207611,-2.1022541522979736,-24.088869094848636,-0.21515541,-0.069949426,0.36200714
800,26240989,-0.5800827741622925,-2.0541512966156006,-24.24053382873535,-0.25044575,0.5004817,0.5776205
801,26257656,-0.575787365436554,-2.033433675765991,-24.36446762084961,-0.31266916,0.98022145,0.8744297
802,26274323,-0.4666060209274292,-2.0466859340667725,-24.48183250427246,-0.15033752,1.042259,0.8581171
803,26290990,-0.3384723961353302,-2.092656373977661,-24.524717330932617,-0.29387978,0.6523824,0.40248394
804,26307657,-0.3813436329364776,-2.1419174671173096,-24.359773635864254,-0.075727254,0.32826224,0.094634056
805,26324324,-0.5111793279647827,-2.1657378673553467,-24.034595489501957,-0.23895589,0.45580947,0.21656609
806,26340991,-0.6119632720947266,-2.1506426334381104,-23.774005889892575,-0.35090652,0.64393497,0.29830074
807,26357658,-0.6438705921173096,-2.1216516494750977,-23.634504318237305,-0.38951907,0.36685303,0.26825047
808,26374325,-0.6339300274848938,-2.07131576538086,-23.59779930114746,-0.14348319,0.12855747,0.12631989
809,26390992,-0.6551015973091125,-2.062473773956299,-23.57413482666016,-0.05772184,-0.052678183,-0.14099693
810,26407659,-0.7388018369674683,-2.070591688156128,-23.57219123840332,-0.20287944,0.030692177,-0.46065903
811,26424326,-0.8712557554244995,-2.045637607574463,-23.54588508605957,-0.2197086,0.092712454,-0.37098885
812,26440993,-0.9847642183303832,-1.978178858757019,-23.48208236694336,0.11758699,-0.08595528,0.23208046
813,26457660,-1.0637305974960327,-1.998288869857788,-23.36256599426269,0.56218356,-0.55786175,0.9350729
814,26474327,-1.112458348274231,-2.033089399337769,-23.326335906982425,0.11383333,-0.5757363,0.6562958
815,26490994,-1.1906760931015017,-2.0282745361328125,-23.40538787841797,-0.279091,-0.10371585,0.32488918
816,26507661,-1.364769697189331,-1.958644270896912,-23.521907806396484,-0.597622,0.08341027,0.30988884
817,26524328,-1.7912030220031738,-1.912540316581726,-23.602184295654297,-0.5033225,0.27324766,0.7016554
818,26540995,-2.517273187637329,-1.9635361433029173,-23.694416046142575,0.10981184,0.21280025,0.62763786
819,26557662,-2.55682373046875,-2.0077221393585205,-23.584930419921875,0.5380948,0.20237875,0.8845463
820,26574329,-2.4357669353485107,-2.0273516178131104,-23.57839775085449,-0.2887509,-0.049496636,0.4232874
821,26590996,-2.434614658355713,-2.105506420135498,-23.54206275939941,-0.39353037,0.06487539,0.15509796
822,26607663,-2.530486822128296,-2.161592721939087,-23.536664962768555,-0.661795,0.47682154,0.17981052
823,26624330,-2.676896810531616,-2.1287636756896973,-23.78895568847656,-0.6097941,0.42456996,0.31876373
824,26640997,-2.8032338619232178,-2.1408467292785645,-24.08351707458496,0.057633907,-0.13493097,0.44352436
825,26657664,-2.8462584018707275,-2.2019028663635254,-24.22421264648437,0.26043355,-0.13773176,0.35822678
826,26674331,-2.9442005157470703,-2.245370864868164,-24.136306762695312,0.13725306,-0.5118895,0.3761015
827,26690998,-2.9207139015197754,-2.3046562671661377,-23.870716094970703,0.3646938,-0.29410997,0.53390694
828,26707665,-2.477492570877075,-2.2626726627349854,-23.54131126403809,-0.71178824,0.0047526956,-1.1157885
829,26724332,-1.4881329536437988,-2.1930763721466064,-23.540809631347656,-0.106693305,1.1692967,2.12844
830,26740999,-1.3505396842956543,-2.1818881034851074,-23.536474227905277,-0.49769318,-0.2118789,-0.3043766
831,26757666,-1.3085131645202637,-2.155482530593872,-23.649635314941406,-0.33615464,0.023912938,-0.038861275
832,26774333,-1.3660913705825806,-2.1583046913146973,-23.63900375366211,-0.27361542,-0.0518338,0.04923153
833,26791000,-1.511246919631958,-2.197707176208496,-23.43931579589844,0.28504908,0.032392602,0.6117325
834,26807667,-1.5839561223983765,-2.182003736495972,-23.25098419189453,-0.027940657,-0.2361501,0.8231096
835,26824334,-1.4971696138381958,-2.182323217391968,-23.18595123291016,-0.05060142,-0.4709703,0.67147255
836,26841001,-1.416661262512207,-2.1240899562835693,-23.22860336303711,-0.41515827,-0.24640448,0.26249313
837,26857668,-1.462720513343811,-2.0609688758850098,-23.260787963867188,-0.19910523,0.060094573,0.3421116
838,26874335,-1.6079555749893188,-2.05000114440918,-23.26447105407715,-0.22817427,0.30892798,0.31021976
839,26891002,-1.7632668018341064,-2.047421932220459,-23.261075973510746,-0.10607159,0.13295358,0.31816387
840,26907669,-1.8847403526306152,-2.0471222400665283,-23.228540420532227,0.006194284,0.09771485,0.33486938
841,26924336,-1.9143507480621336,-1.994737982749939,-23.11945915222168,0.18104863,-0.028837195,0.119021416
842,26941003,-1.507396221160889,-1.7766271829605105,-22.88567924499512,-0.042035103,0.0196059,-0.30950832
843,26957670,-1.2303072214126587,-1.453904390335083,-22.84172248840332,-0.50062597,-0.28650126,0.62663746
844,26974337,-0.9112038016319276,-1.3528727293014526,-22.801483154296875,0.098058805,0.11393337,0.7982712
845,26991004,-0.7119885087013245,-1.2931568622589111,-22.72730827331543,-0.024537846,0.009208894,0.3726864
846,27007671,-0.6152467131614685,-1.2340456247329712,-22.687084197998047,-0.002013251,0.008058578,0.42546177
847,27024338,-0.5980984568595886,-1.1977027654647827,-22.660106658935547,-0.061930314,0.06342453,0.42858028
848,27041005,-0.6123350858688354,-1.185619592666626,-22.62942123413086,-0.03063509,0.03387721,0.38918304
849,27057672,-0.6365881562232971,-1.1817466020584106,-22.58602523803711,-0.027783694,0.03790211,0.3476696
850,27074339,-0.6621021628379822,-1.1870357990264893,-22.565195083618164,-0.024468906,0.002492337,0.33786297
851,27091006,-0.6690919995307922,-1.1863645315170288,-22.56566429138184,0.001307488,-0.019180024,0.30803967
852,27107673,-0.6404855847358704,-1.1664514541625977,-22.55583000183105,0.018523574,-0.012731571,0.312912
853,27124340,-0.602318286895752,-1.1442878246307373,-22.499292373657227,0.05381217,-0.03191389,0.37108326
854,27141007,-0.5725687742233276,-1.126745581626892,-22.45351791381836,-0.00902729,-0.040591817,0.35894203
855,27157674,-0.5460368394851685,-1.114019513130188,-22.43753433227539,-0.003038037,-0.01080069,0.340806
856,27174341,-0.5316318273544312,-1.1173678636550903,-22.43412208557129,-0.022935286,-0.02475828,0.34899712
857,27191008,-0.4605683088302612,-1.081392765045166,-22.437482833862305,0.012078724,-0.075582586,0.2635479
858,27207675,-0.0438729599118232,-0.8487688302993774,-22.432580947875977,0.023571284,-0.20329973,0.26713943
859,27224342,-0.3800755739212036,-1.122769832611084,-22.60098648071289,-0.19055504,0.64499336,1.0205612
860,27241009,-0.2943434417247772,-1.0989376306533811,-22.62721443176269,0.10747987,-0.39880496,-0.17035103
861,27257676,-0.3464157283306122,-1.1257559061050415,-22.624977111816406,0.020292036,-0.03986939,0.31340694
862,27274343,-0.34017413854599,-1.1236391067504885,-22.62279510498047,0.0020907123,0.045532923,0.38986492
863,27291010,-0.3204675912857055,-1.1135741472244265,-22.620494842529297,0.010641207,-0.0101602245,0.36257935
864,27307677,-0.3163290619850158,-1.112185835838318,-22.62254905700684,-0.0011894382,-0.00383089,0.34219742
865,27324344,-0.3120214939117431,-1.1108349561691284,-22.625532150268555,-0.0006426766,-0.012254189,0.34015083
866,27341011,-0.3120894730091095,-1.109745979309082,-22.625715255737305,-0.004756125,0.005201258,0.34340286
867,27357678,-0.3100033402442932,-1.1085858345031738,-22.62620735168457,-0.006877794,0.0073132706,0.33318043
868,27374345,-0.3087460398674011,-1.106611728668213,-22.62743759155273,-0.015268785,-0.0076105497,0.29596996
869,27391012,-0.3076152205467224,-1.10615074634552,-22.62771987915039,-0.008572266,-0.02046719,0.3280735
870,27407679,-0.3080953359603882,-1.1076290607452393,-22.62854766845703,-0.0030603744,-0.007802722,0.33245087
871,27424346,-0.3087278008460998,-1.1075851917266846,-22.629199981689453,0.00505492,-0.0066603296,0.32604694
872,27441013,-0.3093411028385162,-1.1059348583221436,-22.629884719848636,-0.0055245627,-0.011068644,0.3403139
873,27457680,-0.3074436485767364,-1.105705976486206,-22.630733489990234,-0.011387049,-0.0040457137,0.3543768
874,27474347,-0.3060996234416961,-1.1062551736831665,-22.630842208862305,0.00036109216,-0.0018249693,0.35338116
875,27491014,-0.3046910464763641,-1.1052345037460327,-22.631460189819336,0.0028982435,0.010200314,0.36963367
876,27507681,-0.3048271834850311,-1.1053855419158936,-22.63234138488769,-0.01074614,-0.008615726,0.36323166
877,27524348,-0.3062044680118561,-1.1059213876724243,-22.63166618347168,-0.001529562,-0.015493262,0.32840633
878,27541015,-0.3049021959304809,-1.1074408292770386,-22.63241195678711,0.008638657,0.0016102956,0.3479948
879,27557682,-0.3043444156646728,-1.105594277381897,-22.632457733154297,0.0011190316,0.0016926602,0.32818127
880,27574349,-0.30514657497406,-1.1061900854110718,-22.631296157836918,-0.006820589,-0.0032101246,0.3529644
881,27591016,-0.3051863014698028,-1.106125831604004,-22.63092422485352,-0.009394466,0.009982581,0.32273674
882,27607683,-0.3040454089641571,-1.1066317558288574,-22.63084602355957,0.012708933,0.005185885,0.34618664
883,27624350,-0.304112821817398,-1.105637550354004,-22.631824493408203,0.010586607,-0.010472012,0.32805824
884,27641017,-0.3036771416664123,-1.1051182746887207,-22.632354736328125,0.00376861,0.0048028114,0.35303593
885,27657684,-0.3036555647850036,-1.1058826446533203,-22.63140106201172,-0.010639887,-0.011891113,0.35339546
886,27674351,-0.303299605846405,-1.106588363647461,-22.63028907775879,-0.012336846,0.0031520426,0.35529137
887,27691018,-0.3043349683284759,-1.1071406602859497,-22.6311149597168,0.0018006762,0.003148854,0.32983494
888,27707685,-0.3047969043254852,-1.107405185699463,-22.63020896911621,-0.005086121,0.0038949403,0.32187843
889,27724352,-0.3041397631168365,-1.1068997383117676,-22.63032531738281,-0.009685095,0.006138256,0.30319786
890,27741019,-0.3029372990131378,-1.1058660745620728,-22.63096237182617,-0.012584478,-0.0043301303,0.33263016
891,27757686,-0.3040377497673034,-1.1063734292984009,-22.63081741333008,-0.010100152,0.0011457764,0.34285355
892,27774353,-0.3040908873081207,-1.1065363883972168,-22.630565643310547,0.0035272092,0.0044029574,0.3426094
893,27791020,-0.3047638833522796,-1.106860876083374,-22.631982803344727,-0.00784777,-0.002445588,0.33974838
894,27807687,-0.304891437292099,-1.1064367294311523,-22.63224029541016,-0.00026041354,0.016378833,0.32994843
895,27824354,-0.3041642010211944,-1.1061919927597046,-22.63250732421875,0.002804473,0.0017628013,0.3550892
896,27841021,-0.3031266033649444,-1.10499370098114,-22.632083892822266,-0.00046412466,0.00068630005,0.33318806
897,27857688,-0.302675187587738,-1.104909062385559,-22.631742477416992,-0.00039896363,0.004091426,0.34614563
898,27874355,-0.3022486865520477,-1.1048647165298462,-22.631261825561523,-0.010257289,0.004583402,0.33353806
899,27891022,-0.301171213388443,-1.1037204265594482,-22.630807876586918,0.0023016247,0.006510328,0.35053158
900,27907689,-0.3005799353122711,-1.1031980514526367,-22.631746292114254,0.009934865,0.0018300822,0.3593769
901,27924356,-0.300661563873291,-1.1038084030151367,-22.63286018371582,0.008225493,-0.00040327324,0.3478012
902,27941023,-0.3007701337337494,-1.1037310361862185,-22.632999420166016,0.0042854487,0.0067616897,0.35604
903,27957690,-0.3006635904312134,-1.1034437417984009,-22.6324462890625,-0.008533844,0.0017996529,0.34877014
904,27974357,-0.3015763461589813,-1.1022065877914429,-22.63298797607422,0.006990717,-0.008468797,0.3562889
905,27991024,-0.3011604249477386,-1.102558135986328,-22.63431739807129,-0.0083035,0.0015113597,0.343585
906,28007691,-0.3009383976459503,-1.1030429601669312,-22.63528823852539,-0.004131211,0.003949575,0.3380518
907,28024358,-0.3007929027080536,-1.1017006635665894,-22.635587692260746,0.005392802,0.0089514805,0.3448696
908,28041025,-0.300495833158493,-1.101467490196228,-22.635971069335938,-0.0037930498,-0.010103288,0.33866405
909,28057692,-0.300833910703659,-1.1006064414978027,-22.63545799255371,-0.0033343593,-0.00024865117,0.35660934
910,28074359,-0.2997318804264068,-1.100009799003601,-22.63636779785156,-0.003913062,0.0047441637,0.3473711
911,28091026,-0.2990213632583618,-1.100732684135437,-22.635149002075195,-0.00492383,0.010136096,0.34895992
912,28107693,-0.2996452450752258,-1.1016943454742432,-22.63426399230957,-0.0022102846,0.0056087435,0.33866024
913,28124360,-0.2998237907886505,-1.1019420623779297,-22.6342887878418,-0.0043786885,0.011521702,0.34462452
914,28141027,-0.2997211515903473,-1.1015605926513672,-22.634841918945312,-0.010959762,-0.0050413627,0.3366146
915,28157694,-0.2990354597568512,-1.1008930206298828,-22.635011672973636,-0.0020414137,-0.0051076063,0.35159874
916,28174361,-0.2993406057357788,-1.0998501777648926,-22.63494873046875,0.0067764167,6.914932e-07,0.35257816
917,28191028,-0.2986264824867248,-1.0994387865066528,-22.63593292236328,0.0058677527,0.0068774275,0.36134815
918,28207695,-0.2987227737903595,-1.1002216339111328,-22.63691711425781,-0.00010783103,-0.0004241787,0.34752083
919,28224362,-0.2978720963001251,-1.1005635261535645,-22.635822296142575,-0.01945602,-0.006286211,0.35552502
920,28241029,-0.2985633313655853,-1.0995572805404663,-22.63502311706543,0.0061177732,0.0013361186,0.35703182
921,28257696,-0.2984366714954376,-1.0991528034210205,-22.63514518737793,-0.006088095,0.0004488245,0.33359146
922,28274363,-0.2999615669250488,-1.1006957292556765,-22.63459205627441,-0.0007014535,0.0006861918,0.34895706
923,28291030,-0.300796777009964,-1.102305889129639,-22.63483428955078,0.0014645058,-0.0058466936,0.353405
924,28307697,-0.300804853439331,-1.103900909423828,-22.63517189025879,0.0055036503,0.0149978455,0.34920025
925,28324364,-0.3005269467830658,-1.104842185974121,-22.635581970214844,-0.0026843697,-0.012617516,0.3597231
926,28341031,-0.2994330823421478,-1.104555368423462,-22.63601875305176,0.008947147,0.00442804,0.34595013
927,28357698,-0.2977929413318634,-1.1047499179840088,-22.63640785217285,-0.009226684,0.0032655138,0.3726282
928,28374365,-0.2977833449840545,-1.1045979261398315,-22.63701057434082,4.8509297e-05,-0.007489762,0.35011768
929,28391032,-0.2987369298934936,-1.105440378189087,-22.63751792907715,0.017767597,-0.006902178,0.3435545
930,28407699,-0.2996062040328979,-1.107038140296936,-22.638164520263672,-0.0013016626,-0.0017786009,0.3279915
931,28424366,-0.2994023859500885,-1.1066739559173584,-22.63638687133789,0.01695037,-0.011548646,0.32761955
932,28441033,-0.2993605136871338,-1.1057440042495728,-22.636159896850582,-0.0040036966,-0.00984489,0.38653946
933,28457700,-0.3004403114318847,-1.1060051918029783,-22.635587692260746,-0.007408784,-0.003031321,0.3454218
934,28474367,-0.3005710542201996,-1.106184720993042,-22.63454246520996,0.0066213547,-0.0017969324,0.361269
935,28491034,-0.3001966774463653,-1.1070587635040283,-22.634492874145508,0.0019790535,-0.0039744866,0.33730316
936,28507701,-0.3003716170787811,-1.1063512563705444,-22.634492874145508,-0.014844466,0.008128712,0.3327198
937,28524368,-0.2997296750545501,-1.1063214540481567,-22.6352596282959,-0.010951751,-0.0055064163,0.3589344
938,28541035,-0.2988176941871643,-1.1055094003677368,-22.635847091674805,-5.7128513e-05,-0.009109159,0.34642506
939,28557702,-0.3005926609039306,-1.1049202680587769,-22.63571548461914,0.004588721,-0.0066668536,0.35166264
940,28574369,-0.2999998927116394,-1.105290770530701,-22.635957717895508,0.0046944288,-0.004443982,0.34686184
941,28591036,-0.3000530004501343,-1.1045817136764526,-22.63445854187012,-0.014415489,0.0018609549,0.34038734
942,28607703,-0.3000123500823974,-1.1046940088272097,-22.634981155395508,0.008974367,0.008182701,0.34962273
943,28624370,-0.2988090217113495,-1.1033459901809692,-22.63547134399414,0.004725937,-0.009766947,0.33690643
944,28641037,-0.2988739907741546,-1.1019563674926758,-22.63544273376465,0.0012270093,-0.0023769136,0.34113693
945,28657704,-0.299985259771347,-1.1020355224609375,-22.635196685791016,0.012773074,0.00558949,0.35928726
946,28674371,-0.3001175224781036,-1.1023956537246704,-22.635835647583008,-0.0044705174,0.0044683,0.3589201
947,28691038,-0.2998432517051697,-1.1012383699417114,-22.63623046875,0.0014953087,-0.0007358047,0.3449297
948,28707705,-0.3000500202178955,-1.099377155303955,-22.63593101501465,-0.01875083,-0.012815388,0.35234928
949,28724372,-0.2999657392501831,-1.1012775897979736,-22.635814666748047,0.005036145,-0.0023421992,0.35239124
950,28741039,-0.3008712232112884,-1.1021229028701782,-22.634693145751957,0.003275687,-0.004813739,0.365263
951,28757706,-0.3000091910362243,-1.1022731065750122,-22.63524627685547,-0.004615305,0.011163812,0.31900024
952,28774373,-0.300296425819397,-1.102836847305298,-22.63438034057617,0.0008210259,-0.00011478787,0.33542633
953,28791040,-0.298305869102478,-1.104271650314331,-22.63481330871582,-0.018649433,-0.0038328944,0.33509827
954,28807707,-0.2976671457290649,-1.103978157043457,-22.63483428955078,-0.0040194406,-0.012207614,0.3508358
955,28824374,-0.2980190217494964,-1.1038682460784912,-22.63444328308105,-0.002019705,-0.0045401314,0.35407925
956,28841041,-0.298072338104248,-1.10454261302948,-22.63406181335449,-0.0079032155,-0.0032742622,0.3540535
957,28857708,-0.2982295751571655,-1.1057802438735962,-22.634521484375,-0.0130570335,0.003789278,0.33796692
958,28874375,-0.2976793050765991,-1.1062098741531372,-22.633487701416016,0.0047592614,0.0032836043,0.32443428
959,28891042,-0.2971368432044983,-1.1066030263900757,-22.634126663208008,0.011615032,-0.009106585,0.35919857
960,28907709,-0.2967499494552612,-1.106671929359436,-22.634357452392575,-0.0016162222,-0.01021639,0.322237
961,28924376,-0.2962832152843475,-1.1071507930755615,-22.634252548217773,0.0066402485,0.016202714,0.3291521
962,28941043,-0.2965454757213592,-1.106116533279419,-22.63399124145508,-0.012363374,-0.0012172795,0.35541916
963,28957710,-0.2954740226268768,-1.1071815490722656,-22.635643005371094,0.0041975034,0.0021980684,0.34842968
964,28974377,-0.2952239215373993,-1.1067988872528076,-22.63476181030273,-0.0036140718,-0.0070492006,0.3302765
965,28991044,-0.2957743406295776,-1.1059976816177368,-22.635019302368164,-0.00038317105,0.0007309013,0.35457802
966,29007711,-0.2974008321762085,-1.1052494049072266,-22.635019302368164,-0.013087138,-0.006244875,0.33725262
967,29024378,-0.2980360984802246,-1.1066725254058838,-22.63539123535156,-0.0047656805,0.00016706546,0.3496027
968,29041045,-0.2979931235313415,-1.1054760217666626,-22.6358642578125,0.0045774267,0.00416098,0.33093548
969,29057712,-0.2972440719604492,-1.105852484703064,-22.635814666748047,-0.0050019477,-0.0018322056,0.36417103
970,29074379,-0.2967346906661987,-1.1055599451065063,-22.637340545654297,0.009596089,-0.0070535904,0.34280014
971,29091046,-0.296707272529602,-1.1053882837295532,-22.63827514648437,-0.005515399,4.4150795e-05,0.35548973
972,29107713,-0.2972184121608734,-1.1065860986709597,-22.63870620727539,0.009487874,0.0072788773,0.3385744
973,29124380,-0.2969397902488708,-1.1065902709960938,-22.638904571533203,-0.0025948598,-0.0035013375,0.3323555
974,29141047,-0.2964025437831878,-1.105890154838562,-22.63984680175781,0.0037128157,-0.0069874725,0.36421108
975,29157714,-0.2948679327964782,-1.1058303117752075,-22.63987159729004,-0.005599195,-0.005501897,0.33277512
976,29174381,-0.2951697409152984,-1.1056146621704102,-22.639280319213867,-0.013952384,0.00062820065,0.34574223
977,29191048,-0.2955872416496277,-1.105899691581726,-22.63915634155273,0.017279688,0.004185444,0.33492756
978,29207715,-0.2954396903514862,-1.1067304611206057,-22.6396427154541,-0.011795429,-0.011008342,0.34683037
979,29224382,-0.2947777509689331,-1.105760097503662,-22.638891220092773,0.00395993,0.002869854,0.34126568
980,29241049,-0.2952790856361389,-1.1060856580734253,-22.638097763061523,-0.012313929,-0.0048382487,0.32640362
981,29257716,-0.2952379286289215,-1.1065821647644043,-22.63812255859375,0.016374357,-0.011180237,0.33878803
982,29274383,-0.295204758644104,-1.106847643852234,-22.636476516723636,0.0007869821,-0.02313175,0.37053776
983,29291050,-0.2956085801124573,-1.107071042060852,-22.635574340820312,-0.008250723,-0.009564727,0.33236885
984,29307717,-0.295504629611969,-1.1063551902770996,-22.634796142578125,-0.011436843,0.0034880629,0.33560276
985,29324384,-0.2950824201107025,-1.106353998184204,-22.63584899902344,0.006615704,-0.004414765,0.3381939
986,29341051,-0.2940641641616821,-1.106385588645935,-22.636186599731445,0.0075305845,-0.00097544544,0.3250475
987,29357718,-0.2951824367046356,-1.1048595905303955,-22.636497497558597,-0.0035828569,-0.0076150727,0.34218597
988,29374385,-0.2950600385665893,-1.104661464691162,-22.63447570800781,0.016439084,0.0013743497,0.3433857
989,29391052,-0.2944258153438568,-1.1041594743728638,-22.63434600830078,-0.002710388,-0.008350552,0.3544922
990,29407719,-0.2948133647441864,-1.1049201488494873,-22.63381576538086,0.009414729,0.003627989,0.3509407
991,29424386,-0.2947874665260315,-1.1049442291259766,-22.633995056152344,-0.006118332,-0.013067915,0.36212635
992,29441053,-0.296217530965805,-1.1041778326034546,-22.63495445251465,0.010205022,-0.010909978,0.32812786
993,29457720,-0.2961233258247375,-1.103378176689148,-22.635719299316406,-0.0044967663,-0.00814616,0.32681656
994,29474387,-0.2956543862819671,-1.1040103435516355,-22.636831283569336,-0.0013121817,-0.0014492999,0.3259468
995,29491054,-0.2946329414844513,-1.1043189764022827,-22.63714599609375,-0.000999103,-0.0067121815,0.33478355
996,29507721,-0.2948072552680969,-1.1031557321548462,-22.637962341308597,0.0064211013,-0.006387197,0.3195877
997,29524388,-0.2944557070732116,-1.1035584211349487,-22.638851165771484,0.0060501467,-0.010046164,0.35385036
998,29541055,-0.2953528165817261,-1.1032615900039673,-22.638999938964844,0.006238722,-0.0031083876,0.3309784
999,29557722,-0.2944175899028778,-1.102766036987305,-22.63990592956543,-0.004457093,-0.015264762,0.33998108
1000,29574389,-0.2931415736675262,-1.1023242473602295,-22.63953018188477,-0.00037793946,-0.00044224484,0.3174982
1001,29591056,-0.2914668619632721,-1.102378249168396,-22.63906478881836,-0.0013629331,-0.0006369351,0.35786915
1002,29607723,-0.2915410697460174,-1.10164475440979,-22.64000701904297,-0.0077546285,-0.0069912756,0.34182835
1003,29624390,-0.2920106053352356,-1.101447343826294,-22.639013290405277,0.0041384893,-0.01471331,0.33542633
1004,29641057,-0.2927415668964386,-1.1024765968322754,-22.639923095703125,0.012166502,-0.005333365,0.34988308
1005,29657724,-0.2939698696136474,-1.1019450426101685,-22.63943862915039,0.002776457,0.008155806,0.32468987
1006,29674391,-0.2933485507965088,-1.102145075798035,-22.64016532897949,0.0054310784,-0.014072666,0.33903885
1007,29691058,-0.2934063076972961,-1.102748990058899,-22.640674591064453,0.0037983442,0.008991165,0.3439474
1008,29707725,-0.2940780818462372,-1.1035305261611938,-22.639047622680664,0.009489361,0.004105067,0.3208599
1009,29724392,-0.2947432696819305,-1.1048650741577148,-22.63880920410156,0.011967366,-0.0010082809,0.33472633
1010,29741059,-0.2951090037822723,-1.1035460233688354,-22.63845634460449,-0.002870982,-0.001343746,0.33131218
1011,29757726,-0.2960702776908874,-1.1050794124603271,-22.638824462890625,-0.0024216091,-0.003969265,0.33666897
1012,29774393,-0.2962630987167358,-1.1044236421585083,-22.638999938964844,-0.0024447846,-0.01352999,0.3446808
1013,29791060,-0.2954975068569183,-1.1039001941680908,-22.63822555541992,-0.0034137971,-0.021832015,0.34581375
1014,29807727,-0.2953309118747711,-1.102367281913757,-22.637962341308597,-0.010372447,-0.0011681241,0.3295145
1015,29824394,-0.2955699265003204,-1.1029102802276611,-22.638839721679688,-0.01685894,-0.002965605,0.3330593
1016,29841061,-0.296182245016098,-1.103386640548706,-22.63968086242676,-0.00024893755,0.0018324989,0.36736774
1017,29857728,-0.2958221137523651,-1.103436827659607,-22.639820098876957,-0.005759007,-0.0071325954,0.34437943
1018,29874395,-0.294763445854187,-1.1032884120941162,-22.638635635375977,0.010630136,-0.0035260776,0.32984257
1019,29891062,-0.2946280241012573,-1.102458357810974,-22.63946533203125,-0.00982528,-0.011925527,0.33092594
1020,29907729,-0.2948321998119354,-1.1027920246124268,-22.639429092407227,-0.00061152445,-0.009058456,0.3424244
1021,29924396,-0.2947640419006347,-1.1030329465866089,-22.639116287231445,0.00037110833,-0.004572293,0.3420124
1022,29941063,-0.2935127019882202,-1.103327989578247,-22.639881134033203,0.007892165,0.0024163532,0.322958
1023,29957730,-0.293761670589447,-1.1021331548690796,-22.640438079833984,0.00634028,0.007961511,0.34238625
1024,29974397,-0.2939245402812958,-1.1020058393478394,-22.641128540039062,-0.00397874,0.0033834623,0.35375023
1025,29991064,-0.2940994203090668,-1.1020351648330688,-22.64116859436035,0.010389008,-0.005480852,0.34557343
1026,30007731,-0.2941009700298309,-1.1011593341827393,-22.642446517944336,-0.005079339,-0.0036691152,0.3675003
1027,30024398,-0.294352114200592,-1.1008336544036863,-22.64223861694336,0.0037610247,-0.005430607,0.34531975
1028,30041065,-0.2940562963485718,-1.101184964179993,-22.64286994934082,-0.010759418,-0.001979001,0.36193848
1029,30057732,-0.2933677136898041,-1.1031736135482788,-22.642274856567383,0.00067540724,-0.0051363697,0.33760262
1030,30074399,-0.2928200662136078,-1.103818655014038,-22.643325805664062,-0.010387289,-0.0011743162,0.35606003
1031,30091066,-0.2941823601722717,-1.103799819946289,-22.643138885498047,-0.00091790484,0.0041318117,0.33858776
1032,30107733,-0.2930511832237243,-1.104036808013916,-22.641796112060547,0.0077627935,0.007210137,0.32787323
1033,30124400,-0.2916887700557709,-1.1033995151519775,-22.64232063293457,0.0052286386,-0.025860285,0.3200903
1034,30141067,-0.2921048998832702,-1.101237416267395,-22.642040252685547,-0.002995744,-0.017734088,0.34387875
1035,30157734,-0.2930783033370971,-1.1016370058059692,-22.64175796508789,0.0013025358,-0.006308559,0.33453083
1036,30174401,-0.2929891347885132,-1.1008845567703247,-22.640674591064453,0.010299267,-0.010451979,0.34658146
1037,30191068,-0.2929515838623047,-1.100440502166748,-22.64168357849121,0.0075633363,0.0044425996,0.32597256
1038,30207735,-0.2929089367389679,-1.1006468534469604,-22.641170501708984,-0.006118919,-0.0036201172,0.3393259
1039,30224402,-0.2935545146465301,-1.101106882095337,-22.640459060668945,-0.0101473695,-0.008050626,0.3637972
1040,30241069,-0.2938674986362457,-1.1011425256729126,-22.640878677368164,0.0019791513,-0.01254653,0.35006332
1041,30257736,-0.2943185567855835,-1.1014883518218994,-22.64151382446289,-0.0077215624,-0.003230115,0.35585022
1042,30274403,-0.2943632304668426,-1.100090503692627,-22.64152336120605,-0.011376446,-0.020135157,0.3415928
1043,30291070,-0.2947194576263428,-1.1004101037979126,-22.641456604003903,0.0010827456,-0.007264311,0.34488106
1044,30307737,-0.2948789298534393,-1.1016441583633425,-22.64303970336914,6.504926e-05,-0.012888225,0.32989025
1045,30324404,-0.2948067486286163,-1.1002540588378906,-22.643043518066406,0.010449203,-0.016103236,0.36920643
1046,30341071,-0.2947237193584442,-1.100021243095398,-22.642858505249023,0.0051350845,-0.003371487,0.35666943
1047,30357738,-0.2950591146945953,-1.0998347997665403,-22.64303970336914,-0.0025218897,-0.012161546,0.33116245
1048,30374405,-0.295818567276001,-1.098280668258667,-22.642974853515625,0.01129156,-0.0067301183,0.34113884
1049,30391072,-0.2962669134140014,-1.0991138219833374,-22.64274024963379,-0.00054763467,0.020555835,0.33698368
1050,30407739,-0.2965241968631744,-1.099241018295288,-22.64198112487793,-0.0003649827,-0.002705771,0.33529854
1051,30424406,-0.2960531115531921,-1.1006100177764893,-22.642934799194336,0.008005815,-0.015038517,0.34768867
1052,30441073,-0.2953596711158752,-1.1007181406021118,-22.642662048339844,-0.005970918,0.0019296048,0.3437214
1053,30457740,-0.294772207736969,-1.1002196073532104,-22.64232635498047,0.015034292,0.010283035,0.3393898
1054,30474407,-0.2939758002758026,-1.102278470993042,-22.642240524291992,-0.0017885786,0.0026562524,0.34397125
1055,30491074,-0.2932206392288208,-1.101467490196228,-22.641557693481445,-0.011209838,-0.013552233,0.3435011
1056,30507741,-0.2933557033538818,-1.102588176727295,-22.64175033569336,0.0021473519,-0.0062531275,0.3534174
1057,30524408,-0.2938990294933319,-1.1021738052368164,-22.64214134216309,-0.0020900138,-0.013875667,0.34012032
1058,30541075,-0.293526142835617,-1.103070855140686,-22.643089294433597,-0.008408816,-0.011738977,0.33673763
1059,30557742,-0.2943353950977325,-1.104170560836792,-22.643598556518555,-0.014122408,-0.012794234,0.36112404
1060,30574409,-0.2943653762340545,-1.1042710542678833,-22.642728805541992,0.00066000584,-0.0031392954,0.33536625
1061,30591076,-0.2939006984233856,-1.1048659086227417,-22.641923904418945,-0.0084158145,-0.01188212,0.34520245
1062,30607743,-0.2948100566864013,-1.1038548946380615,-22.64121627807617,-0.0020267107,-0.018530216,0.34265232
1063,30624410,-0.2947339117527008,-1.1026719808578491,-22.64142417907715,-0.0048010233,0.00188456,0.3478918
1064,30641077,-0.2945951223373413,-1.1025506258010864,-22.64166831970215,0.0065315864,-0.0032029685,0.32911015
1065,30657744,-0.2944638133049011,-1.1020219326019287,-22.64127540588379,-0.010595499,-0.013804457,0.3464718
1066,30674411,-0.2947179675102234,-1.1019147634506226,-22.641929626464844,-0.008454203,-0.006092191,0.3488207
1067,30691078,-0.294435977935791,-1.1023528575897217,-22.64177703857422,-0.007040232,-0.0064968336,0.34547043
1068,30707745,-0.2934053540229797,-1.103049635887146,-22.641769409179688,0.0031608574,-0.011319496,0.32579136
1069,30724412,-0.2933461666107178,-1.103231430053711,-22.64179992675781,0.01223285,-0.024456628,0.33036518
1070,30741079,-0.2932430207729339,-1.10300874710083,-22.642677307128903,0.00020371111,-0.009878878,0.33367348
1071,30757746,-0.2925257086753845,-1.102843999862671,-22.642108917236328,-0.0050107203,-0.009346816,0.35183334
1072,30774413,-0.2918143272399902,-1.1012179851531982,-22.643346786499023,-0.0078110304,-0.012311241,0.35049534
1073,30791080,-0.2926070392131805,-1.1014069318771362,-22.64310073852539,0.014781143,-0.0050452426,0.32653332
1074,30807747,-0.2934782803058624,-1.101030349731445,-22.644123077392575,-0.003065138,-0.008232995,0.32975006
1075,30824414,-0.2923804521560669,-1.1010899543762207,-22.64401054382324,0.0149632,-0.0010162401,0.3244629
1076,30841081,-0.2919485569000244,-1.0997378826141355,-22.6440372467041,-0.0005819928,-0.010546543,0.34836864
1077,30857748,-0.2920554280281067,-1.1011149883270264,-22.64287757873535,-0.009763884,-0.0044788644,0.34241867
1078,30874415,-0.2919016778469085,-1.1009705066680908,-22.64327621459961,-0.0077448497,-0.016562827,0.32962608
1079,30891082,-0.2915418148040771,-1.1013330221176147,-22.64366340637207,-0.016852317,0.0032858185,0.35426903
1080,30907749,-0.2990462183952331,-1.1048486232757568,-22.63389587402344,0.0073516276,-0.0025491337,0.35053062
1081,30924416,-0.2986079454421997,-1.1038697957992554,-22.634092330932617,0.004762132,0.0037166676,0.33306408
1082,30941083,-0.2983424365520477,-1.1032874584197998,-22.634315490722656,-0.0014968313,-0.009666122,0.3311882
1083,30957750,-0.2986753582954407,-1.1044000387191772,-22.63387680053711,-0.006363819,0.0014685045,0.34615612
1084,30974417,-0.2990497648715973,-1.1042693853378296,-22.63389587402344,0.00015337879,0.0033749933,0.34414005
1085,30991084,-0.2971247434616089,-1.1036996841430664,-22.634531021118164,0.011254233,0.0050348737,0.3637638
1086,31007751,-0.2962937951087951,-1.1049965620040894,-22.63458824157715,-0.006352399,-0.006040567,0.34943485
1087,31024418,-0.2963808178901672,-1.1051987409591677,-22.635496139526367,0.0028543372,-0.0030525408,0.35656643
1088,31041085,-0.2968075275421142,-1.1051548719406128,-22.636110305786133,5.8923604e-05,0.00090588053,0.35957432
1089,31057752,-0.2975042760372162,-1.1040115356445312,-22.635955810546875,-0.0031044623,-0.013274403,0.35322475
1090,31074419,-0.2984901070594787,-1.1050764322280884,-22.635595321655277,-0.010439899,0.00043535433,0.36558628
1091,31091086,-0.2983595728874206,-1.105311632156372,-22.63518524169922,-0.0131696975,-0.012460191,0.32999325
1092,31107753,-0.2970631420612335,-1.1046977043151855,-22.635107040405277,0.012227039,0.00019610468,0.3440342
1093,31124420,-0.2976243197917938,-1.1041985750198364,-22.63384437561035,0.008556809,-0.017697535,0.35317898
1094,31141087,-0.2979183197021484,-1.1034626960754397,-22.63329124450684,0.004635903,-0.0010446402,0.32758427
1095,31157754,-0.2969482243061065,-1.1037217378616333,-22.632265090942383,-0.0069932383,-0.0139696505,0.34554577
1096,31174421,-0.2963998019695282,-1.104180932044983,-22.631441116333008,0.005207824,-0.009508695,0.35071087
1097,31191088,-0.2970603108406067,-1.1037501096725464,-22.631080627441406,0.0007001753,-0.011010758,0.34270287
1098,31207755,-0.2969188988208771,-1.1038109064102173,-22.63006019592285,0.005735887,-0.010760591,0.34321117
1099,31224422,-0.2971286177635193,-1.1030510663986206,-22.63055229187012,0.014737201,-0.004611453,0.35468102
1100,31241089,-0.2957282066345215,-1.103309988975525,-22.630807876586918,-0.0027390604,-0.012593506,0.3394127
1101,31257756,-0.2959553599357605,-1.1039806604385376,-22.6307315826416,0.0030234458,0.0022863909,0.34549332
1102,31274423,-0.2956617772579193,-1.1037365198135376,-22.63092613220215,-0.010535213,0.0056098327,0.3436489
1103,31291090,-0.2965390384197235,-1.1025665998458862,-22.631183624267575,0.006302269,-0.007149935,0.3411951
1104,31307757,-0.2955979406833648,-1.1021252870559692,-22.62995338439941,0.008598013,-0.008220394,0.3518076
1105,31324424,-0.2959237098693847,-1.1034235954284668,-22.629833221435547,-0.0017504557,-0.0066650514,0.34376526
1106,31341091,-0.2954441606998443,-1.103963017463684,-22.628816604614254,-0.010259622,-0.012597571,0.3583231
1107,31357758,-0.2954101860523224,-1.1035641431808472,-22.62883758544922,0.004519739,-0.005473333,0.33951283
1108,31374425,-0.2954920530319214,-1.1042027473449707,-22.62925910949707,-0.0025227559,-0.015722059,0.35394
1109,31391092,-0.2963211238384247,-1.103902816772461,-22.628177642822266,-0.002959088,-0.021617454,0.37023354
1110,31407759,-0.2974094748497009,-1.1046289205551147,-22.628568649291992,-0.010158364,-0.001916414,0.3443842
1111,31424426,-0.2972050905227661,-1.1045843362808228,-22.62836265563965,-0.0012982959,-0.002138373,0.34453487
