sep=,
DeviceTag:,Movella DOT,,,,,,,,,,,,,,,,,
FirmwareVersion:,3.0.0,,,,,,,,,,,,,,,,,
AppVersion:,2023.6.1,,,,,,,,,,,,,,,,,
SyncStatus:,Un-synced,,,,,,,,,,,,,,,,,
OutputRate:,60Hz,,,,,,,,,,,,,,,,,
FilterProfile:,Dynamic,,,,,,,,,,,,,,,,,
Measurement Mode:,Sensor fusion Mode - Complete (Euler),,,,,,,,,,,,,,,,,
StartTime:,2024-10-26 16:33:34.772 +0700,,,,,,,,,,,,,,,,,
 2024,,,,,,,,,,,,,,,,,,,

PacketCounter,SampleTimeFine,Euler_X,Euler_Y,Euler_Z,FreeAcc_X,FreeAcc_Y,FreeAcc_Z
1, 13192178, -0.8972130417823792, -0.6680808663368225, -22.8413143157959, -0.03168285, -0.003655757, 0.33777714
2, 13208845, -0.9176393151283264, -0.6643626093864441, -22.700868606567383, -0.012947045, 0.0022333972, 0.33856583
3, 13225512, -0.9304918646812439, -0.6642641425132751, -22.70489501953125, 0.0015649889, 0.014020877, 0.3300419
4, 13242179, -0.9283366799354553, -0.6739818453788757, -22.71261978149414, 0.008121148, 0.011343394, 0.3270092
5, 13258846, -0.9221853613853455, -0.6920974254608154, -22.684898376464844, -0.020224622, 0.02198532, 0.31872845
6, 13275513, -0.9171558618545532, -0.7011134028434753, -22.718807220458984, -0.011802294, 0.006857706, 0.33463192
7, 13292180, -0.9171538352966309, -0.7129860520362854, -22.683048248291016, -0.020192813, 0.014253337, 0.34200287
8, 13308847, -0.9190995097160339, -0.7239035964012146, -22.677188873291016, -0.020085476, 0.0065871296, 0.34935474
9, 13325514, -0.9218584895133972, -0.7358869314193726, -22.67915153503418, -0.020196667, 0.018878149, 0.3366766
10, 13342181, -0.9234775304794312, -0.7479047775268555, -22.680435180664062, 0.0014846848, 0.018589538, 0.33056545
11, 13358848, -0.9244565367698669, -0.7628462910652161, -22.667612075805664, -0.029066429, 0.00760982, 0.32496166
12, 13375515, -0.9268606305122375, -0.7754378318786621, -22.667661666870117, -0.018214665, 0.016144264, 0.3605299
13, 13392182, -0.931315541267395, -0.7904325127601624, -22.650959014892578, -0.03619302, 0.023391364, 0.33679676
14, 13408849, -0.9349752068519592, -0.803403913974762, -22.650876998901367, -0.03619583, 0.015411247, 0.343606
15, 13425516, -0.9387696981430054, -0.8171981573104858, -22.65329933166504, -0.03354151, 0.019873451, 0.3161869
16, 13442183, -0.9428186416625977, -0.8323807120323181, -22.67316436767578, -0.033077825, 0.020003425, 0.33008957
17, 13458850, -0.9473685026168823, -0.8455899357795715, -22.6606502532959, -0.052554414, 0.021254286, 0.3458376
18, 13475517, -0.9526782035827637, -0.8585058450698853, -22.6586971282959, -0.044443917, 0.030593915, 0.3513422
19, 13492184, -0.9574311971664429, -0.8715957999229431, -22.634164810180664, -0.043042675, 0.03064962, 0.32090664
20, 13508851, -0.9620923399925232, -0.8856891989707947, -22.640485763549805, -0.05697988, 0.02843323, 0.34556007
21, 13525518, -0.9670261740684509, -0.8982168436050415, -22.63085174560547, -0.038922295, 0.037328508, 0.34342384
22, 13542185, -0.970368504524231, -0.9119032621383667, -22.6435489654541, -0.048854914, 0.027774943, 0.350955
23, 13558852, -0.9746730327606201, -0.9251933097839355, -22.647069931030273, -0.048430655, 0.024012297, 0.33151913
24, 13575519, -0.9789969325065613, -0.9397158026695251, -22.650728225708008, -0.05984184, 0.024469877, 0.34236336
25, 13592186, -0.9830378890037537, -0.9533629417419434, -22.625627517700195, -0.05368044, 0.0395255, 0.3432274
26, 13608853, -0.9885061979293823, -0.9672818183898926, -22.61616325378418, -0.046002705, 0.054890145, 0.340827
27, 13625520, -0.9926213622093201, -0.9828275442123413, -22.625486373901367, -0.057038955, 0.048822396, 0.33377647
28, 13642187, -0.9956824779510498, -0.9971938729286194, -22.620689392089844, -0.066223696, 0.03701909, 0.3445425
29, 13658854, -1.0001857280731201, -1.0120635032653809, -22.623706817626953, -0.07247501, 0.038959846, 0.3388195
30, 13675521, -1.0043355226516724, -1.027273416519165, -22.620378494262695, -0.06461774, 0.043585304, 0.34340096
31, 13692188, -1.0076135396957397, -1.0400360822677612, -22.598230361938477, -0.055673707, 0.05414319, 0.34741974
32, 13708855, -1.0111857652664185, -1.0535589456558228, -22.58806610107422, -0.07573629, 0.057279374, 0.3373804
33, 13725522, -1.0157489776611328, -1.0675921440124512, -22.597991943359375, -0.073472396, 0.054414425, 0.31555367
34, 13742189, -1.0206480026245117, -1.0831457376480103, -22.609094619750977, -0.0751336, 0.04306383, 0.32835484
35, 13758856, -1.0250991582870483, -1.0973730087280273, -22.58134651184082, -0.07105634, 0.046847783, 0.33757687
36, 13775523, -1.0296447277069092, -1.1111125946044922, -22.597421646118164, -0.07374927, 0.07388939, 0.3235922
37, 13792190, -1.0334335565567017, -1.1240386962890625, -22.600013732910156, -0.08713195, 0.07044061, 0.32454205
38, 13808857, -1.037261962890625, -1.1381781101226807, -22.607465744018555, -0.067224756, 0.07160288, 0.35996437
39, 13825524, -1.040388822555542, -1.1517454385757446, -22.608659744262695, -0.08509904, 0.054267548, 0.3369751
40, 13842191, -1.0445023775100708, -1.1661691665649414, -22.6121883392334, -0.09872633, 0.07457794, 0.35559845
41, 13858858, -1.0486875772476196, -1.180782675743103, -22.620227813720703, -0.086250454, 0.0744213, 0.3248825
42, 13875525, -1.0518825054168701, -1.194167971611023, -22.62664794921875, -0.09565457, 0.073104784, 0.33047867
43, 13892192, -1.0565019845962524, -1.2079181671142578, -22.644615173339844, -0.08658101, 0.07598011, 0.35641956
44, 13908859, -1.0596004724502563, -1.2216076850891113, -22.63435935974121, -0.09555058, 0.067311026, 0.33243752
45, 13925526, -1.06387460231781, -1.236777663230896, -22.666358947753906, -0.088050485, 0.07928502, 0.335186
46, 13942193, -1.0674325227737427, -1.2515043020248413, -22.665346145629883, -0.09313242, 0.068147436, 0.3667822
47, 13958860, -1.0709724426269531, -1.2667135000228882, -22.6655330657959, -0.09076082, 0.07693518, 0.3385353
48, 13975527, -1.0743602514266968, -1.2793177366256714, -22.66655731201172, -0.10118086, 0.07177144, 0.31063747
49, 13992194, -1.0778831243515015, -1.2927803993225098, -22.666454315185547, -0.093905024, 0.0830737, 0.3410101
50, 14008861, -1.0824134349822998, -1.3072878122329712, -22.68698501586914, -0.10138688, 0.088264674, 0.34512043
51, 14025528, -1.0864309072494507, -1.3214226961135864, -22.68341064453125, -0.10244064, 0.083242275, 0.34558582
52, 14042195, -1.0906257629394531, -1.3360687494277954, -22.692445755004883, -0.11425473, 0.0989533, 0.34269047
53, 14058862, -1.0947601795196533, -1.3504695892333984, -22.69346809387207, -0.111810274, 0.08593617, 0.30678654
54, 14075529, -1.0981789827346802, -1.3643715381622314, -22.707651138305664, -0.106204584, 0.09775801, 0.32298756
55, 14092196, -1.100381851196289, -1.3796815872192383, -22.70982551574707, -0.119881146, 0.08001124, 0.34844494
56, 14108863, -1.1043121814727783, -1.3934675455093384, -22.708770751953125, -0.11418411, 0.10273738, 0.3511982
57, 14125530, -1.108696699142456, -1.407138466835022, -22.710765838623047, -0.12014031, 0.092574775, 0.34291172
58, 14142197, -1.1119695901870728, -1.4199353456497192, -22.709598541259766, -0.118090615, 0.08903745, 0.31580734
59, 14158864, -1.115155816078186, -1.4331135749816895, -22.704545974731445, -0.12517668, 0.09776099, 0.30988503
60, 14175531, -1.1186493635177612, -1.4450575113296509, -22.708900451660156, -0.130119, 0.09735561, 0.33039856
61, 14192198, -1.1227952241897583, -1.458250641822815, -22.7103271484375, -0.1356887, 0.09485573, 0.34695244
62, 14208865, -1.1264564990997314, -1.4710159301757812, -22.711843490600586, -0.12690371, 0.09008214, 0.34325218
63, 14225532, -1.1304872035980225, -1.4835466146469116, -22.710506439208984, -0.14345352, 0.09696753, 0.33413696
64, 14242199, -1.1333651542663574, -1.4966447353363037, -22.712217330932617, -0.13110666, 0.094015844, 0.34988976
65, 14258866, -1.1369307041168213, -1.5106127262115479, -22.711164474487305, -0.13147666, 0.09939194, 0.3391447
66, 14275533, -1.141462802886963, -1.523971676826477, -22.711868286132812, -0.13400277, 0.09697182, 0.34522915
67, 14292200, -1.1453207731246948, -1.5365904569625854, -22.70012092590332, -0.14305596, 0.10805157, 0.3540306
68, 14308867, -1.1489391326904297, -1.549657940864563, -22.692859649658203, -0.13012752, 0.10659754, 0.3370781
69, 14325534, -1.152596354484558, -1.563838005065918, -22.692249298095703, -0.14626664, 0.117457606, 0.34464645
70, 14342201, -1.1564527750015259, -1.5754138231277466, -22.700380325317383, -0.14990091, 0.09262492, 0.33678436
71, 14358868, -1.160343050956726, -1.588348150253296, -22.698083877563477, -0.14363153, 0.10549779, 0.3468628
72, 14375535, -1.1632707118988037, -1.6017476320266724, -22.696937561035156, -0.15280016, 0.10830189, 0.31499577
73, 14392202, -1.1660712957382202, -1.613875150680542, -22.692811965942383, -0.15118344, 0.11992625, 0.33902168
74, 14408869, -1.1692962646484375, -1.626632571220398, -22.68987464904785, -0.14916319, 0.112682424, 0.3316164
75, 14425536, -1.1727733612060547, -1.6391866207122803, -22.70366096496582, -0.136115, 0.1282096, 0.33743095
76, 14442203, -1.1754037141799927, -1.651387095451355, -22.71216583251953, -0.16215779, 0.11760374, 0.32871056
77, 14458870, -1.1781913042068481, -1.6645151376724243, -22.71868896484375, -0.15736356, 0.11850594, 0.33872032
78, 14475537, -1.1817407608032227, -1.6751271486282349, -22.722475051879883, -0.17150043, 0.115727685, 0.3491106
79, 14492204, -1.1839487552642822, -1.6864311695098877, -22.719593048095703, -0.15432732, 0.13002026, 0.328372
80, 14508871, -1.1864356994628906, -1.6985960006713867, -22.723215103149414, -0.15637285, 0.108389504, 0.34220982
81, 14525538, -1.1894099712371826, -1.709202766418457, -22.72597885131836, -0.16126564, 0.1312739, 0.34296227
82, 14542205, -1.192569375038147, -1.7197232246398926, -22.727148056030273, -0.15959035, 0.1283502, 0.3346939
83, 14558872, -1.1956541538238525, -1.7318531274795532, -22.729883193969727, -0.16287144, 0.13327901, 0.32055855
84, 14575539, -1.1983206272125244, -1.74391508102417, -22.729089736938477, -0.18324006, 0.14911038, 0.33838844
85, 14592206, -1.20088791847229, -1.7543375492095947, -22.727886199951172, -0.16902626, 0.12735891, 0.33831215
86, 14608873, -1.2030962705612183, -1.7628874778747559, -22.737234115600586, -0.16315651, 0.11447648, 0.32284355
87, 14625540, -1.205636739730835, -1.772132158279419, -22.745716094970703, -0.17078188, 0.12624197, 0.34887314
88, 14642207, -1.2084425687789917, -1.78345787525177, -22.744829177856445, -0.17197785, 0.13725378, 0.3312149
89, 14658874, -1.2116749286651611, -1.7950193881988525, -22.761999130249023, -0.18917528, 0.13776357, 0.35366154
90, 14675541, -1.2146291732788086, -1.8055635690689087, -22.764760971069336, -0.17270173, 0.13370769, 0.34767437
91, 14692208, -1.2177973985671997, -1.8159005641937256, -22.761722564697266, -0.17600276, 0.13367502, 0.3471613
92, 14708875, -1.2213448286056519, -1.8264126777648926, -22.7657527923584, -0.18029286, 0.14164713, 0.32939243
93, 14725542, -1.2242611646652222, -1.8372795581817627, -22.768285751342773, -0.192698, 0.13173424, 0.35121155
94, 14742209, -1.228003740310669, -1.8473122119903564, -22.770898818969727, -0.17915384, 0.14231914, 0.34217453
95, 14758876, -1.2310705184936523, -1.8574800491333008, -22.76904296875, -0.19175449, 0.13330677, 0.32983017
96, 14775543, -1.2346099615097046, -1.8677805662155151, -22.77789306640625, -0.19798669, 0.13730569, 0.3336544
97, 14792210, -1.2365989685058594, -1.8764452934265137, -22.782608032226562, -0.19959067, 0.12881228, 0.3310423
98, 14808877, -1.2390588521957397, -1.885392427444458, -22.78374481201172, -0.2004616, 0.14436449, 0.3371172
99, 14825544, -1.2424277067184448, -1.8934217691421509, -22.781404495239258, -0.19312301, 0.15286964, 0.35025692
100, 14842211, -1.2451343536376953, -1.9027248620986938, -22.77669334411621, -0.19327842, 0.1505757, 0.33588123
101, 14858878, -1.2476041316986084, -1.911285638809204, -22.78328514099121, -0.18548462, 0.15789565, 0.33483696
102, 14875545, -1.2488614320755005, -1.9208996295928955, -22.793184280395508, -0.19049817, 0.14757606, 0.3376627
103, 14892212, -1.252023696899414, -1.9291259050369263, -22.798337936401367, -0.19139314, 0.15813595, 0.3466835
104, 14908879, -1.254422903060913, -1.9373323917388916, -22.789337158203125, -0.20482053, 0.14511567, 0.33769226
105, 14925546, -1.2560319900512695, -1.9463977813720703, -22.79594612121582, -0.2008749, 0.15290776, 0.31782055
106, 14942213, -1.2580944299697876, -1.9529942274093628, -22.797731399536133, -0.1962726, 0.17160504, 0.31158066
107, 14958880, -1.2599377632141113, -1.9599061012268066, -22.797189712524414, -0.20368013, 0.15507133, 0.34062862
108, 14975547, -1.2616708278656006, -1.9677495956420898, -22.801170349121094, -0.20312123, 0.1573108, 0.32630444
109, 14992214, -1.2643553018569946, -1.9764249324798584, -22.801288604736328, -0.19367455, 0.149388, 0.34300804
110, 15008881, -1.2660614252090454, -1.9832935333251953, -22.800704956054688, -0.19192912, 0.14901458, 0.34268475
111, 15025548, -1.2680176496505737, -1.9911662340164185, -22.803451538085938, -0.21219766, 0.1674619, 0.3378353
112, 15042215, -1.269203543663025, -1.9987801313400269, -22.805814743041992, -0.20464094, 0.1556334, 0.3322382
113, 15058882, -1.2717176675796509, -2.006943941116333, -22.8038272857666, -0.21812235, 0.14632161, 0.34653378
114, 15075549, -1.2732112407684326, -2.0136494636535645, -22.799646377563477, -0.20374463, 0.16453986, 0.35873032
115, 15092216, -1.274965524673462, -2.0199131965637207, -22.79792594909668, -0.21255909, 0.16595006, 0.3552866
116, 15108883, -1.2759671211242676, -2.0279793739318848, -22.801898956298828, -0.21463369, 0.16753232, 0.34696198
117, 15125550, -1.2772018909454346, -2.033050060272217, -22.805301666259766, -0.21249735, 0.17753154, 0.35792542
118, 15142217, -1.2793004512786865, -2.0376667976379395, -22.812040328979492, -0.19023165, 0.16708219, 0.32519627
119, 15158884, -1.2804316282272339, -2.043069362640381, -22.820341110229492, -0.20415053, 0.15294603, 0.3290329
120, 15175551, -0.8904378414154053, -0.5402395129203796, -23.348735809326172, -0.0070965034, 3.7656346E-4, 0.34467506
121, 15192218, -0.8899170756340027, -0.5404155254364014, -23.353553771972656, 0.0074724117, 0.0025601732, 0.32618618
122, 15208885, -0.8899539709091187, -0.5390202403068542, -23.345529556274414, 0.0019249006, -0.0070942384, 0.33047104
123, 15225552, -0.8897148370742798, -0.5383641719818115, -23.33650016784668, 0.006060837, -0.009160707, 0.3411932
124, 15242219, -0.8902429938316345, -0.5374835729598999, -23.327857971191406, 5.114605E-5, -0.010242349, 0.32391644
125, 15258886, -0.8905853629112244, -0.5370880365371704, -23.321489334106445, -0.0058424543, -0.0034026424, 0.3528881
126, 15275553, -0.890803873538971, -0.5371465086936951, -23.313766479492188, 5.5549253E-4, 0.0032627303, 0.33551693
127, 15292220, -0.8903796672821045, -0.539323091506958, -23.305952072143555, 0.006000069, -0.0048953597, 0.32909012
128, 15308887, -0.891190230846405, -0.5381150841712952, -23.298625946044922, -0.005962437, 1.0083228E-4, 0.32707024
129, 15325554, -0.8914399743080139, -0.5374085307121277, -23.290678024291992, 0.0061532804, -0.0073381467, 0.33343124
130, 15342221, -0.8908669948577881, -0.5366272330284119, -23.286561965942383, -0.005705966, 0.0031618841, 0.35375977
131, 15358888, -0.8908963203430176, -0.5373255610466003, -23.27889060974121, 0.004649541, -0.018317822, 0.3477707
132, 15375555, -0.8915393352508545, -0.5384642481803894, -23.271615982055664, 0.0043163216, 0.0011114461, 0.35788536
133, 15392222, -0.8903133869171143, -0.5390869379043579, -23.26286506652832, 0.00507534, 1.1677155E-4, 0.316144
134, 15408889, -0.8917130827903748, -0.5380944609642029, -23.25934410095215, 0.0013599436, -0.013998497, 0.34458923
135, 15425556, -0.8914058804512024, -0.5373092889785767, -23.25497817993164, -6.412552E-4, -5.7519664E-4, 0.33704948
136, 15442223, -0.8907088041305542, -0.5368274450302124, -23.249723434448242, 0.0015755359, -7.227082E-4, 0.3572836
137, 15458890, -0.890196681022644, -0.5362182855606079, -23.242462158203125, -0.0030764272, 0.003167409, 0.33598328
138, 15475557, -0.8894434571266174, -0.5370518565177917, -23.234113693237305, 0.015202419, -0.0017394407, 0.34031677
139, 15492224, -0.8899353742599487, -0.5382704734802246, -23.22907066345215, -7.5228873E-4, -0.020010103, 0.33294773
140, 15508891, -0.8904410004615784, -0.5383248329162598, -23.223852157592773, -0.0050677285, 3.1552347E-4, 0.342453
141, 15525558, -0.8908563256263733, -0.5379340052604675, -23.217992782592773, -0.0014341552, -0.0054287524, 0.34907627
142, 15542225, -0.8909686803817749, -0.5383302569389343, -23.213279724121094, 0.008664337, 0.006312844, 0.34389114
143, 15558892, -0.8905366063117981, -0.5381457805633545, -23.204029083251953, 0.005190613, -0.007306506, 0.34962368
144, 15575559, -0.8895414471626282, -0.5386629104614258, -23.199800491333008, 0.0111351255, 0.002628261, 0.33652782
145, 15592226, -0.8897742629051208, -0.539124071598053, -23.197202682495117, -0.0020570473, 0.0025170422, 0.3324566
146, 15608893, -0.8889573812484741, -0.5380735397338867, -23.189985275268555, 0.007845884, 0.0112478705, 0.372056
147, 15625560, -0.8877856135368347, -0.5365768671035767, -23.184040069580078, 0.013314594, -0.010348448, 0.33348465
148, 15642227, -0.8884494304656982, -0.5375661253929138, -23.178905487060547, 0.01291592, 0.005764406, 0.32418442
149, 15658894, -0.8884859681129456, -0.536483645439148, -23.176244735717773, -0.007499385, 0.0091126375, 0.3298626
150, 15675561, -0.8889173269271851, -0.5367470383644104, -23.17408561706543, -0.0016389175, -0.012908893, 0.34287834
151, 15692228, -0.8886541128158569, -0.53639155626297, -23.167964935302734, 0.0019076691, -0.014488445, 0.35730934
152, 15708895, -0.8882399797439575, -0.536719560623169, -23.161706924438477, -0.009981652, -0.009285818, 0.33493233
153, 15725562, -0.8880820274353027, -0.5361084342002869, -23.15496063232422, -0.0011724215, 0.0020362658, 0.34271145
154, 15742229, -0.88865727186203, -0.5361080765724182, -23.150922775268555, 0.011852214, -0.007430681, 0.34190845
155, 15758896, -0.8879446983337402, -0.5353982448577881, -23.14699363708496, 0.004350896, 0.008560867, 0.34384537
156, 15775563, -0.8874119520187378, -0.5353735089302063, -23.14469337463379, 0.004823277, -9.2368823E-4, 0.33971882
157, 15792230, -0.8873454332351685, -0.5341866612434387, -23.139257431030273, -0.0018276847, -0.004892042, 0.3577528
158, 15808897, -0.8868549466133118, -0.534025251865387, -23.13631820678711, 0.0035007298, -0.0058734873, 0.33591843
159, 15825564, -0.8873435854911804, -0.5337437391281128, -23.13268280029297, 0.011874883, -0.006799585, 0.34473228
160, 15842231, -0.8868030309677124, -0.534397304058075, -23.12908935546875, 0.01109476, -0.007515651, 0.3476839
161, 15858898, -0.8865651488304138, -0.5346935987472534, -23.125246047973633, 0.00518768, 0.0075075068, 0.3512087
162, 15875565, -0.886817455291748, -0.535766065120697, -23.122318267822266, 0.0045676935, 8.927317E-4, 0.3528328
163, 15892232, -0.8872793912887573, -0.5350717902183533, -23.117355346679688, 0.015963195, 0.0067119193, 0.35398483
164, 15908899, -0.8876729011535645, -0.5346556305885315, -23.11468505859375, 0.014083237, -3.061918E-4, 0.33644962
165, 15925566, -0.8873025178909302, -0.5345122814178467, -23.115013122558594, 0.01425538, -0.014897257, 0.33243752
166, 15942233, -0.8882941603660583, -0.5354401469230652, -23.112497329711914, 0.0037339341, -0.002251041, 0.34692955
167, 15958900, -0.8878905773162842, -0.5352154970169067, -23.111221313476562, 7.839612E-4, -0.012233751, 0.33770847
168, 15975567, -0.8882054090499878, -0.5358772277832031, -23.10283851623535, 0.010790877, 0.0067777717, 0.32957268
169, 15992234, -0.8873412013053894, -0.5353772044181824, -23.097745895385742, 0.0070396, 7.2211446E-4, 0.33775806
170, 16008901, -0.8861826658248901, -0.5365231037139893, -23.09383201599121, 0.002216061, -0.00480249, 0.3153038
171, 16025568, -0.8857383728027344, -0.5369756817817688, -23.09120750427246, 0.0026801473, -0.007292508, 0.32865238
172, 16042235, -0.8853952288627625, -0.5379149913787842, -23.087722778320312, 0.0012420336, -0.010936985, 0.3397045
173, 16058902, -0.8855250477790833, -0.5384255051612854, -23.082387924194336, 0.013114934, -0.014466673, 0.3510046
174, 16075569, -0.8857014179229736, -0.5382871031761169, -23.077404022216797, 0.010232853, 0.007382319, 0.3368206
175, 16092236, -0.8849319219589233, -0.5390033721923828, -23.073802947998047, 0.0014481754, 0.005713424, 0.35719776
176, 16108903, -0.8849717378616333, -0.539226233959198, -23.072973251342773, 0.0026023055, -0.002344176, 0.3505478
177, 16125570, -0.8857076168060303, -0.5387064814567566, -23.068815231323242, 6.927225E-4, 0.004753436, 0.36798573
178, 16142237, -0.8861010670661926, -0.5384572744369507, -23.07021141052246, 0.0023061263, 0.010316185, 0.3372488
179, 16158904, -0.8862180709838867, -0.5381331443786621, -23.067001342773438, 0.0059641986, -0.0069402237, 0.33372307
180, 16175571, -0.8876804709434509, -0.5388033986091614, -23.063032150268555, 0.015065786, -0.0012855558, 0.33483315
181, 16192238, -0.8876977562904358, -0.5387756824493408, -23.06124496459961, 0.0072580315, -0.007701991, 0.32665253
182, 16208905, -0.8879419565200806, -0.5388787388801575, -23.058757781982422, 0.0016901211, -0.012612306, 0.3711872
183, 16225572, -0.8887230157852173, -0.5384125113487244, -23.056411743164062, 0.0049802563, -0.0102393525, 0.34200382
184, 16242239, -0.8888835310935974, -0.5388219356536865, -23.051740646362305, 0.013862361, -0.0048733996, 0.35169315
185, 16258906, -0.8881250023841858, -0.5399160385131836, -23.047456741333008, 0.011321585, 0.004119539, 0.35310745
186, 16275573, -0.8890862464904785, -0.5413925647735596, -23.04489517211914, -0.0068226038, -0.007238132, 0.34206772
187, 16292240, -0.889869749546051, -0.5415149927139282, -23.039518356323242, 0.0033070557, -0.0023263579, 0.34249973
188, 16308907, -0.8906331062316895, -0.5411261320114136, -23.03850746154785, 0.0034144921, -9.355414E-4, 0.34266376
189, 16325574, -0.891124963760376, -0.5412901043891907, -23.034292221069336, -0.0011924068, -0.0045838594, 0.34779167
190, 16342241, -0.8915413022041321, -0.5408357977867126, -23.029870986938477, -0.004500011, -0.006606142, 0.34625435
191, 16358908, -0.8910519480705261, -0.5398215055465698, -23.026348114013672, 0.009003158, 0.010124438, 0.34841442
192, 16375575, -0.8914570808410645, -0.5408007502555847, -23.023324966430664, 7.494564E-4, 0.0035472624, 0.36200333
193, 16392242, -0.8920478224754333, -0.5416458249092102, -23.021554946899414, 0.0027208896, 0.009909545, 0.33272648
194, 16408909, -0.8922381401062012, -0.5420970320701599, -23.020265579223633, -0.0031738246, -0.0025262272, 0.35139084
195, 16425576, -0.8936823606491089, -0.5419499278068542, -23.016464233398438, 0.007146408, 5.747845E-4, 0.36152935
196, 16442243, -0.895356297492981, -0.5420532822608948, -23.014461517333984, 0.0044519557, 0.003968214, 0.3523121
197, 16458910, -0.8951898813247681, -0.5415634512901306, -23.01643943786621, 0.004047788, 0.0037476, 0.34088326
198, 16475577, -0.8953201174736023, -0.541743278503418, -23.015121459960938, 0.012995022, 7.2355336E-4, 0.3284073
199, 16492244, -0.8961467742919922, -0.5414308309555054, -23.011962890625, 0.008882454, -0.00950887, 0.32834816
200, 16508911, -0.8966259360313416, -0.5407553911209106, -23.00591468811035, 2.7490695E-4, -0.0024990635, 0.33742714
201, 16525578, -0.8961123824119568, -0.5401374697685242, -23.005163192749023, -0.0054861326, -0.007365066, 0.3448
202, 16542245, -0.896456778049469, -0.5408003330230713, -23.003578186035156, 3.664041E-4, -0.0016508527, 0.31702805
203, 16558912, -0.8966403603553772, -0.5397120714187622, -23.000518798828125, -0.0059281276, -0.0012143808, 0.33220673
204, 16575579, -0.8956266045570374, -0.5388299822807312, -23.002294540405273, -1.6473953E-4, -0.0057545854, 0.33045864
205, 16592246, -0.8962768316268921, -0.539229691028595, -23.001680374145508, 0.014999658, -0.018162837, 0.33918
206, 16608913, -0.8956128358840942, -0.5390621423721313, -22.999032974243164, 0.0040125707, 0.005286605, 0.33040905
207, 16625580, -0.8951894640922546, -0.5392667055130005, -22.996686935424805, 0.0028957222, -0.0018033235, 0.34303665
208, 16642247, -0.8945683240890503, -0.5395343899726868, -22.993515014648438, 0.009211678, -0.009408833, 0.32462025
209, 16658914, -0.894790530204773, -0.5386748313903809, -22.991106033325195, 0.0053409887, -0.015349752, 0.3683281
210, 16675581, -0.8954461216926575, -0.5381157994270325, -22.987773895263672, 0.005321302, -0.007453179, 0.35776424
211, 16692248, -0.89557945728302, -0.5389489531517029, -22.987918853759766, 0.012382886, -0.006431718, 0.348073
212, 16708915, -0.895130455493927, -0.5391748547554016, -22.986366271972656, 0.004315319, -8.580383E-4, 0.33816242
213, 16725582, -0.8946444392204285, -0.539240300655365, -22.985118865966797, 0.010887291, 0.008441044, 0.3341179
214, 16742249, -0.8941899538040161, -0.5372980833053589, -22.983261108398438, -0.0014147357, 0.0010941029, 0.3383932
215, 16758916, -0.8946702480316162, -0.5367996692657471, -22.97804832458496, 0.0013021341, -0.0025455472, 0.32794094
216, 16775583, -0.8954201936721802, -0.5367079377174377, -22.973711013793945, -0.002730986, 0.0011371431, 0.35766792
217, 16792250, -0.8961081504821777, -0.5352992415428162, -22.972789764404297, 0.019771561, 0.011231491, 0.3321352
218, 16808917, -0.8958843350410461, -0.5347163081169128, -22.969511032104492, 0.003284013, 0.0030865113, 0.34489536
219, 16825584, -0.8961549997329712, -0.5340590476989746, -22.969327926635742, 0.014861792, 0.0076172235, 0.35816288
220, 16842251, -0.8958134651184082, -0.5333915948867798, -22.97079849243164, -0.006719465, -0.00556513, 0.34899426
221, 16858918, -0.8959606289863586, -0.5329923033714294, -22.96714973449707, 0.008328048, -0.0064238394, 0.3227234
222, 16875585, -0.8948665261268616, -0.5336660742759705, -22.964706420898438, 0.0064350637, -0.0066528353, 0.3423853
223, 16892252, -0.8950791954994202, -0.5329634547233582, -22.962072372436523, -0.004362456, -0.0019690373, 0.35330582
224, 16908919, -0.8950819373130798, -0.5345063805580139, -22.96101951599121, 6.630547E-4, -0.0036124233, 0.33515167
225, 16925586, -0.8948057293891907, -0.5345574021339417, -22.958192825317383, 0.010289195, -0.015482086, 0.36339474
226, 16942253, -0.8944962620735168, -0.5352112650871277, -22.95554542541504, 0.0031853984, 0.002409239, 0.35020447
227, 16958920, -0.8936663269996643, -0.5350185632705688, -22.952320098876953, 0.0027985778, -0.008607966, 0.33483124
228, 16975587, -0.8934857845306396, -0.5355479717254639, -22.949373245239258, 0.009563054, 0.012268047, 0.3509121
229, 16992254, -0.8923957943916321, -0.5350082516670227, -22.947288513183594, 0.016787292, -0.00707012, 0.3268795
230, 17008921, -0.8919560313224792, -0.5360590219497681, -22.946561813354492, 0.00613183, 0.0046145646, 0.34527874
231, 17025588, -0.8903153538703918, -0.536370038986206, -22.944944381713867, 8.9280156E-4, -0.016534504, 0.34773064
232, 17042255, -0.8905178904533386, -0.5359896421432495, -22.943496704101562, 0.0073113674, 0.005574022, 0.3461151
233, 17058922, -0.8906497955322266, -0.5352881550788879, -22.94078826904297, 0.01028447, -0.0032185167, 0.35333824
234, 17075589, -0.889824628829956, -0.5344852805137634, -22.938873291015625, -0.0011785105, 0.005037605, 0.32513523
235, 17092256, -0.8897027969360352, -0.5348461866378784, -22.936798095703125, 0.0066454033, -0.010795453, 0.3376255
236, 17108923, -0.8897307515144348, -0.5354808568954468, -22.93614387512207, 0.0014097416, -0.003071578, 0.34150124
237, 17125590, -0.890496015548706, -0.5358371138572693, -22.93471908569336, 0.009228682, -0.0060221306, 0.35166645
238, 17142257, -0.8914687633514404, -0.5356037020683289, -22.934730529785156, 0.0038732595, 0.006194808, 0.3507185
239, 17158924, -0.8903523087501526, -0.5360001921653748, -22.934322357177734, 0.016257958, 0.0042970157, 0.35898304
240, 17175591, -0.8884119391441345, -0.5369395613670349, -22.934003829956055, 0.0153297335, 0.010275093, 0.34457207
241, 17192258, -0.8866538405418396, -0.5367620587348938, -22.934173583984375, 0.0031594464, 0.005428955, 0.34068394
242, 17208925, -0.8867310285568237, -0.536014974117279, -22.93037223815918, -0.005538433, -0.017446185, 0.32482624
243, 17225592, -0.8871210813522339, -0.5362189412117004, -22.931055068969727, 0.013103615, -0.009405041, 0.34676456
244, 17242259, -0.8875349760055542, -0.5351464152336121, -22.928483963012695, 0.013320321, 0.007307896, 0.3244753
245, 17258926, -0.8870111703872681, -0.5360559225082397, -22.927248001098633, 0.004571828, -0.006744371, 0.35864162
246, 17275593, -0.8872637748718262, -0.5354365110397339, -22.924335479736328, 0.01304285, -0.007750319, 0.334095
247, 17292260, -0.8868613243103027, -0.534206748008728, -22.923311233520508, -0.0035911216, -0.0011319115, 0.36401176
248, 17308927, -0.887920618057251, -0.5337198376655579, -22.921472549438477, 0.010264633, -0.010362067, 0.37383556
249, 17325594, -0.8888877034187317, -0.5335320830345154, -22.917804718017578, 0.007920485, -0.005956921, 0.33762074
250, 17342261, -0.888312041759491, -0.5343940854072571, -22.916345596313477, 8.088026E-5, -0.0075969747, 0.3267765
251, 17358928, -0.8875209093093872, -0.5343879461288452, -22.915210723876953, -0.00991562, -0.01509559, 0.35119438
252, 17375595, -0.8870187997817993, -0.5329131484031677, -22.912357330322266, 0.0051529724, 0.0027657493, 0.35385895
253, 17392262, -0.8877860903739929, -0.5338895320892334, -22.909717559814453, -0.00373055, -0.011962274, 0.36075974
254, 17408929, -0.8871901631355286, -0.535670816898346, -22.906246185302734, 0.0030185878, -0.0024866026, 0.36256504
255, 17425596, -0.8863232135772705, -0.5360172390937805, -22.904926300048828, 0.004240317, 0.0086336, 0.35341167
256, 17442263, -0.8857245445251465, -0.5352025628089905, -22.904277801513672, -0.0010691882, 0.0070706718, 0.311471
257, 17458930, -0.8858398795127869, -0.5377895832061768, -22.900171279907227, 0.011267686, 0.0033943166, 0.34075356
258, 17475597, -0.8867724537849426, -0.5380086302757263, -22.898090362548828, 0.007106315, 0.006717242, 0.37086868
259, 17492264, -0.886683464050293, -0.5383003950119019, -22.895368576049805, 0.019578816, -0.0027008606, 0.3452549
260, 17508931, -0.8862298130989075, -0.5383877158164978, -22.893644332885742, 0.014324187, 0.005332977, 0.3398714
261, 17525598, -0.8854911923408508, -0.5380907654762268, -22.890905380249023, 0.0071302974, -0.014237273, 0.3452406
262, 17542265, -0.885522723197937, -0.5378476977348328, -22.888896942138672, 0.0062796907, -0.0051732142, 0.33747768
263, 17558932, -0.8843763470649719, -0.5383189916610718, -22.88811492919922, 0.006352916, -0.0095230695, 0.36572838
264, 17575599, -0.8846831917762756, -0.5392517447471619, -22.886180877685547, -0.00862929, -2.3797145E-5, 0.33184052
265, 17592266, -0.8847233057022095, -0.5384137630462646, -22.88457679748535, 0.008288506, -0.004341802, 0.3635273
266, 17608933, -0.8848371505737305, -0.5388184785842896, -22.88223648071289, 0.0150453765, 0.00576025, 0.34726524
267, 17625600, -0.8854520916938782, -0.5383532643318176, -22.883163452148438, 0.013257434, -0.0062997406, 0.34392643
268, 17642267, -0.8856781125068665, -0.5386208891868591, -22.88136100769043, -0.0045074234, 0.012458158, 0.34997272
269, 17658934, -0.886070728302002, -0.5398920774459839, -22.876880645751953, 0.013008908, -7.7233504E-4, 0.33508778
270, 17675601, -0.8869280219078064, -0.5394138097763062, -22.8748779296875, 0.014483391, -6.820498E-4, 0.33809185
271, 17692268, -0.8871102929115295, -0.5400676131248474, -22.873226165771484, -0.001539896, 0.009805897, 0.34019375
272, 17708935, -0.886450469493866, -0.5405099391937256, -22.87018585205078, 0.012675123, 0.004621843, 0.318923
273, 17725602, -0.8862649202346802, -0.5397706031799316, -22.868858337402344, -0.010038124, 3.76759E-5, 0.3392315
274, 17742269, -0.886783242225647, -0.5407350063323975, -22.867151260375977, 0.009247859, -0.01714681, 0.3562317
275, 17758936, -0.8873541355133057, -0.5411743521690369, -22.864408493041992, 0.004222579, -0.0049137506, 0.341053
276, 17775603, -0.8869818449020386, -0.5400468707084656, -22.863725662231445, 0.008915701, -0.010970064, 0.34185696
277, 17792270, -0.8867913484573364, -0.5402325391769409, -22.863643646240234, -0.0068970704, -0.0058850264, 0.32038593
278, 17808937, -0.8860520124435425, -0.5409605503082275, -22.864192962646484, 0.00205963, -0.014055473, 0.34831142
279, 17825604, -0.8847432136535645, -0.5398275256156921, -22.86279296875, 0.015959311, -0.0022649476, 0.33640194
280, 17842271, -0.8852992057800293, -0.538785457611084, -22.86063575744629, 0.005453999, -0.018967135, 0.36082077
281, 17858938, -0.8851493000984192, -0.5386183261871338, -22.859786987304688, 0.006791661, -0.015927576, 0.33318424
282, 17875605, -0.8851363062858582, -0.5406712293624878, -22.858999252319336, 0.0049671493, -0.00729628, 0.35255814
283, 17892272, -0.8848090767860413, -0.5407627820968628, -22.85723876953125, 0.015583774, 8.970553E-5, 0.36315823
284, 17908939, -0.8843035697937012, -0.5411390066146851, -22.855934143066406, 0.001609171, -0.014347904, 0.34267616
285, 17925606, -0.8833845257759094, -0.54172682762146, -22.853511810302734, 0.0054372214, -0.02115622, 0.3634634
286, 17942273, -0.8827540278434753, -0.5406928658485413, -22.851848602294922, 0.013944484, -0.00803235, 0.3452959
287, 17958940, -0.8822191953659058, -0.5418106317520142, -22.85112953186035, 0.0032958486, 0.011515562, 0.34592628
288, 17975607, -0.8825691938400269, -0.5412989854812622, -22.848712921142578, 0.0070300344, -0.0046439287, 0.35263538
289, 17992274, -0.8825931549072266, -0.5407784581184387, -22.84528923034668, 0.007995251, -0.0053736777, 0.34713554
290, 18008941, -0.8829963207244873, -0.542251467704773, -22.84430503845215, 0.012330564, -0.011472822, 0.3450632
291, 18025608, -0.8826068043708801, -0.541733980178833, -22.84325408935547, 0.01495771, 0.002266205, 0.34179115
292, 18042275, -0.8819161653518677, -0.5418370962142944, -22.843685150146484, 0.0028986696, -0.0035939417, 0.33347416
293, 18058942, -0.8808625340461731, -0.5414201617240906, -22.842451095581055, 0.006132368, 0.0057994137, 0.3396206
294, 18075609, -0.8806704878807068, -0.5420920252799988, -22.84406852722168, 0.012626292, 0.007512557, 0.33630466
295, 18092276, -0.8801071047782898, -0.5420202612876892, -22.843244552612305, 0.0019704972, -0.014631808, 0.349823
296, 18108943, -0.8805751800537109, -0.542052686214447, -22.842456817626953, 0.005475163, 0.0013072924, 0.34099293
297, 18125610, -0.8806155920028687, -0.5427437424659729, -22.842348098754883, 0.0014146204, -0.0028288777, 0.33826923
298, 18142277, -0.8808053731918335, -0.5437422394752502, -22.841690063476562, 0.015138068, -0.0057775583, 0.35085583
299, 18158944, -0.8801611065864563, -0.5441401600837708, -22.84282684326172, 0.009277318, -7.8261667E-4, 0.35910034
300, 18175611, -0.8802012205123901, -0.5448002815246582, -22.841876983642578, 0.006071153, 8.8338606E-4, 0.33886623
301, 18192278, -0.8794291615486145, -0.5445635318756104, -22.841205596923828, -0.009759027, -0.010156659, 0.33370113
302, 18208945, -0.8787434697151184, -0.5455474853515625, -22.840259552001953, 0.004788814, -0.00741514, 0.3357935
303, 18225612, -0.8783252239227295, -0.5456991791725159, -22.838836669921875, -0.0056828973, 0.008391326, 0.36442184
304, 18242279, -0.8795586824417114, -0.5456453561782837, -22.840129852294922, -0.0010959085, 0.0014510461, 0.34424877
305, 18258946, -0.8789594173431396, -0.5452067852020264, -22.83893394470215, 0.0070056086, -0.012143333, 0.3621149
306, 18275613, -0.8781013488769531, -0.5453521609306335, -22.837980270385742, 0.009396262, -0.010722266, 0.3481903
307, 18292280, -0.8790088295936584, -0.5454311370849609, -22.837684631347656, 0.0077899992, 0.005190341, 0.3442812
308, 18308947, -0.8803967833518982, -0.5459457039833069, -22.836450576782227, 0.0051870127, 0.010810155, 0.3441534
309, 18325614, -0.8805201649665833, -0.544424295425415, -22.83588409423828, 0.0048838803, 8.0262806E-4, 0.32524967
310, 18342281, -0.8807603120803833, -0.5447633862495422, -22.834915161132812, 0.0081275, -0.00449977, 0.35312176
311, 18358948, -0.8799038529396057, -0.544994592666626, -22.83316421508789, 0.010523015, -0.014496994, 0.36407185
312, 18375615, -0.8794114589691162, -0.5452813506126404, -22.830116271972656, 0.0012545189, 8.7370514E-4, 0.3421793
313, 18392282, -0.8783053755760193, -0.5464726090431213, -22.829811096191406, -0.003994077, -1.18853015E-4, 0.32892323
314, 18408949, -0.8785600066184998, -0.5457122921943665, -22.828622817993164, -0.008603222, 0.002353277, 0.34585667
315, 18425616, -0.8779615163803101, -0.5438836216926575, -22.827838897705078, 0.0076111923, 0.0021528278, 0.362463
316, 18442283, -0.8774129152297974, -0.543419599533081, -22.828031539916992, 0.0038229586, -0.010577178, 0.34972
317, 18458950, -0.8778854608535767, -0.5430219173431396, -22.826690673828125, -0.0038547062, -0.002736909, 0.35168076
318, 18475617, -0.8785181641578674, -0.5428031086921692, -22.827104568481445, 0.0038308376, 0.004601545, 0.33963585
319, 18492284, -0.878395676612854, -0.5426442623138428, -22.82604217529297, 0.0055043595, 0.0026342608, 0.34949875
320, 18508951, -0.878400444984436, -0.5420784950256348, -22.825321197509766, 0.009769427, 1.2083669E-4, 0.34839058
321, 18525618, -0.8798627257347107, -0.5426368713378906, -22.825944900512695, 0.0063714115, -2.2132671E-4, 0.35582066
322, 18542285, -0.8796560764312744, -0.541091799736023, -22.826934814453125, 0.011837986, -0.0036927413, 0.3395586
323, 18558952, -0.8797988891601562, -0.5422824025154114, -22.8239688873291, -0.005953072, -0.019904193, 0.34384918
324, 18575619, -0.8792650699615479, -0.5417817831039429, -22.823890686035156, 0.006440683, 0.0029473535, 0.34663963
325, 18592286, -0.8795124292373657, -0.5424689650535583, -22.823488235473633, 0.0073445905, 0.0041932287, 0.3561039
326, 18608953, -0.880462646484375, -0.5426880121231079, -22.823471069335938, -0.0033607075, -7.859414E-4, 0.34848022
327, 18625620, -0.8815873861312866, -0.5428110957145691, -22.823040008544922, -0.0027740402, -0.009367302, 0.32478523
328, 18642287, -0.8818671703338623, -0.5423226356506348, -22.81846046447754, -0.003919141, 8.385158E-4, 0.3496771
329, 18658954, -0.8832300305366516, -0.5425614714622498, -22.81829261779785, 0.009433483, -0.006535386, 0.3399725
330, 18675621, -0.8836025595664978, -0.543872058391571, -22.81690216064453, 0.012209137, -0.004302017, 0.33579636
331, 18692288, -0.8832736015319824, -0.5442280769348145, -22.814163208007812, 0.01948888, -0.0063393163, 0.33576298
332, 18708955, -0.8833188414573669, -0.5446130633354187, -22.812149047851562, 0.0016509959, -0.01838529, 0.35002327
333, 18725622, -0.8833780884742737, -0.5455566644668579, -22.81216049194336, 0.0026749682, -0.012417779, 0.35757828
334, 18742289, -0.8842635750770569, -0.5466402173042297, -22.808589935302734, 0.002841384, -0.008782425, 0.32808113
335, 18758956, -0.8832974433898926, -0.5470829606056213, -22.80826759338379, 0.013629705, -0.009113238, 0.3242731
336, 18775623, -0.8828940987586975, -0.5456475615501404, -22.807825088500977, 0.01093541, -0.0050900606, 0.33272934
337, 18792290, -0.8835883736610413, -0.5459049940109253, -22.80573272705078, 0.0031601274, 0.0031575884, 0.33240128
338, 18808957, -0.8846020698547363, -0.5459166765213013, -22.804244995117188, -0.0056929938, -0.009025334, 0.35074806
339, 18825624, -0.8843706250190735, -0.5476928949356079, -22.80479621887207, 0.00804216, -0.023831887, 0.3418684
340, 18842291, -0.8836986422538757, -0.5473771095275879, -22.80440330505371, 0.0042149723, -0.0056785215, 0.32797432
341, 18858958, -0.8832699656486511, -0.5487645864486694, -22.803560256958008, -0.008840442, -0.0054255603, 0.35051537
342, 18875625, -0.8827448487281799, -0.547065794467926, -22.805387496948242, 0.01054876, 0.008348663, 0.3644352
343, 18892292, -0.882807731628418, -0.5471484065055847, -22.804414749145508, 0.0012758154, -0.0033580307, 0.35162354
344, 18908959, -0.8840814232826233, -0.5475665330886841, -22.805604934692383, 0.0057332716, -0.014624264, 0.323884
345, 18925626, -0.884103000164032, -0.5475823283195496, -22.80437469482422, -8.6935365E-4, -0.009207435, 0.33298492
346, 18942293, -0.8851318359375, -0.5477244853973389, -22.805133819580078, 0.010401102, 0.0020681864, 0.34427166
347, 18958960, -0.8847041726112366, -0.5473757386207581, -22.803844451904297, 0.0014549121, -0.0037914503, 0.3595562
348, 18975627, -0.8845943808555603, -0.546847403049469, -22.804946899414062, 0.008858056, 0.006843855, 0.3717699
349, 18992294, -0.884556233882904, -0.5490508079528809, -22.803272247314453, 3.0161327E-4, -0.014504769, 0.35646248
350, 19008961, -0.8838205933570862, -0.549501895904541, -22.80149269104004, 0.0028519903, 0.0025196127, 0.31775188
351, 19025628, -0.8845571875572205, -0.5493759512901306, -22.799116134643555, 0.011519425, -0.0022842046, 0.3360033
352, 19042295, -0.8844290375709534, -0.5491878390312195, -22.799278259277344, 0.009915733, -0.0043954593, 0.3419037
353, 19058962, -0.8837602138519287, -0.5489296913146973, -22.797950744628906, 0.006908178, 0.009689552, 0.3577919
354, 19075629, -0.88299560546875, -0.5477313995361328, -22.79605484008789, 0.0010675293, -0.015231276, 0.3624792
355, 19092296, -0.883043110370636, -0.5478512644767761, -22.795108795166016, 0.01193905, -0.0021883035, 0.34568405
356, 19108963, -0.883124828338623, -0.5476117134094238, -22.79405975341797, 0.005540841, 0.0015719666, 0.33697605
357, 19125630, -0.8833463191986084, -0.546583354473114, -22.791091918945312, -0.0017619003, -0.0037513855, 0.35219002
358, 19142297, -0.8827224969863892, -0.5454402565956116, -22.790634155273438, 0.005661845, 0.011680556, 0.34800148
359, 19158964, -0.8824743032455444, -0.5443953275680542, -22.78936004638672, 0.012868357, 0.005709408, 0.32330132
360, 19175631, -0.8878511190414429, -0.5425348877906799, -22.79254722595215, 0.0015645628, 9.831217E-4, 0.31948853
361, 19192298, -0.8879899382591248, -0.5422759652137756, -22.79155921936035, 0.007599521, -0.009384617, 0.34255219
362, 19208965, -0.8873302340507507, -0.5431640148162842, -22.79267120361328, 0.0046389555, -0.0076663336, 0.3373003
363, 19225632, -0.8878493905067444, -0.5435638427734375, -22.790796279907227, 0.005520976, -0.0088813435, 0.35278416
364, 19242299, -0.8874207735061646, -0.5439819097518921, -22.789201736450195, -0.008376315, -0.005972804, 0.35190964
365, 19258966, -0.8885876536369324, -0.5445033311843872, -22.786272048950195, 0.018375224, -0.0043070805, 0.36981487
366, 19275633, -0.8889219164848328, -0.5459277033805847, -22.786357879638672, 0.007156724, 0.0017427375, 0.32927322
367, 19292300, -0.8888981342315674, -0.5466572642326355, -22.786767959594727, 0.0055578593, 0.015630875, 0.32765675
368, 19308967, -0.8883505463600159, -0.5469521880149841, -22.786785125732422, 0.008315303, 0.0021613075, 0.35557365
369, 19325634, -0.88840252161026, -0.5465681552886963, -22.785579681396484, 0.0143980095, -0.0071047153, 0.34348965
370, 19342301, -0.8879575729370117, -0.5463008880615234, -22.782718658447266, -0.010036971, -0.0041971263, 0.34468365
371, 19358968, -0.8879858255386353, -0.5461439490318298, -22.780616760253906, 0.004934548, -0.00417525, 0.3585701
372, 19375635, -0.8887163400650024, -0.5442215800285339, -22.780536651611328, -0.0038694388, -0.003854467, 0.34512615
373, 19392302, -0.8885031938552856, -0.5435361266136169, -22.780345916748047, 0.0068986225, -7.114487E-4, 0.3257904
374, 19408969, -0.8880432844161987, -0.5427802801132202, -22.780681610107422, 0.010168271, -0.020713804, 0.3504038
375, 19425636, -0.8880530595779419, -0.5438070893287659, -22.781103134155273, 0.017605044, -0.01066578, 0.3568926
376, 19442303, -0.8874868750572205, -0.5441973805427551, -22.781265258789062, 0.010940246, -0.00413851, 0.35119438
377, 19458970, -0.8874093890190125, -0.5449510812759399, -22.779016494750977, -0.003971656, 0.012291634, 0.35149097
378, 19475637, -0.8879777193069458, -0.5448123812675476, -22.777324676513672, 0.010513781, -0.0035755436, 0.32871628
379, 19492304, -0.8877072930335999, -0.5446879267692566, -22.776901245117188, 0.0076484005, 0.0015707583, 0.34815025
380, 19508971, -0.887868344783783, -0.5447474718093872, -22.776498794555664, -0.0120843975, 0.004132021, 0.34353065
381, 19525638, -0.8884509801864624, -0.5446065068244934, -22.776670455932617, 0.01026794, 0.006521088, 0.332242
382, 19542305, -0.8893672823905945, -0.5451056957244873, -22.776260375976562, 0.009973675, -0.0039817016, 0.35369205
383, 19558972, -0.8895736932754517, -0.5452951788902283, -22.776264190673828, 0.0066344026, -0.0053833933, 0.3413992
384, 19575639, -0.8899620771408081, -0.5431150197982788, -22.774452209472656, 0.012249683, -0.009389933, 0.33701038
385, 19592306, -0.8886047601699829, -0.5438379049301147, -22.77646827697754, -0.010206665, -0.004663975, 0.33852005
386, 19608973, -0.8887309432029724, -0.5448791980743408, -22.774993896484375, -0.015066505, -0.013268169, 0.33923435
387, 19625640, -0.8880360722541809, -0.5459141731262207, -22.77420425415039, -0.0046723583, -0.008304456, 0.34975338
388, 19642307, -0.8876379728317261, -0.5454053282737732, -22.772716522216797, 0.0063859504, -0.009423935, 0.33454704
389, 19658974, -0.8872826099395752, -0.5461825132369995, -22.773231506347656, 0.0039011426, -0.015593396, 0.34776974
390, 19675641, -0.8878505825996399, -0.5447431802749634, -22.773391723632812, 0.0014276506, -0.0073581655, 0.35509205
391, 19692308, -0.8884268999099731, -0.5448539853096008, -22.773046493530273, 0.013112625, -0.0023192402, 0.3494997
392, 19708975, -0.8882780075073242, -0.545540988445282, -22.77224349975586, 0.019481296, -0.0060184565, 0.3394251
393, 19725642, -0.8892180323600769, -0.54636549949646, -22.770597457885742, 0.014250834, -0.001506163, 0.3013916
394, 19742309, -0.8888479471206665, -0.5463460087776184, -22.770870208740234, 0.0124644935, -0.0053264396, 0.325922
395, 19758976, -0.8871311545372009, -0.5471025109291077, -22.771390914916992, 0.008040456, -0.009818694, 0.33316898
396, 19775643, -0.8880606293678284, -0.5461974143981934, -22.772199630737305, -0.0017095493, 0.007287214, 0.34727764
397, 19792310, -0.8878152370452881, -0.545850396156311, -22.769189834594727, -0.009545699, -0.0082274005, 0.34432602
398, 19808977, -0.8880884051322937, -0.544594943523407, -22.76856231689453, 0.006436202, 0.009051653, 0.33106518
399, 19825644, -0.8873976469039917, -0.5449373126029968, -22.768747329711914, 0.009142933, 0.0014790061, 0.3325281
400, 19842311, -0.887018084526062, -0.5444505214691162, -22.76744270324707, 0.014503616, -0.019783376, 0.36676216
401, 19858978, -0.8874663710594177, -0.5441234111785889, -22.76711082458496, 0.008481454, -0.0036312055, 0.35006332
402, 19875645, -0.8882643580436707, -0.544401228427887, -22.767005920410156, -3.7564145E-4, -0.0074080364, 0.36218834
403, 19892312, -0.8883184194564819, -0.5446857213973999, -22.76559066772461, 0.0144938165, -0.013241194, 0.3321724
404, 19908979, -0.8887798190116882, -0.5451164245605469, -22.764543533325195, 0.009604282, -0.021120053, 0.3284645
405, 19925646, -0.8896253705024719, -0.5453346371650696, -22.765560150146484, 0.0039987727, -0.010702751, 0.34391212
406, 19942313, -0.8890523910522461, -0.5454534888267517, -22.765953063964844, -0.004016105, -0.009572759, 0.3547449
407, 19958980, -0.8887642025947571, -0.5453469157218933, -22.767555236816406, 0.0038558953, -0.012731368, 0.3377247
408, 19975647, -0.8876931071281433, -0.5458528399467468, -22.766294479370117, 5.5626788E-5, 0.010872536, 0.33215714
409, 19992314, -0.8870741128921509, -0.5464800000190735, -22.765880584716797, 0.006033676, -0.01340498, 0.34702015
410, 20008981, -0.8870370388031006, -0.5451710820198059, -22.76557731628418, 0.004505623, -0.0010662127, 0.30918407
411, 20025648, -0.8869591951370239, -0.5464794039726257, -22.76481819152832, 0.010081793, -0.0033795508, 0.3327198
412, 20042315, -0.886210560798645, -0.5466063022613525, -22.764934539794922, 0.003573445, 2.047239E-4, 0.34139442
413, 20058982, -0.8863953948020935, -0.5467879772186279, -22.7664794921875, 0.0025758261, -0.0024312902, 0.33828354
414, 20075649, -0.8881276249885559, -0.5449562072753906, -22.765600204467773, 0.0034074306, -0.014109689, 0.33719158
415, 20092316, -0.8879380822181702, -0.5450328588485718, -22.765277862548828, 0.011976075, 0.004081668, 0.34646606
416, 20108983, -0.8875526189804077, -0.5458762049674988, -22.76604461669922, 0.011979404, -0.014963725, 0.32153606
417, 20125650, -0.8884226679801941, -0.5460132360458374, -22.765239715576172, 0.0083174305, -0.0037481936, 0.33238697
418, 20142317, -0.8877455592155457, -0.5469911694526672, -22.765628814697266, 0.01470386, 0.008336823, 0.33920383
419, 20158984, -0.8881356716156006, -0.5469205975532532, -22.765718460083008, 0.0066794055, 0.0029675746, 0.34241486
420, 20175651, -0.8877938985824585, -0.5477844476699829, -22.767669677734375, 0.011725333, 0.011457756, 0.34139442
421, 20192318, -0.888029158115387, -0.5495246648788452, -22.7674617767334, 0.012175669, 0.012244445, 0.3422079
422, 20208985, -0.8863564133644104, -0.5501358509063721, -22.766891479492188, 0.0051706894, -0.005396951, 0.36607075
423, 20225652, -0.8861892819404602, -0.5506654381752014, -22.765405654907227, 0.0035723972, -0.007718426, 0.34170246
424, 20242319, -0.8866759538650513, -0.5513302087783813, -22.76622200012207, 0.0075532747, -0.003872327, 0.3411579
425, 20258986, -0.8878713846206665, -0.5507961511611938, -22.764902114868164, 0.005145834, -0.011670506, 0.3277645
426, 20275653, -0.8878568410873413, -0.5511085987091064, -22.76516342163086, -0.002230799, -0.004624986, 0.3496065
427, 20292320, -0.8873313069343567, -0.550897479057312, -22.764358520507812, 0.018892758, -0.015984459, 0.34812164
428, 20308987, -0.8867954611778259, -0.5515170097351074, -22.76380729675293, 0.009221055, -0.012880479, 0.35260868
429, 20325654, -0.8874812126159668, -0.5510461926460266, -22.76187515258789, -0.0021413867, -0.015424224, 0.33990288
430, 20342321, -0.887535572052002, -0.5499840378761292, -22.760746002197266, 0.006840607, 0.017992932, 0.34682465
431, 20358988, -0.8875727653503418, -0.5517407655715942, -22.759214401245117, -0.0031597328, 0.011817402, 0.3505535
432, 20375655, -0.8875817656517029, -0.5519514083862305, -22.75870704650879, 0.0025750473, -0.0019998753, 0.34813404
433, 20392322, -0.8867598176002502, -0.5513404607772827, -22.757238388061523, 0.008484723, -0.008899413, 0.35464
434, 20408989, -0.8875735998153687, -0.5519662499427795, -22.75654411315918, -0.008554473, -0.0036854213, 0.3397293
435, 20425656, -0.8858142495155334, -0.5522384643554688, -22.757104873657227, -0.008795289, -0.007333963, 0.3473482
436, 20442323, -0.8854718804359436, -0.5514880418777466, -22.757152557373047, -0.005916634, 0.0014936882, 0.3291769
437, 20458990, -0.8854855298995972, -0.5527920722961426, -22.756793975830078, 3.6567068E-4, -0.0018389808, 0.34987926
438, 20475657, -0.8853538632392883, -0.5524470210075378, -22.757516860961914, 0.0070092543, -0.0034760805, 0.35220814
439, 20492324, -0.8846579194068909, -0.5531414747238159, -22.756629943847656, 0.0052934224, -0.005501841, 0.36646366
440, 20508991, -0.8853229284286499, -0.5535274744033813, -22.755033493041992, 0.0056009865, -0.0027166603, 0.33146095
441, 20525658, -0.8864216208457947, -0.5530090928077698, -22.754554748535156, 0.018307153, 0.013354033, 0.33537102
442, 20542325, -0.8857517838478088, -0.5533705949783325, -22.75443458557129, 0.01013208, 0.014872797, 0.3371811
443, 20558992, -0.8860436677932739, -0.553702712059021, -22.752695083618164, 0.0076739504, -0.005091737, 0.3237648
444, 20575659, -0.8860150575637817, -0.5539306402206421, -22.75270652770996, 0.002710905, -0.0022246244, 0.33206177
445, 20592326, -0.886521577835083, -0.5550299286842346, -22.751956939697266, -0.0075529115, 0.005038087, 0.34008217
446, 20608993, -0.8861570358276367, -0.5553576350212097, -22.75116729736328, 0.010213183, 0.0031576303, 0.35598946
447, 20625660, -0.8857781887054443, -0.5552390813827515, -22.751312255859375, 0.0055957623, 0.0036334335, 0.34449863
448, 20642327, -0.8862636685371399, -0.5536320805549622, -22.752132415771484, 0.0168902, -6.4256485E-4, 0.33273602
449, 20658994, -0.8862406611442566, -0.5530621409416199, -22.74925422668457, 0.0026125836, 1.7736452E-4, 0.3407936
450, 20675661, -0.8862060308456421, -0.5529816746711731, -22.74717140197754, 0.0042496063, -0.015033747, 0.35356998
451, 20692328, -0.8853527307510376, -0.5538486242294312, -22.746334075927734, 0.019132573, 0.0018476978, 0.31443405
452, 20708995, -0.8854354619979858, -0.5546191334724426, -22.74673080444336, 0.011861047, -0.010889139, 0.33894253
453, 20725662, -0.8852414488792419, -0.5547676086425781, -22.747007369995117, 0.018428221, 0.011043635, 0.34358788
454, 20742329, -0.8846285343170166, -0.5556947588920593, -22.74606704711914, -0.0041683856, -0.0039231693, 0.37252808
455, 20758996, -0.8845193982124329, -0.555932343006134, -22.746091842651367, 0.007967562, -0.0013904811, 0.3398466
456, 20775663, -0.8844736218452454, -0.5569172501564026, -22.74599838256836, 0.0011626097, 0.012528124, 0.341959
457, 20792330, -0.8834258317947388, -0.5575504302978516, -22.7460880279541, -0.009572026, -0.013340518, 0.3238182
458, 20808997, -0.8828401565551758, -0.5569908618927002, -22.745830535888672, 0.0026075824, -0.0018217494, 0.3430214
459, 20825664, -0.8833319544792175, -0.5565223693847656, -22.74394989013672, 0.009618381, -0.007886969, 0.35703754
460, 20842331, -0.8838301301002502, -0.5561451315879822, -22.743932723999023, 0.01178016, -0.008808387, 0.34536076
461, 20858998, -0.8843153715133667, -0.5569803714752197, -22.742944717407227, 0.01387829, -0.0135560045, 0.33446884
462, 20875665, -0.8845500349998474, -0.556973397731781, -22.742700576782227, -0.0064818566, -0.015530526, 0.3387165
463, 20892332, -0.8847036957740784, -0.5576573610305786, -22.74280548095703, -0.0065131555, -0.0047844066, 0.329154
464, 20908999, -0.8842707276344299, -0.5573082566261292, -22.74299430847168, -0.0028356425, 0.0024179632, 0.31642818
465, 20925666, -0.8835341334342957, -0.5573252439498901, -22.743595123291016, 0.0017088543, 4.7898127E-4, 0.34210968
466, 20942333, -0.8840551376342773, -0.5581172704696655, -22.742130279541016, -5.5283133E-4, 0.015285017, 0.33249187
467, 20959000, -0.8845821022987366, -0.5588478446006775, -22.740760803222656, 0.0021238585, -0.003723663, 0.34673595
468, 20975667, -0.8854275345802307, -0.558529794216156, -22.74028778076172, 0.00958755, 0.0017934679, 0.34358978
469, 20992334, -0.885729968547821, -0.5598610043525696, -22.73896026611328, 0.010081123, -0.007562617, 0.33156967
470, 21009001, -0.8859384655952454, -0.5597710013389587, -22.7391414642334, -0.007692778, -0.014306715, 0.3420887
471, 21025668, -0.885967493057251, -0.5585657358169556, -22.739582061767578, 0.003619244, 0.0031796743, 0.35350704
472, 21042335, -0.8848336338996887, -0.5591612458229065, -22.738922119140625, 0.0127027305, -0.0014877861, 0.34796906
473, 21059002, -0.8849998116493225, -0.5601246356964111, -22.73897361755371, -0.0029970817, 4.4826223E-4, 0.3125658
474, 21075669, -0.8848424553871155, -0.5597630739212036, -22.738100051879883, 0.008839386, -0.004865898, 0.3519764
475, 21092336, -0.8842329382896423, -0.5594381093978882, -22.737525939941406, -0.0051721702, -0.009606091, 0.32413292
476, 21109003, -0.8842806816101074, -0.5582669377326965, -22.73922348022461, -0.0062783165, 0.0053613284, 0.35816956
477, 21125670, -0.8845143914222717, -0.5582796335220337, -22.740558624267578, -0.015695006, -0.0023751114, 0.35647774
478, 21142337, -0.884300947189331, -0.5587584972381592, -22.739582061767578, 0.007667008, 0.010027336, 0.33935547
479, 21159004, -0.8827787637710571, -0.5583757162094116, -22.73990249633789, 0.008619152, -0.0012680938, 0.3407526
480, 21175671, -0.888511061668396, -0.5432549118995667, -22.740140914916992, 0.015363795, -0.010321619, 0.3513565
481, 21192338, -0.8879184126853943, -0.5441470742225647, -22.739694595336914, 0.007221389, -0.0012829783, 0.35080338
482, 21209005, -0.8875265717506409, -0.5457891225814819, -22.73887062072754, -0.005065504, -0.008164258, 0.33781815
483, 21225672, -0.8872607946395874, -0.544956386089325, -22.73889923095703, 0.01303275, -0.0038670395, 0.34867
484, 21242339, -0.8871431350708008, -0.5444201827049255, -22.739850997924805, -0.0049522263, -0.011596327, 0.3546381
485, 21259006, -0.8868802189826965, -0.5452070832252502, -22.738122940063477, 0.0054769823, 0.00198981, 0.33303642
486, 21275673, -0.8873919248580933, -0.5454663038253784, -22.738954544067383, 0.0029739446, -0.004201485, 0.3346548
487, 21292340, -0.8869124054908752, -0.5459351539611816, -22.738454818725586, 7.5484166E-4, -0.016047964, 0.3467102
488, 21309007, -0.8865668773651123, -0.5464047193527222, -22.73785972595215, 0.004782482, -0.01940742, 0.34183693
489, 21325674, -0.8870295286178589, -0.5467244982719421, -22.73853302001953, 0.004283521, 0.008863239, 0.3417635
490, 21342341, -0.8861740231513977, -0.5472970008850098, -22.739824295043945, 0.015355442, 0.009471068, 0.33755302
491, 21359008, -0.8867082595825195, -0.5489104390144348, -22.740304946899414, 0.0124943005, -0.007311081, 0.31902695
492, 21375675, -0.8856785297393799, -0.5499122142791748, -22.739530563354492, 0.011306483, -0.0021971744, 0.34901237
493, 21392342, -0.8853594660758972, -0.5496920347213745, -22.740005493164062, 5.154942E-4, -0.006958524, 0.3614626
494, 21409009, -0.8845324516296387, -0.5486689805984497, -22.738597869873047, 0.014810796, -0.008956786, 0.3337059
495, 21425676, -0.8854290246963501, -0.5487868785858154, -22.73960304260254, 9.978841E-4, -0.007344112, 0.3419056
496, 21442343, -0.8855118155479431, -0.5503273010253906, -22.73957061767578, 0.0054232483, -0.007649319, 0.32623768
497, 21459010, -0.8849566578865051, -0.550477921962738, -22.738540649414062, 0.0071139215, -0.0039128875, 0.35219383
498, 21475677, -0.884663462638855, -0.5518528819084167, -22.738630294799805, 0.0045899223, 0.001109686, 0.32061005
499, 21492344, -0.8838603496551514, -0.5511631369590759, -22.737058639526367, 0.0126988115, 0.008207347, 0.325078
500, 21509011, -0.8845286965370178, -0.5504695773124695, -22.735979080200195, 0.011647812, -0.0057005584, 0.35334206
501, 21525678, -0.8847177624702454, -0.5506154298782349, -22.73507308959961, 0.0018709501, 0.0024215253, 0.34644032
502, 21542345, -0.8848217725753784, -0.5508459806442261, -22.73316764831543, 0.0074957097, 3.0539554E-4, 0.32466602
503, 21559012, -0.8849138021469116, -0.5507040619850159, -22.73311424255371, 5.836203E-4, -0.009028617, 0.35797787
504, 21575679, -0.8859241604804993, -0.5528140664100647, -22.733062744140625, -0.0094421655, -0.0015622857, 0.34920788
505, 21592346, -0.885869562625885, -0.5529433488845825, -22.733118057250977, 0.011992724, -8.983894E-4, 0.33226776
506, 21609013, -0.8855296969413757, -0.5537723898887634, -22.731693267822266, -0.007868945, -0.005943384, 0.3295393
507, 21625680, -0.8847445845603943, -0.5534765124320984, -22.730709075927734, 0.0032127334, -0.0027689973, 0.33809185
508, 21642347, -0.8852477073669434, -0.5541616678237915, -22.73170280456543, 0.015676832, -0.0046509206, 0.347291
509, 21659014, -0.8852210640907288, -0.5555706024169922, -22.732257843017578, -0.0014048173, -0.002371221, 0.3294115
510, 21675681, -0.8845337629318237, -0.5570812225341797, -22.731769561767578, 0.002480662, -0.0054488685, 0.34254456
511, 21692348, -0.8849730491638184, -0.5567492246627808, -22.730852127075195, 0.00390057, -0.005598839, 0.32628822
512, 21709015, -0.8856627941131592, -0.5554664134979248, -22.730783462524414, 0.0040162937, -0.008894733, 0.32904816
513, 21725682, -0.8857848644256592, -0.5573879480361938, -22.730392456054688, -0.0017281149, -0.0075809797, 0.36184025
514, 21742349, -0.8873235583305359, -0.5580658912658691, -22.72783088684082, -0.0018213757, -0.010658216, 0.34249115
515, 21759016, -0.8878774642944336, -0.5570565462112427, -22.727001190185547, 0.0017107612, 0.005487802, 0.327693
516, 21775683, -0.8880137801170349, -0.5578396916389465, -22.728351593017578, 0.0019697044, 0.0013324167, 0.34432983
517, 21792350, -0.8885340094566345, -0.5565176606178284, -22.728479385375977, 0.014370151, -0.009483089, 0.33286858
518, 21809017, -0.8884161710739136, -0.556093692779541, -22.728160858154297, 0.0011284365, 0.0034174293, 0.35059166
519, 21825684, -0.8888190388679504, -0.5562818646430969, -22.728591918945312, 0.0063887476, 0.006864586, 0.35824108
520, 21842351, -0.8886728286743164, -0.5553687214851379, -22.7274169921875, 0.0028844522, -0.0043529705, 0.35034466
521, 21859018, -0.8891692161560059, -0.5553702116012573, -22.725658416748047, 0.003821579, 0.009249937, 0.3448534
522, 21875685, -0.8883835673332214, -0.5554460287094116, -22.72453498840332, 2.45749E-4, 0.006622591, 0.32172585
523, 21892352, -0.8888711333274841, -0.5556947588920593, -22.724889755249023, 0.009094826, 0.007956607, 0.3678379
524, 21909019, -0.8890529274940491, -0.5547912120819092, -22.723176956176758, 0.0062053585, -0.022761973, 0.36855793
525, 21925686, -0.8889323472976685, -0.5553638339042664, -22.721460342407227, 0.013199425, -0.01592376, 0.34961987
526, 21942353, -0.8890813589096069, -0.5569102764129639, -22.71925163269043, 0.0026172705, 0.01051384, 0.33563995
527, 21959020, -0.8887843489646912, -0.5581406354904175, -22.718997955322266, 0.007509805, -0.010642458, 0.32786274
528, 21975687, -0.8887070417404175, -0.5591964721679688, -22.718244552612305, 0.0039287293, -0.015198567, 0.34721375
529, 21992354, -0.8892287015914917, -0.5600157380104065, -22.719913482666016, -0.003611592, -0.012458333, 0.34769154
530, 22009021, -0.8905708193778992, -0.5595473051071167, -22.71975326538086, 0.016691832, 9.249455E-4, 0.33560658
531, 22025688, -0.89101243019104, -0.5595297813415527, -22.71923828125, -0.0019997915, -0.00796566, 0.32978725
532, 22042355, -0.8912947177886963, -0.5612509250640869, -22.720129013061523, 0.005023845, 0.014430122, 0.32204628
533, 22059022, -0.8908427953720093, -0.5599661469459534, -22.7203426361084, 0.008709064, 0.0059142224, 0.33771038
534, 22075689, -0.8904920220375061, -0.5593288540840149, -22.720449447631836, 0.0016817709, 0.006622179, 0.34779072
535, 22092356, -0.8899885416030884, -0.5591633915901184, -22.71959686279297, -0.0026919795, -0.013494916, 0.36391354
536, 22109023, -0.8885141015052795, -0.5593543648719788, -22.719179153442383, 0.0066278507, -7.298257E-4, 0.35369968
537, 22125690, -0.8877382278442383, -0.5583788752555847, -22.71929359436035, 0.0036564867, -0.012931328, 0.32224846
538, 22142357, -0.8863716125488281, -0.5572294592857361, -22.717910766601562, -0.004702339, -0.0020616904, 0.33182526
539, 22159024, -0.8857651352882385, -0.5584102272987366, -22.717998504638672, 0.0078113205, -0.01099625, 0.3596201
540, 22175691, -0.8858075141906738, -0.5582196116447449, -22.71802520751953, 0.010144292, -0.015838526, 0.37565804
541, 22192358, -0.8855428099632263, -0.558111310005188, -22.71827507019043, -2.5997351E-5, 0.0020831546, 0.3370571
542, 22209025, -0.8864087462425232, -0.5580141544342041, -22.716053009033203, 0.0027441, 7.5889635E-4, 0.35319996
543, 22225692, -0.8872801661491394, -0.558577835559845, -22.716344833374023, 0.012675591, -0.0077307057, 0.3618307
544, 22242359, -0.8874745965003967, -0.5582858324050903, -22.713651657104492, 0.010779471, -0.005067828, 0.34997082
545, 22259026, -0.8873734474182129, -0.559569239616394, -22.712827682495117, -0.011981835, -0.0029860213, 0.34003925
546, 22275693, -0.887137234210968, -0.5602403283119202, -22.71177864074707, -0.0084664365, -0.0031190955, 0.33436203
547, 22292360, -0.8866078853607178, -0.5616441965103149, -22.712020874023438, 9.194066E-5, 0.007019096, 0.34741402
548, 22309027, -0.8869205117225647, -0.5618181228637695, -22.710996627807617, -4.2901217E-4, -0.0039036956, 0.36914635
549, 22325694, -0.8876858353614807, -0.5621733665466309, -22.712459564208984, -0.0016501577, -0.008500009, 0.3433113
550, 22342361, -0.8881388306617737, -0.5630686283111572, -22.71116828918457, -0.009494017, 0.0014096054, 0.35478592
551, 22359028, -0.8879766464233398, -0.5644339919090271, -22.712135314941406, 0.010451539, -0.0044839424, 0.34520817
552, 22375695, -0.8876356482505798, -0.5639500617980957, -22.71176528930664, 0.0016251906, -0.0031723543, 0.3494072
553, 22392362, -0.8881860971450806, -0.5642070174217224, -22.712474822998047, 0.005899607, 1.12434005E-4, 0.34908295
554, 22409029, -0.8888251185417175, -0.5658037066459656, -22.711729049682617, 0.0051626884, 0.0070768814, 0.34336853
555, 22425696, -0.8877774477005005, -0.565468966960907, -22.71058464050293, 0.008497659, 0.00613161, 0.35369205
556, 22442363, -0.8869307637214661, -0.5651550889015198, -22.71157455444336, -0.005505756, -0.011398127, 0.3439722
557, 22459030, -0.88616943359375, -0.5653011202812195, -22.711633682250977, 0.0016815055, 0.00761487, 0.35748577
558, 22475697, -0.8846686482429504, -0.5658133625984192, -22.711095809936523, 0.0118904635, -0.0030069198, 0.33201408
559, 22492364, -0.8847931623458862, -0.5666922926902771, -22.71027374267578, 0.011008167, 0.016582293, 0.33131313
560, 22509031, -0.8839229941368103, -0.5674749612808228, -22.711259841918945, 0.012203605, 0.015835704, 0.34741116
561, 22525698, -0.8844012022018433, -0.5680325031280518, -22.710887908935547, 0.003298716, 0.013364986, 0.3500328
562, 22542365, -0.8845275640487671, -0.5677314400672913, -22.711196899414062, 0.0012552104, -0.008706025, 0.33811665
563, 22559032, -0.8858883380889893, -0.5673717856407166, -22.7095947265625, -0.016026184, -0.0048455303, 0.3266077
564, 22575699, -0.8863986134529114, -0.568271279335022, -22.709712982177734, -0.012068081, 0.0118074, 0.348094
565, 22592366, -0.8863780498504639, -0.5679146647453308, -22.709362030029297, -0.007987211, -0.008302354, 0.3300705
566, 22609033, -0.8874812126159668, -0.5677306056022644, -22.709150314331055, 0.012369353, 0.005893841, 0.34537888
567, 22625700, -0.8871015906333923, -0.5689197182655334, -22.708993911743164, -0.004065601, 0.0021547487, 0.34014988
568, 22642367, -0.8856449723243713, -0.5682361721992493, -22.71001434326172, 0.008257277, -0.012299736, 0.3435526
569, 22659034, -0.8843941688537598, -0.5770002007484436, -22.70986557006836, -0.02747888, -7.4122485E-4, 0.32232094
570, 22675701, -0.8859549760818481, -0.711778461933136, -22.7098388671875, 0.025299774, -0.003498362, 0.37259865
571, 22692368, -0.8962988257408142, -0.8223481178283691, -22.777851104736328, 0.2983746, -0.2984232, 0.38786697
572, 22709035, -0.8651883006095886, -0.8832336068153381, -23.104106903076172, 0.9864912, -0.6015603, 0.33407402
573, 22725702, -0.8668469786643982, -0.8989554643630981, -23.057390213012695, 0.4164104, -0.05268654, 0.3437109
574, 22742369, -0.9003811478614807, -0.8454456329345703, -22.962709426879883, -1.636636, 0.9583049, 0.27778912
575, 22759036, -0.9405109882354736, -0.7807924151420593, -22.99971580505371, -0.018455464, -0.008283369, 0.3164034
576, 22775703, -0.9398744106292725, -0.7220858335494995, -23.286840438842773, -0.072553374, -0.031308927, 0.319458
577, 22792370, -0.9131087064743042, -0.6636911034584045, -23.77374267578125, 0.18831626, -0.07887536, 0.36200714
578, 22809037, -0.8867430090904236, -0.6426601409912109, -24.251148223876953, 0.46366465, -0.20107642, 0.39313793
579, 22825704, -0.8660517930984497, -0.6511551737785339, -24.578786849975586, 0.34461877, -0.25793824, 0.37934494
580, 22842371, -0.8564233183860779, -0.6667490005493164, -24.89706802368164, 0.17955758, -0.17053741, 0.31825447
581, 22859038, -0.8518110513687134, -0.6813885569572449, -25.19150161743164, 0.17969431, 0.07971857, 0.32016468
582, 22875705, -0.8531392812728882, -0.6917063593864441, -25.400705337524414, 0.2841938, 0.1224997, 0.34991837
583, 22892372, -0.8536409735679626, -0.7072069048881531, -25.41861915588379, 0.39204407, 2.3517754E-5, 0.37472248
584, 22909039, -0.8495851755142212, -0.7163060903549194, -25.328514099121094, 0.108408675, -0.10341358, 0.34542084
585, 22925706, -0.8425283432006836, -0.7241397500038147, -25.265625, 0.020095313, -0.13679044, 0.31257153
586, 22942373, -0.8339214324951172, -0.7188370823860168, -25.26901626586914, 0.048040826, -0.09414853, 0.32017994
587, 22959040, -0.8207792639732361, -0.703315794467926, -25.373188018798828, -0.025135934, 0.015640229, 0.33000374
588, 22975707, -0.8159316182136536, -0.7077221274375916, -25.427865982055664, 0.38172382, 0.11088238, 0.35652447
589, 22992374, -0.818088173866272, -0.7187495827674866, -25.327322006225586, 0.24458928, 0.04495763, 0.3685274
590, 23009041, -0.8129837512969971, -0.7246948480606079, -25.336835861206055, -0.26449123, -0.015033768, 0.3243208
591, 23025708, -0.8029003143310547, -0.7298945188522339, -25.67282485961914, -0.21977605, 0.07341359, 0.32773495
592, 23042375, -0.7893277406692505, -0.7281690835952759, -26.18890953063965, -0.13061205, 0.24933206, 0.3225813
593, 23059042, -0.7671891450881958, -0.7191308736801147, -26.650449752807617, 0.11030721, 0.22671266, 0.35023975
594, 23075709, -0.7252022624015808, -0.6981914639472961, -26.63852310180664, 1.6899614, -0.65359306, 0.39243507
595, 23092376, -0.712708055973053, -0.7166069149971008, -26.322782516479492, -0.8934392, -0.52986574, 0.3339243
596, 23109043, -0.7103849649429321, -0.7158240675926208, -26.362606048583984, 0.5373938, 0.08579142, 0.37161922
597, 23125710, -0.7128040790557861, -0.7197059988975525, -26.0738468170166, 0.45852712, -0.3536227, 0.3370657
598, 23142377, -0.7166171073913574, -0.7253305315971375, -25.839757919311523, 0.080507465, -0.2912076, 0.35196877
599, 23159044, -0.7288011908531189, -0.7271371483802795, -25.70467758178711, -3.2737662E-4, 0.08677791, 0.33164406
600, 23175711, -0.735749363899231, -0.7215469479560852, -25.715457916259766, -0.0846392, 0.16963765, 0.35337353
601, 23192378, -0.7347225546836853, -0.7177976965904236, -25.909503936767578, 0.06121468, -0.028228387, 0.349761
602, 23209045, -0.7281153202056885, -0.7141388654708862, -26.181486129760742, 0.10716605, -0.25821516, 0.37550163
603, 23225712, -0.723950207233429, -0.7244502902030945, -26.367603302001953, 0.10066135, 0.107395686, 0.2993536
604, 23242379, -0.7033638954162598, -0.7432386875152588, -26.510194778442383, 0.24818608, -0.37529913, 0.3694296
605, 23259046, -0.7004987001419067, -0.7579183578491211, -26.510644912719727, 0.23612066, -0.14618331, 0.35574818
606, 23275713, -0.6863292455673218, -0.7635442018508911, -26.39608383178711, -0.09414152, 0.33131728, 0.33829498
607, 23292380, -0.5964317917823792, -0.7806392312049866, -26.234846115112305, 0.07962642, 0.10516092, 0.33403492
608, 23309047, -0.4797644317150116, -0.801649808883667, -26.00898551940918, 0.08487993, -0.08997603, 0.3409996
609, 23325714, -0.3475892245769501, -0.8160189390182495, -25.84994125366211, -0.014663333, -0.0028002646, 0.35306358
610, 23342381, -0.2096945345401764, -0.8168873190879822, -25.81700897216797, -0.21450253, -0.033299547, 0.34373093
611, 23359048, -0.09552334249019623, -0.8030234575271606, -25.92041778564453, -0.06730533, -0.18769702, 0.29247284
612, 23375715, -0.03977353870868683, -0.796211838722229, -26.051332473754883, 0.14483601, -0.21797098, 0.39922428
613, 23392382, -0.035289615392684937, -0.8308285474777222, -25.818849563598633, 0.23675878, -0.1741918, 0.34633636
614, 23409049, -0.055430907756090164, -0.8301804065704346, -25.547767639160156, -0.18100813, -0.015031574, 0.27706718
615, 23425716, -0.07702557742595673, -0.7967212200164795, -25.36651611328125, -0.1624798, 0.07343151, 0.3190136
616, 23442383, -0.08613143116235733, -0.7466004490852356, -25.205368041992188, 0.3097345, 0.019577751, 0.35552406
617, 23459050, -0.07417801022529602, -0.6925895810127258, -24.890872955322266, -0.14852986, 0.23726475, 0.3149557
618, 23475717, -0.03908634930849075, -0.6624135375022888, -24.717805862426758, -0.32440513, 0.25044572, 0.35669613
619, 23492384, 0.016815928742289543, -0.6811906099319458, -24.686382293701172, -0.015006827, -0.10612378, 0.31744576
620, 23509051, 0.026804059743881226, -0.6985705494880676, -24.72689437866211, -0.23844421, -0.111775964, 0.3409853
621, 23525718, 0.00474169384688139, -0.7177614569664001, -24.92852210998535, 0.08189802, -0.3679691, 0.3332939
622, 23542385, -0.12871669232845306, -0.7366824746131897, -25.18082618713379, 0.014695055, -0.43988866, 0.36048794
623, 23559052, -0.31307026743888855, -0.7300116419792175, -25.441492080688477, 0.017994672, 0.22530332, 0.33238506
624, 23575719, -0.4310131371021271, -0.7197700142860413, -25.525840759277344, 0.077121735, 0.22243828, 0.33553886
625, 23592386, -0.47736459970474243, -0.7101502418518066, -25.482484817504883, -0.0066192662, 0.22494754, 0.3373165
626, 23609053, -0.4810936748981476, -0.694671630859375, -25.435688018798828, -0.12006033, 0.09014539, 0.3334818
627, 23625720, -0.49237361550331116, -0.6954825520515442, -25.444486618041992, -0.062121905, -0.094965585, 0.3264637
628, 23642387, -0.5189284086227417, -0.6953361630439758, -25.49110984802246, 0.10851216, -0.04465781, 0.36044598
629, 23659054, -0.5485379099845886, -0.7149468660354614, -25.492469787597656, 0.06979112, -0.11581504, 0.3287363
630, 23675721, -0.5642263889312744, -0.7246648669242859, -25.60564613342285, -0.16001295, 0.0970534, 0.3526926
631, 23692388, -0.5633081793785095, -0.7292771935462952, -25.800260543823242, -0.14762466, 0.07329657, 0.33066082
632, 23709055, -0.5610629320144653, -0.7321659922599792, -25.961593627929688, 0.08520951, -0.058498286, 0.36126423
633, 23725722, -0.5677273869514465, -0.7395105957984924, -25.897743225097656, 0.17803232, -0.044694886, 0.36695004
634, 23742389, -0.5784955620765686, -0.7536967396736145, -25.715316772460938, 0.033185635, 0.033511695, 0.33992767
635, 23759056, -0.5843557715415955, -0.7788587212562561, -25.599288940429688, -0.21296771, 0.34259418, 0.30291557
636, 23775723, -0.5545437335968018, -0.795984148979187, -25.695594787597656, -0.2722815, 0.2660206, 0.3660574
637, 23792390, -0.4952399432659149, -0.8025528192520142, -25.80609703063965, 0.017390464, -0.1997582, 0.31198502
638, 23809057, -0.44869744777679443, -0.8174387812614441, -25.92622184753418, 0.09440681, -0.23083691, 0.34564495
639, 23825724, -0.45504555106163025, -0.8198432326316833, -26.080472946166992, 0.099586695, -0.31472754, 0.35005093
640, 23842391, -0.4972155690193176, -0.8126229643821716, -26.160991668701172, 0.17827852, -0.053576097, 0.3475294
641, 23859058, -0.503659188747406, -0.7980302572250366, -26.12347984313965, 0.20597309, 0.07895226, 0.35088062
642, 23875725, -0.49687865376472473, -0.7891919612884521, -25.86239242553711, 0.16828158, 0.106743656, 0.34603977
643, 23892392, -0.483058899641037, -0.7811151742935181, -25.642412185668945, -0.16486612, -0.08619874, 0.35945702
644, 23909059, -0.4910641312599182, -0.7862818241119385, -25.557287216186523, -0.06406133, -0.17925748, 0.34623432
645, 23925726, -0.4988238215446472, -0.8007670640945435, -25.5469970703125, 0.018172683, 0.011649551, 0.30582047
646, 23942393, -0.5131353139877319, -0.8186444044113159, -25.56180191040039, 0.11471121, -0.040136717, 0.3309412
647, 23959060, -0.5317366719245911, -0.8256706595420837, -25.54884147644043, -0.044030655, 0.11702578, 0.38109875
648, 23975727, -0.5332711935043335, -0.8105828762054443, -25.551904678344727, -0.037767306, 0.1257098, 0.31874943
649, 23992394, -0.5180898904800415, -0.7905853390693665, -25.558176040649414, 0.15066643, -0.050719295, 0.33923435
650, 24009061, -0.5033785700798035, -0.7733944654464722, -25.516094207763672, 0.122699894, -0.048629988, 0.32593536
651, 24025728, -0.492850661277771, -0.7478430271148682, -25.518470764160156, 0.083803736, -0.122481525, 0.3755684
652, 24042395, -0.4910498261451721, -0.7072656154632568, -25.61927604675293, -0.05162037, -0.11075957, 0.3203516
653, 24059062, -0.5257022380828857, -0.6730493903160095, -25.65321159362793, -0.10373019, -0.0423101, 0.33029747
654, 24075729, -0.5650255680084229, -0.6374724507331848, -25.682369232177734, -0.22606713, 0.13618691, 0.36382294
655, 24092396, -0.5900093913078308, -0.6028791069984436, -25.714874267578125, 0.12978739, -0.1120435, 0.38502026
656, 24109063, -0.6221480369567871, -0.5584670901298523, -25.785999298095703, 0.12781855, -0.07621526, 0.27786922
657, 24125730, -0.6378563046455383, -0.5399815440177917, -25.759370803833008, 0.10816462, 0.035727296, 0.32045746
658, 24142397, -0.6456981897354126, -0.5200210213661194, -25.780176162719727, 0.09302238, -0.071149684, 0.37475872
659, 24159064, -0.6492325663566589, -0.5048405528068542, -25.79378890991211, -0.12998804, -0.10846595, 0.3324566
660, 24175731, -0.6551799178123474, -0.4903562068939209, -25.817020416259766, 0.11676395, -0.5381093, 0.35379028
661, 24192398, -0.6628612279891968, -0.5076922178268433, -25.87321662902832, 0.011422696, -0.35507712, 0.35571098
662, 24209065, -0.6740508079528809, -0.5358933806419373, -25.923789978027344, 0.08480033, 0.15504396, 0.32940483
663, 24225732, -0.6748130321502686, -0.5630202889442444, -25.931461334228516, 0.08488274, 0.7719511, 0.35359287
664, 24242399, -0.6740991473197937, -0.5935156345367432, -25.825340270996094, 0.059208862, 0.64761364, 0.3342085
665, 24259066, -0.6690690517425537, -0.6171014904975891, -25.664541244506836, -0.01027543, 0.26023176, 0.27663517
666, 24275733, -0.6524938344955444, -0.6254605650901794, -25.568031311035156, -0.21134296, 0.19250388, 0.33140087
667, 24292400, -0.6142013072967529, -0.6100402474403381, -25.65837287902832, -0.1318646, -0.09092625, 0.3131914
668, 24309067, -0.5519922971725464, -0.5984243154525757, -25.849374771118164, -0.13997921, -0.5971729, 0.36811924
669, 24325734, -0.5065943598747253, -0.5997779965400696, -26.08623504638672, 0.08623837, -0.11894379, 0.36804295
670, 24342401, -0.4678124189376831, -0.6253734230995178, -26.11013412475586, 0.0576196, -0.1294344, 0.37033844
671, 24359068, -0.44721686840057373, -0.6500840783119202, -26.11507797241211, -0.08001238, -0.030958328, 0.3604355
672, 24375735, -0.4203939139842987, -0.6518925428390503, -26.119237899780273, -0.01877316, 0.015030321, 0.32978153
673, 24392402, -0.4124389886856079, -0.6457896828651428, -26.109434127807617, -0.071788356, -0.013094895, 0.42905617
674, 24409069, -0.4250056743621826, -0.65558260679245, -26.16427993774414, -0.11164228, -0.032042112, 0.2823496
675, 24425736, -0.4352165758609772, -0.6740215420722961, -26.20856475830078, -0.08629376, 0.05688947, 0.3275938
676, 24442403, -0.4509725272655487, -0.6856321692466736, -26.272342681884766, -0.1339496, -0.028762845, 0.35601616
677, 24459070, -0.46958714723587036, -0.6974605917930603, -26.358957290649414, 0.03938822, -0.002355582, 0.36935902
678, 24475737, -0.48788923025131226, -0.6975691318511963, -26.408615112304688, -0.01893461, 0.07768869, 0.34395504
679, 24492404, -0.5095583200454712, -0.7091699242591858, -26.397228240966797, 0.014809117, -0.09671852, 0.32710934
680, 24509071, -0.5296260118484497, -0.731293261051178, -26.35268783569336, -0.039552283, -0.058160126, 0.3395605
681, 24525738, -0.5432252287864685, -0.7316301465034485, -26.363840103149414, -0.14442308, 0.060560647, 0.33931255
682, 24542405, -0.5574279427528381, -0.7247594594955444, -26.36854362487793, -0.081106946, 0.33477673, 0.3127489
683, 24559072, -0.5697227120399475, -0.7138522267341614, -26.315340042114258, -0.15502581, 0.30850378, 0.33908558
684, 24575739, -0.5711475610733032, -0.7110724449157715, -26.27029037475586, 0.057875186, -0.20367403, 0.34192753
685, 24592406, -0.5723098516464233, -0.7121623754501343, -26.28066635131836, 0.04586906, -0.16251719, 0.35534477
686, 24609073, -0.5679073929786682, -0.719999372959137, -26.350234985351562, -0.15451506, 0.095849626, 0.3079605
687, 24625740, -0.5604493618011475, -0.7273648381233215, -26.462156295776367, -0.21364881, 0.07700605, 0.3674879
688, 24642407, -0.5546598434448242, -0.7381671667098999, -26.553298950195312, -0.20920135, -0.05417438, 0.31507492
689, 24659074, -0.5512260794639587, -0.7492943406105042, -26.64990234375, -0.14646345, 0.28182673, 0.36341286
690, 24675741, -0.5501481294631958, -0.7683055400848389, -26.655179977416992, 0.020440124, 0.033247348, 0.38262272
691, 24692408, -0.556036114692688, -0.7848650217056274, -26.57698631286621, -0.025697593, -0.0631596, 0.36973667
692, 24709075, -0.5666882991790771, -0.8034416437149048, -26.485105514526367, -0.1200613, 0.13568798, 0.39315128
693, 24725742, -0.5798171758651733, -0.8225287199020386, -26.40007972717285, -0.15949842, -0.009914797, 0.2653656
694, 24742409, -0.5890861749649048, -0.8368767499923706, -26.382017135620117, -0.10250881, 0.029630177, 0.35158157
695, 24759076, -0.5909494757652283, -0.8372455835342407, -26.414215087890625, 0.002776946, -0.00419501, 0.35717106
696, 24775743, -0.6007300615310669, -0.8320445418357849, -26.489892959594727, -0.1388586, 0.12003146, 0.34706116
697, 24792410, -0.6161547899246216, -0.8132523894309998, -26.571094512939453, -0.2946029, 0.36536345, 0.26050854
698, 24809077, -0.6355796456336975, -0.7740592360496521, -26.723520278930664, -0.22433199, 0.22047757, 0.3550701
699, 24825744, -0.6404696106910706, -0.7504957318305969, -26.824796676635742, 0.019587792, -0.055427503, 0.3275652
700, 24842411, -0.6430915594100952, -0.7206947207450867, -26.811193466186523, 0.18831247, -0.20940726, 0.408782
701, 24859078, -0.6479427814483643, -0.6994219422340393, -26.729787826538086, -0.047124073, -0.050996143, 0.3014078
702, 24875745, -0.6549320816993713, -0.6714677214622498, -26.673044204711914, -0.116420634, -0.050310407, 0.3802061
703, 24892412, -0.6616146564483643, -0.6422039866447449, -26.656526565551758, 0.021765925, -0.10379375, 0.3593464
704, 24909079, -0.6701112985610962, -0.6378127336502075, -26.718645095825195, -0.16925728, -0.02897082, 0.31510735
705, 24925746, -0.6669762134552002, -0.6262307167053223, -26.912778854370117, 0.07240433, -0.151724, 0.3764162
706, 24942413, -0.6652076244354248, -0.6276400089263916, -27.167783737182617, 0.19192335, -0.17804389, 0.30703163
707, 24959080, -0.6728765368461609, -0.6369504332542419, -27.263484954833984, 0.30201557, 0.17431398, 0.37025547
708, 24975747, -0.6609583497047424, -0.6454467177391052, -27.195241928100586, 0.08130981, -0.056184508, 0.29117584
709, 24992414, -0.6572731137275696, -0.6484187245368958, -27.125503540039062, -0.12841624, -0.01859004, 0.3925314
710, 25009081, -0.6514244675636292, -0.6625005006790161, -27.081668853759766, -0.021504087, -0.020993182, 0.32950974
711, 25025748, -0.6514555215835571, -0.6701072454452515, -27.033924102783203, 0.1059806, 0.08558382, 0.3873453
712, 25042415, -0.6403816938400269, -0.6707046031951904, -27.037813186645508, 0.023601208, 0.17415993, 0.3240366
713, 25059082, -0.6070939302444458, -0.663562536239624, -27.088666915893555, -0.028576156, -0.018368965, 0.35216236
714, 25075749, -0.5931156277656555, -0.666811466217041, -27.084115982055664, 0.009893749, -0.13090858, 0.32018948
715, 25092416, -0.5907357931137085, -0.6870388984680176, -27.00368881225586, 0.18297118, -0.21896866, 0.41130257
716, 25109083, -0.617168128490448, -0.7104328274726868, -26.846174240112305, -0.1572913, -0.0638429, 0.34536552
717, 25125750, -0.6352605819702148, -0.7134649753570557, -26.714691162109375, -0.02137146, 0.017001554, 0.33825493
718, 25142417, -0.6381638646125793, -0.7029023766517639, -26.630992889404297, -0.11155814, 0.061247516, 0.31375694
719, 25159084, -0.6359487175941467, -0.6844748854637146, -26.610139846801758, -0.3081703, 0.22912301, 0.35709667
720, 25175751, -0.6238112449645996, -0.6760818362236023, -26.666698455810547, -0.3442049, 0.19014458, 0.33515358
721, 25192418, -0.6103454828262329, -0.670982837677002, -26.639745712280273, 0.11491103, 3.1309974E-4, 0.37035275
722, 25209085, -0.6064572930335999, -0.6681005358695984, -26.549413681030273, -0.2822271, 0.15151796, 0.34294128
723, 25225752, -0.590389609336853, -0.6745570302009583, -26.431005477905273, -0.021096041, -0.027358027, 0.38527298
724, 25242419, -0.590639591217041, -0.6762878894805908, -26.324392318725586, 0.08179202, -0.15865667, 0.3571825
725, 25259086, -0.6147200465202332, -0.6839709877967834, -26.193790435791016, -0.16503733, 0.064549915, 0.34113407
726, 25275753, -0.6217910051345825, -0.6800910830497742, -26.165443420410156, -0.053802803, 0.01670504, 0.3678503
727, 25292420, -0.6241052150726318, -0.6764412522315979, -26.222862243652344, -0.2783249, 0.1548822, 0.30426598
728, 25309087, -0.6081602573394775, -0.6685282588005066, -26.23452377319336, 0.046825748, 0.1401839, 0.3525715
729, 25325754, -0.5796162486076355, -0.671683669090271, -26.16241455078125, -0.15804242, 0.13128676, 0.33885002
730, 25342421, -0.5554016828536987, -0.6823483109474182, -25.994136810302734, -0.03886053, 0.038153328, 0.3633318
731, 25359088, -0.5392359495162964, -0.6982847452163696, -25.78030776977539, -0.0016872784, -0.07412079, 0.3547516
732, 25375755, -0.5281955599784851, -0.7015877962112427, -25.622709274291992, -0.11829661, 0.017271888, 0.34703732
733, 25392422, -0.5233055949211121, -0.7000251412391663, -25.6015567779541, -0.103515565, -0.013171975, 0.37507915
734, 25409089, -0.5202274918556213, -0.6993383169174194, -25.59743881225586, -0.2649786, 0.09298562, 0.30296516
735, 25425756, -0.5033556818962097, -0.6906687617301941, -25.642906188964844, -0.27675718, 0.057594996, 0.3119068
736, 25442423, -0.4946095943450928, -0.6906350255012512, -25.657855987548828, -0.029582718, -0.031848907, 0.3400259
737, 25459090, -0.48778313398361206, -0.6815118789672852, -25.746295928955078, 0.12787649, -0.10607489, 0.38358116
738, 25475757, -0.495315283536911, -0.6875936985015869, -25.739246368408203, -0.023747275, -0.008580407, 0.36167812
739, 25492424, -0.5027873516082764, -0.7055144309997559, -25.564069747924805, -0.1179904, 0.19611505, 0.29206753
740, 25509091, -0.4905909299850464, -0.7056082487106323, -25.382020950317383, -0.24868228, 0.20387244, 0.3547678
741, 25525758, -0.43822669982910156, -0.6988087296485901, -25.269697189331055, -0.080511644, 0.0062061306, 0.2940483
742, 25542425, -0.39930403232574463, -0.6941601037979126, -25.266645431518555, -0.2170871, -0.07204467, 0.34459686
743, 25559092, -0.3721265196800232, -0.6793479919433594, -25.459383010864258, -0.24253237, -0.007830972, 0.35380745
744, 25575759, -0.37493059039115906, -0.6744717359542847, -25.65309715270996, -0.09339062, 0.0919644, 0.35171127
745, 25592426, -0.3526420295238495, -0.6748001575469971, -25.74032974243164, -0.38947135, 0.2443545, 0.3109026
746, 25609093, -0.32437464594841003, -0.6782833337783813, -25.798059463500977, -0.031166766, 0.0700536, 0.35690022
747, 25625760, -0.28408724069595337, -0.6929019689559937, -25.75880241394043, -0.45775118, 0.12020752, 0.32053375
748, 25642427, -0.2620159983634949, -0.7059596180915833, -25.78489112854004, -0.15607506, 0.023309443, 0.36719894
749, 25659094, -0.24216262996196747, -0.722153902053833, -25.84843635559082, -0.087464586, 0.005430754, 0.3187971
750, 25675761, -0.2348804920911789, -0.722515344619751, -25.897014617919922, -0.23182859, 0.097290955, 0.32212543
751, 25692428, -0.23343180119991302, -0.7185093760490417, -25.8973331451416, -0.096759036, 0.03225942, 0.36782932
752, 25709095, -0.23312132060527802, -0.7175561785697937, -25.896528244018555, -0.035910375, -0.005325853, 0.35417938
753, 25725762, -0.23262269794940948, -0.7182652354240417, -25.895832061767578, -0.028242437, -0.0123069445, 0.33633137
754, 25742429, -0.23134416341781616, -0.7197412252426147, -25.893686294555664, -0.02265222, 0.0018046751, 0.3691702
755, 25759096, -0.22847327589988708, -0.7208755016326904, -25.891204833984375, -0.026331628, -0.0057780123, 0.32404423
756, 25775763, -0.22019362449645996, -0.7157939076423645, -25.891258239746094, -0.04080921, -0.0032206576, 0.33613873
757, 25792430, -0.19883887469768524, -0.7129552960395813, -25.895099639892578, -0.04408691, -0.022089493, 0.32835007
758, 25809097, -0.16009965538978577, -0.7228381037712097, -25.913326263427734, -0.08449166, -0.0142790135, 0.35161686
759, 25825764, -0.13592228293418884, -0.8530235290527344, -25.934877395629883, -0.015043627, 0.03578694, 0.3273573
760, 25842431, -0.1391781121492386, -0.8549661040306091, -25.96866798400879, 0.064945035, -0.017246047, 0.31392384
761, 25859098, -0.11421574652194977, -0.8197035789489746, -26.025861740112305, -0.21967857, -0.10464207, 0.20360279
762, 25875765, -0.091275654733181, -0.7751094698905945, -26.04520034790039, 0.22147913, 0.12695354, 0.4909525
763, 25892432, -0.08459267020225525, -0.7709736824035645, -26.04159927368164, -0.027806757, 0.0013507202, 0.3615141
764, 25909099, -0.08173119276762009, -0.7698625326156616, -26.040233612060547, -0.021401316, -0.009257812, 0.33014297
765, 25925766, -0.07853645086288452, -0.7714977264404297, -26.038864135742188, -0.021460129, -0.011578141, 0.34623432
766, 25942433, -0.07701535522937775, -0.7717241644859314, -26.03812026977539, -0.012837054, -0.007707251, 0.31936932
767, 25959100, -0.07525020092725754, -0.7714692950248718, -26.039031982421875, -0.022142608, -9.3313167E-4, 0.33101273
768, 25975767, -0.07514458149671555, -0.7711647748947144, -26.038345336914062, -0.027217275, 0.0036101916, 0.3466177
769, 25992434, -0.07373326271772385, -0.7710824608802795, -26.03856658935547, -0.016850173, -0.0076335296, 0.3523178
770, 26009101, -0.07427632063627243, -0.7707191109657288, -26.03814697265625, -0.020479629, -0.013561205, 0.34202385
771, 26025768, -0.07345279306173325, -0.7710385322570801, -26.037832260131836, -0.01099815, -0.013430223, 0.335804
772, 26042435, -0.07305698096752167, -0.7727198004722595, -26.038745880126953, -0.015606907, -0.001413262, 0.35938263
773, 26059102, -0.07222333550453186, -0.7730975151062012, -26.03877067565918, -0.02171785, -0.0014488809, 0.3516178
774, 26075769, -0.07093072682619095, -0.7739108204841614, -26.03924560546875, -0.021439813, -0.005402617, 0.3597536
775, 26092436, -0.07096649706363678, -0.7748039960861206, -26.039081573486328, -0.0042765853, 0.007339955, 0.34580994
776, 26109103, -0.0713496282696724, -0.7751339077949524, -26.038318634033203, -0.025639052, 0.0023204696, 0.3574686
777, 26125770, -0.07020000368356705, -0.7758976221084595, -26.03824806213379, -0.023655828, 0.00957324, 0.3399353
778, 26142437, -0.07090884447097778, -0.7755247950553894, -26.038301467895508, -0.024845822, -0.009756251, 0.35315323
779, 26159104, -0.07231441885232925, -0.7746430039405823, -26.03769302368164, -0.025613718, 0.0016962031, 0.33192825
780, 26175771, -0.07238952070474625, -0.7760515213012695, -26.03763198852539, -0.028969727, -0.0043738657, 0.33633995
781, 26192438, -0.07309696823358536, -0.7764787673950195, -26.03724479675293, -0.020380368, 0.005220033, 0.3406639
782, 26209105, -0.07368561625480652, -0.7758806347846985, -26.0388126373291, -0.012341816, 0.012779389, 0.36435795
783, 26225772, -0.07346361875534058, -0.7751474380493164, -26.039382934570312, -0.01201028, 0.0094423955, 0.3356285
784, 26242439, -0.0728101134300232, -0.7750453352928162, -26.039506912231445, -0.015293253, 0.0070923613, 0.36023712
785, 26259106, -0.07274046540260315, -0.7750813961029053, -26.039770126342773, -0.025586491, -0.0051018037, 0.3396988
786, 26275773, -0.0716346949338913, -0.7747763395309448, -26.03870964050293, -0.013230354, 6.020915E-4, 0.33724976
787, 26292440, -0.0710899829864502, -0.7744693756103516, -26.038103103637695, -0.01124215, 0.010624642, 0.332345
788, 26309107, -0.07099559158086777, -0.7743855714797974, -26.03744888305664, -0.022607714, -0.00999979, 0.32182884
789, 26325774, -0.07087009400129318, -0.7754351496696472, -26.03608512878418, -0.013392442, -0.011936474, 0.33641624
790, 26342441, -0.07027322053909302, -0.7771530151367188, -26.036178588867188, -0.031557873, -0.020940874, 0.34774685
791, 26359108, -0.06985196471214294, -0.7767682075500488, -26.03581428527832, -0.031462684, -0.007325866, 0.34118557
792, 26375775, -0.07006626576185226, -0.7769402265548706, -26.036733627319336, -0.008837797, 0.005386184, 0.32889175
793, 26392442, -0.06995993107557297, -0.7763054966926575, -26.036863327026367, -0.015815148, 7.491054E-4, 0.33608627
794, 26409109, -0.07015344500541687, -0.7757896780967712, -26.035757064819336, -0.0245788, 0.01105413, 0.3281927
795, 26425776, -0.0701933279633522, -0.7742477059364319, -26.034912109375, -0.024352392, -0.0028112568, 0.3423767
796, 26442443, -0.070541150867939, -0.7732651829719543, -26.03434944152832, -0.018042102, 0.0118916975, 0.36231136
797, 26459110, -0.07116829603910446, -0.7746394872665405, -26.034587860107422, -0.024332685, -6.240255E-4, 0.34248543
798, 26475777, -0.07112689316272736, -0.7750791311264038, -26.03461456298828, -0.02056418, -0.014398658, 0.35760212
799, 26492444, -0.0701354518532753, -0.7746981382369995, -26.034656524658203, -0.01420802, 0.0041925847, 0.3362341
800, 26509111, -0.06885624676942825, -0.7759358882904053, -26.03387451171875, -0.017125538, -0.006807789, 0.3387165
801, 26525778, -0.06875982135534286, -0.7766127586364746, -26.03296661376953, -0.015882667, -0.0043031867, 0.34834862
802, 26542445, -0.06840059906244278, -0.7762380242347717, -26.032730102539062, -0.021635072, -0.0031787034, 0.336977
803, 26559112, -0.06768535822629929, -0.7775588035583496, -26.032548904418945, -0.028914258, 0.0042719156, 0.34492683
804, 26575779, -0.06774812936782837, -0.7775450944900513, -26.03276252746582, -0.028982876, -0.0020373852, 0.33448315
805, 26592446, -0.06881890445947647, -0.7775828242301941, -26.030536651611328, -0.02080012, 0.0033477368, 0.3570633
806, 26609113, -0.06890353560447693, -0.7779640555381775, -26.030473709106445, -0.034093536, 0.0050714617, 0.3644247
807, 26625780, -0.06852919608354568, -0.7779488563537598, -26.03093147277832, -0.019724686, 0.0010531144, 0.34224033
808, 26642447, -0.06766670942306519, -0.7781663537025452, -26.030807495117188, -0.0103385495, -0.014764485, 0.3214321
809, 26659114, -0.06833457946777344, -0.7772791385650635, -26.03184700012207, -0.024664752, 0.0022708462, 0.32606316
810, 26675781, -0.06798240542411804, -0.777209997177124, -26.03054428100586, -0.03852749, 0.008850563, 0.34638977
811, 26692448, -0.06907033920288086, -0.7760474681854248, -26.03005599975586, -0.028178878, 0.0017638002, 0.3235054
812, 26709115, -0.06909855455160141, -0.7760137915611267, -26.029605865478516, -0.026316846, -4.680501E-4, 0.34014702
813, 26725782, -0.06931203603744507, -0.7758987545967102, -26.028934478759766, -0.01787264, -0.0034555488, 0.3492775
814, 26742449, -0.06958205252885818, -0.7753473520278931, -26.029502868652344, -0.02378723, -0.003843106, 0.34622288
815, 26759116, -0.06945698708295822, -0.7763680219650269, -26.02985382080078, -0.011189639, -0.006028684, 0.34510326
816, 26775783, -0.06898098438978195, -0.775285542011261, -26.028940200805664, -0.017464872, 0.005706888, 0.35770798
817, 26792450, -0.06909650564193726, -0.7761120200157166, -26.0290584564209, -0.017261555, -0.0059597897, 0.35338306
818, 26809117, -0.07011626660823822, -0.7766949534416199, -26.028865814208984, -0.013892402, 0.0050916844, 0.34968185
819, 26825784, -0.06962020695209503, -0.7775562405586243, -26.02703285217285, -0.01049459, -0.0067525185, 0.34767628
820, 26842451, -0.07003496587276459, -0.7762880921363831, -26.02739143371582, -0.02041259, -0.0017413527, 0.32791805
821, 26859118, -0.07055295258760452, -0.776907205581665, -26.027179718017578, -0.0138785755, -0.0046418873, 0.34669685
822, 26875785, -0.07078012824058533, -0.7780501246452332, -26.027515411376953, -0.006190352, -0.014691195, 0.329731
823, 26892452, -0.07100912928581238, -0.77773118019104, -26.027463912963867, -0.028621001, 0.004550095, 0.3496523
824, 26909119, -0.07057052105665207, -0.7774748206138611, -26.027067184448242, -0.021647736, 0.00402448, 0.32752895
825, 26925786, -0.07076311856508255, -0.7774288058280945, -26.026229858398438, -0.020395443, 0.0020794685, 0.35508728
826, 26942453, -0.07023768126964569, -0.7780696153640747, -26.02610969543457, -0.017564462, -0.006913729, 0.33257198
827, 26959120, -0.06948219239711761, -0.776972770690918, -26.02635383605957, -0.014130874, -0.007912453, 0.34704494
828, 26975787, -0.07031294703483582, -0.776500940322876, -26.026737213134766, -0.025763845, 0.011640562, 0.35479355
829, 26992454, -0.07109162956476212, -0.7767752408981323, -26.026342391967773, -0.030664839, -0.0016434139, 0.33550644
830, 27009121, -0.07125331461429596, -0.7765246033668518, -26.026561737060547, -0.00979415, 0.002057416, 0.3526821
831, 27025788, -0.07120062410831451, -0.7767230868339539, -26.027450561523438, -0.009223894, 0.004612438, 0.33243847
832, 27042455, -0.07206439226865768, -0.7762148380279541, -26.027185440063477, -0.021799149, -0.004139956, 0.37955093
833, 27059122, -0.07152383774518967, -0.7768314480781555, -26.02650260925293, -0.026409142, -9.6638623E-4, 0.33833027
834, 27075789, -0.07137753814458847, -0.7769554257392883, -26.02646255493164, -0.0065560783, -0.0044743572, 0.34658432
835, 27092456, -0.07116611301898956, -0.7773420810699463, -26.0257625579834, -0.0037074583, -0.007603745, 0.3319168
836, 27109123, -0.07014822214841843, -0.7775119543075562, -26.02471160888672, -0.027692564, 0.004334964, 0.32605934
837, 27125790, -0.07015886902809143, -0.7790403962135315, -26.02505111694336, -0.026775662, 0.0014616437, 0.34582806
838, 27142457, -0.07047010213136673, -0.778957188129425, -26.025569915771484, -0.012487648, -0.011442136, 0.36533356
839, 27159124, -0.07071048021316528, -0.778491735458374, -26.025148391723633, -0.0017976379, 0.0024901996, 0.33171177
840, 27175791, -0.07040529698133469, -0.7785220146179199, -26.02384376525879, -0.017344281, 0.0076456913, 0.33799458
841, 27192458, -0.07061965763568878, -0.7792752385139465, -26.02320671081543, -0.00752932, 6.167054E-4, 0.3573246
842, 27209125, -0.07027614116668701, -0.7809781432151794, -26.023534774780273, -0.028345302, 0.0045591528, 0.33973503
843, 27225792, -0.07077894359827042, -0.780473530292511, -26.022846221923828, -0.02330235, 0.010659956, 0.34390354
844, 27242459, -0.07110652327537537, -0.7802850008010864, -26.024364471435547, -0.029911313, -0.0014288782, 0.35769558
845, 27259126, -0.06971928477287292, -0.7816436290740967, -26.024314880371094, -0.018769737, 0.0058604763, 0.34971905
846, 27275793, -0.06966377049684525, -0.7812040448188782, -26.024654388427734, -0.01680193, -0.010851986, 0.34575653
847, 27292460, -0.0693950280547142, -0.7822890877723694, -26.02373504638672, -0.02354067, -5.4159984E-5, 0.35326385
848, 27309127, -0.07040494680404663, -0.7819246649742126, -26.024242401123047, -0.022535138, 0.005435486, 0.34858227
849, 27325794, -0.06939835101366043, -0.7821123003959656, -26.024425506591797, -0.016713478, 1.1413654E-4, 0.38056087
850, 27342461, -0.0698138102889061, -0.7816027402877808, -26.024911880493164, -0.004075612, 9.60629E-4, 0.32695484
851, 27359128, -0.07033897191286087, -0.7816779017448425, -26.023950576782227, -0.010572174, 0.008732212, 0.34276962
852, 27375795, -0.06929207593202591, -0.7824497818946838, -26.023740768432617, -0.012525599, 0.011834566, 0.346529
853, 27392462, -0.06873676925897598, -0.7827209830284119, -26.022844314575195, -0.019681325, 0.01086768, 0.35795593
854, 27409129, -0.06834578514099121, -0.7835023999214172, -26.023252487182617, -0.027571646, -0.009879787, 0.34323978
855, 27425796, -0.06825296580791473, -0.784365177154541, -26.023548126220703, -0.029259665, 0.013637772, 0.3167286
856, 27442463, -0.06677595525979996, -0.7850595116615295, -26.02476692199707, -0.0157141, -0.010218591, 0.31947517
857, 27459130, -0.06592690199613571, -0.7845538258552551, -26.025678634643555, -0.014975836, -0.0030243695, 0.3489151
858, 27475797, -0.06572441011667252, -0.785365879535675, -26.025436401367188, -0.026371311, -0.012862444, 0.34787083
859, 27492464, -0.06645336747169495, -0.7856812477111816, -26.02528953552246, -0.013642777, -3.1445478E-4, 0.35384464
860, 27509131, -0.06637950986623764, -0.7868989706039429, -26.02487564086914, -8.3698615E-5, -0.00374065, 0.34703445
861, 27525798, -0.06621862947940826, -0.7867971658706665, -26.02479362487793, -0.014749966, -0.0018730246, 0.3572712
862, 27542465, -0.06560368835926056, -0.7866823077201843, -26.025463104248047, -0.010147558, -0.008482394, 0.35112286
863, 27559132, -0.06485331058502197, -0.7883269786834717, -26.02488136291504, -0.022816436, -0.010799657, 0.34239388
864, 27575799, -0.06487035751342773, -0.7901484966278076, -26.024250030517578, -0.019336399, -0.0024803546, 0.3599453
865, 27592466, -0.06553540378808975, -0.7898759245872498, -26.02482032775879, -0.019414706, -0.0068311165, 0.34156322
866, 27609133, -0.06566514819860458, -0.7902500629425049, -26.02454948425293, -0.014460342, 3.8644692E-4, 0.33296776
867, 27625800, -0.06574270874261856, -0.7903420329093933, -26.024978637695312, -0.019120004, 0.009087272, 0.33995152
868, 27642467, -0.06484334170818329, -0.7922556400299072, -26.02539825439453, -0.02329027, -0.0062327026, 0.3324108
869, 27659134, -0.06535280495882034, -0.7929564714431763, -26.025402069091797, -0.017968493, 0.0023484472, 0.32139492
870, 27675801, -0.0650964081287384, -0.793141782283783, -26.026226043701172, -0.027696542, -0.0015857266, 0.34517002
871, 27692468, -0.06575590372085571, -0.7926413416862488, -26.027132034301758, -0.01946407, -0.0033666743, 0.33629036
872, 27709135, -0.06620758026838303, -0.7925563454627991, -26.026046752929688, -0.023999253, 0.02116573, 0.32342434
873, 27725802, -0.06594642251729965, -0.7929878830909729, -26.026689529418945, -0.011040719, -0.0018433812, 0.32796288
874, 27742469, -0.06690923124551773, -0.7935619354248047, -26.026931762695312, -0.021443022, -3.8166757E-4, 0.32536983
875, 27759136, -0.06630048155784607, -0.7944814562797546, -26.027132034301758, -0.012869499, 0.0053491364, 0.3303795
876, 27775803, -0.06637723743915558, -0.7951972484588623, -26.02778434753418, -0.03132821, 0.007336909, 0.3393631
877, 27792470, -0.06602881103754044, -0.795151948928833, -26.026681900024414, -0.020212762, -0.0060157166, 0.3482666
878, 27809137, -0.06635385751724243, -0.7942528128623962, -26.025407791137695, -0.018001063, 0.016456438, 0.35853577
879, 27825804, -0.06570648401975632, -0.7932325601577759, -26.023494720458984, -0.019853286, 0.0041252635, 0.3239193
880, 27842471, -0.06646212935447693, -0.794389009475708, -26.02298355102539, -0.018099137, 0.007792416, 0.34227753
881, 27859138, -0.06666366755962372, -0.7946500182151794, -26.022602081298828, -0.03251383, 0.015904233, 0.3596325
882, 27875805, -0.06580383330583572, -0.7940416932106018, -26.022830963134766, -7.5027015E-4, 0.023024483, 0.34651947
883, 27892472, -0.06580839306116104, -0.7943260073661804, -26.022401809692383, -0.01565717, -0.0043445854, 0.35202885
884, 27909139, -0.0668223425745964, -0.7947582602500916, -26.022550582885742, -0.021390194, 0.0078008054, 0.33864594
885, 27925806, -0.06741515547037125, -0.7948865294456482, -26.021800994873047, -0.01457098, 0.009462931, 0.33647442
886, 27942473, -0.06874381750822067, -0.7945120930671692, -26.020177841186523, -0.018074537, 0.0074584344, 0.31363583
887, 27959140, -0.06943131238222122, -0.7950071096420288, -26.019912719726562, -0.018679334, 0.012729477, 0.3351555
888, 27975807, -0.06950823217630386, -0.7958662509918213, -26.019725799560547, -0.020173058, 0.016479569, 0.34249592
889, 27992474, -0.06931935995817184, -0.7954466938972473, -26.018720626831055, -0.008397162, 0.006572032, 0.34608746
890, 28009141, -0.0691298395395279, -0.7948958873748779, -26.018657684326172, -0.025274513, -0.0077168755, 0.34828472
891, 28025808, -0.06882483512163162, -0.7949691414833069, -26.018630981445312, -0.015835445, 0.011452683, 0.32532787
892, 28042475, -0.06767535209655762, -0.7957187294960022, -26.018352508544922, -0.01619387, -0.012975428, 0.35014057
893, 28059142, -0.06767923384904861, -0.7963714599609375, -26.01959991455078, -0.020037074, 9.843109E-4, 0.3463192
894, 28075809, -0.0683366134762764, -0.796684741973877, -26.019527435302734, -0.023533871, 0.0017044295, 0.32257652
895, 28092476, -0.06702353805303574, -0.7978129386901855, -26.020299911499023, -0.02372904, 0.015437816, 0.34145164
896, 28109143, -0.06715077906847, -0.796917736530304, -26.020633697509766, -0.014887238, 0.0036205729, 0.33062935
897, 28125810, -0.06568548828363419, -0.7984187602996826, -26.02104377746582, -0.01890218, -1.4076951E-4, 0.3191843
898, 28142477, -0.06565018743276596, -0.7996162176132202, -26.022451400756836, -0.032774676, -0.012386103, 0.34265423
899, 28159144, -0.06533128768205643, -0.7991628050804138, -26.020923614501953, -0.016748412, -0.008318232, 0.33713245
900, 28175811, -0.06446138024330139, -0.7988166809082031, -26.021108627319336, -0.024358872, 0.022677582, 0.3388033
901, 28192478, -0.06504076719284058, -0.7987944483757019, -26.022371292114258, -0.025160318, -0.008323683, 0.335886
902, 28209145, -0.064702108502388, -0.80069500207901, -26.02211570739746, -0.021700392, -0.0010649065, 0.33794212
903, 28225812, -0.06550312042236328, -0.7990167737007141, -26.021631240844727, -0.02216181, 1.9068623E-4, 0.3404436
904, 28242479, -0.06447795778512955, -0.7977270483970642, -26.02235221862793, -0.01620359, -0.0041636466, 0.35048676
905, 28259146, -0.06497283279895782, -0.7978551387786865, -26.022184371948242, -0.018322807, 0.00945312, 0.3453884
906, 28275813, -0.06538024544715881, -0.7973360419273376, -26.022369384765625, -0.034297764, -0.004791545, 0.33094597
907, 28292480, -0.06455414742231369, -0.7977669835090637, -26.0217227935791, -0.023128953, 0.0042941202, 0.356699
908, 28309147, -0.06416306644678116, -0.7968495488166809, -26.020906448364258, -0.021435779, -0.004918212, 0.3382368
909, 28325814, -0.06540835648775101, -0.796698808670044, -26.020790100097656, -0.017132945, 0.0045142947, 0.35906315
910, 28342481, -0.06641357392072678, -0.796802282333374, -26.021778106689453, -0.03251809, 4.4477332E-5, 0.33162498
911, 28359148, -0.06606850773096085, -0.7964767217636108, -26.02057647705078, -0.02018805, 0.013467808, 0.31930637
912, 28375815, -0.06579612195491791, -0.7962278127670288, -26.020246505737305, -0.024502661, 0.012403279, 0.34374046
913, 28392482, -0.06579629331827164, -0.7959543466567993, -26.020627975463867, -0.025614738, -0.0018750973, 0.32682037
914, 28409149, -0.0660511776804924, -0.7956441640853882, -26.021289825439453, -0.027824689, 0.016803764, 0.33240986
915, 28425816, -0.06530016660690308, -0.7955307364463806, -26.020280838012695, -0.02413292, -2.0822152E-4, 0.34475422
916, 28442483, -0.06569167226552963, -0.7952335476875305, -26.0203857421875, -0.019718833, 0.009947644, 0.33802223
917, 28459150, -0.06536794453859329, -0.7951542139053345, -26.02011489868164, -0.020318715, -0.004198757, 0.3521862
918, 28475817, -0.06499134749174118, -0.7946338653564453, -26.01979637145996, -0.021493869, 2.3112287E-4, 0.33805084
919, 28492484, -0.06555753946304321, -0.794687807559967, -26.01963233947754, -0.019792596, 0.0018079561, 0.33018303
920, 28509151, -0.06522125005722046, -0.7942563891410828, -26.01902198791504, -0.0039951825, -9.151598E-4, 0.35376453
921, 28525818, -0.06496167182922363, -0.7943666577339172, -26.019332885742188, -0.025325272, 0.0031707792, 0.34027958
922, 28542485, -0.06457220762968063, -0.7939995527267456, -26.018096923828125, -0.02616569, -0.0058688214, 0.33024025
923, 28559152, -0.06469173729419708, -0.7939467430114746, -26.017820358276367, -0.0142917745, 0.0044053267, 0.33282375
924, 28575819, -0.06468764692544937, -0.7949663400650024, -26.0174503326416, -0.024538597, -0.0018028887, 0.3455019
925, 28592486, -0.06409212201833725, -0.7943041920661926, -26.018051147460938, -0.022772474, 0.0034848028, 0.31600666
926, 28609153, -0.06389959901571274, -0.795149564743042, -26.018220901489258, -0.014972274, 0.008279177, 0.3200922
927, 28625820, -0.06309644877910614, -0.7955058217048645, -26.01836585998535, -0.026217675, 6.8503227E-6, 0.30817413
928, 28642487, -0.06207145377993584, -0.7964810729026794, -26.016672134399414, -0.035765562, -0.014572978, 0.35699368
929, 28659154, -0.06267186999320984, -0.7977444529533386, -26.016538619995117, -0.021925483, -0.004316318, 0.34056854
930, 28675821, -0.06249632686376572, -0.7978801727294922, -26.015657424926758, -0.020490585, -0.0056083035, 0.34148407
931, 28692488, -0.06279123574495316, -0.7980087995529175, -26.016183853149414, -0.013783977, -5.289644E-4, 0.32275295
932, 28709155, -0.06252048909664154, -0.7982892394065857, -26.015899658203125, -0.017071696, -0.0068232445, 0.34374046
933, 28725822, -0.06259731948375702, -0.7973242402076721, -26.01732063293457, -0.017485715, 0.019739667, 0.32489395
934, 28742489, -0.06235784664750099, -0.7973677515983582, -26.017295837402344, -0.024071828, 0.013190516, 0.3540945
935, 28759156, -0.06280482560396194, -0.7966304421424866, -26.01751136779785, -0.011830073, 0.007046687, 0.33670902
936, 28775823, -0.06303092837333679, -0.7974817752838135, -26.01832389831543, -0.018916795, 0.009164379, 0.3292837
937, 28792490, -0.06234997510910034, -0.7977367639541626, -26.01815414428711, -0.043585062, -0.005883837, 0.32765484
938, 28809157, -0.06325006484985352, -0.7965469360351562, -26.017791748046875, -0.024025606, 0.009172704, 0.33088207
939, 28825824, -0.06329798698425293, -0.7975887060165405, -26.017505645751953, -0.034266062, 0.0054848506, 0.34289074
940, 28842491, -0.06383171677589417, -0.7964138984680176, -26.017433166503906, -0.01658943, 0.0073227375, 0.33880138
941, 28859158, -0.06545840203762054, -0.7961501479148865, -26.016679763793945, -0.031345814, -5.8342295E-4, 0.3133459
942, 28875825, -0.06468216329813004, -0.7959406971931458, -26.017101287841797, -0.012811375, 0.012055854, 0.33767414
943, 28892492, -0.06532270461320877, -0.7964900732040405, -26.016521453857422, -0.021377048, 0.0100054955, 0.33585453
944, 28909159, -0.06593837589025497, -0.7959244251251221, -26.016315460205078, -0.026070163, -0.0070408746, 0.341177
945, 28925826, -0.06611692160367966, -0.795725405216217, -26.015485763549805, -0.03333635, -0.006869803, 0.3541422
946, 28942493, -0.06608175486326218, -0.7960742115974426, -26.015247344970703, -0.019768655, 0.013602272, 0.3428526
947, 28959160, -0.06630992889404297, -0.7956336736679077, -26.015134811401367, -0.02658293, 0.006061322, 0.3470831
948, 28975827, -0.06609213352203369, -0.7946426868438721, -26.01470184326172, -0.009976291, 2.7327951E-5, 0.34369183
949, 28992494, -0.06677492707967758, -0.7951136231422424, -26.014009475708008, -0.019825121, -0.009859746, 0.33728695
950, 29009161, -0.06715957820415497, -0.7944307923316956, -26.014053344726562, -0.021624893, -0.001743518, 0.3456459
951, 29025828, -0.06676246970891953, -0.7962539196014404, -26.013410568237305, -0.022639966, 0.0019011698, 0.33852577
952, 29042495, -0.06599881500005722, -0.7957415580749512, -26.01384162902832, -0.029513378, 0.006618874, 0.31822777
953, 29059162, -0.06613244861364365, -0.7965312600135803, -26.013235092163086, -0.029796582, -0.0018475703, 0.3335352
954, 29075829, -0.06638175249099731, -0.7963666915893555, -26.01409339904785, -0.012161127, -0.020782843, 0.33890152
955, 29092496, -0.06600570678710938, -0.7962211966514587, -26.014253616333008, -0.015777273, -0.01156559, 0.35539627
956, 29109163, -0.06550316512584686, -0.7962095141410828, -26.01332664489746, -0.027275419, -0.013284622, 0.34211063
957, 29125830, -0.06531073153018951, -0.795460045337677, -26.013479232788086, -0.02628824, -0.009361395, 0.31721973
958, 29142497, -0.06428935378789902, -0.795279324054718, -26.014404296875, -0.022246499, -0.0022111281, 0.33271313
959, 29159164, -0.06426885724067688, -0.795470654964447, -26.014142990112305, -0.017907143, 1.7636569E-6, 0.33075523
960, 29175831, -0.07405728101730347, -0.7700340151786804, -26.03122329711914, -0.017636055, 0.014713729, 0.3456583
961, 29192498, -0.07423971593379974, -0.7694395184516907, -26.031251907348633, -0.005508002, 0.0024083783, 0.34286785
962, 29209165, -0.07441741228103638, -0.7700477242469788, -26.030437469482422, -8.2749384E-4, 0.0011456838, 0.33848095
963, 29225832, -0.07406876981258392, -0.7704943418502808, -26.029708862304688, -0.013841095, 0.0014525007, 0.32163715
964, 29242499, -0.07334217429161072, -0.7711413502693176, -26.029550552368164, -0.022364274, 0.020346675, 0.32402134
965, 29259166, -0.07483910024166107, -0.7714281678199768, -26.029993057250977, -0.010223647, 0.009032026, 0.3344164
966, 29275833, -0.07437391579151154, -0.7709845304489136, -26.030899047851562, -0.01727594, 0.0055264435, 0.34352207
967, 29292500, -0.07402604073286057, -0.7694278359413147, -26.0313720703125, -0.021943085, -0.0017966233, 0.35549545
968, 29309167, -0.07418281584978104, -0.7693942189216614, -26.03098487854004, -0.016164083, 0.009127735, 0.3560648
969, 29325834, -0.07286303490400314, -0.7692673802375793, -26.031070709228516, -0.0049431985, 0.0048366073, 0.33263016
970, 29342501, -0.07295342534780502, -0.7701066732406616, -26.030838012695312, -0.015257934, 0.008885954, 0.34772778
971, 29359168, -0.07365584373474121, -0.771055281162262, -26.03000831604004, -0.013806165, 0.0033753233, 0.34961414
972, 29375835, -0.07319062203168869, -0.7705518007278442, -26.03036880493164, -0.010395396, 0.005099354, 0.3541355
973, 29392502, -0.07368288189172745, -0.7703425884246826, -26.0306339263916, -0.021588687, -0.004649929, 0.3418703
974, 29409169, -0.07394248992204666, -0.770256757736206, -26.031776428222656, -0.016728625, -0.0014430521, 0.3262043
975, 29425836, -0.07430780678987503, -0.7711793780326843, -26.032461166381836, -0.026478713, 0.012413214, 0.33149338
976, 29442503, -0.075160913169384, -0.7712687849998474, -26.032855987548828, -0.01824287, 0.0049760635, 0.32753658
977, 29459170, -0.07524748146533966, -0.7725394368171692, -26.031429290771484, -0.015683107, -0.0078009167, 0.3264494
978, 29475837, -0.07474260032176971, -0.773623526096344, -26.03169822692871, -0.027786296, -0.011718579, 0.33557224
979, 29492504, -0.07568970322608948, -0.7735223770141602, -26.031057357788086, -0.021909809, -0.015041603, 0.34463978
980, 29509171, -0.0751919224858284, -0.7731932997703552, -26.03037452697754, -0.011773992, -0.014399171, 0.33978748
981, 29525838, -0.07488222420215607, -0.7736064195632935, -26.02988624572754, -0.023215696, 0.015144485, 0.3446226
982, 29542505, -0.07451817393302917, -0.7734519839286804, -26.030799865722656, -0.018406764, 0.0016628648, 0.34685135
983, 29559172, -0.07527955621480942, -0.7723200917243958, -26.03136444091797, -0.023878291, -0.0017987869, 0.3307762
984, 29575839, -0.07504063099622726, -0.7728976011276245, -26.030744552612305, -0.009398643, -0.0067623095, 0.35012913
985, 29592506, -0.07503274083137512, -0.773172914981842, -26.030786514282227, -0.017271921, 0.0035309687, 0.3460493
986, 29609173, -0.07648345082998276, -0.7735692262649536, -26.031490325927734, -0.016663704, 0.0018839575, 0.35416412
987, 29625840, -0.07661078870296478, -0.7729527950286865, -26.030664443969727, -0.014887943, 0.005063305, 0.3721218
988, 29642507, -0.07620799541473389, -0.7726254463195801, -26.0313663482666, -0.039708823, -0.0011252533, 0.34920788
989, 29659174, -0.07593096047639847, -0.7722710967063904, -26.03046989440918, -0.018670345, 4.169512E-4, 0.3540678
990, 29675841, -0.0757581889629364, -0.7723391652107239, -26.029939651489258, -0.0060723266, 4.285337E-4, 0.33581352
991, 29692508, -0.07599624991416931, -0.7712438702583313, -26.030017852783203, -0.025972327, -4.745564E-4, 0.33020782
992, 29709175, -0.0771949365735054, -0.7716209292411804, -26.030492782592773, -0.022363368, 0.008334111, 0.34773922
993, 29725842, -0.0775926262140274, -0.7728656530380249, -26.031036376953125, -0.022425799, 0.0039612013, 0.35515213
994, 29742509, -0.07819937914609909, -0.773921549320221, -26.031347274780273, -0.016367089, 0.001017431, 0.35827446
995, 29759176, -0.07901285588741302, -0.7733594179153442, -26.03017234802246, -0.011272275, -0.0075062616, 0.33588123
996, 29775843, -0.07958796620368958, -0.7746455669403076, -26.030277252197266, -0.0059132306, -0.008910639, 0.33774853
997, 29792510, -0.07977389544248581, -0.7764773368835449, -26.029804229736328, -0.022117274, 0.004251431, 0.33476353
998, 29809177, -0.07968062907457352, -0.7771108746528625, -26.029775619506836, -0.019063689, -0.0036999183, 0.36517048
999, 29825844, -0.07969168573617935, -0.7781828045845032, -26.029022216796875, -0.026702184, 0.0026267243, 0.3735113
1000, 29842511, -0.08019313216209412, -0.7771773934364319, -26.02895736694336, -0.034582198, 0.0067168106, 0.33330917
1001, 29859178, -0.07985460758209229, -0.7767955660820007, -26.029661178588867, -0.0015453616, -0.0041550063, 0.3510046
1002, 29875845, -0.07981260865926743, -0.7768709063529968, -26.02901840209961, -0.015703881, 0.004880271, 0.33239746
1003, 29892512, -0.08024962991476059, -0.7763876914978027, -26.028522491455078, -0.010673917, -0.00217209, 0.36688995
1004, 29909179, -0.08028805255889893, -0.7757071852684021, -26.028440475463867, -0.015244966, -0.0011068623, 0.36090755
1005, 29925846, -0.07990273833274841, -0.7756556868553162, -26.028194427490234, -0.024077982, 0.012201984, 0.34555912
1006, 29942513, -0.0804581493139267, -0.7762950658798218, -26.027978897094727, -0.017932424, 0.023626413, 0.33721447
1007, 29959180, -0.08093377947807312, -0.7756379842758179, -26.02871322631836, -0.005036508, 0.01989462, 0.3232708
1008, 29975847, -0.08051423728466034, -0.7760420441627502, -26.028430938720703, -0.016593881, 4.469613E-4, 0.3410368
1009, 29992514, -0.0809987336397171, -0.7766217589378357, -26.02735137939453, -0.027276812, -0.0032170569, 0.3521986
1010, 30009181, -0.08062969893217087, -0.7761129140853882, -26.027603149414062, -0.023917297, -0.006536762, 0.3409319
1011, 30025848, -0.08160804957151413, -0.7750193476676941, -26.027210235595703, -0.01868863, 0.004575422, 0.32304382
1012, 30042515, -0.08160196989774704, -0.7765885591506958, -26.027870178222656, -0.007812232, 0.014551614, 0.34858513
1013, 30059182, -0.08110063523054123, -0.7766868472099304, -26.027915954589844, -0.00800301, 0.008668261, 0.3393345
1014, 30075849, -0.08080494403839111, -0.7772908806800842, -26.027997970581055, -0.015663058, 0.0014684941, 0.34772396
1015, 30092516, -0.07951746881008148, -0.7756704688072205, -26.02687644958496, -0.02630826, 6.091828E-4, 0.33682346
1016, 30109183, -0.07908140867948532, -0.775300145149231, -26.027042388916016, -0.018518014, 0.02037927, 0.34339905
1017, 30125850, -0.07888098806142807, -0.77496337890625, -26.02756690979004, -0.02392738, 0.017567314, 0.33256721
1018, 30142517, -0.07977999746799469, -0.77443927526474, -26.02726173400879, -0.0064034853, 0.0036726305, 0.33253002
1019, 30159184, -0.07948208600282669, -0.7730998992919922, -26.026899337768555, -0.020161299, 0.0078051677, 0.344388
1020, 30175851, -0.079244464635849, -0.7726209163665771, -26.027238845825195, -0.023352355, 0.013956174, 0.34313583
1021, 30192518, -0.07861893624067307, -0.7728667855262756, -26.0269775390625, -0.018062495, 3.7664728E-4, 0.34391785
1022, 30209185, -0.07825708389282227, -0.7722979784011841, -26.02606964111328, 0.0037684843, -0.0029861627, 0.34140873
1023, 30225852, -0.07831507921218872, -0.7718528509140015, -26.027488708496094, -0.011421362, 0.007838075, 0.32657623
1024, 30242519, -0.07832738757133484, -0.7706907987594604, -26.02747344970703, -0.02997753, 0.013585416, 0.3625679
1025, 30259186, -0.07856143265962601, -0.7704945206642151, -26.026430130004883, -0.022138176, 0.010862397, 0.3442278
1026, 30275853, -0.07752122730016708, -0.7708491683006287, -26.026103973388672, -0.007587821, -0.0034633456, 0.3488207
1027, 30292520, -0.07739206403493881, -0.7693812251091003, -26.025848388671875, -0.019794416, 0.015000012, 0.342453
1028, 30309187, -0.0774417445063591, -0.7693162560462952, -26.02402114868164, -0.00876782, 0.0046040737, 0.335392
1029, 30325854, -0.07673867046833038, -0.7694073915481567, -26.02374839782715, -0.02110921, -1.3307926E-4, 0.3309307
1030, 30342521, -0.07837770134210587, -0.7679181694984436, -26.02404022216797, -0.014032943, 0.0019077215, 0.3339119
1031, 30359188, -0.07848417013883591, -0.7672538161277771, -26.024709701538086, -0.029308017, -0.001093558, 0.36052322
1032, 30375855, -0.07823806256055832, -0.7668911218643188, -26.024776458740234, -0.0012406994, -0.0056725945, 0.32691956
1033, 30392522, -0.07767152786254883, -0.7667719721794128, -26.025177001953125, -0.025725637, 0.012107276, 0.3336687
1034, 30409189, -0.07761221379041672, -0.7660518288612366, -26.02464485168457, -0.02197285, 5.2775076E-4, 0.3434372
1035, 30425856, -0.0777282863855362, -0.7655749917030334, -26.02560043334961, -0.007049965, -0.0024744037, 0.3503027
1036, 30442523, -0.07746146619319916, -0.7658866047859192, -26.025012969970703, -0.02917811, -0.0043098587, 0.36222267
1037, 30459190, -0.07798639684915543, -0.7662596702575684, -26.024974822998047, -0.017011771, 0.0213156, 0.34368515
