PacketCounter,SampleTimeFine,Euler_X,Euler_Y,Euler_Z,FreeAcc_X,FreeAcc_Y,FreeAcc_Z
1,90237803,-0.6576877236366272,-0.9225661754608154,-27.19338607788086,-0.001067882,0.0096989395,0.33351517
2,90254470,-0.6544752717018127,-0.9372432827949524,-27.14559936523437,0.0043121725,-0.0007445496,0.3335657
3,90271137,-0.656292200088501,-0.9599419832229614,-27.11762046813965,-0.02100968,0.0013289661,0.32331467
4,90287804,-0.6664828658103943,-0.966617465019226,-27.12044715881348,-0.011598098,0.00020660281,0.34852505
5,90304471,-0.6770395040512085,-0.9749739766120912,-27.075693130493164,-0.009672628,0.010975555,0.3215618
6,90321138,-0.6833075284957886,-0.9828316569328308,-27.076356887817383,-0.012726712,-0.015536721,0.31280422
7,90337805,-0.694315493106842,-0.9952552914619446,-27.051944732666016,-0.010663132,-0.0034621807,0.3193226
8,90354472,-0.7046449780464172,-1.007848858833313,-27.05053329467773,-0.008209379,0.00022755016,0.30875587
9,90371139,-0.7127976417541504,-1.0228567123413086,-27.03486633300781,-0.011958201,0.015899839,0.29442406
10,90387806,-0.7188583612442017,-1.0370752811431885,-27.029268264770508,-0.0138347605,0.008048178,0.33058262
11,90404473,-0.7246541976928711,-1.0525591373443604,-27.03058624267578,-0.006351072,0.01886302,0.33506298
12,90421140,-0.7289149761199951,-1.067746877670288,-27.03402137756348,-0.020286923,0.013373723,0.3290367
13,90437807,-0.7332929968833923,-1.0825930833816528,-27.033557891845703,-0.018212143,0.024010614,0.33824348
14,90454474,-0.7369439005851746,-1.0968936681747437,-27.033510208129883,-0.027944263,0.02882653,0.3237877
15,90471141,-0.7395505309104919,-1.1105375289916992,-27.03800773620605,-0.020831855,0.019364994,0.33595276
16,90487808,-0.7425178289413452,-1.1243469715118408,-27.031782150268555,-0.019837592,0.021646887,0.3289652
17,90504475,-0.7466301321983337,-1.1378690004348757,-27.02951431274414,-0.02656199,0.019289363,0.33057308
18,90521142,-0.7498069405555725,-1.1522977352142334,-27.024526596069336,-0.033956055,0.03076109,0.34622478
19,90537809,-0.7543055415153503,-1.167896389961243,-27.02564811706543,-0.034798946,0.03650925,0.32348728
20,90554476,-0.7587623000144958,-1.1812220811843872,-27.025405883789062,-0.033629555,0.028858554,0.3144207
21,90571143,-0.7636925578117371,-1.194734811782837,-27.02715110778809,-0.028983058,0.042799003,0.3143463
22,90587810,-0.7674196362495422,-1.2089499235153198,-27.03332901000977,-0.031124448,0.03966656,0.3153181
23,90604477,-0.7713190317153931,-1.222169041633606,-27.03235244750977,-0.04923176,0.051291686,0.32844734
24,90621144,-0.7747312784194946,-1.2358721494674685,-27.03072738647461,-0.04344443,0.038857944,0.31665134
25,90637811,-0.7793484330177307,-1.2491092681884766,-27.03129005432129,-0.039863646,0.037079837,0.3169098
26,90654478,-0.7832187414169312,-1.2616430521011353,-27.03093719482422,-0.04806432,0.053703822,0.3239479
27,90671145,-0.7862197756767273,-1.2756985425949097,-27.027082443237305,-0.056611307,0.035512324,0.32962704
28,90687812,-0.7890764474868774,-1.2912766933441162,-27.021432876586918,-0.04847116,0.03771275,0.30322075
29,90704479,-0.7918728590011597,-1.3046891689300537,-27.02143096923828,-0.064642,0.044314012,0.30812263
30,90721146,-0.7946490049362183,-1.318558931350708,-27.018796920776367,-0.052640956,0.043483976,0.32743263
31,90737813,-0.7981891632080078,-1.3312677145004272,-27.020116806030277,-0.06707027,0.03591476,0.34376526
32,90754480,-0.8020700812339783,-1.345521092414856,-27.01642608642578,-0.06368824,0.044946857,0.32632256
33,90771147,-0.8061546683311462,-1.3591458797454834,-27.01815414428711,-0.072450794,0.051712893,0.33068275
34,90787814,-0.8094288110733032,-1.374011516571045,-27.009897232055664,-0.06276773,0.0501989,0.33340168
35,90804481,-0.8132145404815674,-1.3879857063293457,-27.014448165893555,-0.054261707,0.045054346,0.3308859
36,90821148,-0.8172991275787354,-1.403010368347168,-27.020938873291016,-0.061190583,0.04855117,0.34748745
37,90837815,-0.8217043876647949,-1.416253924369812,-27.024433135986328,-0.06340819,0.051651645,0.32056522
38,90854482,-0.8259545564651489,-1.4293872117996216,-27.02891731262207,-0.06058376,0.060527205,0.35007
39,90871149,-0.8306858539581299,-1.4430246353149414,-27.02596664428711,-0.06294357,0.06626136,0.32234764
40,90887816,-0.8348397016525269,-1.4562766551971436,-27.026107788085938,-0.07403848,0.06591535,0.34416008
41,90904483,-0.8387535214424133,-1.4701881408691406,-27.022069931030277,-0.07703169,0.06479885,0.34121704
42,90921150,-0.8423677682876587,-1.4845503568649292,-27.025781631469727,-0.06799952,0.07481409,0.33350086
43,90937817,-0.8464401364326477,-1.4975169897079468,-27.023250579833984,-0.084972605,0.07506044,0.3373108
44,90954484,-0.8502957820892334,-1.5114796161651611,-27.026931762695312,-0.09269102,0.06920031,0.3355484
45,90971151,-0.8534613251686096,-1.5258272886276243,-27.025314331054688,-0.08421617,0.073875606,0.34591198
46,90987818,-0.8579005002975464,-1.5389201641082764,-27.02297019958496,-0.07763851,0.077135816,0.3336048
47,91004485,-0.8609638214111328,-1.553640604019165,-27.025226593017575,-0.08100646,0.07553999,0.3071146
48,91021152,-0.8652246594429016,-1.5673449039459229,-27.031099319458008,-0.083223194,0.077074274,0.33697605
49,91037819,-0.8696907162666321,-1.5813542604446411,-27.027099609375,-0.092846826,0.071502715,0.30861282
50,91054486,-0.8723077178001404,-1.594427466392517,-27.022327423095703,-0.09144278,0.07167885,0.3477955
51,91071153,-0.8762122988700867,-1.6074609756469729,-27.02270126342773,-0.094118506,0.07391337,0.33248806
52,91087820,-0.8783954977989197,-1.6224340200424194,-27.0262393951416,-0.09574401,0.08622524,0.3218031
53,91104487,-0.8825305700302124,-1.6370768547058103,-27.025854110717773,-0.10378837,0.077069946,0.326334
54,91121154,-0.8862679600715637,-1.6495776176452637,-27.028993606567383,-0.10019577,0.08424393,0.33230782
55,91137821,-0.8887813687324524,-1.6622618436813354,-27.02922821044922,-0.11081822,0.09133361,0.34027004
56,91154488,-0.8919581174850464,-1.675788164138794,-27.02963638305664,-0.09969519,0.0864249,0.32550526
57,91171155,-0.8959150910377502,-1.688328742980957,-27.032344818115234,-0.10394413,0.09624378,0.33600426
58,91187822,-0.8993851542472839,-1.7024213075637815,-27.034698486328125,-0.11185526,0.08853164,0.313509
59,91204489,-0.901865541934967,-1.7161710262298584,-27.036279678344727,-0.101922914,0.08643938,0.331419
60,91221156,-0.9051953554153442,-1.729322075843811,-27.035762786865234,-0.107949235,0.09547779,0.34445763
61,91237823,-0.909156858921051,-1.74321711063385,-27.036104202270508,-0.09510381,0.10334799,0.31958008
62,91254490,-0.91267728805542,-1.756572127342224,-27.036531448364254,-0.10613935,0.09339375,0.33654976
63,91271157,-0.9161257147789,-1.7707116603851318,-27.035493850708008,-0.11724706,0.09037347,0.33874607
64,91287824,-0.9200952053070068,-1.7840895652770996,-27.03957176208496,-0.11922903,0.11721176,0.33768845
65,91304491,-0.9242872595787048,-1.796077847480774,-27.04226875305176,-0.12066343,0.10884217,0.32908726
66,91321158,-0.927925169467926,-1.8080123662948608,-27.04082679748535,-0.124285996,0.10267167,0.32400417
67,91337825,-0.9326293468475342,-1.8202345371246336,-27.039737701416016,-0.12992974,0.09813008,0.3372574
68,91354492,-0.9368639588356018,-1.8321396112442017,-27.043132781982425,-0.112729974,0.115849264,0.33564663
69,91371159,-0.9399763941764832,-1.8446441888809204,-27.04449844360352,-0.11604782,0.104921155,0.32463264
70,91387826,-0.9434310793876648,-1.85791540145874,-27.04432487487793,-0.12325615,0.12816937,0.3357668
71,91404493,-0.9467747807502748,-1.870096206665039,-27.04530334472656,-0.1260279,0.11262164,0.35092258
72,91421160,-0.9498202204704284,-1.8825100660324097,-27.0466423034668,-0.12360307,0.121259645,0.33454704
73,91437827,-0.9530216455459596,-1.893553376197815,-27.048070907592773,-0.13072199,0.106359996,0.34391212
74,91454494,-0.9567190408706664,-1.9060389995574951,-27.047452926635746,-0.13516761,0.12602141,0.32366085
75,91471161,-0.9602276086807252,-1.917363286018372,-27.049701690673828,-0.13421662,0.11791469,0.33595085
76,91487828,-0.9638044834136964,-1.9279203414916992,-27.0484619140625,-0.13807723,0.12438409,0.3325367
77,91504495,-0.9665141701698304,-1.9389302730560305,-27.049266815185547,-0.14391802,0.121713504,0.32162285
78,91521162,-0.9694134593009948,-1.9494421482086184,-27.050094604492188,-0.1469839,0.13205136,0.34086704
79,91537829,-0.973060667514801,-1.9591416120529173,-27.050071716308597,-0.16114952,0.1424019,0.30084324
80,91554496,-0.9770349860191344,-1.9708054065704343,-27.054414749145508,-0.13729604,0.13140972,0.3241701
81,91571163,-0.9804124236106871,-1.9816656112670896,-27.056285858154297,-0.15869217,0.12124716,0.3381672
82,91587830,-0.9837945103645324,-1.991711974143982,-27.05712509155273,-0.14348686,0.13423906,0.34170628
83,91604497,-0.9877253770828248,-2.001063823699951,-27.05887985229492,-0.15962546,0.1268315,0.33636093
84,91621164,-0.9913752675056458,-2.0103418827056885,-27.059894561767575,-0.14111525,0.11742665,0.3348961
85,91637831,-0.9941417574882508,-2.021105527877808,-27.06381225585937,-0.1533201,0.13480696,0.35763168
86,91654498,-0.997700035572052,-2.0318524837493896,-27.065683364868164,-0.15521802,0.1264541,0.34219742
87,91671165,-1.0002121925354004,-2.043195962905884,-27.06886863708496,-0.1532316,0.12538934,0.35401726
88,91687832,-1.0029802322387695,-2.05380654335022,-27.070384979248047,-0.14856555,0.13574116,0.3268137
89,91704499,-1.005458950996399,-2.063275098800659,-27.07077980041504,-0.15197068,0.14423916,0.33707428
90,91721166,-1.007862210273743,-2.0724148750305176,-27.07316780090332,-0.15564574,0.14365116,0.34155178
91,91737833,-1.0104573965072632,-2.082226037979126,-27.07810401916504,-0.15237647,0.14325899,0.35542965
92,91754500,-1.0130807161331177,-2.092491626739502,-27.082311630249023,-0.16167638,0.14032412,0.31342697
93,91771167,-1.0155335664749146,-2.102048873901367,-27.08485412597656,-0.1591153,0.15139054,0.33120346
94,91787834,-1.0184413194656372,-2.111059188842773,-27.086259841918945,-0.15443477,0.14444987,0.33421898
95,91804501,-1.0209242105484009,-2.120018482208252,-27.09000968933105,-0.15566419,0.15053771,0.31955624
96,91821168,-1.0233691930770874,-2.129889488220215,-27.09467887878418,-0.16980052,0.16001315,0.31929016
97,91837835,-1.026921033859253,-2.1395747661590576,-27.09884262084961,-0.15723279,0.14347744,0.3474884
98,91854502,-1.029692530632019,-2.148186206817627,-27.10303497314453,-0.1640733,0.14897892,0.31868935
99,91871169,-1.0310031175613403,-2.157087564468384,-27.106443405151367,-0.18405207,0.16333674,0.34500408
100,91887836,-1.033156156539917,-2.166863203048706,-27.11305046081543,-0.15920222,0.14854862,0.31702614
101,91904503,-1.0359026193618774,-2.1757938861846924,-27.11501121520996,-0.1577301,0.16135427,0.33206844
102,91921170,-1.0384918451309204,-2.184889793395996,-27.11856842041016,-0.16086315,0.16395357,0.3270769
103,91937837,-1.0421783924102783,-2.193558931350708,-27.125030517578125,-0.16672555,0.15342057,0.35703945
104,91954504,-1.0443058013916016,-2.200488805770874,-27.129844665527344,-0.16691749,0.15337925,0.32185555
105,91971171,-1.0473437309265137,-2.210610866546631,-27.13517570495605,-0.17546979,0.1559454,0.33111
106,91987838,-1.0506130456924438,-2.219099760055542,-27.14066696166992,-0.17448458,0.16578667,0.32575893
107,92004505,-1.053443431854248,-2.2258801460266118,-27.144088745117188,-0.17385866,0.1625346,0.31433582
108,92021172,-1.0554100275039673,-2.234178304672241,-27.150108337402344,-0.1832062,0.16659804,0.32072258
109,92037839,-1.0562973022460938,-2.2407946586608887,-27.155128479003903,-0.17283152,0.1485218,0.32450294
110,92054506,-1.058581829071045,-2.248498916625977,-27.160276412963867,-0.17014778,0.15855888,0.32801437
111,92071173,-1.0612443685531616,-2.2575905323028564,-27.16390419006348,-0.17208615,0.16039155,0.33877754
112,92087840,-1.06288480758667,-2.2638919353485107,-27.166845321655277,-0.18197024,0.16806191,0.31986523
113,92104507,-1.0644378662109375,-2.2693018913269043,-27.171594619750977,-0.17858073,0.15736352,0.32632256
114,92121174,-1.0659606456756592,-2.2748563289642334,-27.176231384277344,-0.18436293,0.17808785,0.3367052
115,92137841,-1.0679903030395508,-2.2809572219848637,-27.17795181274414,-0.1737007,0.1712838,0.34071827
116,92154508,-1.0695525407791138,-2.287524461746216,-27.179243087768555,-0.18486522,0.17309506,0.31878376
117,92171175,-1.07167649269104,-2.293928623199463,-27.18836212158203,-0.16860698,0.16377525,0.3318882
118,92187842,-1.0725542306900024,-2.29929780960083,-27.194002151489254,-0.18536529,0.16901377,0.31903744
119,92204509,-1.0734481811523438,-2.306272029876709,-27.19778823852539,-0.19035432,0.16759354,0.32930088
120,92221176,-0.6950933933258057,-0.8899795413017273,-27.454648971557617,0.012630138,0.002148239,0.34643555
121,92237843,-0.6957987546920776,-0.8893348574638367,-27.454078674316406,0.0041037467,0.0011453503,0.3251829
122,92254510,-0.6947159171104431,-0.8888250589370728,-27.45211410522461,0.008582283,0.0038509467,0.365798
123,92271177,-0.6950375437736511,-0.8888455629348755,-27.44975852966309,0.0149777355,0.0035663936,0.3253336
124,92287844,-0.6947087645530701,-0.8890300393104553,-27.44906044006348,0.0049983086,-0.011479095,0.33585453
125,92304511,-0.6952676177024841,-0.8891885876655579,-27.447303771972656,-0.0042250166,0.006820428,0.34769344
126,92321178,-0.6963267922401428,-0.8890241384506226,-27.44644546508789,-0.0012352653,-0.0015980478,0.32384777
127,92337845,-0.6974040269851685,-0.8893792033195496,-27.445148468017575,0.00013822879,-0.003529472,0.3227806
128,92354512,-0.6978809833526611,-0.8883646130561829,-27.443023681640625,-0.0037542633,0.010874967,0.3200798
129,92371179,-0.6976416707038879,-0.887856662273407,-27.441747665405277,-0.0039896853,-0.0018445756,0.34424496
130,92387846,-0.6971459984779358,-0.8898939490318298,-27.44020271301269,0.011244245,-0.0018391694,0.3432684
131,92404513,-0.6969653367996216,-0.8898987770080566,-27.43857192993164,-0.0042868666,-0.002063262,0.3353796
132,92421180,-0.6961355209350586,-0.887680172920227,-27.43744659423828,0.009699219,0.0010264693,0.33244324
133,92437847,-0.6964747309684753,-0.8875533938407898,-27.43550109863281,-0.0053898296,-0.011008516,0.3327942
134,92454514,-0.6980553865432739,-0.8862805962562561,-27.43447494506836,0.0021004141,-0.008540353,0.31767368
135,92471181,-0.6982762813568115,-0.8850928544998169,-27.431659698486328,0.010982114,-0.004063724,0.3235464
136,92487848,-0.6990877389907837,-0.8857455849647522,-27.42897605895996,0.006767134,0.012164881,0.36166954
137,92504515,-0.6992596387863159,-0.8855449557304382,-27.42734718322754,-0.0056117326,0.008639446,0.32449818
138,92521182,-0.6979732513427734,-0.8857223987579346,-27.425460815429688,0.008300531,-0.00032602157,0.30548763
139,92537849,-0.6979236602783203,-0.8863377571105957,-27.42399406433105,0.007918491,0.003658446,0.3107977
140,92554516,-0.6979601383209229,-0.8861643671989441,-27.422393798828125,-0.0013897826,0.005407281,0.3567276
141,92571183,-0.6980219483375549,-0.8852240443229675,-27.421226501464844,0.0136683835,-0.0026914033,0.32359695
142,92587850,-0.6972993612289429,-0.8857109546661377,-27.421390533447266,0.00140883,-0.0033734113,0.32960987
143,92604517,-0.6965394020080566,-0.8853431344032288,-27.41989517211914,0.009697438,0.0026293576,0.35312653
144,92621184,-0.6956555843353271,-0.8863295316696167,-27.41832160949707,0.0156138465,0.0012316542,0.32042885
145,92637851,-0.6966727375984192,-0.886947751045227,-27.41686248779297,-0.004517986,-0.0033306852,0.339159
146,92654518,-0.6968090534210205,-0.8880947828292847,-27.4132080078125,0.003870476,-0.0031090023,0.3329277
147,92671185,-0.6972860097885132,-0.8884995579719543,-27.41305923461914,0.012717433,0.0010427787,0.36817265
148,92687852,-0.6966812610626221,-0.8885235786437988,-27.41258811950684,-0.0032111758,0.002757179,0.34369087
149,92704519,-0.6966681480407715,-0.8886594772338867,-27.41192054748535,0.0043544723,0.018444758,0.34653664
150,92721186,-0.6976141333580017,-0.8887496590614319,-27.40898704528809,-0.008168148,0.005281332,0.34401226
151,92737853,-0.6973410248756409,-0.8874452114105225,-27.407615661621094,0.0011912822,0.003436281,0.33734417
152,92754520,-0.6972160339355469,-0.8881970643997192,-27.405662536621094,-0.011757616,-0.010123621,0.33700657
153,92771187,-0.6962957978248596,-0.8887340426445007,-27.4053897857666,-0.003260558,0.0040831347,0.34026432
154,92787854,-0.6960498690605164,-0.8903984427452087,-27.40345764160156,0.015794745,0.0026010831,0.3626051
155,92804521,-0.6958398818969727,-0.890304684638977,-27.40283203125,0.0054127644,0.0033511927,0.32960606
156,92821188,-0.6961489319801331,-0.8901258111000061,-27.40264320373535,0.0048809154,0.0063226367,0.33533955
157,92837855,-0.6957147717475891,-0.8893178701400757,-27.4011344909668,-0.0074608065,-0.007326685,0.34569454
158,92854522,-0.6953224539756775,-0.8893566727638245,-27.398683547973636,0.0043424517,-0.014150207,0.32181263
159,92871189,-0.6957941651344299,-0.888226330280304,-27.39750862121582,0.008291171,0.0031047207,0.32429218
160,92887856,-0.6962112188339233,-0.8872869610786438,-27.395116806030277,0.019017516,0.0013775872,0.3088131
161,92904523,-0.6958434581756592,-0.8871393203735352,-27.39364624023437,0.004117842,-0.011202141,0.31123543
162,92921190,-0.6945610642433167,-0.8885456919670105,-27.39357566833496,-0.005116903,-0.0029064508,0.35092735
163,92937857,-0.6946070194244385,-0.8885312080383301,-27.39100646972656,0.0031017032,0.009063702,0.34489155
164,92954524,-0.6949882507324219,-0.8867159485816956,-27.389434814453125,0.0062621487,-0.004866359,0.3341303
165,92971191,-0.6948660612106323,-0.8875959515571594,-27.38830947875977,0.008229161,-0.010159097,0.33891487
166,92987858,-0.6942019462585449,-0.8870843052864075,-27.38427352905273,0.0041776807,-0.012587363,0.32410526
167,93004525,-0.6941233277320862,-0.8877243399620056,-27.38258171081543,-0.008625955,-0.011167231,0.34180737
168,93021192,-0.6936997175216675,-0.8879074454307556,-27.38068199157715,0.0128473155,0.0032726626,0.3399744
169,93037859,-0.692437469959259,-0.8876859545707703,-27.379640579223636,0.0007052043,-0.004740144,0.32221794
170,93054526,-0.6923589706420898,-0.8858250975608826,-27.378246307373047,0.015891414,-0.017128315,0.3459425
171,93071193,-0.6918660402297974,-0.8853278756141663,-27.376813888549805,0.0048813485,-0.010946686,0.34186268
172,93087860,-0.6919558644294739,-0.8858071565628052,-27.376914978027344,0.0136449,-0.0054552946,0.3376379
173,93104527,-0.6917336583137512,-0.8849989771842957,-27.375133514404297,-0.0076053008,-0.007693609,0.34466457
174,93121194,-0.6911401152610779,-0.8853275179862976,-27.372705459594727,0.0043621487,-0.0043561277,0.33861923
175,93137861,-0.691582441329956,-0.883996844291687,-27.37283515930176,-0.003237606,-0.002190392,0.30206013
176,93154528,-0.6927199363708496,-0.8840133547782898,-27.37109375,-0.0056651942,-0.0109904185,0.32993317
177,93171195,-0.6923822164535522,-0.8844090700149536,-27.368614196777344,-0.0040036235,-0.00063916325,0.3320856
178,93187862,-0.6917634606361389,-0.8831622004508972,-27.367319107055664,0.002618133,-0.016207868,0.31895256
179,93204529,-0.690876305103302,-0.880821704864502,-27.3642635345459,-0.0037418373,-0.00033094586,0.33782387
180,93221196,-0.6897416114807129,-0.8805072903633118,-27.365036010742188,0.010306168,0.0001410297,0.3165264
181,93237863,-0.6900878548622131,-0.8793506026268005,-27.36471176147461,0.016436465,-0.002624056,0.34349728
182,93254530,-0.6898834109306335,-0.8798160552978516,-27.364295959472656,-0.012927605,-0.017473182,0.3214264
183,93271197,-0.6900727152824402,-0.8800857067108154,-27.362659454345703,0.0033976135,-0.008020714,0.34450054
184,93287864,-0.6891471743583679,-0.8802130222320557,-27.362592697143555,0.010330839,-0.0045915917,0.33300877
185,93304531,-0.6887605786323547,-0.8794784545898438,-27.36232185363769,0.0118993195,0.0031141012,0.3260975
186,93321198,-0.6888524889945984,-0.8779005408287048,-27.361818313598636,0.01191067,-0.008346945,0.32812977
187,93337865,-0.689242959022522,-0.8775646686553955,-27.36139678955078,-0.0045255856,-0.010071717,0.30797958
188,93354532,-0.6891948580741882,-0.8776930570602417,-27.361591339111328,0.004177646,-0.0006759451,0.324749
189,93371199,-0.6896196603775024,-0.8778284788131714,-27.360679626464844,-0.00492888,-0.004965976,0.34452438
190,93387866,-0.6898462772369385,-0.8787781000137329,-27.3597469329834,0.004022549,-0.011284618,0.32390404
191,93404533,-0.6899440884590149,-0.8769050240516663,-27.358135223388672,0.0059844824,-0.0019158622,0.337327
192,93421200,-0.6906085014343262,-0.8758475184440613,-27.357336044311523,0.011142652,-0.006196191,0.31603622
193,93437867,-0.6905497908592224,-0.8757970929145813,-27.35548210144043,-0.003899938,-0.015082549,0.32820892
194,93454534,-0.6898356676101685,-0.8760518431663513,-27.355937957763672,-0.014987811,-0.005493501,0.32161713
195,93471201,-0.6898674964904785,-0.8752790689468384,-27.354490280151367,0.009900311,-0.0017781084,0.34465027
196,93487868,-0.6893025636672974,-0.8766793608665466,-27.354267120361328,-0.0023378269,0.006311,0.3438301
197,93504535,-0.6896857023239136,-0.8776879906654358,-27.353445053100582,0.0036669467,0.010449231,0.342453
198,93521202,-0.6897066831588745,-0.8767659664154053,-27.352243423461918,0.0124709895,-0.005825069,0.3137436
199,93537869,-0.689759373664856,-0.8766567707061768,-27.350379943847656,0.01028668,-0.01222655,0.3489437
200,93554536,-0.6892907619476318,-0.8754355907440186,-27.35029602050781,0.0023807134,0.0018340704,0.32575512
201,93571203,-0.6896915435791016,-0.8769468069076538,-27.350419998168945,-0.008856834,0.002023826,0.33922482
202,93587870,-0.6893621683120728,-0.8753937482833862,-27.3483829498291,0.0073081823,0.00083322835,0.32516766
203,93604537,-0.6882723569869995,-0.87542325258255,-27.34743309020996,0.025086591,-0.0030948722,0.33502102
204,93621204,-0.6881073713302612,-0.874077320098877,-27.34642601013184,0.017501386,-0.0013868699,0.3327856
205,93637871,-0.6882901191711426,-0.8743782639503479,-27.34442710876465,0.004712219,0.0024693012,0.33980083
206,93654538,-0.6888426542282104,-0.8739150762557983,-27.3442497253418,0.0034139787,-0.011591165,0.32591724
207,93671205,-0.6888563632965088,-0.8755193948745728,-27.34311294555664,0.004510331,-0.00033076425,0.32468414
208,93687872,-0.6881031394004822,-0.8763962984085083,-27.34106063842773,0.0044283294,0.009165547,0.3425808
209,93704539,-0.6878073215484619,-0.8758155703544617,-27.33971405029297,0.015731966,-0.0036723108,0.33967876
210,93721206,-0.6872907280921936,-0.8756389617919922,-27.338905334472656,0.0006610675,-0.010159747,0.319252
211,93737873,-0.6878685355186462,-0.8763152956962585,-27.337989807128903,0.005109115,-0.011799025,0.34838772
212,93754540,-0.6876150965690613,-0.8754032850265503,-27.33611869812012,0.013174119,-0.0127914855,0.3411379
213,93771207,-0.6870826482772827,-0.8743982911109924,-27.335613250732425,0.011573088,-0.011040709,0.3323717
214,93787874,-0.6872555017471313,-0.8741828799247742,-27.336360931396484,-0.0023124197,0.0029579564,0.34565735
215,93804541,-0.6871016025543213,-0.8742790818214417,-27.334232330322266,-0.010843033,-0.0051998263,0.3252926
216,93821208,-0.6866983771324158,-0.8737890720367432,-27.332687377929688,-0.0113586495,0.0050924774,0.3365078
217,93837875,-0.687160313129425,-0.8736685514450073,-27.332061767578125,0.0112807825,0.002767789,0.3174572
218,93854542,-0.6863465905189514,-0.872649073600769,-27.332210540771484,0.01314977,-0.009415644,0.3190136
219,93871209,-0.6858805418014526,-0.8718942403793335,-27.33163070678711,0.017238898,-0.011839754,0.35435295
220,93887876,-0.6854808926582336,-0.8732863068580627,-27.330656051635746,0.018345188,-0.010561784,0.31924343
221,93904543,-0.6861065626144409,-0.8737988471984863,-27.32948112487793,-0.0066485605,-0.008735717,0.33227253
222,93921210,-0.6866502165794373,-0.8742268681526184,-27.327625274658203,0.0044192565,-0.0009241772,0.32672215
223,93937877,-0.6869685649871826,-0.8749160170555115,-27.326913833618164,0.006814386,-0.015980743,0.30429935
224,93954544,-0.6863662600517273,-0.8758949637413025,-27.32654571533203,0.0026379838,-0.010639817,0.32532692
225,93971211,-0.6870496273040771,-0.8760321140289307,-27.326269149780277,0.011239964,0.00052508083,0.31290722
226,93987878,-0.6871753931045532,-0.8754673600196838,-27.324838638305664,-0.001968077,-0.012143941,0.32950687
227,94004545,-0.6872212290763855,-0.8762638568878174,-27.323434829711918,0.009482062,3.085876e-05,0.34434414
228,94021212,-0.6878452301025391,-0.8771486282348633,-27.321964263916016,0.009091592,0.0009095161,0.31983948
229,94037879,-0.6876079440116882,-0.8757196068763733,-27.322694778442383,0.015652074,-0.001653465,0.3391466
230,94054546,-0.6879013776779175,-0.8746852278709412,-27.32148742675781,0.00979123,-0.0069097984,0.31670475
231,94071213,-0.6892918944358826,-0.8742297291755676,-27.31944465637207,-0.0036402752,0.005430415,0.33499527
232,94087880,-0.6899648308753967,-0.8745384216308594,-27.318998336791992,0.006735081,-0.0152754905,0.32453156
233,94104547,-0.6903833746910095,-0.8749423623085022,-27.31843376159668,-0.017703183,-0.009676351,0.32731342
234,94121214,-0.6899355053901672,-0.8751950263977051,-27.318004608154297,0.01649017,-0.0059013497,0.33656788
235,94137881,-0.6901648640632629,-0.8741446137428284,-27.316478729248047,0.011851236,-0.01457271,0.33378792
236,94154548,-0.6901958584785461,-0.8725802898406982,-27.315841674804688,-0.010769734,-0.0022136443,0.34834766
237,94171215,-0.6903572082519531,-0.8703700304031372,-27.316104888916016,0.011358069,-0.0029047953,0.3450737
238,94187882,-0.6902868747711182,-0.8705636858940125,-27.315452575683597,0.0046342965,0.0041328734,0.34244347
239,94204549,-0.6902050375938416,-0.870188295841217,-27.31547737121582,0.0028201188,0.0058962856,0.32721424
240,94221216,-0.6929470300674438,-0.8833590745925903,-27.3186149597168,-0.002947315,-0.0020335,0.3490429
241,94237883,-0.6933513283729553,-0.8841387629508972,-27.31744766235352,0.0033160243,-0.007459654,0.33720112
242,94254550,-0.6930828094482422,-0.885897159576416,-27.317890167236328,0.0011695105,-0.018759834,0.32255077
243,94271217,-0.6936912536621094,-0.8866362571716309,-27.31692314147949,-0.0026088676,-0.018878497,0.32631588
244,94287884,-0.6931169033050537,-0.8863744735717773,-27.31647491455078,0.002981495,-0.005209626,0.31442738
245,94304551,-0.6918647289276123,-0.886277437210083,-27.31716537475586,0.001442392,-0.01322237,0.34174633
246,94321218,-0.6914096474647522,-0.8860920071601868,-27.316909790039062,0.0022723794,0.00216656,0.33320904
247,94337885,-0.6926988959312439,-0.88512122631073,-27.31647491455078,-0.0051878756,0.00043524257,0.31154537
248,94354552,-0.6940654516220093,-0.886538565158844,-27.31654167175293,-0.015779532,-0.0058790543,0.32820034
249,94371219,-0.6943666934967041,-0.8861706256866455,-27.313949584960938,-0.009978442,-0.002817297,0.33693218
250,94387886,-0.6947928667068481,-0.8858729600906372,-27.314512252807617,-0.009151469,-0.0053764293,0.3412037
251,94404553,-0.694323718547821,-0.8850423097610474,-27.313873291015625,-0.0005843886,-0.010451536,0.33022404
252,94421220,-0.693762481212616,-0.883753776550293,-27.313566207885746,0.0059569837,0.0036421646,0.31152344
253,94437887,-0.6937404274940491,-0.885161280632019,-27.31319808959961,0.007784977,-0.008324685,0.32944298
254,94454554,-0.6927472949028015,-0.88520747423172,-27.312997817993164,0.0009061634,-0.010643925,0.33953285
255,94471221,-0.6924669146537781,-0.8847684264183044,-27.31227302551269,-0.0018015493,-0.0077288267,0.33382988
256,94487888,-0.6926208734512329,-0.8841724991798401,-27.31103134155273,-0.0016618258,-0.0010735537,0.3154955
257,94504555,-0.6931549310684204,-0.8847489953041077,-27.309160232543945,0.004443682,-0.004245957,0.32611275
258,94521222,-0.6941157579421997,-0.8851425051689148,-27.30802154541016,-0.0043925536,0.0020363985,0.31672668
259,94537889,-0.6945790648460388,-0.8849208950996399,-27.308330535888672,-0.002976351,-0.0016778768,0.32397842
260,94554556,-0.6959653496742249,-0.8857223391532898,-27.307992935180664,-0.0123752,-0.006005444,0.34107018
261,94571223,-0.6963266730308533,-0.8858097195625305,-27.30707550048828,0.0014664825,-0.0056707403,0.32269955
262,94587890,-0.6976459622383118,-0.8869803547859192,-27.3055477142334,-0.005451509,-0.0069022966,0.31401348
263,94604557,-0.6980969309806824,-0.8864381909370422,-27.304954528808597,-0.00045622487,-0.011775899,0.3357582
264,94621224,-0.6986197233200073,-0.8862813115119934,-27.30449485778809,-0.0021683131,-0.0058453595,0.31468773
265,94637891,-0.6982693672180176,-0.8878942131996155,-27.303123474121094,-0.00026973823,-0.007062695,0.3306322
266,94654558,-0.6989464163780212,-0.8875843286514282,-27.30374336242676,0.0071134046,-0.0028314411,0.31852722
267,94671225,-0.6983718276023865,-0.8880259394645691,-27.30250358581543,-0.0057915873,0.0058322353,0.32765198
268,94687892,-0.698492705821991,-0.8877533078193665,-27.30184936523437,0.014005287,0.0089342175,0.33146572
269,94704559,-0.6985893845558167,-0.8884428143501282,-27.301288604736328,-0.0016444931,-0.0012985334,0.3382511
270,94721226,-0.6992831230163574,-0.8883570432662964,-27.30051612854004,0.0018540609,0.002372604,0.335351
271,94737893,-0.6995309591293335,-0.886295735836029,-27.299760818481445,-0.003861574,-0.0019566952,0.33238316
272,94754560,-0.6986041069030762,-0.8872941136360168,-27.299650192260746,-0.0063429903,-0.008715588,0.32100773
273,94771227,-0.6979485154151917,-0.8878152966499329,-27.299789428710938,0.01146692,-0.0020386057,0.3000021
274,94787894,-0.6971175670623779,-0.8867992162704468,-27.299888610839844,0.00614229,-0.004084888,0.33756065
275,94804561,-0.6967362761497498,-0.8872717618942261,-27.30050277709961,0.0039983955,-0.007893262,0.32844543
276,94821228,-0.6964216828346252,-0.8868676424026489,-27.29991149902344,-0.0063962843,-0.013574634,0.334589
277,94837895,-0.6960790157318115,-0.8874872326850891,-27.29941749572754,-0.006021404,-0.007278399,0.35454464
278,94854562,-0.6960477828979492,-0.8894296288490295,-27.29851722717285,-0.006948983,0.005549149,0.32212734
279,94871229,-0.6949544548988342,-0.8907526135444641,-27.298828125,0.0021212148,-0.005188595,0.31166172
280,94887896,-0.6942360401153564,-0.8889914155006409,-27.298810958862305,0.001909562,-0.0053458293,0.3307619
281,94904563,-0.6947007179260254,-0.8877949714660645,-27.298871994018555,0.002903112,-0.020599505,0.33292675
282,94921230,-0.6938008069992065,-0.8877586722373962,-27.297401428222656,-0.009980674,-0.014224302,0.32616615
283,94937897,-0.6946150660514832,-0.8878780603408813,-27.29697799682617,-0.0011861344,-0.003900881,0.33483124
284,94954564,-0.6952396035194397,-0.8882538080215454,-27.297653198242188,0.0025783547,0.0012889783,0.3065033
285,94971231,-0.695405125617981,-0.8888002038002014,-27.29636573791504,-0.007405229,-0.0037156933,0.3224697
286,94987898,-0.6952265501022339,-0.8888266086578369,-27.294248580932617,-0.0031828873,-0.006182927,0.32584667
287,95004565,-0.6948832273483276,-0.8885816335678101,-27.293701171875,0.0017907788,0.009740632,0.35177994
288,95021232,-0.6944531202316284,-0.8891208171844482,-27.293621063232425,0.0045140674,-0.013758661,0.32728386
289,95037899,-0.6937953233718872,-0.8876081109046936,-27.29269218444824,-0.008928114,0.0032177763,0.35441303
290,95054566,-0.6943488121032715,-0.8883798718452454,-27.29292678833008,0.003344131,-0.014013794,0.3335724
291,95071233,-0.6946509480476379,-0.8899480104446411,-27.29251480102539,0.0034476663,-0.0085717635,0.32381725
292,95087900,-0.6943608522415161,-0.8890213966369629,-27.29237365722656,0.00092713174,-0.013635876,0.3363762
293,95104567,-0.6950994729995728,-0.8881826400756836,-27.29351234436035,0.004558456,-0.0018299494,0.36566448
294,95121234,-0.6957828402519226,-0.8887902498245239,-27.293819427490234,0.0021819056,-0.0052414695,0.34207344
295,95137901,-0.696012020111084,-0.88734370470047,-27.29408264160156,0.0022186385,0.00012437797,0.33117676
296,95154568,-0.6962245106697083,-0.8874001502990723,-27.29279136657715,0.006801925,-0.005793903,0.3267889
297,95171235,-0.6955321431159973,-0.8871937394142151,-27.29104232788086,0.008927505,0.009242093,0.3352623
298,95187902,-0.6963347792625427,-0.8875916004180908,-27.29118156433105,-0.0014640099,0.00023463971,0.33604717
299,95204569,-0.6958569884300232,-0.8877876400947571,-27.291616439819336,0.008719499,0.010947357,0.3204403
300,95221236,-0.6950392723083496,-0.8865017890930176,-27.291826248168945,0.00072080834,0.0025740939,0.32352352
301,95237903,-0.6942369341850281,-0.8857002854347229,-27.29277610778809,0.012062896,-0.009772015,0.33430576
302,95254570,-0.6938785910606384,-0.8850979804992676,-27.292131423950195,0.006062321,-0.0035054933,0.34587097
303,95271237,-0.6942324042320251,-0.8848249316215515,-27.29039764404297,-0.0046650297,-0.002094938,0.36163425
304,95287904,-0.6942681074142456,-0.8846553564071655,-27.290218353271484,0.0036536965,-0.006261995,0.32677746
305,95304571,-0.6946610808372498,-0.8847852349281311,-27.289569854736328,0.018133005,0.0046889805,0.30788326
306,95321238,-0.6949319243431091,-0.8852288126945496,-27.28995513916016,0.008085372,0.0058109947,0.3402977
307,95337905,-0.6942689418792725,-0.8859177231788635,-27.289857864379883,0.012217847,0.010274786,0.32928276
308,95354572,-0.6931857466697693,-0.8837141394615173,-27.288036346435547,0.019477632,0.006128858,0.33217812
309,95371239,-0.6932060122489929,-0.8845091462135315,-27.287939071655277,0.004741157,0.0059859143,0.34408092
310,95387906,-0.692935049533844,-0.8842993974685669,-27.287446975708008,0.006567956,-0.007173788,0.34009743
311,95404573,-0.692839503288269,-0.8848575949668884,-27.287464141845703,-0.0063737165,0.010490225,0.3320675
312,95421240,-0.6927815675735474,-0.8847705125808716,-27.28607749938965,0.0034100814,0.008529052,0.32440376
313,95437907,-0.6927951574325562,-0.8835943937301636,-27.28640365600586,0.0054669455,0.00037903606,0.32754517
314,95454574,-0.6930751204490662,-0.8846951723098755,-27.28639793395996,0.0027028094,-0.02393675,0.3438549
315,95471241,-0.6934149265289307,-0.8842718005180359,-27.285383224487305,-0.0028613291,-0.011096392,0.3222885
316,95487908,-0.6927627325057983,-0.8836972117424011,-27.284603118896484,0.003831117,0.005137257,0.346776
317,95504575,-0.6917268633842468,-0.8843769431114197,-27.2837028503418,0.011033339,-0.0015587305,0.30773544
318,95521242,-0.6919045448303223,-0.8847209215164185,-27.28350257873535,-0.005180737,-0.0072525134,0.34935474
319,95537909,-0.6908260583877563,-0.8837845325469971,-27.281709671020508,-0.000112950875,0.0014321941,0.35138035
320,95554576,-0.6910697817802429,-0.8833299875259399,-27.281658172607425,0.0040465347,-0.0014279474,0.33035374
321,95571243,-0.6915069818496704,-0.8838963508605957,-27.28156089782715,0.016042775,-0.0126359975,0.31136608
322,95587910,-0.6917808055877686,-0.8826563954353333,-27.28000831604004,0.012764636,-0.005187596,0.34361744
323,95604577,-0.6918341517448425,-0.8820070028305054,-27.27857780456543,-0.014387997,-0.008405722,0.32163906
324,95621244,-0.6909856200218201,-0.8821966052055359,-27.276573181152344,0.00063250674,-0.012113927,0.32175922
325,95637911,-0.6904485821723938,-0.8822822570800781,-27.27573585510254,0.0057779495,-0.0044141505,0.32911396
326,95654578,-0.6907121539115906,-0.8843646049499512,-27.275224685668945,-0.0006410491,-0.005395596,0.31125832
327,95671245,-0.6897488832473755,-0.8843554258346558,-27.27542304992676,0.0123544205,-0.010490231,0.3346367
328,95687912,-0.69007807970047,-0.8835206031799316,-27.273822784423828,-0.00033054073,0.007846289,0.32816887
329,95704579,-0.6906309127807617,-0.8837824463844299,-27.2742977142334,0.0066832886,-0.009769347,0.31758595
330,95721246,-0.6895626783370972,-0.8830336332321167,-27.273876190185547,0.010037646,0.0041680695,0.33153057
331,95737913,-0.6890106201171875,-0.8826204538345337,-27.27356719970703,-0.0050946707,-0.008460483,0.32147026
332,95754580,-0.6883174180984497,-0.882932186126709,-27.27287101745605,0.02062076,-0.002793004,0.3070736
333,95771247,-0.6880934238433838,-0.8826376795768738,-27.272140502929688,-0.0053277877,-0.024737652,0.324399
334,95787914,-0.6878135800361633,-0.8823768496513367,-27.270923614501957,-0.0035590632,-0.004540351,0.33057213
335,95804581,-0.6868737936019897,-0.8831402659416199,-27.27135467529297,0.006290667,-0.007178831,0.34383965
336,95821248,-0.6864563822746277,-0.8829580545425415,-27.27028465270996,-0.0020823304,-0.01262735,0.32549667
337,95837915,-0.686203122138977,-0.8838376402854919,-27.27138900756836,-0.006735849,0.0012807013,0.33786583
338,95854582,-0.6859989762306213,-0.8836328983306885,-27.27044677734375,0.016062899,-0.001821484,0.34369755
339,95871249,-0.6872943639755249,-0.8836632966995239,-27.27116584777832,0.0073410105,0.00029796374,0.3335476
340,95887916,-0.6881942749023438,-0.8834112286567688,-27.27012634277344,-0.00042533118,-0.00934215,0.33413124
341,95904583,-0.68837970495224,-0.8834936022758484,-27.269899368286133,0.0038972977,0.0006327442,0.33090305
342,95921250,-0.6878277659416199,-0.8830233812332153,-27.269813537597656,-0.007146362,0.0038413426,0.3147955
343,95937917,-0.6882250905036926,-0.8823444843292236,-27.26987838745117,0.01005348,-0.009939859,0.3394661
344,95954584,-0.6890215873718262,-0.8822115659713745,-27.27008056640625,-0.0063453303,0.0010217406,0.3283682
345,95971251,-0.6895342469215393,-0.882259726524353,-27.26973533630371,-0.001980866,-0.0009113461,0.33239555
346,95987918,-0.6895837187767029,-0.8835303783416748,-27.27031517028809,0.014605077,-0.0017611075,0.33329105
347,96004585,-0.6905922293663025,-0.8836314678192139,-27.26972770690918,-0.0071153394,-0.0114435,0.30978012
348,96021252,-0.6912944316864014,-0.8836829662322998,-27.267980575561523,-0.0075007733,-0.016025215,0.339221
349,96037919,-0.6919553279876709,-0.8842617273330688,-27.26628875732422,-0.012121327,-0.0067444895,0.34704304
350,96054586,-0.6913759112358093,-0.8843129873275757,-27.265771865844727,0.007030321,-0.015573768,0.32312012
351,96071253,-0.6897093057632446,-0.8845794796943665,-27.267274856567383,0.0072080903,-0.0037891732,0.3302269
352,96087920,-0.6903195977210999,-0.8845999240875244,-27.26694869995117,-0.0022023988,-0.014876016,0.3365965
353,96104587,-0.6896579265594482,-0.8853495121002197,-27.26548767089844,-0.0030822193,-0.011129653,0.31285954
354,96121254,-0.6888046264648438,-0.8850545287132263,-27.265111923217773,-0.000111756475,-0.018952578,0.3470745
355,96137921,-0.6890534162521362,-0.8853442668914795,-27.264568328857425,-0.010919823,0.0032741854,0.3381796
356,96154588,-0.6892480850219727,-0.885457456111908,-27.263893127441406,0.0016772761,-0.005812783,0.33565617
357,96171255,-0.6899075508117676,-0.8861620426177979,-27.26216506958008,0.0074548693,0.0019808835,0.34621716
358,96187922,-0.689858078956604,-0.8850653171539307,-27.261962890625,-0.016755592,-0.0064654616,0.34540176
359,96204589,-0.6903656721115112,-0.8849917054176331,-27.26287269592285,-0.013653516,-0.014979496,0.31092072
360,96221256,-0.6931586861610413,-0.8856782913208008,-27.27420997619629,0.0027109608,-0.0076358523,0.34236908
361,96237923,-0.6934840679168701,-0.8862601518630981,-27.274398803710938,0.0013769725,-0.0022281099,0.31327343
362,96254590,-0.693588137626648,-0.8868631720542908,-27.274370193481445,0.0010481081,-0.008719059,0.32767487
363,96271257,-0.6937524080276489,-0.8883847594261169,-27.27346611022949,0.0050414326,-0.0025558637,0.32361126
364,96287924,-0.6939943432807922,-0.8872706294059753,-27.27391815185547,0.008807011,0.0009781695,0.3341713
365,96304591,-0.6932013034820557,-0.886938750743866,-27.274171829223636,-0.0010702917,0.002950797,0.31858158
366,96321258,-0.6928886771202087,-0.8864163160324097,-27.27346611022949,-0.004030012,-0.005583689,0.3348627
367,96337925,-0.6935806274414062,-0.8868168592453003,-27.273033142089844,0.0021805086,-0.009407598,0.33315086
368,96354592,-0.6936981678009033,-0.8880906701087952,-27.273637771606445,-0.00016264759,-0.011691767,0.34491444
369,96371259,-0.6941972970962524,-0.8887606859207153,-27.27353286743164,-0.008926007,0.00013558156,0.33634663
370,96387926,-0.6941970586776733,-0.8885456919670105,-27.27317237854004,-0.00069511833,0.014238586,0.3336439
371,96404593,-0.6948692202568054,-0.8879110217094421,-27.27272605895996,-0.010325852,-0.0029231024,0.33808804
372,96421260,-0.6955865621566772,-0.8895817399024963,-27.27342796325684,-0.0060072425,-0.011810886,0.34445953
373,96437927,-0.6955651044845581,-0.8874170184135437,-27.27322196960449,0.009694874,-0.011331939,0.34801674
374,96454594,-0.6961596608161926,-0.8873282074928284,-27.273828506469727,0.010212321,-0.012291669,0.3414774
375,96471261,-0.6960272789001465,-0.8862140774726868,-27.272581100463867,-0.0033962864,0.0020679,0.3322363
376,96487928,-0.6954739093780518,-0.8868808746337891,-27.271875381469727,0.010885109,-0.0066847974,0.33633423
377,96504595,-0.6960631012916565,-0.8856559991836548,-27.270835876464844,-0.0035008485,0.0012156102,0.3174429
378,96521262,-0.6968050003051758,-0.8851794004440308,-27.27014541625977,-0.009630202,-0.020199075,0.3409052
379,96537929,-0.6968465447425842,-0.8860617280006409,-27.270227432250977,0.0030583837,-0.0024054395,0.3447895
380,96554596,-0.6976003050804138,-0.8861995935440063,-27.270612716674805,-0.010789959,-0.011639221,0.32025623
381,96571263,-0.6983166337013245,-0.8873414993286133,-27.27014541625977,-0.0006424461,0.0010531301,0.32032776
382,96587930,-0.6972926259040833,-0.888527512550354,-27.27078437805176,0.008477127,-0.00436759,0.33595657
383,96604597,-0.6973901987075806,-0.8890077471733093,-27.27015686035156,-0.0065463698,0.0006719498,0.3196869
384,96621264,-0.6982797980308533,-0.8899612426757812,-27.27015686035156,-0.0068273954,-0.0065218564,0.35393143
385,96637931,-0.698547899723053,-0.8896356821060181,-27.27078056335449,0.012714269,-0.009973337,0.3300495
386,96654598,-0.6990627646446228,-0.8912758827209473,-27.27117156982422,0.017518394,0.007641852,0.3288269
387,96671265,-0.6986792683601379,-0.8906087875366211,-27.271390914916992,0.002004988,-0.009865974,0.3240528
388,96687932,-0.6988329887390137,-0.891293466091156,-27.27168655395508,-0.0058760997,-0.013633061,0.33717155
389,96704599,-0.698533296585083,-0.8926258087158203,-27.271753311157227,-0.0016382661,0.0029215028,0.34724236
390,96721266,-0.6979876756668091,-0.8927202224731445,-27.27204132080078,-0.0029858118,-0.0021719104,0.32067108
391,96737933,-0.6985989809036255,-0.8923648595809937,-27.27133560180664,0.0027539032,0.0014048348,0.33929634
392,96754600,-0.6988507509231567,-0.8922953605651855,-27.271148681640625,-0.0059069935,-0.009291538,0.33919716
393,96771267,-0.7003881335258484,-0.8912657499313354,-27.27035522460937,-0.008315073,0.0039964328,0.33948326
394,96787934,-0.7009285092353821,-0.8913282752037048,-27.27106666564941,0.018299362,-0.008821448,0.33670044
395,96804601,-0.7010856866836548,-0.8918395042419434,-27.270755767822266,-0.003433187,0.006816321,0.3475151
396,96821268,-0.7011767029762268,-0.8917921185493469,-27.270246505737305,0.00423951,-0.006264649,0.3252678
397,96837935,-0.7000444531440735,-0.8911792039871216,-27.270753860473636,0.011870598,-0.014763415,0.3248434
398,96854602,-0.6992839574813843,-0.8905892968177795,-27.27057266235352,-0.007097818,-0.00010021762,0.32040215
399,96871269,-0.6999106407165527,-0.8911940455436707,-27.27084732055664,-0.010761883,-0.0054324684,0.35116673
400,96887936,-0.6994221210479736,-0.8920376300811768,-27.2710075378418,-0.008274855,-0.0053379294,0.33071995
401,96904603,-0.6995275020599365,-0.8922691941261292,-27.27174949645996,0.009561423,-0.0047545885,0.33746338
402,96921270,-0.699182391166687,-0.8932854533195496,-27.27102279663086,-0.001160577,-0.00086883677,0.3348961
403,96937937,-0.6996707916259766,-0.8919915556907654,-27.27055549621582,-0.0059234286,-0.0014057987,0.32265663
404,96954604,-0.7002257108688354,-0.8913764357566833,-27.27121353149414,0.0064187194,0.005823092,0.33409882
405,96971271,-0.7005624771118164,-0.8908371329307556,-27.2722225189209,-0.003227527,0.015834363,0.33760548
406,96987938,-0.7000826597213745,-0.8901081085205078,-27.27179336547852,0.0014118964,-0.0006659569,0.32815838
407,97004605,-0.7019640803337097,-0.8902859687805176,-27.27214241027832,-0.0047506806,-0.0055577196,0.32998562
408,97021272,-0.701456606388092,-0.8902516961097717,-27.272789001464844,0.012525366,-0.0018150021,0.33120537
409,97037939,-0.7009947299957275,-0.8902168273925781,-27.27228355407715,0.0037680303,-0.0061182063,0.33482075
410,97054606,-0.7013492584228516,-0.891243040561676,-27.27190399169922,0.0115546,0.0019463229,0.31842232
411,97071273,-0.6999365091323853,-0.8914809823036194,-27.270824432373047,0.0030927418,0.0061339987,0.3358326
412,97087940,-0.6995041966438293,-0.8918547630310059,-27.27033042907715,-0.008009315,-0.012222882,0.32746124
413,97104607,-0.699587881565094,-0.8919673562049866,-27.269824981689453,0.0069616116,-0.0011437437,0.35418797
414,97121274,-0.7001087069511414,-0.8925769925117493,-27.269746780395508,-0.0006458616,0.005095837,0.3347168
415,97137941,-0.7001492977142334,-0.8927538990974426,-27.2684383392334,0.0028961343,0.001274394,0.3257885
416,97154608,-0.6996924877166748,-0.8926791548728943,-27.26837921142578,-0.008341004,-0.001784276,0.32280064
417,97171275,-0.700316309928894,-0.8920493125915527,-27.269214630126957,-0.004140808,-0.0065029557,0.33048058
418,97187942,-0.701012134552002,-0.8928791880607605,-27.26962280273437,-0.0087745525,-0.0069139614,0.3422165
419,97204609,-0.7013736367225647,-0.8917146921157837,-27.27027130126953,0.00088371435,0.0075824535,0.33044052
420,97221276,-0.7012829780578613,-0.8926267027854919,-27.271318435668945,0.009180459,-0.0068255616,0.35733032
421,97237943,-0.7029627561569214,-0.8934192657470703,-27.271196365356445,-0.014603949,0.012007821,0.34224224
422,97254610,-0.703295111656189,-0.8931927680969238,-27.2713623046875,0.0023109214,0.002826028,0.31628323
423,97271277,-0.701680600643158,-0.892993688583374,-27.271333694458008,0.015113499,0.0078953365,0.34197903
424,97287944,-0.7014257311820984,-0.8929092288017273,-27.27186393737793,8.8797504e-05,-0.0015317412,0.3252468
425,97304611,-0.7015148401260376,-0.8922122120857239,-27.27188873291016,-0.002903105,-7.3968818e-06,0.3348856
426,97321278,-0.7006972432136536,-0.8925880789756775,-27.271860122680664,-0.0055865105,0.02082298,0.34978962
427,97337945,-0.700468897819519,-0.8925442099571228,-27.272357940673828,-0.0061767665,-0.0028151807,0.32837677
428,97354612,-0.7012644410133362,-0.8927240967750549,-27.27134323120117,0.0051483763,-0.009777553,0.34026527
429,97371279,-0.7014715075492859,-0.8927703499794006,-27.270647048950195,-0.011878121,0.0011139467,0.34755802
430,97387946,-0.7025749087333679,-0.8921675086021423,-27.27054786682129,0.00046311185,-0.009436221,0.31824493
431,97404613,-0.7021488547325134,-0.8924442529678345,-27.26968002319336,0.0051972,-0.0036417386,0.35329056
432,97421280,-0.701675295829773,-0.8928409814834595,-27.27034568786621,-0.0020193069,0.009206792,0.33231735
433,97437947,-0.701022744178772,-0.8934285640716553,-27.27069091796875,0.009446028,0.0060586887,0.34007168
434,97454614,-0.7011622786521912,-0.893801748752594,-27.27098655700684,-0.010216923,0.001705746,0.3423071
435,97471281,-0.7006258964538574,-0.8944963216781616,-27.271329879760746,0.00029227114,-0.002121585,0.32822895
436,97487948,-0.6998332142829895,-0.8933259844779968,-27.27129364013672,0.012346772,0.0005806587,0.33144283
437,97504615,-0.6988975405693054,-0.8921465873718262,-27.269641876220703,0.014335192,-0.01279215,0.3331709
438,97521282,-0.6994345784187317,-0.8912668824195862,-27.26961326599121,5.278398e-05,-0.006859522,0.33497238
439,97537949,-0.6987932920455933,-0.8906376957893372,-27.26949882507324,0.00029354935,-0.0076884334,0.34383297
440,97554616,-0.6986334323883057,-0.8905078172683716,-27.26952743530273,0.007577047,-0.0110620335,0.34406662
441,97571283,-0.699146032333374,-0.8914647698402405,-27.26984214782715,-0.005834729,-0.002631893,0.33588505
442,97587950,-0.6993988156318665,-0.8915048241615295,-27.27059936523437,0.011710235,0.00010809645,0.32768345
443,97604617,-0.6991581320762634,-0.8911977410316467,-27.270414352416992,0.004378032,0.002268426,0.32260227
444,97621284,-0.6995251178741455,-0.8914304971694946,-27.26923942565918,-0.0020828124,-0.00500317,0.33371067
445,97637951,-0.6989400386810303,-0.8912625312805176,-27.268213272094727,0.011108231,-0.010346464,0.3320694
446,97654618,-0.698400616645813,-0.8917595744132996,-27.268497467041016,0.015588506,0.0022029507,0.310297
447,97671285,-0.6996850967407227,-0.8926319479942322,-27.26705551147461,0.013374003,-0.0029643755,0.35922623
448,97687952,-0.699962317943573,-0.8930941224098206,-27.267799377441406,0.023626018,-0.0029462709,0.32274437
449,97704619,-0.6993470191955566,-0.8920310735702515,-27.26881599426269,0.0005450643,-0.0039216466,0.3175497
450,97721286,-0.6983278393745422,-0.891735315322876,-27.268400192260746,0.0011934474,0.0060862787,0.34290314
451,97737953,-0.6974356770515442,-0.8912752866744995,-27.267742156982425,0.0028606027,-0.014362559,0.33598995
452,97754620,-0.6983968615531921,-0.8920593857765198,-27.267108917236328,0.0051693097,0.0011619601,0.31982803
453,97771287,-0.6989080309867859,-0.8925784826278687,-27.2675838470459,0.008927289,0.015467613,0.357419
454,97787954,-0.6998012065887451,-0.8915669322013855,-27.26654624938965,0.0031363966,-0.006053394,0.31648922
455,97804621,-0.6994161009788513,-0.8909529447555542,-27.26679229736328,0.011252285,0.00022985514,0.3192215
456,97821288,-0.6992127895355225,-0.8898441791534424,-27.26634979248047,0.0031677512,0.002315608,0.34305477
457,97837955,-0.6995168328285217,-0.8899670839309692,-27.264991760253903,0.002500691,-0.011030106,0.3219633
458,97854622,-0.7002586722373962,-0.8883730173110962,-27.264333724975582,0.006201814,-0.011365026,0.32868195
459,97871289,-0.6990193128585815,-0.888094425201416,-27.263525009155277,-0.001930216,-0.002504714,0.32932758
460,97887956,-0.6992935538291931,-0.8883864283561707,-27.26289176940918,0.004789806,-0.017811643,0.32706738
461,97904623,-0.6989501118659973,-0.8876295685768127,-27.26203727722168,-0.0061570033,-0.008478,0.332757
462,97921290,-0.6986520290374756,-0.8877745270729065,-27.262643814086918,0.0092829615,-0.0072436286,0.34181976
463,97937957,-0.6988351345062256,-0.8865775465965271,-27.26155662536621,0.0037017448,0.0008815072,0.3412447
464,97954624,-0.6983278393745422,-0.8874566555023193,-27.26284408569336,0.003256542,-0.002278561,0.34959984
465,97971291,-0.6986401677131653,-0.8882025480270386,-27.263132095336918,0.002561137,-0.0066236807,0.3458538
466,97987958,-0.6985373497009277,-0.8872667551040649,-27.261756896972656,-0.0030644324,-0.009161377,0.30597878
467,98004625,-0.698074460029602,-0.8865587711334229,-27.261659622192383,-0.0021698882,-0.008230844,0.33002186
468,98021292,-0.698584258556366,-0.8874396681785583,-27.26173210144043,-0.0028233947,-0.0059819683,0.3370695
469,98037959,-0.6977043747901917,-0.886662483215332,-27.260705947875977,-0.0037182916,-0.0045715733,0.32933998
470,98054626,-0.6971085667610168,-0.8853833675384521,-27.26007652282715,0.0031882867,-0.01043276,0.3310175
471,98071293,-0.6975609064102173,-0.8852276802062988,-27.259395599365234,0.009554865,0.0028064216,0.33760357
472,98087960,-0.6972773671150208,-0.885890543460846,-27.2611083984375,0.00103117,-0.0026319767,0.3437786
473,98104627,-0.6978367567062378,-0.8852614164352417,-27.26185607910156,0.0043327287,-0.000990351,0.3337822
474,98121294,-0.6981655359268188,-0.8854053020477295,-27.26224708557129,0.014116918,-0.0075469706,0.35272217
475,98137961,-0.6978140473365784,-0.8849108219146729,-27.262590408325195,0.0135979345,0.012400471,0.3405447
476,98154628,-0.6980935335159302,-0.8858727812767029,-27.26235008239746,0.0027008397,-0.010953783,0.3388815
477,98171295,-0.6982095241546631,-0.8856312036514282,-27.26229476928711,0.008989517,0.008428597,0.34321976
478,98187962,-0.698424756526947,-0.8866176009178162,-27.261587142944336,0.00044171748,0.00038734096,0.36278915
479,98204629,-0.6985959410667419,-0.8864160180091858,-27.26133918762207,0.0065128533,0.0038219108,0.33250332
480,98221296,-0.694668173789978,-0.8859280347824097,-27.25613784790039,0.008370365,0.0026944557,0.3168764
481,98237963,-0.694047212600708,-0.885469913482666,-27.25712776184082,0.0069514695,0.005629139,0.3275013
482,98254630,-0.693818211555481,-0.8850690722465515,-27.25757598876953,0.004368931,0.00053466397,0.32270622
483,98271297,-0.6931184530258179,-0.8839070200920105,-27.25817108154297,0.0105156,0.0015009873,0.32801056
484,98287964,-0.6937379240989685,-0.8826876878738403,-27.258251190185547,-0.0025687716,0.0009475203,0.34808922
485,98304631,-0.6939893364906311,-0.8830422759056091,-27.259201049804688,0.0003664006,-0.018495725,0.35251713
486,98321298,-0.6944295167922974,-0.8827506303787231,-27.258543014526367,0.003316136,-0.0031464268,0.3304386
487,98337965,-0.6945083737373352,-0.8844386339187622,-27.259668350219727,0.0051386817,-0.011990925,0.3329773
488,98354632,-0.694539487361908,-0.8849595189094543,-27.259571075439453,0.0040574516,0.008615007,0.32669926
489,98371299,-0.694092333316803,-0.8845610022544861,-27.25948715209961,0.010471638,-0.009293194,0.3300953
490,98387966,-0.693803608417511,-0.8844150900840759,-27.258928298950195,0.0113521395,0.003323009,0.32695675
491,98404633,-0.6937099695205688,-0.8832584619522095,-27.25871086120605,0.010199916,0.0035090346,0.32636738
492,98421300,-0.6939566731452942,-0.8842102885246277,-27.257333755493164,0.011435139,0.008308598,0.32449913
493,98437967,-0.6943539977073669,-0.8832847476005554,-27.257362365722656,0.010535961,-0.0007261377,0.33546543
494,98454634,-0.6940088868141174,-0.8834429383277893,-27.257946014404297,0.0016166273,-0.0074920496,0.33994484
495,98471301,-0.6939667463302612,-0.8832374811172485,-27.25764274597168,0.012837509,-0.0075480742,0.33926392
496,98487968,-0.6951926946640015,-0.8826831579208374,-27.25748443603516,0.021854958,-0.000964172,0.30840874
497,98504635,-0.6955077052116394,-0.8830621838569641,-27.25800132751465,0.00792915,-0.0032405048,0.3295536
498,98521302,-0.6958778500556946,-0.8824340105056763,-27.258943557739254,0.0002984736,-0.0073625166,0.32026386
499,98537969,-0.6971132755279541,-0.8817740082740784,-27.258804321289062,0.008589491,0.00614127,0.3264408
500,98554636,-0.6970510482788086,-0.8827210068702698,-27.257892608642575,0.005339955,-0.0063736327,0.329154
501,98571303,-0.6965517997741699,-0.8819389343261719,-27.25752067565918,0.010219019,0.006800151,0.335989
502,98587970,-0.6961612701416016,-0.8826327323913574,-27.256839752197266,0.012609392,-0.004038006,0.33870316
503,98604637,-0.6984776854515076,-0.881718099117279,-27.25786018371582,0.015319878,-0.0027092984,0.33246326
504,98621304,-0.6982823014259338,-0.8809568881988525,-27.25742530822754,0.0033612926,-0.008562579,0.31712055
505,98637971,-0.6985557079315186,-0.8802948594093323,-27.258207321166992,0.009552287,0.00028323982,0.3277378
506,98654638,-0.6979967355728149,-0.8792212009429932,-27.258277893066406,0.0010359965,-0.0039179865,0.31993866
507,98671305,-0.6981829404830933,-0.8788987994194031,-27.258922576904297,0.0064927023,-0.0039005317,0.33580303
508,98687972,-0.6993051767349243,-0.8796263933181763,-27.2596378326416,0.02187066,0.0048496164,0.30512333
509,98704639,-0.6997706890106201,-0.8796172142028809,-27.2592830657959,0.010582696,0.007851186,0.31348705
510,98721306,-0.6995263695716858,-0.8789385557174683,-27.259361267089844,-0.0024129061,0.004058143,0.3364849
511,98737973,-0.6996288895606995,-0.8775721192359924,-27.258480072021484,-0.0095663825,0.0037013746,0.33646584
512,98754640,-0.6984263062477112,-0.8769858479499817,-27.25720977783203,0.0114063965,0.00035192116,0.33272743
513,98771307,-0.6986064910888672,-0.8771856427192688,-27.25682640075684,0.0038161625,-0.008672414,0.3254795
514,98787974,-0.6985957026481628,-0.8764259815216064,-27.256805419921875,0.0038878473,-0.014347939,0.3104391
515,98804641,-0.6991946697235107,-0.8762532472610474,-27.256311416625977,0.0043545,0.004235228,0.32330322
516,98821308,-0.7006874680519104,-0.875827431678772,-27.25711441040039,-0.00048331183,-0.0033174981,0.3202448
517,98837975,-0.7003630995750427,-0.8759404420852661,-27.256628036499023,0.014164023,0.007196593,0.33448505
518,98854642,-0.6985674500465393,-0.8753442764282227,-27.25679397583008,0.0047278996,-0.0020936248,0.31788445
519,98871309,-0.6981472373008728,-0.8755810856819153,-27.256690979003903,0.001351059,-0.0039054558,0.31080437
520,98887976,-0.6969451904296875,-0.8767601251602173,-27.255327224731445,0.014678704,-0.0036744762,0.33148193
521,98904643,-0.6973795294761658,-0.8767992854118347,-27.25660896301269,0.0030235716,-0.0018313394,0.3519373
522,98921310,-0.6966307163238525,-0.8761450052261353,-27.25650405883789,0.012625841,-0.0018953619,0.342412
523,98937977,-0.6963570713996887,-0.8769384026527405,-27.257080078125,0.005528062,0.0001774204,0.3445053
524,98954644,-0.6956695914268494,-0.8772134780883789,-27.257678985595703,-0.004827307,0.002967358,0.322258
525,98971311,-0.6959985494613647,-0.8762551546096802,-27.2586727142334,0.0197063,-0.007001774,0.3323326
526,98987978,-0.6961928606033325,-0.877161979675293,-27.25968170166016,0.00849192,-0.0057624015,0.32914257
527,99004645,-0.6968143582344055,-0.8767309784889221,-27.258745193481445,0.003419427,0.012828484,0.32178116
528,99021312,-0.6972305178642273,-0.8776115775108337,-27.25786781311035,0.012451872,-0.0023433657,0.31935215
529,99037979,-0.6980651617050171,-0.8766896724700928,-27.258548736572266,0.002643355,-0.0022969518,0.3520832
530,99054646,-0.6978194117546082,-0.8766887784004211,-27.259090423583984,-0.009045873,0.0028844627,0.33092213
531,99071313,-0.6975129842758179,-0.8769738674163818,-27.26112937927246,-0.0012161374,0.0025812045,0.32910442
532,99087980,-0.6979281902313232,-0.8767780065536499,-27.26051521301269,0.005339948,0.006895507,0.35153294
533,99104647,-0.6971984505653381,-0.8781777024269104,-27.262413024902344,0.0064609633,-0.006321212,0.34371185
534,99121314,-0.6966556310653687,-0.8777997493743896,-27.26237297058105,0.020922307,-0.007358277,0.31912422
535,99137981,-0.6963634490966797,-0.8778815269470215,-27.261737823486328,-0.0011100003,-0.008100103,0.3269539
536,99154648,-0.6956009864807129,-0.8776465058326721,-27.2614803314209,0.00018411879,-0.0007435438,0.32798767
537,99171315,-0.6954020857810974,-0.8778799772262573,-27.261362075805664,0.009565572,-0.007029336,0.32285023
538,99187982,-0.6951697468757629,-0.8783690333366394,-27.260595321655277,0.014814488,-0.0003209646,0.3368311
539,99204649,-0.6956191658973694,-0.8787552118301392,-27.261476516723636,0.01429445,-0.0039007203,0.33746338
540,99221316,-0.6965726613998413,-0.8798732757568359,-27.26152801513672,0.005088992,0.008420634,0.3364601
541,99237983,-0.6972917914390564,-0.8800113201141357,-27.261178970336918,0.009081059,0.006039865,0.34191895
542,99254650,-0.6968508958816528,-0.8802963495254517,-27.260591506958008,0.021897076,0.012453241,0.35198307
543,99271317,-0.6964777708053589,-0.8799502849578857,-27.259990692138672,-0.0028090863,-0.00044737515,0.32947445
544,99287984,-0.695620596408844,-0.8811763525009155,-27.25969123840332,0.014245326,-0.015191505,0.3497839
545,99304651,-0.6963594555854797,-0.8813172578811646,-27.25968170166016,0.0013124611,0.008778799,0.32679367
546,99321318,-0.6957339644432068,-0.8813269138336182,-27.261043548583984,0.00593392,-0.01903416,0.3262701
547,99337985,-0.6952379941940308,-0.8805791139602661,-27.260358810424805,0.007097598,-0.004290813,0.3463459
548,99354652,-0.6963733434677124,-0.8795462250709534,-27.259920120239254,0.015539954,0.008732351,0.34390354
549,99371319,-0.6954051852226257,-0.8798853754997253,-27.260238647460938,0.0034131266,-0.008337166,0.33300495
550,99387986,-0.6948726773262024,-0.8809401988983154,-27.260587692260746,0.0039174417,0.007145339,0.33899212
551,99404653,-0.6946694850921631,-0.8813989162445068,-27.26055145263672,0.01134945,-0.002621304,0.31755447
552,99421320,-0.6941823363304138,-0.8818275332450867,-27.26058387756348,0.007938768,-0.007742817,0.32709026
553,99437987,-0.6947404742240906,-0.8820661902427673,-27.26032257080078,0.0006307117,-0.010317672,0.33531094
554,99454654,-0.6946920156478882,-0.8813340067863464,-27.2597599029541,-0.0057010334,-0.00324413,0.3480301
555,99471321,-0.6936894059181213,-0.8816882371902466,-27.259769439697266,0.0052595395,-0.0039007901,0.32129955
556,99487988,-0.6936001181602478,-0.8812700510025024,-27.25902938842773,0.0057779565,-0.00015561392,0.36436653
557,99504655,-0.6934606432914734,-0.8814252614974976,-27.2586669921875,-0.0007354694,0.007457391,0.32775974
558,99521322,-0.6931309700012207,-0.8816998600959778,-27.25906753540039,0.0025099178,-0.007057219,0.33288002
559,99537989,-0.6932376027107239,-0.8812535405158997,-27.258464813232425,0.0010057734,-0.0030712776,0.3441925
560,99554656,-0.6925668120384216,-0.8822833299636841,-27.256908416748047,0.000843042,0.007615652,0.32583618
561,99571323,-0.6927577257156372,-0.8825403451919556,-27.257143020629883,0.0062760413,-0.0043710754,0.33531952
562,99587990,-0.6927095651626587,-0.881942868232727,-27.25812339782715,-0.0054037995,-0.011840808,0.31456375
563,99604657,-0.6915492415428162,-0.8813065886497498,-27.25874137878418,0.006791944,-0.004739278,0.32009315
564,99621324,-0.6903685331344604,-0.8799440860748291,-27.25918960571289,0.0017736661,-0.002149643,0.3343506
565,99637991,-0.6909122467041016,-0.8800051212310791,-27.259885787963867,0.019354811,-0.005907615,0.3449669
566,99654658,-0.6909279227256775,-0.8811414837837219,-27.26051521301269,-0.0031131653,-0.0064375503,0.3333912
567,99671325,-0.690600574016571,-0.880841851234436,-27.26028060913086,0.0018181033,0.0065228133,0.34824657
568,99687992,-0.6898907423019409,-0.8824190497398376,-27.260705947875977,0.00481713,-0.013093242,0.31598854
569,99704659,-0.6891341805458069,-0.8821075558662415,-27.26081657409668,0.002613523,-0.010919837,0.34923553
570,99721326,-0.688505232334137,-0.8815531730651855,-27.260690689086918,-0.0032360277,-0.0064820223,0.3370571
571,99737993,-0.6891619563102722,-0.8811203837394714,-27.260927200317383,-0.0021572947,-0.0132450005,0.33244228
572,99754660,-0.6892738342285156,-0.8805304765701294,-27.26024436950684,-0.00839521,-0.0013202422,0.33778
573,99771327,-0.6885124444961548,-0.8812025189399719,-27.26046371459961,-0.00014112049,-0.014028427,0.32040596
574,99787994,-0.6875923275947571,-0.8815747499465942,-27.26077651977539,0.015531154,-0.009516044,0.34957504
575,99804661,-0.6892564296722412,-0.88056480884552,-27.26072883605957,-0.008900265,-0.009011009,0.3266554
576,99821328,-0.6894462704658508,-0.8806725740432739,-27.25948715209961,0.017126707,0.006038943,0.32796383
577,99837995,-0.6888441443443298,-0.8805402517318726,-27.258771896362305,0.0021970975,-0.013673307,0.30325413
578,99854662,-0.6887025833129883,-0.8807454705238342,-27.258529663085938,0.006558443,-0.013379346,0.33313274
579,99871329,-0.6891354918479919,-0.8805974721908569,-27.25800895690918,0.0035052418,-0.008485739,0.32481384
580,99887996,-0.6893463730812073,-0.8797433972358704,-27.25840377807617,0.010414593,0.0032846276,0.34534264
581,99904663,-0.6889668703079224,-0.8806666135787964,-27.259626388549805,-0.002180107,-0.007354575,0.3447218
582,99921330,-0.6878839135169983,-0.8810784816741943,-27.25908470153809,-0.0005501492,0.01096139,0.31252003
583,99937997,-0.6884558200836182,-0.8819938898086548,-27.258790969848636,0.014012111,-0.006386715,0.3371153
584,99954664,-0.6888267397880554,-0.8815653920173645,-27.258804321289062,0.007848602,0.0024573992,0.32970047
585,99971331,-0.6889882683753967,-0.8823046684265137,-27.257665634155277,-0.0070583154,-0.006041234,0.33202648
586,99987998,-0.6882928609848022,-0.8823869824409485,-27.258459091186523,0.0072599454,-0.0076152263,0.3341198
587,100004665,-0.6876582503318787,-0.8820971250534058,-27.257402420043945,0.00598062,-0.0016495605,0.33477974
588,100021332,-0.6861576437950134,-0.8834424018859863,-27.25799560546875,0.008064892,-0.01062473,0.34246826
589,100037999,-0.6856954097747803,-0.8846696019172668,-27.25782966613769,-0.009871736,0.0024641396,0.31635475
590,100054666,-0.6865023970603943,-0.8858908414840698,-27.257524490356445,0.018695902,0.005753468,0.32475567
591,100071333,-0.6862530708312988,-0.8863444328308105,-27.25865364074707,0.017345687,-0.00814653,0.33591557
592,100088000,-0.6855554580688477,-0.8870593905448914,-27.25898551940918,0.012926026,-0.006918459,0.32234192
593,100104667,-0.6856729388237,-0.8865864276885986,-27.25901222229004,-0.0017105517,-0.0024475856,0.33895302
594,100121334,-0.6860105395317078,-0.886572003364563,-27.259361267089844,0.004563373,0.0029259243,0.32236195
595,100138001,-0.6859762072563171,-0.8869497776031494,-27.2598819732666,0.0152861625,-0.010996111,0.31605434
596,100154668,-0.6861568689346313,-0.8851653933525085,-27.26007652282715,0.013104921,0.0012160571,0.3618946
597,100171335,-0.6857657432556152,-0.8865954279899597,-27.260234832763672,0.011264788,0.00074860774,0.33830738
598,100188002,-0.6838547587394714,-0.8867197632789612,-27.26055908203125,0.0016860351,-0.0034596662,0.326746
599,100204669,-0.6834845542907715,-0.8872065544128418,-27.259862899780277,0.004178386,-0.0015066869,0.3400383
600,100221336,-0.6950689554214478,-0.8886687755584717,-27.251615524291992,0.003215576,0.0014751576,0.3335886
601,100238003,-0.6952757835388184,-0.888740599155426,-27.25110244750977,0.0038511772,-0.0016423801,0.31201172
602,100254670,-0.6957418322563171,-0.8881940245628357,-27.25145721435547,0.00433949,0.0042742803,0.35500908
603,100271337,-0.6959832310676575,-0.8877072930335999,-27.251596450805664,0.008316337,0.007091158,0.3400669
604,100288004,-0.6955446600914001,-0.887734591960907,-27.25251579284668,0.008245903,-0.0030527818,0.3135128
605,100304671,-0.6944423317909241,-0.8877183198928833,-27.25324821472168,0.012005209,-0.010957569,0.34194565
606,100321338,-0.6949390172958374,-0.8882033228874207,-27.253931045532227,-0.009141422,-0.0013628213,0.34457684
607,100338005,-0.6947977542877197,-0.8872329592704773,-27.25333595275879,0.005456063,0.002007775,0.35246468
608,100354672,-0.6954165697097778,-0.8872822523117065,-27.254194259643555,0.0020199285,-0.00073264755,0.32437515
609,100371339,-0.6954168677330017,-0.8873280882835388,-27.25466537475586,0.0014442638,0.0026412876,0.31620312
610,100388006,-0.6957943439483643,-0.8881822228431702,-27.25515365600586,0.0066435593,0.0022112974,0.3315401
611,100404673,-0.6953417062759399,-0.8890440464019775,-27.25543785095215,-0.0014149767,0.010277908,0.32475471
612,100421340,-0.6955237984657288,-0.8891284465789795,-27.254823684692383,-0.00018870081,-0.0018734647,0.330204
613,100438007,-0.6954183578491211,-0.8873522281646729,-27.254535675048828,0.013175363,-0.02179465,0.328022
614,100454674,-0.6958962082862854,-0.8869816064834595,-27.255725860595703,-0.005888861,-0.008674063,0.3259964
615,100471341,-0.6954087615013123,-0.8863835334777832,-27.25638008117676,0.0010081622,-0.0035380495,0.33376312
616,100488008,-0.6951529383659363,-0.8868832588195801,-27.25612449645996,0.00016750899,0.0026285474,0.30491257
617,100504675,-0.6948163509368896,-0.885188102722168,-27.2560977935791,0.005946227,0.0095594395,0.32861614
618,100521342,-0.6939850449562073,-0.8862704634666443,-27.25558090209961,0.0035312672,-0.013756831,0.33962345
619,100538009,-0.6940098404884338,-0.8862825632095337,-27.25546646118164,-0.0038068797,-0.018957503,0.33510113
620,100554676,-0.693435788154602,-0.8865715861320496,-27.25486183166504,-0.0075695175,0.008700514,0.32353878
621,100571343,-0.6935270428657532,-0.8867915272712708,-27.255186080932617,0.010462942,-0.009917542,0.3308859
622,100588010,-0.6930005550384521,-0.8870949745178223,-27.25627326965332,0.013148506,-0.0013705116,0.34175205
623,100604677,-0.6926952600479126,-0.8869156837463379,-27.25612449645996,-0.0046090325,0.0007532666,0.35043812
624,100621344,-0.6918236017227173,-0.8858622908592224,-27.255386352539062,-0.00459287,0.007771259,0.33665085
625,100638011,-0.6923705339431763,-0.8836957216262817,-27.254493713378903,0.0006184813,0.003633196,0.3207407
626,100654678,-0.6927160620689392,-0.8828291296958923,-27.25267791748047,0.010726624,0.0033888335,0.3213024
627,100671345,-0.6928120255470276,-0.883783221244812,-27.25234031677246,0.0023304438,-0.0029472208,0.33184242
628,100688012,-0.693203866481781,-0.8837769627571106,-27.252592086791992,0.012874871,-0.0224013,0.34443188
629,100704679,-0.6926835179328918,-0.8828858137130737,-27.2526798248291,0.003617718,-0.00078585057,0.33181572
630,100721346,-0.6916664242744446,-0.8821797370910645,-27.251279830932617,0.0008929203,-0.0026240002,0.32971287
631,100738013,-0.6924630999565125,-0.8824681639671326,-27.252704620361328,-0.0026780344,0.012573958,0.3319044
632,100754680,-0.692592442035675,-0.8819994926452637,-27.252904891967773,0.021208216,-0.019975025,0.34082222
633,100771347,-0.6933040022850037,-0.8819271922111511,-27.25292015075684,0.020843511,0.0011032949,0.33187485
634,100788014,-0.6929242610931396,-0.8803818225860596,-27.25292205810547,0.012011314,0.0031430323,0.32816315
635,100804681,-0.6941694617271423,-0.8813816905021667,-27.252960205078125,-0.010005603,-0.00778314,0.34212112
636,100821348,-0.6935625076293945,-0.882635772228241,-27.253049850463867,0.007973273,-0.008596818,0.33410645
637,100838015,-0.6931478381156921,-0.8822333216667175,-27.25368881225586,0.0031648248,-0.007972114,0.33482456
638,100854682,-0.6937311887741089,-0.8822329044342041,-27.254121780395508,-0.004301158,-0.013704347,0.31873798
639,100871349,-0.6923158764839172,-0.8812479376792908,-27.255374908447266,-0.004574884,-0.0069584404,0.3316536
640,100888016,-0.6925013065338135,-0.881908655166626,-27.255199432373047,0.0049206447,-0.011348228,0.33085537
641,100904683,-0.6921042799949646,-0.8813520669937134,-27.255271911621094,0.003746587,-0.00893845,0.34635735
642,100921350,-0.6916105151176453,-0.8804916739463806,-27.25490379333496,0.012324986,-0.014275388,0.3268509
643,100938017,-0.691846489906311,-0.8816723823547363,-27.25403213500977,0.0027143902,-0.0068858056,0.33392525
644,100954684,-0.6933847665786743,-0.8816570043563843,-27.253549575805664,0.0144310305,0.004633717,0.3372116
645,100971351,-0.6946442127227783,-0.8800259828567505,-27.252559661865234,0.004735967,-0.002728241,0.31955433
646,100988018,-0.6942920684814453,-0.8788433074951172,-27.25345039367676,-0.0011386763,-0.007590954,0.33125305
647,101004685,-0.6933906078338623,-0.8781057596206665,-27.25326919555664,0.016622288,-0.004137232,0.33176708
648,101021352,-0.6927056908607483,-0.8780613541603088,-27.2519588470459,0.0031800235,0.0060423166,0.31517982
649,101038019,-0.6930050253868103,-0.8783119916915894,-27.25122833251953,0.008401726,-0.0010680287,0.33544827
650,101054686,-0.6928865313529968,-0.878319263458252,-27.252809524536133,0.014841498,0.0035922234,0.33137035
651,101071353,-0.6923487782478333,-0.8795126676559448,-27.253061294555664,0.009795581,-0.00014535328,0.33541298
652,101088020,-0.6920695304870605,-0.8799312114715576,-27.253572463989254,-0.000915083,-0.0124635855,0.34079456
653,101104687,-0.6918368935585022,-0.8796094059944153,-27.252559661865234,0.011392316,-0.010919111,0.34823418
654,101121354,-0.6912015080451965,-0.8798564672470093,-27.25250244140625,0.008120128,-0.014090291,0.30799484
655,101138021,-0.6918738484382629,-0.8796198964118958,-27.25202751159668,0.006623604,-0.010113927,0.3296318
656,101154688,-0.6918755769729614,-0.8795159459114075,-27.251501083374023,0.006186203,-0.009152555,0.3425598
657,101171355,-0.6926860809326172,-0.8795648217201233,-27.251033782958984,-0.007131935,0.0045540975,0.30371284
658,101188022,-0.6923149228096008,-0.8799951672554016,-27.251522064208984,0.0016688106,-0.006959949,0.33399868
659,101204689,-0.6927157640457153,-0.8793627619743347,-27.25118827819824,-0.008856932,0.004946321,0.331501
660,101221356,-0.6924391984939575,-0.8794596791267395,-27.24921417236328,0.0045537064,-0.011825728,0.3531332
661,101238023,-0.6925219297409058,-0.8798009753227234,-27.248554229736328,-0.0001184479,-0.002825609,0.34817314
662,101254690,-0.6928334832191467,-0.8803685903549194,-27.24783706665039,0.014973755,-0.0016772691,0.31478405
663,101271357,-0.6936413645744324,-0.8783106207847595,-27.24734878540039,0.011049447,-0.0019002932,0.3282385
664,101288024,-0.6927555799484253,-0.8788055181503296,-27.247407913208008,0.0013948606,0.007669449,0.3197546
665,101304691,-0.6928836107254028,-0.8790980577468872,-27.24660301208496,0.014442646,0.00019042606,0.3211336
666,101321358,-0.6920232772827148,-0.8797021508216858,-27.246665954589844,0.0005088831,-0.0034728535,0.34563637
667,101338025,-0.6912024617195129,-0.8794392347335815,-27.24544715881348,0.0011396996,-0.004914002,0.31017208
668,101354692,-0.6918131709098816,-0.8799757361412048,-27.24523162841797,0.0015413105,0.0041062194,0.3285551
669,101371359,-0.6908847689628601,-0.8800307512283325,-27.24515914916992,0.0098477295,-0.003960964,0.32063484
670,101388026,-0.690414547920227,-0.8804543614387512,-27.24583625793457,-0.00048180314,-0.0108583225,0.34580326
671,101404693,-0.6897354125976562,-0.880881130695343,-27.24634552001953,0.001300552,0.0010378545,0.32246876
672,101421360,-0.6903293132781982,-0.8810843229293823,-27.245092391967773,0.009882297,-0.018079914,0.3416729
673,101438027,-0.6902490258216858,-0.8806172013282776,-27.245342254638672,0.015998904,0.00812413,0.34225464
674,101454694,-0.689834713935852,-0.8817504048347473,-27.245906829833984,0.0058881277,-0.006357344,0.32526302
675,101471361,-0.6889370083808899,-0.8812296390533447,-27.24506378173828,0.014041301,0.014604846,0.32884026
676,101488028,-0.6899067759513855,-0.8805813193321228,-27.24438095092773,-0.0014061759,-0.005088084,0.3250904
677,101504695,-0.6907818913459778,-0.879135251045227,-27.243810653686523,0.00017505256,0.0021992696,0.34437275
678,101521362,-0.6920721530914307,-0.8800024390220642,-27.24485969543457,0.020805515,-0.003614938,0.33160305
679,101538029,-0.6921466588973999,-0.8796359300613403,-27.24557113647461,0.01745738,-0.008081572,0.31542397
680,101554696,-0.6929824352264404,-0.8792057037353516,-27.244155883789062,0.0006361947,-0.005497231,0.33784485
681,101571363,-0.6930923461914062,-0.8792936205863953,-27.24394416809082,0.012411835,-0.0081539415,0.33252907
682,101588030,-0.6932981610298157,-0.8788473010063171,-27.24407768249512,0.014113705,-0.008335021,0.35335827
683,101604697,-0.6932979226112366,-0.8789432048797607,-27.24460792541504,0.011618064,-0.0076845572,0.32553673
684,101621364,-0.692509651184082,-0.8787441253662109,-27.244606018066406,0.004396011,-0.0025247815,0.32341766
685,101638031,-0.6928148865699768,-0.8775474429130554,-27.243520736694336,0.010305924,-0.005357333,0.35825443
686,101654698,-0.6927307844161987,-0.8767048716545105,-27.24309730529785,-0.0039536576,-0.024630828,0.338192
687,101671365,-0.6930871605873108,-0.8766932487487793,-27.24158096313477,0.014139702,-0.0011893264,0.3424921
688,101688032,-0.6930571794509888,-0.8778009414672852,-27.24038314819336,0.007987236,-0.0034355966,0.3171234
689,101704699,-0.6934963464736938,-0.876530110836029,-27.239351272583008,0.016706867,0.0026113088,0.35317802
690,101721366,-0.692980945110321,-0.8772683143615723,-27.239397048950195,0.0027542035,-0.0029454886,0.33059502
691,101738033,-0.6921575665473938,-0.877214252948761,-27.239768981933597,-0.012575219,0.006158746,0.3309002
692,101754700,-0.6922879219055176,-0.8769621253013611,-27.239517211914062,0.010706585,-0.005891976,0.33207226
693,101771367,-0.6927065849304199,-0.8762630224227905,-27.238969802856445,-0.0059122285,-0.008980017,0.33333492
694,101788034,-0.693594217300415,-0.8763207793235779,-27.237436294555664,-0.004264152,-0.0044296286,0.339962
695,101804701,-0.6937316656112671,-0.8761995434761047,-27.23776626586914,0.003669014,0.011462464,0.32164097
696,101821368,-0.6936573386192322,-0.8766008019447327,-27.23863410949707,0.010914557,-0.012596156,0.33384514
697,101838035,-0.694018542766571,-0.8769432306289673,-27.23746109008789,-0.0006401341,0.0044292375,0.346735
698,101854702,-0.6937292218208313,-0.8771895170211792,-27.238285064697266,0.010064872,-0.010471254,0.3439741
699,101871369,-0.6936110854148865,-0.8784000873565674,-27.239501953125,0.0050991126,-0.0073980414,0.33614445
700,101888036,-0.692256510257721,-0.8792774081230164,-27.239675521850582,-0.0025255356,-0.01563948,0.31226826
701,101904703,-0.6931954026222229,-0.8786989450454712,-27.2384090423584,-0.016906932,-0.008376078,0.3188467
702,101921370,-0.6935287117958069,-0.8795661926269531,-27.237119674682617,-0.00784287,0.0046258103,0.34367085
703,101938037,-0.6933159232139587,-0.8797973990440369,-27.23783493041992,-0.009598275,-0.00767672,0.3341179
704,101954704,-0.6939000487327576,-0.8778197169303894,-27.237274169921875,0.008643973,-0.019804114,0.32919502
705,101971371,-0.6936700940132141,-0.878456175327301,-27.236576080322266,-0.0053079645,-0.004157006,0.33022404
706,101988038,-0.6941591501235962,-0.8786998391151428,-27.23687171936035,-0.0047518993,-0.009361694,0.3363552
707,102004705,-0.693992555141449,-0.8773202300071716,-27.236570358276367,-0.00050203106,0.0027474351,0.3608265
708,102021372,-0.693740725517273,-0.8764869570732117,-27.235620498657227,-0.0067370473,-0.005732793,0.34784126
709,102038039,-0.6933477520942688,-0.8774999380111694,-27.23546600341797,0.0024912544,0.0043228734,0.33706665
710,102054706,-0.693920910358429,-0.8778296709060669,-27.23386001586914,0.0005201007,-0.008284158,0.3253231
711,102071373,-0.6942931413650513,-0.8772544264793396,-27.233009338378903,0.0026125102,-0.0029220337,0.33667183
712,102088040,-0.6947077512741089,-0.8758922815322876,-27.23288917541504,0.008350276,-0.0115281,0.31938934
713,102104707,-0.6937933564186096,-0.8753175139427185,-27.23177528381348,0.0029156427,-0.0013006917,0.33248138
714,102121374,-0.6933690905570984,-0.8741417527198792,-27.23288345336914,0.004569408,-0.006921742,0.33648872
715,102138041,-0.6940401792526245,-0.8729681968688965,-27.23349380493164,0.0013687793,-0.0129094655,0.32965183
716,102154708,-0.6941081881523132,-0.8742897510528564,-27.232988357543945,0.00656804,0.005216799,0.32675076
717,102171375,-0.69382643699646,-0.8743596076965332,-27.23322486877441,0.0078267045,-0.006180245,0.32784557
718,102188042,-0.6934583187103271,-0.8747854232788086,-27.23358726501465,0.010391774,-0.0152029395,0.326746
719,102204709,-0.693321704864502,-0.8741639852523804,-27.233762741088867,0.009858046,-0.0014916905,0.31266308
720,102221376,-0.6938294768333435,-0.8847680687904358,-27.235231399536133,0.0035818021,-0.0027536587,0.32793427
721,102238043,-0.6944542527198792,-0.884403645992279,-27.236003875732425,0.002038026,0.0012875394,0.31260395
722,102254710,-0.695431649684906,-0.8844944834709167,-27.235862731933597,-0.008923664,-0.009148797,0.34171104
723,102271377,-0.6960811018943787,-0.886155366897583,-27.235736846923828,0.008311001,-0.0015339904,0.33188248
724,102288044,-0.6964330673217773,-0.8848920464515686,-27.23572540283203,0.007036467,-0.011113539,0.3364172
725,102304711,-0.6954647302627563,-0.8850123286247253,-27.237064361572266,0.007564775,-0.014113118,0.3515625
726,102321378,-0.6966942548751831,-0.8858473896980286,-27.23767471313477,0.011263712,-0.011731364,0.333807
727,102338045,-0.6961572170257568,-0.88575279712677,-27.237274169921875,0.0062896474,-0.004327853,0.34756088
728,102354712,-0.6957008838653564,-0.8858482837677002,-27.23713493347168,0.015702736,0.00028468567,0.33113956
729,102371379,-0.6954838037490845,-0.8869502544403076,-27.237199783325195,0.0010962472,-0.0025696447,0.34944916
730,102388046,-0.695190966129303,-0.8873069882392883,-27.235862731933597,0.004673335,-0.00087188213,0.34879208
731,102404713,-0.6954692602157593,-0.8865296244621277,-27.236989974975582,0.022534478,0.003219788,0.34641457
732,102421380,-0.6954635381698608,-0.8862066268920898,-27.23685073852539,0.011372213,-0.009949051,0.32870674
733,102438047,-0.6952987313270569,-0.8858864903450012,-27.235950469970703,0.0011815034,0.0052572694,0.3303833
734,102454714,-0.6954256892204285,-0.8859040141105652,-27.23596572875977,0.01605041,-0.005301378,0.32448006
735,102471381,-0.6955916881561279,-0.8857676982879639,-27.23712921142578,0.015567565,-0.010181371,0.3435526
736,102488048,-0.6948177814483643,-0.8863894939422607,-27.23676300048828,0.008341825,-0.0015140069,0.34662533
737,102504715,-0.695819079875946,-0.8859172463417053,-27.23686790466309,0.01880657,-0.0002861874,0.33223438
738,102521382,-0.6952537894248962,-0.8867246508598328,-27.237180709838867,0.003438153,0.009851396,0.33107948
739,102538049,-0.696173906326294,-0.8855443596839905,-27.237154006958008,0.012982471,0.00027170795,0.33238602
740,102554716,-0.6959951519966125,-0.8862684369087219,-27.2372989654541,0.01593688,-0.008187077,0.3373947
741,102571383,-0.6962328553199768,-0.8862282037734985,-27.23847961425781,0.015533927,-0.0007306848,0.34235573
742,102588050,-0.6957260370254517,-0.8853870630264282,-27.237977981567383,0.00033419378,0.00018131091,0.33798218
743,102604717,-0.6958099007606506,-0.88604336977005,-27.236854553222656,0.021192493,0.003166913,0.33395672
744,102621384,-0.696406900882721,-0.8857095241546631,-27.23653984069824,0.0044899425,-0.00695821,0.34271622
745,102638051,-0.6962181329727173,-0.8849624395370483,-27.23628616333008,0.016870255,0.006894669,0.3465252
746,102654718,-0.6962115168571472,-0.8842347860336304,-27.235816955566406,0.008146544,-0.006741493,0.33471012
747,102671385,-0.6958450675010681,-0.8840234875679016,-27.235031127929688,-0.005283249,-0.009334767,0.32953835
748,102688052,-0.6954947710037231,-0.883449375629425,-27.23392868041992,0.008235921,0.0018007112,0.31504917
749,102704719,-0.6954553723335266,-0.8841635584831238,-27.23301887512207,0.012447919,-0.009142288,0.3554592
750,102721386,-0.6946902275085449,-0.8828240633010864,-27.23253059387207,0.009458076,-0.0008278291,0.34282875
751,102738053,-0.6951355338096619,-0.8838127255439758,-27.2318115234375,0.0025839424,-0.0082987845,0.32623672
752,102754720,-0.6950197219848633,-0.884268045425415,-27.232891082763672,0.0027289325,-0.0042742942,0.34569645
753,102771387,-0.6952399611473083,-0.8828968405723572,-27.233545303344727,0.010758412,-0.004396123,0.33748913
754,102788054,-0.694807231426239,-0.8830877542495728,-27.23307991027832,0.013046437,-0.0034598408,0.3323984
755,102804721,-0.6950313448905945,-0.8818932771682739,-27.23332023620605,0.0036954654,0.004874252,0.3389902
756,102821388,-0.6945967078208923,-0.8823508024215698,-27.23223304748535,0.013011646,0.014091053,0.32587528
757,102838055,-0.6935458183288574,-0.882106602191925,-27.233312606811523,0.024362752,0.0010836606,0.3491211
758,102854722,-0.6928563714027405,-0.8819823265075684,-27.234493255615234,0.010004678,-0.0030634406,0.3463192
759,102871389,-0.6935424208641052,-0.8810145258903503,-27.233949661254883,0.0033752972,-0.009715927,0.34217548
760,102888056,-0.6937668919563293,-0.8812636137008667,-27.234594345092773,0.01141751,-0.0073960577,0.3108654
761,102904723,-0.6925214529037476,-0.8807622790336609,-27.235689163208008,0.009825126,-0.0006270167,0.33355045
762,102921390,-0.6930046677589417,-0.8812053799629211,-27.235389709472656,0.005557021,0.012259288,0.35208797
763,102938057,-0.6929823160171509,-0.8803768157958984,-27.23626136779785,0.008448168,-0.016506718,0.32175827
764,102954724,-0.6930280327796936,-0.8793842196464539,-27.236066818237305,0.009813141,-0.010645713,0.31960964
765,102971391,-0.6926656365394592,-0.8792552351951599,-27.235898971557617,0.002806708,-0.002906381,0.3266306
766,102988058,-0.6924087405204773,-0.8797905445098877,-27.23520851135254,0.010197261,0.004676492,0.32927132
767,103004725,-0.6925537586212158,-0.8794088959693909,-27.235639572143555,0.0025138222,-0.012600731,0.33973408
768,103021392,-0.6931866407394409,-0.8793882727622986,-27.23509407043457,0.015772387,-0.008615488,0.34200478
769,103038059,-0.6922914981842041,-0.8789258003234863,-27.235275268554688,0.007797047,0.006266856,0.3361559
770,103054726,-0.6924266219139099,-0.8780235648155212,-27.234893798828125,-0.007251892,0.005894358,0.35048866
771,103071393,-0.6912841200828552,-0.8779510855674744,-27.23440361022949,0.011473598,0.010742284,0.32128525
772,103088060,-0.6906754970550537,-0.8778688311576843,-27.234413146972656,0.015742263,-0.009326371,0.33939075
773,103104727,-0.6915589570999146,-0.8775402307510376,-27.234254837036133,0.013523086,-0.008436846,0.33086967
774,103121394,-0.6905416250228882,-0.8779831528663635,-27.235979080200195,0.012167256,-0.003953581,0.34721088
775,103138061,-0.6905462741851807,-0.8765338659286499,-27.23605728149414,-0.00843343,0.0004890184,0.3186636
776,103154728,-0.6907695531845093,-0.8755176067352295,-27.23694610595703,0.00058183214,-0.017926529,0.33204746
777,103171395,-0.6902468800544739,-0.8751720786094666,-27.237110137939453,0.0067608827,-0.0034559574,0.3240347
778,103188062,-0.6910512447357178,-0.8746462464332581,-27.237060546875,-0.0038602643,-0.0023261134,0.33621025
779,103204729,-0.6918245553970337,-0.8741000890731812,-27.23626708984375,0.014652049,-0.0013582533,0.34883976
780,103221396,-0.6913571357727051,-0.8742036819458008,-27.236671447753903,0.007393117,-0.014520659,0.322896
781,103238063,-0.6910768151283264,-0.8751906752586365,-27.23586082458496,-0.0013442662,0.011762152,0.3463564
782,103254730,-0.6912397742271423,-0.875999927520752,-27.236064910888672,-0.0013185169,-0.006431746,0.32309055
783,103271397,-0.6917839050292969,-0.8766490817070007,-27.236160278320312,0.0048955623,0.019530624,0.33203125
784,103288064,-0.6924015879631042,-0.8765150904655457,-27.235939025878903,-0.0019052523,-1.5848465e-05,0.3437891
785,103304731,-0.6925966143608093,-0.8775898814201355,-27.23551750183105,-0.0051725926,-0.0020554601,0.31245232
786,103321398,-0.6937631368637085,-0.8769544959068298,-27.235990524291992,0.016765567,-0.0004978262,0.32095814
787,103338065,-0.6943501830101013,-0.876550018787384,-27.23520851135254,-0.007930331,-0.0028864185,0.33757973
788,103354732,-0.6930285692214966,-0.8753220438957214,-27.23627471923828,0.0074013243,-0.027486946,0.3497219
789,103371399,-0.6930585503578186,-0.8760486841201782,-27.23586845397949,0.020541232,-0.0096875895,0.3424673
790,103388066,-0.6935988068580627,-0.8766898512840271,-27.23639297485352,0.02398169,0.0033260824,0.33235455
791,103404733,-0.6930979490280151,-0.8772166967391968,-27.23611259460449,0.0084195165,-0.00469892,0.30405617
792,103421400,-0.6934410333633423,-0.8778923749923706,-27.2357120513916,0.0074782264,-0.017964127,0.33178902
793,103438067,-0.6931999325752258,-0.877659261226654,-27.23488044738769,-0.0040317266,-0.0025522455,0.35537338
794,103454734,-0.6938744187355042,-0.8770732879638672,-27.233545303344727,0.009520918,0.0014628224,0.33369827
795,103471401,-0.6941820979118347,-0.8768933415412903,-27.23240089416504,0.006840237,-0.0077365027,0.33774948
796,103488068,-0.6941800713539124,-0.8767537474632263,-27.23101806640625,0.00032172594,0.003492872,0.316741
797,103504735,-0.694133460521698,-0.8764102458953857,-27.230613708496094,0.0071901744,0.0018908707,0.30933952
798,103521402,-0.6939218640327454,-0.8781911134719849,-27.23023223876953,0.002379966,-0.0006179854,0.3317709
799,103538069,-0.6929121613502502,-0.8817412257194519,-27.23036193847656,-0.014802299,0.0025645248,0.331666
800,103554736,-0.6908089518547058,-0.9260376691818236,-27.233051300048828,-0.0021420433,-0.0046758563,0.33088493
801,103571403,-0.6900358200073242,-0.9670065641403198,-27.244386672973636,0.009871778,-0.013516758,0.33785915
802,103588070,-0.6886214017868042,-0.9834378361701964,-27.26530647277832,0.005716295,-0.014837922,0.31648922
803,103604737,-0.6758183836936951,-1.0329896211624146,-27.2778377532959,-0.02533334,0.0058724815,0.35587215
804,103621404,-0.6725729703903198,-1.0874651670455933,-27.28325462341309,0.02936998,-0.0036500085,0.326396
805,103638071,-0.6789656281471252,-1.0694949626922607,-27.318334579467773,0.018703474,-0.022133196,0.28304863
806,103654738,-0.6708958745002747,-1.0089112520217896,-27.375045776367188,0.04263953,-0.01896666,0.33339882
807,103671405,-0.6419693231582642,-0.9765619039535522,-27.44624710083008,-0.07211867,-0.0041872566,0.2936716
808,103688072,-0.6410902142524719,-0.9892950654029846,-27.44528579711914,0.048886776,0.051592536,0.3957348
809,103704739,-0.6789591908454895,-0.9721543788909912,-27.4549503326416,0.027713608,0.0055636005,0.3096962
810,103721406,-0.6972059607505798,-0.9372972846031188,-27.547338485717773,0.09617751,-0.023000978,0.33024216
811,103738073,-0.6752977967262268,-0.9473670721054076,-27.435710906982425,0.8886876,-0.14399359,0.3530779
812,103754740,-0.654199481010437,-0.991664707660675,-26.84282112121582,0.6310059,-0.26752242,0.34995937
813,103771407,-0.6492642164230347,-0.9979989528656006,-26.449161529541016,-0.3943763,-0.20530657,0.32334614
814,103788074,-0.6522703766822815,-0.9908442497253418,-26.285125732421875,0.13468422,-0.2193581,0.34963226
815,103804741,-0.6540483832359314,-0.987898290157318,-26.15947914123535,0.03030052,-0.14318879,0.323184
816,103821408,-0.6551119685173035,-1.0115057229995728,-25.96883773803711,0.13233763,-0.09009005,0.34268093
817,103838075,-0.6613689064979553,-1.0158573389053345,-25.861059188842773,-0.336662,0.0064257323,0.34406185
818,103854742,-0.6710250377655029,-1.0023093223571775,-25.949934005737305,-0.26005924,0.25412843,0.28009796
819,103871409,-0.6909924745559692,-0.9800325632095336,-26.06868934631348,-0.19998567,0.30596694,0.29092312
820,103888076,-0.7080987095832825,-0.9692866802215576,-26.141773223876957,0.19866598,0.09217691,0.34814072
821,103904743,-0.7119539380073547,-0.959309458732605,-26.185197830200195,0.19865322,-0.10746068,0.31991863
822,103921410,-0.7140989899635315,-0.9285184741020204,-26.328975677490234,0.01292509,-0.109455235,0.34652805
823,103938077,-0.7185403108596802,-0.8932373523712158,-26.529417037963867,-0.11986866,0.0028847351,0.33568
824,103954744,-0.7221155166625977,-0.877111554145813,-26.67677116394043,-0.08180796,0.14587311,0.32366085
825,103971411,-0.7263948321342468,-0.8678852915763855,-26.76906967163086,-0.12324709,0.10463592,0.34499264
826,103988078,-0.7237678170204163,-0.8674302697181702,-26.770193099975582,0.19249037,-0.050565537,0.33204365
827,104004745,-0.720767080783844,-0.8636078834533691,-26.74375534057617,0.084976345,-0.10949326,0.34376526
828,104021412,-0.7166877388954163,-0.8704968094825745,-26.725812911987305,0.31150764,-0.22048342,0.36178207
829,104038079,-0.7142863869667053,-0.8760936856269836,-26.75789451599121,-0.017698186,-0.012745505,0.30794144
830,104054746,-0.7188543081283569,-0.8638498187065125,-26.811338424682617,-0.099402666,0.19780634,0.34598255
831,104071413,-0.725597083568573,-0.8341574668884277,-26.900131225585938,-0.12208859,0.15531133,0.34187126
832,104088080,-0.72492516040802,-0.8067121505737305,-26.98973274230957,0.14949849,-0.0040606856,0.33408165
833,104104747,-0.7149110436439514,-0.7892781496047974,-27.053571701049805,0.2622533,-0.20904177,0.34008503
834,104121414,-0.7067890763282776,-0.7818772196769714,-27.082609176635746,0.1655839,-0.12024408,0.3524847
835,104138081,-0.7011938691139221,-0.7536918520927429,-27.172388076782227,-0.051854197,0.018090734,0.32784462
836,104154748,-0.6873239874839783,-0.728718638420105,-27.24388694763184,0.23623945,-0.17558311,0.36760998
837,104171415,-0.6858501434326172,-0.7363723516464233,-27.177505493164062,0.117620505,-0.14152452,0.345376
838,104188082,-0.6821094155311584,-0.7372228503227234,-27.121559143066406,-0.027468564,0.011260506,0.33324337
839,104204749,-0.6800643801689148,-0.7378490567207336,-27.070819854736328,0.24568228,-0.07688091,0.3444147
840,104221416,-0.6782125234603882,-0.7350143790245056,-27.010427474975582,0.13093573,-0.1566129,0.31772232
841,104238083,-0.6705248951911926,-0.7209784388542175,-27.01046562194824,0.012900061,-0.03751484,0.3407116
842,104254750,-0.6594882607460022,-0.705212414264679,-27.020263671875,0.02480041,-0.09111464,0.31463623
843,104271417,-0.6501250863075256,-0.6944900751113892,-27.02252197265625,-0.07170418,-0.08453323,0.3396387
844,104288084,-0.6451364755630493,-0.6870579719543457,-27.02348518371582,0.07558479,-0.12394411,0.34650993
845,104304751,-0.6433658003807068,-0.6830642223358154,-27.04628562927246,0.06875886,-0.044242907,0.3469782
846,104321418,-0.6387665867805481,-0.6799834966659546,-27.05418586730957,0.061556727,0.1536741,0.32664204
847,104338085,-0.6351929306983948,-0.6766597032546997,-27.052587509155277,-0.11812145,0.20697406,0.33611965
848,104354752,-0.6272587776184082,-0.6684276461601257,-27.041683197021484,-0.03973274,0.088643394,0.32766533
849,104371419,-0.617550253868103,-0.6615597009658813,-27.01282501220703,-0.006045009,-0.021361224,0.35125065
850,104388086,-0.6177915930747986,-0.6645487546920776,-26.96934127807617,-0.0035637708,-0.004361101,0.30335808
851,104404753,-0.6167113780975342,-0.6722205281257629,-26.903491973876957,-0.026293533,0.077977456,0.32618046
852,104421420,-0.6131102442741394,-0.6637574434280396,-26.834230422973636,-0.06880121,0.12771343,0.32899284
853,104438087,-0.607488751411438,-0.6544100642204285,-26.77952003479004,-0.18579213,0.19797,0.31306458
854,104454754,-0.6039938926696777,-0.6525237560272217,-26.725557327270508,0.09517393,0.061356805,0.3272915
855,104471421,-0.6005826592445374,-0.6588553786277771,-26.60280418395996,0.1017327,0.039584704,0.3848095
856,104488088,-0.5926865339279175,-0.655707597732544,-26.51593017578125,-0.011955471,-0.111631595,0.34967518
857,104504755,-0.5859291553497314,-0.6624445915222168,-26.433177947998047,0.1427196,-0.15326492,0.32877064
858,104521422,-0.583716869354248,-0.674549400806427,-26.349395751953125,-0.054292083,0.037896328,0.3573799
859,104538089,-0.5864256620407104,-0.6818485856056213,-26.291257858276367,-0.17516215,0.0801778,0.32499313
860,104554756,-0.5894530415534973,-0.6933056116104126,-26.2197380065918,-0.050950516,0.004303672,0.33983326
861,104571423,-0.5943791270256042,-0.7008383274078369,-26.14297103881836,-0.115484074,0.046318196,0.307415
862,104588090,-0.5923553109169006,-0.7037296891212463,-26.13139533996582,0.15432566,-0.19874907,0.30572987
863,104604757,-0.5909562706947327,-0.7101150155067444,-26.12792015075684,0.0017954342,-0.02475577,0.33289242
864,104621424,-0.5931692123413086,-0.7215095162391663,-26.12236213684082,0.18376812,-0.015273164,0.32358074
865,104638091,-0.5935031771659851,-0.7335637211799622,-26.06964492797852,0.21092826,-0.10155431,0.33724403
866,104654758,-0.5879374742507935,-0.7462019920349121,-26.030248641967773,0.052346054,-0.111749895,0.33314323
867,104671425,-0.5834755897521973,-0.7593299150466919,-26.01751136779785,-0.02093498,0.025505304,0.31982517
868,104688092,-0.5857523679733276,-0.7673352360725403,-26.00619125366211,-0.059577547,0.107146956,0.28539467
869,104704759,-0.5847311615943909,-0.7735856175422668,-26.019756317138672,0.16569485,0.02793922,0.32510567
870,104721426,-0.584531843662262,-0.789351761341095,-25.97938537597656,0.03415373,0.0127653275,0.34374428
871,104738093,-0.5837835669517517,-0.8055495023727417,-25.971628189086918,0.08795526,-0.09708398,0.33590794
872,104754760,-0.57970130443573,-0.8212949633598328,-25.953109741210938,0.0915179,-0.13274583,0.33243942
873,104771427,-0.5824323296546936,-0.8266404867172241,-25.90691375732422,0.02278555,0.020406041,0.30719376
874,104788094,-0.5809184312820435,-0.8351930379867554,-25.817968368530277,0.11411837,-0.028434683,0.3390417
875,104804761,-0.5866978764533997,-0.8415606617927551,-25.74713706970215,-0.00036833537,0.12894063,0.33161163
876,104821428,-0.5977414846420288,-0.8379990458488464,-25.733657836914062,0.08839119,0.098581426,0.33056355
877,104838095,-0.6033911108970642,-0.8405532836914062,-25.70647621154785,0.14615296,-0.0111308405,0.3318348
878,104854762,-0.6059433221817017,-0.8464793562889099,-25.65597152709961,0.059460286,-0.087788954,0.32489967
879,104871429,-0.6147647500038147,-0.842802107334137,-25.606101989746094,-0.14206,0.17422438,0.32072163
880,104888096,-0.619285523891449,-0.8320528268814087,-25.589752197265625,-0.008027216,-7.4171374e-05,0.31647205
881,104904763,-0.6175879836082458,-0.8300808072090149,-25.55501365661621,0.075034805,-0.14814864,0.34090614
882,104921430,-0.6147377490997314,-0.8269848823547363,-25.53421401977539,0.07704246,-0.28738135,0.3610325
883,104938097,-0.6187812685966492,-0.8170415759086609,-25.52240562438965,0.12474993,-0.06375479,0.31944942
884,104954764,-0.6192243099212646,-0.8188207745552063,-25.52999496459961,0.20320532,-0.17514335,0.35288048
885,104971431,-0.6196764707565308,-0.8206190466880798,-25.53156471252441,-0.12539169,0.1317658,0.327487
886,104988098,-0.6226437091827393,-0.8077698945999146,-25.56330680847168,-0.16926345,0.13871239,0.349473
887,105004765,-0.6260440349578857,-0.791552722454071,-25.56710433959961,-0.25151083,0.14426626,0.31838894
888,105021432,-0.6229201555252075,-0.7769429087638855,-25.574462890625,-0.041427825,-0.054369736,0.33646774
889,105038099,-0.6196888089179993,-0.7585476040840149,-25.640626907348636,0.007343916,-0.07315233,0.3637247
890,105054766,-0.6225830912590027,-0.7381843328475952,-25.70964813232422,-0.053426944,0.1882723,0.30228233
891,105071433,-0.6287882328033447,-0.7248499393463135,-25.739709854125977,-0.11991239,0.33946314,0.34927464
892,105088100,-0.6296563744544983,-0.7143585085868835,-25.754173278808597,-0.07713582,0.06064814,0.3396349
893,105104767,-0.627585768699646,-0.711860716342926,-25.75947952270508,0.051485557,-0.025010303,0.37093353
894,105121434,-0.6260722279548645,-0.7190442085266113,-25.764039993286133,0.083189994,-0.030969396,0.32967854
895,105138101,-0.633823812007904,-0.7198495268821716,-25.736013412475582,-0.096273266,0.1293499,0.34952545
896,105154768,-0.6452457904815674,-0.7096135020256042,-25.687715530395508,-0.0969376,0.06483543,0.31929684
897,105171435,-0.6377472877502441,-0.7059722542762756,-25.68563270568848,-0.106270015,-0.29727432,0.365386
898,105188102,-0.6306819319725037,-0.7124788761138916,-25.681804656982425,0.095281556,-0.276682,0.31965446
899,105204769,-0.6329131126403809,-0.7201311588287354,-25.644824981689453,0.0022583713,-0.05941535,0.36030006
900,105221436,-0.6354122757911682,-0.7286670207977295,-25.61623954772949,0.022856092,0.0018436606,0.32867622
901,105238103,-0.6357883214950562,-0.7373444437980652,-25.570112228393555,0.07462021,-0.1456582,0.32840252
902,105254770,-0.6372289061546326,-0.742172360420227,-25.594423294067383,-0.06809992,-0.10307389,0.35307884
903,105271437,-0.6386088728904724,-0.7501440048217773,-25.61370658874512,0.004786544,0.038929585,0.35295486
904,105288104,-0.639710545539856,-0.759480893611908,-25.65335464477539,0.20505042,-0.10180949,0.33200836
905,105304771,-0.6486984491348267,-0.7622070908546448,-25.720422744750977,0.18859796,-0.016268795,0.32479286
906,105321438,-0.6531527042388916,-0.7687307596206665,-25.7407341003418,0.050922256,0.011950945,0.34377575
907,105338105,-0.6552093029022217,-0.7765934467315674,-25.72731208801269,-0.055098027,-0.005973775,0.30292225
908,105354772,-0.653603732585907,-0.7799454927444458,-25.73992729187012,-0.05985774,-0.038950883,0.326396
909,105371439,-0.6556070446968079,-0.7837600111961365,-25.76631736755371,0.105082594,-0.0028327194,0.32007313
910,105388106,-0.6603728532791138,-0.7882547378540039,-25.79408073425293,0.09352733,-0.011115613,0.3298483
911,105404773,-0.6682772040367126,-0.790398120880127,-25.802078247070312,-0.0016314839,0.115248255,0.32125282
912,105421440,-0.6760751605033875,-0.7924879789352417,-25.81040573120117,-0.13418601,0.20976444,0.33581448
913,105438107,-0.680904746055603,-0.7912518382072449,-25.82901954650879,-0.083262086,0.12258198,0.31025028
914,105454774,-0.6846243143081665,-0.7890332937240601,-25.86669158935547,-0.09425505,0.13463005,0.3246889
915,105471441,-0.6861389875411987,-0.7803047895431519,-25.92070770263672,0.11932746,-0.0141967535,0.3187065
916,105488108,-0.6921419501304626,-0.7641794681549072,-25.982532501220703,-0.048064157,0.06494607,0.33082962
917,105504775,-0.6979618072509766,-0.7463638186454773,-26.07461929321289,0.05165147,0.00028905814,0.34418297
918,105521442,-0.701035737991333,-0.7481432557106018,-26.11142921447754,0.17753847,8.4473926e-05,0.34582806
919,105538109,-0.7046674489974976,-0.7537800073623657,-26.105104446411133,-0.0788002,0.01892779,0.35243225
920,105554776,-0.7043294906616211,-0.7598624229431152,-26.125246047973636,0.07585826,-0.076896675,0.32774544
921,105571443,-0.7013522386550903,-0.766219973564148,-26.14772605895996,0.068730585,-0.12729421,0.3548956
922,105588110,-0.7016807198524475,-0.7784476280212402,-26.15098190307617,0.015266207,0.07620307,0.31992722
923,105604777,-0.7062200307846069,-0.777967631816864,-26.156885147094727,0.006034588,0.16277684,0.32987595
924,105621444,-0.7098971009254456,-0.7811786532402039,-26.150745391845703,0.008030663,0.06399873,0.3169937
925,105638111,-0.7105831503868103,-0.7836061120033264,-26.160720825195312,-0.006456727,0.03274753,0.30661583
926,105654778,-0.7111543416976929,-0.7876538634300232,-26.147693634033203,-0.043944214,0.09994728,0.34184074
927,105671445,-0.7127165794372559,-0.7897791862487793,-26.14337921142578,-0.19695652,0.10185754,0.3124485
928,105688112,-0.7124060392379761,-0.7883697152137756,-26.16058349609375,0.11046938,0.024355382,0.34667397
929,105704779,-0.7127199769020081,-0.787418007850647,-26.186952590942383,-0.06289321,0.019569352,0.34123993
930,105721446,-0.7105311751365662,-0.7888107895851135,-26.17585563659668,-0.05351929,-0.027019594,0.32944775
931,105738113,-0.704246997833252,-0.7972925305366516,-26.15526390075684,-0.06538432,-0.12808058,0.32751274
932,105754780,-0.6976171731948853,-0.8057919144630432,-26.12810707092285,0.040771686,-0.17519079,0.32763577
933,105771447,-0.6970769762992859,-0.8122993111610413,-26.12283706665039,-0.06929844,-0.07632464,0.3422308
934,105788114,-0.7019050121307373,-0.8106562495231628,-26.152109146118164,-0.05364028,0.11052136,0.32382774
935,105804781,-0.7018639445304871,-0.8114079833030701,-26.16288948059082,-0.032895185,0.06694603,0.31156254
936,105821448,-0.7004797458648682,-0.8198371529579163,-26.12217903137207,-0.09191472,-0.058645237,0.33889675
937,105838115,-0.7001340985298157,-0.817367672920227,-26.09640312194824,-0.14038445,-0.013550689,0.3193674
938,105854782,-0.7053229212760925,-0.8159787058830261,-26.05795669555664,0.054311898,-0.14494583,0.3243513
939,105871449,-0.7083193063735962,-0.8165454864501953,-26.024782180786133,0.081883326,-0.14230134,0.3643713
940,105888116,-0.7136358618736267,-0.8190192580223083,-25.997800827026367,0.06512646,-0.026632756,0.32245064
941,105904783,-0.7178955674171448,-0.8247964978218079,-25.95492935180664,-0.05276166,0.059365068,0.32499123
942,105921450,-0.7253552675247192,-0.8258218765258789,-25.91261863708496,-0.2355813,0.1828764,0.33475113
943,105938117,-0.7290858030319214,-0.8209680318832397,-25.88771247863769,-0.03140632,-0.028076587,0.34074783
944,105954784,-0.7278556227684021,-0.8122498393058777,-25.905593872070312,0.09360425,-0.11265887,0.33225727
945,105971451,-0.7321605086326599,-0.8087922930717468,-25.91850471496582,0.17896496,-0.12627314,0.3601141
946,105988118,-0.7343334555625916,-0.8065385818481445,-25.909591674804688,0.12992972,-0.05941529,0.32683563
947,106004785,-0.7409032583236694,-0.8022677302360535,-25.901779174804688,-0.1340829,0.19625673,0.31976223
948,106021452,-0.7446442246437073,-0.7947041392326355,-25.9113883972168,-0.025949676,0.18838052,0.32738018
949,106038119,-0.7455334067344666,-0.7810524106025696,-25.923057556152344,2.777847e-05,0.0027725874,0.32898903
950,106054786,-0.7468209266662598,-0.770628035068512,-25.94672203063965,0.06861404,-0.03747078,0.35363197
951,106071453,-0.7442464232444763,-0.7520730495452881,-25.999290466308597,-0.012468785,0.04714488,0.33485222
952,106088120,-0.7436227202415466,-0.7347049713134766,-26.06781005859375,0.06182497,0.04029245,0.33799267
953,106104787,-0.7394629120826721,-0.7239159345626831,-26.101215362548828,0.13734166,0.0004906878,0.33368397
954,106121454,-0.7349843382835388,-0.7155064940452576,-26.10620880126953,0.18937019,-0.10244403,0.31268978
955,106138121,-0.7256069183349609,-0.7040309906005859,-26.126270294189453,0.17619559,-0.0862743,0.33929062
956,106154788,-0.7187271118164062,-0.6910805106163025,-26.152189254760746,-0.10408681,0.04109994,0.33047867
957,106171455,-0.7104116678237915,-0.6820663213729858,-26.21820831298828,0.090578474,-0.08683566,0.35265064
958,106188122,-0.7048491835594177,-0.6885294914245605,-26.26075935363769,0.22067095,-0.15718547,0.36758423
959,106204789,-0.701149582862854,-0.699461042881012,-26.2612247467041,0.20296212,-0.19046879,0.3374691
960,106221456,-0.6951424479484558,-0.7050196528434753,-26.270898818969727,-0.102333814,0.043589544,0.34633732
961,106238123,-0.6902709603309631,-0.706486701965332,-26.31243324279785,-0.03315618,0.17345019,0.31393433
962,106254790,-0.6808871626853943,-0.7043410539627075,-26.373348236083984,0.1034997,-0.03353759,0.34255505
963,106271457,-0.6725318431854248,-0.7073871493339539,-26.41658592224121,0.088059954,0.0071524633,0.3704815
964,106288124,-0.670745313167572,-0.7132325768470764,-26.430160522460938,0.06479285,0.15362777,0.30417252
965,106304791,-0.6656381487846375,-0.717199981212616,-26.4417781829834,-0.1226401,0.12696852,0.34644604
966,106321458,-0.6564815640449524,-0.7144975662231445,-26.499053955078125,-0.3320908,0.12188648,0.29313374
967,106338125,-0.632587194442749,-0.7098256349563599,-26.604888916015625,-0.07953943,-0.1841982,0.34498596
968,106354792,-0.6272459626197815,-0.727388858795166,-26.60775375366211,-0.12452837,-0.011759282,0.326746
969,106371459,-0.6192470192909241,-0.7402796745300293,-26.637420654296875,-0.11770935,0.07834834,0.3277359
970,106388126,-0.6120301485061646,-0.7427273392677307,-26.677400588989254,0.091146484,0.1278324,0.33419132
971,106404793,-0.601318895816803,-0.7419217824935913,-26.740503311157227,0.27222216,0.018970272,0.3870859
972,106421460,-0.599193811416626,-0.7393812537193298,-26.77458953857422,-0.066402026,-0.087374516,0.36348915
973,106438127,-0.5941575169563293,-0.738954484462738,-26.78032684326172,-0.16050348,-0.122980095,0.3368616
974,106454794,-0.5925470590591431,-0.7399167418479919,-26.76304626464844,-0.12130096,-0.10768625,0.32785797
975,106471461,-0.6044531464576721,-0.7423036098480225,-26.69320106506348,-0.07926796,0.02878476,0.3270054
976,106488128,-0.6111130118370056,-0.7391477823257446,-26.59309196472168,0.24416141,-0.19830942,0.33596992
977,106504795,-0.6184898614883423,-0.7327471375465393,-26.560047149658203,0.24986848,-0.2229092,0.32640934
978,106521462,-0.6413503289222717,-0.7244691848754883,-26.49290657043457,0.3372785,0.011962197,0.33813858
979,106538129,-0.6422250270843506,-0.7169179320335388,-26.48405265808105,-0.12991717,-0.29486796,0.3363285
980,106554796,-0.6442509293556213,-0.71893310546875,-26.538009643554688,-0.2592586,0.16508393,0.3239565
981,106571463,-0.6552834510803223,-0.7152810096740723,-26.580982208251957,0.12594172,0.2034766,0.3258314
982,106588130,-0.6696590185165405,-0.7060884833335876,-26.608200073242188,-0.009509844,0.074164025,0.30577564
983,106604797,-0.6741464138031006,-0.7000145316123962,-26.668649673461918,0.07422324,-0.00785537,0.3725996
984,106621464,-0.6835927963256836,-0.693871259689331,-26.730224609375,0.13689134,0.14844409,0.3013277
985,106638131,-0.6897569894790649,-0.6887608766555786,-26.74451446533203,0.033952612,0.026045434,0.3478241
986,106654798,-0.6952769756317139,-0.6876210570335388,-26.733102798461918,0.03763036,0.016147286,0.34359455
987,106671465,-0.70163893699646,-0.6816425323486328,-26.7297477722168,0.05548816,-0.062062338,0.3087368
988,106688132,-0.7055137753486633,-0.6767255067825317,-26.752222061157227,-0.0030175785,-0.030027548,0.34021282
989,106704799,-0.7121996283531189,-0.6726250052452087,-26.794309616088867,0.16847736,-0.06965602,0.34173203
990,106721466,-0.7204055786132812,-0.6639556884765625,-26.84102439880371,0.08745896,0.039001312,0.3277321
991,106738133,-0.7234703898429871,-0.6609164476394653,-26.863189697265625,0.09123039,-0.031857915,0.33718586
992,106754800,-0.7234646081924438,-0.6621003150939941,-26.875568389892575,-0.011665303,0.0063414117,0.32993984
993,106771467,-0.719943106174469,-0.6683999300003052,-26.8792781829834,-0.007556463,-0.0485436,0.32932568
994,106788134,-0.7151003479957581,-0.6819734573364258,-26.89925575256348,0.03826476,-0.12469687,0.34480953
995,106804801,-0.7086804509162903,-0.6931132674217224,-26.93420791625977,0.037404094,-0.027140277,0.33957863
996,106821468,-0.7030197978019714,-0.7021805644035339,-26.96605682373047,0.040693343,-0.03886937,0.32008076
997,106838135,-0.693444550037384,-0.711810827255249,-26.990249633789062,0.016861374,0.037039522,0.3312683
998,106854802,-0.682114839553833,-0.7226687073707581,-27.026029586791992,-0.11232753,-0.08531514,0.30510235
999,106871469,-0.6730862259864807,-0.7281573414802551,-27.07111167907715,0.11803322,-0.08210145,0.34580517
1000,106888136,-0.6679707169532776,-0.7356202602386475,-27.11305427551269,0.06580512,-0.21311314,0.3118124
1001,106904803,-0.6667085886001587,-0.7473053336143494,-27.16064453125,0.15367702,-0.019934723,0.3147297
1002,106921470,-0.6620710492134094,-0.7633063197135925,-27.166778564453125,0.09384,0.15675743,0.3487301
1003,106938137,-0.6536178588867188,-0.777102530002594,-27.134750366210938,0.039129432,0.04832986,0.3225708
1004,106954804,-0.6422860622406006,-0.786607563495636,-27.116952896118164,-0.12580784,-0.02806108,0.3061533
1005,106971471,-0.6317053437232971,-0.7985484004020691,-27.13056945800781,0.024308225,-0.12804401,0.33561897
1006,106988138,-0.6223583817481995,-0.8065075278282166,-27.170391082763672,0.07877249,-0.08077048,0.30323505
1007,107004805,-0.6088156700134277,-0.8109011650085449,-27.21359634399414,0.19473271,-0.06942325,0.33952904
1008,107021472,-0.6010428667068481,-0.8144946098327637,-27.21624183654785,0.12915617,0.046980783,0.34075928
1009,107038139,-0.5913446545600891,-0.8223098516464233,-27.16432380676269,-0.112536244,0.014399889,0.32289982
1010,107054806,-0.5831589698791504,-0.8264192342758179,-27.12936782836914,0.0545946,-0.16745889,0.32843018
1011,107071473,-0.5752223134040833,-0.825367271900177,-27.133975982666016,0.08639712,-0.19952022,0.35527325
1012,107088140,-0.5695981979370117,-0.824828565120697,-27.179956436157227,0.2786745,-0.17081885,0.3180275
1013,107104807,-0.5635161995887756,-0.8263347744941711,-27.25178337097168,0.17617328,-0.034256328,0.3190918
1014,107121474,-0.5626596212387085,-0.8300832509994507,-27.281442642211918,0.09316602,0.12437202,0.3293352
1015,107138141,-0.5660244822502136,-0.8363583087921143,-27.261796951293945,-0.10829921,0.2667724,0.32424927
1016,107154808,-0.5689205527305603,-0.8381545543670654,-27.23287010192871,-0.21896413,0.19456422,0.32108402
1017,107171475,-0.5725337266921997,-0.8429808020591736,-27.21018409729004,-0.0032907184,0.05306463,0.30597496
1018,107188142,-0.5780609250068665,-0.8415581583976746,-27.21092796325684,0.12929225,-0.021341667,0.3105936
1019,107204809,-0.5803794264793396,-0.8374279737472534,-27.1814079284668,0.4059269,-0.24744359,0.33168697
1020,107221476,-0.5873943567276001,-0.827462911605835,-27.052074432373047,0.34256652,-0.2115919,0.34389973
1021,107238143,-0.5977561473846436,-0.8243225812911987,-26.85989761352539,-0.16541441,-0.052271083,0.33621788
1022,107254810,-0.6076730489730835,-0.8210575580596924,-26.690326690673828,-0.23945728,0.13970815,0.31408978
1023,107271477,-0.6191480755805969,-0.814405083656311,-26.543642044067383,-0.23966411,0.2185632,0.32543564
1024,107288144,-0.6310746669769287,-0.8024214506149292,-26.45745086669922,-0.08003644,0.17027907,0.34471798
1025,107304811,-0.6426018476486206,-0.7935313582420349,-26.437664031982425,0.08515154,-0.010279773,0.32577324
1026,107321478,-0.6476720571517944,-0.7785929441452026,-26.467716217041016,0.03682533,-0.19395128,0.33182526
1027,107338145,-0.655913233757019,-0.7553954720497131,-26.55939674377441,-0.118413046,-0.003939213,0.3337593
1028,107354812,-0.6624433398246765,-0.7308699488639832,-26.64659118652344,-0.13936913,0.2289703,0.32722473
1029,107371479,-0.6699917912483215,-0.7204154133796692,-26.63597679138184,0.031063534,0.114982955,0.31009674
1030,107388146,-0.6710813641548157,-0.7242345213890076,-26.540964126586918,-0.021750297,-0.043397646,0.32446766
1031,107404813,-0.6678719520568848,-0.7199851274490356,-26.524145126342773,-0.107703514,-0.17045173,0.3453064
1032,107421480,-0.6614255905151367,-0.7149938941001892,-26.57918357849121,0.08257005,-0.10321119,0.33083057
1033,107438147,-0.6560961604118347,-0.7129647731781006,-26.64566421508789,-0.078454845,-0.021266084,0.34419823
1034,107454814,-0.6556304693222046,-0.7043074369430542,-26.75981712341309,-0.1198943,0.11924818,0.32487583
1035,107471481,-0.646798312664032,-0.6958890557289124,-26.88412094116211,-0.1358965,-0.02097,0.3420534
1036,107488148,-0.635333240032196,-0.6900229454040527,-26.97606086730957,-0.012301029,0.05710814,0.31828403
1037,107504815,-0.6325677037239075,-0.6873944401741028,-27.025962829589844,-0.06248953,0.005773989,0.33451462
1038,107521482,-0.6251844763755798,-0.6980908513069153,-27.010446548461918,-0.1359355,-0.080584325,0.35103416
1039,107538149,-0.6262394785881042,-0.7097672820091248,-27.004610061645508,-0.18169549,0.06471311,0.33070087
1040,107554816,-0.6250817179679871,-0.7164076566696167,-27.01085662841797,-0.033792943,0.0750901,0.35246658
1041,107571483,-0.624130129814148,-0.7295424938201904,-27.038129806518555,-0.16825007,0.17373316,0.321764
1042,107588150,-0.6216362714767456,-0.7415328621864319,-27.06417655944824,-0.19934778,0.1282616,0.32548904
1043,107604817,-0.6185280680656433,-0.7503162026405334,-27.115480422973636,-0.27047187,0.2282498,0.3305235
1044,107621484,-0.614133358001709,-0.7598774433135986,-27.16830444335937,-0.17339396,0.21249928,0.3115368
1045,107638151,-0.6125116348266602,-0.7688822746276855,-27.20607566833496,-0.0025716177,-0.037287913,0.31644726
1046,107654818,-0.609796404838562,-0.7810458540916443,-27.236400604248047,0.09432733,-0.0732398,0.3274536
1047,107671485,-0.6111275553703308,-0.7965505719184875,-27.239973068237305,-0.053687036,0.027688177,0.34843063
1048,107688152,-0.6152908205986023,-0.8119353652000427,-27.215476989746094,-0.2694879,0.21522543,0.3265047
1049,107704819,-0.6143068671226501,-0.8185597062110901,-27.228912353515625,-0.2767626,0.17943516,0.32063103
1050,107721486,-0.609140157699585,-0.8269584774971008,-27.247249603271484,0.03438661,0.035940744,0.34413815
1051,107738153,-0.6027900576591492,-0.8344420790672302,-27.233051300048828,0.25249135,-0.12795493,0.33341694
1052,107754820,-0.5997838377952576,-0.8398917317390442,-27.205841064453125,0.026593583,-0.13741541,0.34580803
1053,107771487,-0.5925615429878235,-0.8480138182640076,-27.18770408630371,0.019670377,-3.9100796e-05,0.32523727
1054,107788154,-0.5907718539237976,-0.8553184270858765,-27.167133331298828,-0.25630477,0.07454215,0.33116055
1055,107804821,-0.5877731442451477,-0.8579182624816895,-27.153045654296875,-0.05620565,0.069514245,0.34486103
1056,107821488,-0.5882686972618103,-0.8616696000099182,-27.110984802246094,0.054419678,-0.035464074,0.33142567
1057,107838155,-0.5894372463226318,-0.8595274090766907,-27.116619110107425,-0.06422991,-0.025321161,0.340353
1058,107854822,-0.5864174365997314,-0.8605476021766663,-27.137020111083984,0.18256064,-0.09244048,0.34229565
1059,107871489,-0.5848459005355835,-0.8585813045501709,-27.175323486328125,0.15360507,-0.074730694,0.344512
1060,107888156,-0.588775098323822,-0.8623211979866028,-27.1790771484375,0.07038247,0.02648332,0.3274784
1061,107904823,-0.5847874879837036,-0.8596371412277222,-27.17165756225586,-0.15899895,0.12802616,0.33491516
1062,107921490,-0.5811202526092529,-0.8579879999160767,-27.201610565185547,-0.14627495,0.017020881,0.35542965
1063,107938157,-0.5816794037818909,-0.8605642318725586,-27.177000045776367,-0.07590058,-0.102593176,0.3288107
1064,107954824,-0.580506443977356,-0.8586941957473755,-27.213003158569336,-0.12973869,0.08449794,0.31987095
1065,107971491,-0.5879446268081665,-0.8615891933441162,-27.233095169067383,0.16471687,-0.042825367,0.33665466
1066,107988158,-0.5938891172409058,-0.8570895791053772,-27.237133026123047,-0.12970218,0.18462779,0.3283329
1067,108004825,-0.5919898748397827,-0.855502724647522,-27.22137260437012,-0.09189094,0.12693314,0.3408785
1068,108021492,-0.585966944694519,-0.8553549647331238,-27.2276668548584,-0.19245651,0.10023556,0.34548378
1069,108038159,-0.5793061852455139,-0.8550990223884583,-27.24885368347168,-0.22883335,0.024183176,0.33095455
1070,108054826,-0.5728203058242798,-0.8484445214271545,-27.32597923278809,0.013284709,-0.047320094,0.33226395
1071,108071493,-0.5668891072273254,-0.844630241394043,-27.35708999633789,-0.06014881,0.11910618,0.35413074
1072,108088160,-0.5676276683807373,-0.8417659401893616,-27.342737197875977,-0.056382753,0.017814139,0.33824158
1073,108104827,-0.5622065663337708,-0.8384338617324829,-27.31418800354004,-0.09368234,0.017163971,0.33723927
1074,108121494,-0.5620325803756714,-0.8366295099258423,-27.29639434814453,0.067208864,-0.03776468,0.33512402
1075,108138161,-0.562605082988739,-0.8361327052116394,-27.24745178222656,-0.05792819,-0.0033612926,0.33565712
1076,108154828,-0.5704594254493713,-0.8373332619667053,-27.197731018066406,-0.015128876,-0.015238638,0.3339138
1077,108171495,-0.5766478776931763,-0.839144229888916,-27.163463592529297,-0.0031354222,0.051672954,0.33983994
1078,108188162,-0.5804199576377869,-0.8408166170120239,-27.12879180908203,0.03498452,0.041168682,0.33808422
1079,108204829,-0.5805443525314331,-0.8438963294029236,-27.077205657958984,-0.17577998,0.053753354,0.31771564
1080,108221496,-0.5798866152763367,-0.8409218788146973,-27.06605339050293,-0.15953933,0.024127748,0.31320572
1081,108238163,-0.5834923386573792,-0.8359534740447998,-27.060792922973636,-0.2260833,0.13156974,0.31752205
1082,108254830,-0.5859907269477844,-0.8257717490196228,-27.06049346923828,-0.48007718,0.21994375,0.31211662
1083,108271497,-0.5913515686988831,-0.8189547657966614,-27.0635929107666,-0.028751012,0.016023599,0.33775425
1084,108288164,-0.5903024077415466,-0.8154008388519287,-27.06431198120117,-0.017690523,-0.009578578,0.3359766
1085,108304831,-0.5850080251693726,-0.8130145072937012,-27.064373016357425,-0.00076146674,0.0014709318,0.32128716
1086,108321498,-0.5786668658256531,-0.8103617429733276,-27.06437873840332,0.010232182,0.009058366,0.34280872
1087,108338165,-0.5743708610534668,-0.8126187324523926,-27.06361389160156,0.014819447,0.00044539146,0.33899212
1088,108354832,-0.5706844329833984,-0.8146951794624329,-27.06206512451172,-0.009101123,-0.009570007,0.34155273
1089,108371499,-0.5644708275794983,-0.8161612153053284,-27.060813903808597,-0.005515039,-0.012119355,0.34584045
1090,108388166,-0.5586893558502197,-0.8137618899345398,-27.060348510742188,0.009011875,-0.00029683218,0.36096382
1091,108404833,-0.5568920373916626,-0.8085022568702698,-27.06144142150879,0.008763576,-0.0034004492,0.31092453
1092,108421500,-0.5650072693824768,-0.8113289475440979,-27.084566116333008,0.7132471,-0.6572627,0.39605808
1093,108438167,-0.5913712978363037,-0.8280494809150696,-26.991117477416992,-0.2815618,0.33024523,0.30044746
1094,108454834,-0.6062814593315125,-0.8215430378913879,-27.063310623168945,0.1518994,0.07381814,0.33333302
1095,108471501,-0.6087390780448914,-0.8290694952011108,-27.027456283569336,0.15578155,-0.12386476,0.3367529
1096,108488168,-0.6132531762123108,-0.8340798020362854,-27.009889602661133,-0.33279324,0.19732234,0.31787682
1097,108504835,-0.6206085681915283,-0.8319015502929688,-27.053272247314453,-0.22357973,0.12065848,0.32936096
1098,108521502,-0.6207176446914673,-0.8277907967567444,-27.11922836303711,0.14563617,-0.05349585,0.32706547
1099,108538169,-0.6192234754562378,-0.8268288969993591,-27.166168212890625,-0.060180373,0.045015026,0.3484087
1100,108554836,-0.619202196598053,-0.8309550285339355,-27.17732048034668,0.36946747,-0.10766247,0.32446384
1101,108571503,-0.6144810914993286,-0.8397149443626404,-27.085811614990234,-0.19379453,0.031242138,0.31297207
1102,108588170,-0.6101415753364563,-0.84039705991745,-27.083066940307617,0.03236845,-0.030185536,0.33964252
1103,108604837,-0.6085347533226013,-0.8382636308670044,-27.11585998535156,-0.1336193,0.06197686,0.35019016
1104,108621504,-0.6070221662521362,-0.833005428314209,-27.147550582885746,-0.22802408,0.07174298,0.3349161
1105,108638171,-0.6084824800491333,-0.8316594362258911,-27.16593360900879,-0.056396488,0.03721717,0.36269093
1106,108654838,-0.6108897924423218,-0.8318919539451599,-27.16450881958008,-0.00035103408,0.009151116,0.3487215
1107,108671505,-0.6140899062156677,-0.8281717300415039,-27.16841697692871,-0.0045326613,0.02397978,0.324543
