sep=,
DeviceTag:,Movella DOT,,,,,,,,,,,,,,,,,
FirmwareVersion:,3.0.0,,,,,,,,,,,,,,,,,
AppVersion:,2023.6.1,,,,,,,,,,,,,,,,,
SyncStatus:,Un-synced,,,,,,,,,,,,,,,,,
OutputRate:,60Hz,,,,,,,,,,,,,,,,,
FilterProfile:,Dynamic,,,,,,,,,,,,,,,,,
Measurement Mode:,Sensor fusion Mode - Complete (Euler),,,,,,,,,,,,,,,,,
StartTime:,2024-10-20 20:50:53.441 +0700,,,,,,,,,,,,,,,,,
 2024,,,,,,,,,,,,,,,,,,,

PacketCounter,SampleTimeFine,Euler_X,Euler_Y,Euler_Z,FreeAcc_X,FreeAcc_Y,FreeAcc_Z
1, 50080853, -0.654685378074646, -0.8702398538589478, -25.220232009887695, -0.0127045745, -0.008165906, 0.32404804
2, 50097520, -0.6701967716217041, -0.8853604793548584, -25.226831436157227, -0.0191896, -0.009931191, 0.30590057
3, 50114187, -0.6921340823173523, -0.892963707447052, -25.241968154907227, -0.025801204, -0.0056294743, 0.31810093
4, 50130854, -0.7137291431427002, -0.8965931534767151, -25.24970817565918, -0.0143661415, 0.011989947, 0.3197155
5, 50147521, -0.7254115343093872, -0.9002296924591064, -25.221364974975586, -0.00778863, 0.00869332, 0.31458378
6, 50164188, -0.7327824831008911, -0.9073841571807861, -25.190420150756836, -0.025002278, 0.007924554, 0.3128004
7, 50180855, -0.7397310137748718, -0.9149430394172668, -25.171510696411133, -0.02144653, 0.004839321, 0.31211758
8, 50197522, -0.7467345595359802, -0.9238332509994507, -25.164236068725586, -0.0069457977, 0.01754289, 0.3351078
9, 50214189, -0.7515523433685303, -0.936291515827179, -25.18035316467285, -0.024141487, 0.015870992, 0.33308315
10, 50230856, -0.7552318572998047, -0.9470593333244324, -25.163867950439453, -0.016233016, 0.01588985, 0.31804276
11, 50247523, -0.7593935132026672, -0.9574781060218811, -25.15616798400879, -0.021774905, 0.014798821, 0.30855465
12, 50264190, -0.7644664645195007, -0.9696531295776367, -25.146888732910156, -0.028901832, 0.024064012, 0.3219509
13, 50280857, -0.7688220739364624, -0.9826122522354126, -25.13311004638672, -0.016715577, 0.039828777, 0.3431263
14, 50297524, -0.771852970123291, -0.9956470131874084, -25.135671615600586, -0.020067912, 0.031038413, 0.31848526
15, 50314191, -0.7738587856292725, -1.008599877357483, -25.134002685546875, -0.025041103, 0.03536267, 0.32143497
16, 50330858, -0.7757875323295593, -1.021701455116272, -25.13391876220703, -0.012875652, 0.031088592, 0.30815125
17, 50347525, -0.7773960828781128, -1.0359222888946533, -25.137853622436523, -0.03409114, 0.03249131, 0.33170414
18, 50364192, -0.7796369194984436, -1.051077961921692, -25.127864837646484, -0.03521698, 0.042155687, 0.33715343
19, 50380859, -0.7811328172683716, -1.0654264688491821, -25.118751525878906, -0.040088408, 0.038014606, 0.32023716
20, 50397526, -0.7831994891166687, -1.079445481300354, -25.118547439575195, -0.05491269, 0.03314957, 0.32436657
21, 50414193, -0.786120593547821, -1.092824935913086, -25.11349105834961, -0.051915582, 0.029742394, 0.31720924
22, 50430860, -0.7891306281089783, -1.106776237487793, -25.10518455505371, -0.043512817, 0.036928125, 0.320302
23, 50447527, -0.7921764850616455, -1.120546579360962, -25.099544525146484, -0.036852684, 0.033160686, 0.33575058
24, 50464194, -0.7964242696762085, -1.1345120668411255, -25.093324661254883, -0.053598948, 0.04191161, 0.33437347
25, 50480861, -0.8002470135688782, -1.1478859186172485, -25.095582962036133, -0.043607797, 0.049008742, 0.35133648
26, 50497528, -0.8037522435188293, -1.163102626800537, -25.0933895111084, -0.044059794, 0.058591317, 0.3382969
27, 50514195, -0.8077324628829956, -1.1774241924285889, -25.093862533569336, -0.052902177, 0.04940182, 0.35085678
28, 50530862, -0.8098486661911011, -1.1904191970825195, -25.092491149902344, -0.065915346, 0.050200418, 0.32369423
29, 50547529, -0.8131227493286133, -1.2034496068954468, -25.091493606567383, -0.0677182, 0.0498425, 0.34206295
30, 50564196, -0.8160593509674072, -1.2164660692214966, -25.088180541992188, -0.04981661, 0.057025038, 0.32227516
31, 50580863, -0.8184550404548645, -1.2308460474014282, -25.08794403076172, -0.058959827, 0.033991545, 0.31415462
32, 50597530, -0.8211086988449097, -1.2450839281082153, -25.084877014160156, -0.048402973, 0.054295808, 0.3299446
33, 50614197, -0.8242450952529907, -1.2578606605529785, -25.07835578918457, -0.072758056, 0.063229255, 0.33018303
34, 50630864, -0.8271929621696472, -1.2726342678070068, -25.075490951538086, -0.07372561, 0.054235935, 0.32108974
35, 50647531, -0.8297572135925293, -1.2862192392349243, -25.072771072387695, -0.07382924, 0.06420616, 0.32618618
36, 50664198, -0.8313978910446167, -1.299976110458374, -25.069393157958984, -0.07738109, 0.05015696, 0.3378744
37, 50680865, -0.834064245223999, -1.3150979280471802, -25.06592559814453, -0.070229486, 0.06076964, 0.32861805
38, 50697532, -0.8376830816268921, -1.3288965225219727, -25.06726837158203, -0.0817987, 0.06368374, 0.32293892
39, 50714199, -0.8408098816871643, -1.3416111469268799, -25.064029693603516, -0.08267071, 0.07679201, 0.32791996
40, 50730866, -0.8443543910980225, -1.355438470840454, -25.059297561645508, -0.07693342, 0.07175974, 0.32562065
41, 50747533, -0.8470101356506348, -1.3694581985473633, -25.05628204345703, -0.080337666, 0.06688688, 0.32572842
42, 50764200, -0.850305438041687, -1.3833026885986328, -25.05440330505371, -0.08475873, 0.084005974, 0.31292915
43, 50780867, -0.8536216020584106, -1.3960412740707397, -25.053646087646484, -0.07951191, 0.06388832, 0.3362465
44, 50797534, -0.857131838798523, -1.4103258848190308, -25.05375862121582, -0.07158456, 0.085979216, 0.32076645
45, 50814201, -0.8604938983917236, -1.4244168996810913, -25.04853057861328, -0.091072194, 0.07700408, 0.33138084
46, 50830868, -0.8635454177856445, -1.4381415843963623, -25.045724868774414, -0.08607214, 0.0686148, 0.32488918
47, 50847535, -0.8656598329544067, -1.4527207612991333, -25.04290199279785, -0.083618164, 0.074693866, 0.31881428
48, 50864202, -0.8689770102500916, -1.46687912940979, -25.03834342956543, -0.09481056, 0.0840078, 0.31669426
49, 50880869, -0.872109055519104, -1.4802279472351074, -25.034805297851562, -0.09151575, 0.06785645, 0.34188366
50, 50897536, -0.8745176196098328, -1.494666576385498, -25.029935836791992, -0.10394305, 0.0741631, 0.33150196
51, 50914203, -0.8785409331321716, -1.5079773664474487, -25.029010772705078, -0.11287666, 0.09073993, 0.34267712
52, 50930870, -0.8815231919288635, -1.521613597869873, -25.028453826904297, -0.097933345, 0.08774609, 0.34138298
53, 50947537, -0.8855401873588562, -1.5361175537109375, -25.025066375732422, -0.10242351, 0.08917252, 0.31992054
54, 50964204, -0.8891521096229553, -1.5503170490264893, -25.02289390563965, -0.10150485, 0.08750993, 0.32719612
55, 50980871, -0.8924444913864136, -1.5631109476089478, -25.023733139038086, -0.10000769, 0.091865525, 0.33161068
56, 50997538, -0.8959138989448547, -1.5767138004302979, -25.022544860839844, -0.10296068, 0.07929363, 0.33811665
57, 51014205, -0.8990243077278137, -1.5905097723007202, -25.019840240478516, -0.113201, 0.08311276, 0.3340845
58, 51030872, -0.9020829200744629, -1.6061818599700928, -25.01751136779785, -0.12069461, 0.096827574, 0.31694698
59, 51047539, -0.9051098823547363, -1.6200776100158691, -25.014690399169922, -0.11280505, 0.1003041, 0.34227085
60, 51064206, -0.9088452458381653, -1.6335890293121338, -25.01487159729004, -0.10699831, 0.09893049, 0.37104034
61, 51080873, -0.9117357134819031, -1.647533893585205, -25.013078689575195, -0.11044498, 0.11069787, 0.33290195
62, 51097540, -0.9148983955383301, -1.660843849182129, -25.008243560791016, -0.11770262, 0.0971269, 0.31523705
63, 51114207, -0.9177829623222351, -1.6745387315750122, -25.006906509399414, -0.121148504, 0.09706033, 0.31754112
64, 51130874, -0.9214124083518982, -1.6882447004318237, -25.0084228515625, -0.11273186, 0.10231659, 0.32970238
65, 51147541, -0.9247151017189026, -1.7021031379699707, -25.008913040161133, -0.13229254, 0.09675179, 0.31207752
66, 51164208, -0.9281609058380127, -1.7153422832489014, -25.006927490234375, -0.12073717, 0.10872751, 0.31452847
67, 51180875, -0.9313878417015076, -1.7284237146377563, -25.00861930847168, -0.13263908, 0.119653665, 0.33829784
68, 51197542, -0.9352450966835022, -1.7429472208023071, -25.007436752319336, -0.13141805, 0.12076605, 0.32412052
69, 51214209, -0.9379408955574036, -1.7568788528442383, -25.0068416595459, -0.13769366, 0.11155223, 0.33146572
70, 51230876, -0.9420803189277649, -1.7702360153198242, -25.006032943725586, -0.1356518, 0.11129219, 0.34248543
71, 51247543, -0.9456957578659058, -1.7839514017105103, -25.002700805664062, -0.14525034, 0.109191485, 0.32478428
72, 51264210, -0.9495788812637329, -1.7979358434677124, -25.001466751098633, -0.14823475, 0.112522855, 0.33261776
73, 51280877, -0.9518765211105347, -1.8116281032562256, -24.999956130981445, -0.13593371, 0.11277461, 0.322567
74, 51297544, -0.9560124278068542, -1.8238834142684937, -25.002609252929688, -0.13971476, 0.11415744, 0.33293056
75, 51314211, -0.9596735239028931, -1.8380283117294312, -25.002063751220703, -0.13437542, 0.11058317, 0.3110094
76, 51330878, -0.9614730477333069, -1.8508051633834839, -25.001821517944336, -0.13759658, 0.12543567, 0.31426907
77, 51347545, -0.9637341499328613, -1.8653409481048584, -25.001773834228516, -0.1516015, 0.12687421, 0.31296062
78, 51364212, -0.9669606685638428, -1.879220962524414, -25.000680923461914, -0.15227781, 0.12619054, 0.32991982
79, 51380879, -0.9707154631614685, -1.8929568529129028, -25.00144386291504, -0.15384218, 0.12232266, 0.3353567
80, 51397546, -0.9744398593902588, -1.9062633514404297, -25.002891540527344, -0.15367949, 0.13034654, 0.32526207
81, 51414213, -0.9784890413284302, -1.920005440711975, -25.004066467285156, -0.15596008, 0.1334298, 0.30908203
82, 51430880, -0.9822571873664856, -1.9326746463775635, -25.00343132019043, -0.1501782, 0.13545622, 0.31171513
83, 51447547, -0.984667181968689, -1.9444609880447388, -25.0021915435791, -0.15728115, 0.13608702, 0.31264496
84, 51464214, -0.9873114228248596, -1.9580289125442505, -25.00361442565918, -0.16133341, 0.15105386, 0.34160233
85, 51480881, -0.9903386235237122, -1.9712436199188232, -25.004348754882812, -0.17078413, 0.13996583, 0.31849575
86, 51497548, -0.9918196797370911, -1.9824086427688599, -25.007516860961914, -0.16587067, 0.14484115, 0.3210144
87, 51514215, -0.9948031902313232, -1.9943994283676147, -25.009441375732422, -0.15962845, 0.15318255, 0.32090664
88, 51530882, -0.998651385307312, -2.007833480834961, -25.01137351989746, -0.16591416, 0.131872, 0.333642
89, 51547549, -1.0009872913360596, -2.0202414989471436, -25.012880325317383, -0.17110291, 0.14405361, 0.34899712
90, 51564216, -1.0040217638015747, -2.032914161682129, -25.016263961791992, -0.17552999, 0.14909364, 0.32420444
91, 51580883, -1.0069867372512817, -2.044374942779541, -25.02071189880371, -0.18241854, 0.15040757, 0.32938194
92, 51597550, -1.0097459554672241, -2.057745933532715, -25.0237979888916, -0.16920665, 0.14874266, 0.3249979
93, 51614217, -1.012619137763977, -2.070021629333496, -25.02602767944336, -0.18458189, 0.15156558, 0.32760334
94, 51630884, -1.0161616802215576, -2.081881523132324, -25.027690887451172, -0.1761586, 0.14264159, 0.32644653
95, 51647551, -1.0182799100875854, -2.0936999320983887, -25.028364181518555, -0.17645878, 0.14477034, 0.32807827
96, 51664218, -1.0213991403579712, -2.1058688163757324, -25.030393600463867, -0.18725727, 0.15135467, 0.3338213
97, 51680885, -1.024110198020935, -2.118636131286621, -25.03160858154297, -0.19634771, 0.14628257, 0.33294296
98, 51697552, -1.0269243717193604, -2.1300485134124756, -25.03329849243164, -0.1828644, 0.15129118, 0.3275156
99, 51714219, -1.0295137166976929, -2.142573595046997, -25.03612518310547, -0.1828638, 0.14679079, 0.3295431
100, 51730886, -1.0320525169372559, -2.154615640640259, -25.040050506591797, -0.19107018, 0.15588255, 0.3389349
101, 51747553, -1.0351814031600952, -2.167184352874756, -25.043577194213867, -0.19068687, 0.15562905, 0.30133438
102, 51764220, -1.0387191772460938, -2.178941249847412, -25.047767639160156, -0.18013288, 0.15231028, 0.3257122
103, 51780887, -1.040922999382019, -2.1897833347320557, -25.052635192871094, -0.19692308, 0.16384132, 0.33598232
104, 51797554, -1.0445654392242432, -2.20206618309021, -25.05476188659668, -0.2096949, 0.16643706, 0.34518814
105, 51814221, -1.0474385023117065, -2.2152674198150635, -25.05704116821289, -0.19193129, 0.1589784, 0.28894806
106, 51830888, -1.0499030351638794, -2.226900577545166, -25.061872482299805, -0.19619583, 0.17479528, 0.32761383
107, 51847555, -1.0528721809387207, -2.2386624813079834, -25.06546401977539, -0.19306248, 0.16891746, 0.32252693
108, 51864222, -1.0546386241912842, -2.2486348152160645, -25.070011138916016, -0.1954387, 0.15960877, 0.33520508
109, 51880889, -1.058355689048767, -2.259993076324463, -25.07623863220215, -0.20132846, 0.17125534, 0.33056355
110, 51897556, -1.0607861280441284, -2.2711234092712402, -25.08188247680664, -0.20740278, 0.18240984, 0.314888
111, 51914223, -1.0649442672729492, -2.2816083431243896, -25.089733123779297, -0.21313308, 0.16325168, 0.3233652
112, 51930890, -1.0672131776809692, -2.2918739318847656, -25.09636878967285, -0.20901006, 0.16724193, 0.30380058
113, 51947557, -1.0695586204528809, -2.303311586380005, -25.104148864746094, -0.21246551, 0.16554274, 0.3215952
114, 51964224, -1.0727514028549194, -2.3140721321105957, -25.108423233032227, -0.22246747, 0.18459111, 0.30502892
115, 51980891, -1.076235294342041, -2.3242337703704834, -25.112945556640625, -0.21058579, 0.17350554, 0.31961918
116, 51997558, -1.0796611309051514, -2.3345255851745605, -25.118896484375, -0.22543968, 0.17180648, 0.32680035
117, 52014225, -1.0813584327697754, -2.3455076217651367, -25.125499725341797, -0.2132331, 0.15536514, 0.32323933
118, 52030892, -1.0835140943527222, -2.355684757232666, -25.129600524902344, -0.21832365, 0.16307932, 0.31588554
119, 52047559, -1.0843331813812256, -2.3665239810943604, -25.13518714904785, -0.21402837, 0.17798635, 0.30680656
120, 52064226, -0.6901285648345947, -0.7627232074737549, -25.49422836303711, 0.010320148, -0.016514463, 0.3133917
121, 52080893, -0.6909447312355042, -0.7633447051048279, -25.492403030395508, -0.008851899, 0.0062828935, 0.33817768
122, 52097560, -0.6914523243904114, -0.7628982663154602, -25.49132537841797, 0.0041201226, 0.012258414, 0.32270527
123, 52114227, -0.6909063458442688, -0.7630212903022766, -25.490367889404297, -0.0024856143, 0.0071125035, 0.32433414
124, 52130894, -0.690933108329773, -0.7632332444190979, -25.488073348999023, -0.012524479, -0.019066857, 0.34414768
125, 52147561, -0.6900396347045898, -0.763108491897583, -25.48613739013672, -0.0024497788, -0.014437079, 0.34115314
126, 52164228, -0.6897280216217041, -0.762642502784729, -25.48303985595703, 0.011113068, -0.012182063, 0.34121323
127, 52180895, -0.6900794506072998, -0.761717677116394, -25.48126220703125, 0.010922614, 0.0039492156, 0.32650852
128, 52197562, -0.6907031536102295, -0.7620983123779297, -25.479326248168945, -0.008411882, 0.0019069427, 0.32975483
129, 52214229, -0.6909549832344055, -0.7631546854972839, -25.4753475189209, 0.0072451723, 5.468244E-4, 0.33020592
130, 52230896, -0.6910360455513, -0.7620687484741211, -25.47135353088379, 0.01028382, 0.0048344387, 0.3127575
131, 52247563, -0.6901442408561707, -0.7628867030143738, -25.469554901123047, 0.0041548545, -0.011030225, 0.33723068
132, 52264230, -0.6915283799171448, -0.763552188873291, -25.467947006225586, 0.013937192, 0.0056513227, 0.34166813
133, 52280897, -0.691828727722168, -0.7642569541931152, -25.46695899963379, 0.0018876437, -0.003594724, 0.32846355
134, 52297564, -0.6911278963088989, -0.7647725939750671, -25.464181900024414, 1.0555748E-4, -0.003368843, 0.34351826
135, 52314231, -0.6909774541854858, -0.7638334035873413, -25.461837768554688, 0.00320571, -0.009697033, 0.31917
136, 52330898, -0.6907436847686768, -0.7621362209320068, -25.45912742614746, -0.004016458, -0.0029238358, 0.3164158
137, 52347565, -0.6905835270881653, -0.7618414163589478, -25.456924438476562, 0.005039791, 0.010246672, 0.33807373
138, 52364232, -0.6897992491722107, -0.7618260383605957, -25.45488166809082, -0.008352839, -0.0062586702, 0.34291458
139, 52380899, -0.689798891544342, -0.7599257230758667, -25.451391220092773, 0.009825619, 0.0021955678, 0.31828308
140, 52397566, -0.6884047985076904, -0.7594857811927795, -25.4500732421875, 0.004327043, -0.009122856, 0.33932877
141, 52414233, -0.6881377100944519, -0.7595349550247192, -25.447978973388672, 0.01152701, -0.0043940134, 0.35120487
142, 52430900, -0.6889037489891052, -0.7608294486999512, -25.448650360107422, -0.0032028917, 0.0076059713, 0.32986832
143, 52447567, -0.6887262463569641, -0.7587647438049316, -25.4489803314209, 0.005999912, 0.00761788, 0.32072544
144, 52464234, -0.689067006111145, -0.758571207523346, -25.447072982788086, -0.0020713573, -0.010798861, 0.30836105
145, 52480901, -0.6897591352462769, -0.7587985992431641, -25.444984436035156, 0.0018452986, -0.003384091, 0.32579422
146, 52497568, -0.6900048851966858, -0.75890052318573, -25.443437576293945, 0.010849057, -0.010939052, 0.33413506
147, 52514235, -0.6895954608917236, -0.7600422501564026, -25.440813064575195, 0.004881757, -0.010217971, 0.34441566
148, 52530902, -0.6900381445884705, -0.7599891424179077, -25.438478469848633, 0.016015256, 0.009551281, 0.3461876
149, 52547569, -0.6904285550117493, -0.759798526763916, -25.43603515625, 0.003626861, 0.0038157713, 0.3309555
150, 52564236, -0.6910775899887085, -0.7589108943939209, -25.434167861938477, 0.0039779055, -0.013296094, 0.358984
151, 52580903, -0.6919779777526855, -0.7597667574882507, -25.433086395263672, -0.0013787048, 0.008840677, 0.32082176
152, 52597570, -0.6932040452957153, -0.7591039538383484, -25.432340621948242, -0.0034814936, 0.008783207, 0.3331585
153, 52614237, -0.6933203935623169, -0.7598671317100525, -25.429729461669922, -0.006710659, -0.007980299, 0.35113335
154, 52630904, -0.6939685344696045, -0.7600641846656799, -25.427621841430664, 0.0043980363, 0.01355335, 0.33588123
155, 52647571, -0.6938139796257019, -0.7583266496658325, -25.426069259643555, -0.0059115198, -0.0029544362, 0.32342434
156, 52664238, -0.6941251754760742, -0.7577216625213623, -25.4244327545166, -0.002151466, -4.6712812E-4, 0.32938766
157, 52680905, -0.6944516897201538, -0.7580387592315674, -25.423322677612305, 0.019065417, 0.0036078624, 0.32353973
158, 52697572, -0.6941953897476196, -0.758623480796814, -25.42259979248047, -0.0032694568, 0.004391059, 0.34710598
159, 52714239, -0.6943340301513672, -0.7571167945861816, -25.419443130493164, 0.0023710045, -0.008347091, 0.33951473
160, 52730906, -0.6948006749153137, -0.7556041479110718, -25.41857147216797, -0.0023800149, 0.0025921846, 0.3404007
161, 52747573, -0.6940911412239075, -0.7552202939987183, -25.41786003112793, 0.0010443608, -0.0017550726, 0.3245268
162, 52764240, -0.6941062808036804, -0.7544749975204468, -25.416501998901367, -5.941463E-4, -0.0068987063, 0.32438755
163, 52780907, -0.6946450471878052, -0.7549641132354736, -25.416053771972656, 0.006243967, -0.01202432, 0.33223915
164, 52797574, -0.6936900615692139, -0.7547876238822937, -25.415075302124023, 0.014035464, -0.0040218155, 0.34235477
165, 52814241, -0.6932448148727417, -0.7546249628067017, -25.41288185119629, -0.0029153912, 5.6516647E-4, 0.33879185
166, 52830908, -0.6926371455192566, -0.752975583076477, -25.411090850830078, -0.0041497312, 0.0052480004, 0.3460245
167, 52847575, -0.693017303943634, -0.7529367804527283, -25.410051345825195, 0.004808207, 0.0019047634, 0.3306265
168, 52864242, -0.6929716467857361, -0.7515231370925903, -25.410690307617188, 0.0073658135, -0.0077962507, 0.33988857
169, 52880909, -0.6940169334411621, -0.7524236440658569, -25.41033363342285, 0.010874077, 0.0044660894, 0.33690453
170, 52897576, -0.6940760016441345, -0.7534970045089722, -25.408842086791992, 0.0068835355, -8.372656E-4, 0.3431425
171, 52914243, -0.6952701210975647, -0.752900242805481, -25.406429290771484, 0.0071879076, 0.0051474962, 0.32895088
172, 52930910, -0.6951505541801453, -0.7535604238510132, -25.40436553955078, -0.0015404373, -0.0036790932, 0.3382225
173, 52947577, -0.6968951225280762, -0.7523705959320068, -25.401952743530273, -0.003810606, 0.012618299, 0.3421669
174, 52964244, -0.6972702145576477, -0.7518736720085144, -25.399559020996094, 0.0037158784, 0.0064658946, 0.31714058
175, 52980911, -0.6971908211708069, -0.7517024278640747, -25.3978271484375, 0.015262673, 0.0013392477, 0.33272648
176, 52997578, -0.6966923475265503, -0.7519301176071167, -25.396791458129883, 0.007158582, 0.006729249, 0.346241
177, 53014245, -0.6973838806152344, -0.7519253492355347, -25.394912719726562, -0.004984105, 0.010733322, 0.33285332
178, 53030912, -0.6968682408332825, -0.7525537610054016, -25.394224166870117, 0.005126514, -0.003740161, 0.32523537
179, 53047579, -0.6976683735847473, -0.7523241639137268, -25.393966674804688, 0.012180353, -1.478189E-4, 0.32872486
180, 53064246, -0.6970452666282654, -0.7533772587776184, -25.392358779907227, 5.4841E-4, -0.002516169, 0.32257175
181, 53080913, -0.6951330900192261, -0.7535998821258545, -25.391521453857422, 0.013480402, 0.0033186923, 0.34567165
182, 53097580, -0.6949135661125183, -0.7528485655784607, -25.390371322631836, -0.0024365846, 0.023056395, 0.33122063
183, 53114247, -0.6949822902679443, -0.7514925599098206, -25.38886260986328, 0.005521605, 0.009405488, 0.3266983
184, 53130914, -0.6957805752754211, -0.7522626519203186, -25.387712478637695, -0.0013114832, 0.0029798467, 0.33916378
185, 53147581, -0.6954909563064575, -0.7526633739471436, -25.385780334472656, 0.009682197, -0.0017334548, 0.33450413
186, 53164248, -0.696267306804657, -0.7516494989395142, -25.38433265686035, 0.005125627, -0.0108984215, 0.31857777
187, 53180915, -0.6957897543907166, -0.7521583437919617, -25.383447647094727, 0.0025787773, -0.0010930832, 0.33621216
188, 53197582, -0.6962230801582336, -0.7525008916854858, -25.382883071899414, 0.0029814043, 0.0012649506, 0.35194206
189, 53214249, -0.696429431438446, -0.7527773976325989, -25.38130760192871, 0.018494476, 0.006684462, 0.33554363
190, 53230916, -0.6965304017066956, -0.7524885535240173, -25.380321502685547, 0.006282813, 0.00222248, 0.31516743
191, 53247583, -0.6974416971206665, -0.7539180517196655, -25.378995895385742, 0.0041427743, -0.0025687367, 0.35645103
192, 53264250, -0.6976984739303589, -0.7542651891708374, -25.3770694732666, -0.0031276168, -0.0036370866, 0.33738518
193, 53280917, -0.6983777284622192, -0.7539798617362976, -25.374996185302734, -3.0418716E-5, -0.008832478, 0.33272648
194, 53297584, -0.6984413862228394, -0.7546513080596924, -25.374164581298828, 0.010075266, -7.848797E-4, 0.33608723
195, 53314251, -0.6984034776687622, -0.7544064521789551, -25.37262535095215, 0.0135267, -0.001105977, 0.35788345
196, 53330918, -0.6986120343208313, -0.7546297907829285, -25.372066497802734, 0.016505122, 0.0031442754, 0.31575203
197, 53347585, -0.6980726718902588, -0.7560901641845703, -25.371192932128906, -5.1593775E-4, -0.008041871, 0.33546448
198, 53364252, -0.6983574032783508, -0.7569130063056946, -25.371145248413086, 0.0039286907, 0.006719917, 0.3185196
199, 53380919, -0.6975414156913757, -0.7575970888137817, -25.369123458862305, 0.015167823, 0.011660769, 0.3273716
200, 53397586, -0.6967738270759583, -0.7564175724983215, -25.367061614990234, 0.0068148645, 0.012898221, 0.33912277
201, 53414253, -0.6961629390716553, -0.7573683857917786, -25.366249084472656, -0.0029553548, 0.0014502219, 0.3297825
202, 53430920, -0.6956579089164734, -0.7569164037704468, -25.366073608398438, 0.002589649, 0.008146021, 0.33250046
203, 53447587, -0.6950035691261292, -0.757080614566803, -25.366479873657227, 0.012790061, -0.003724138, 0.33942318
204, 53464254, -0.6952470541000366, -0.7571616768836975, -25.366687774658203, 0.0021003408, 0.013543656, 0.3458767
205, 53480921, -0.696271538734436, -0.7573200464248657, -25.365530014038086, 0.0015607525, 0.016474176, 0.32514572
206, 53497588, -0.6967743039131165, -0.7570702433586121, -25.3659610748291, -0.0053182812, -0.0021298688, 0.34319687
207, 53514255, -0.6963433623313904, -0.7556758522987366, -25.36465835571289, 0.0012935847, 0.023764443, 0.32549477
208, 53530922, -0.6958386898040771, -0.7552720308303833, -25.364002227783203, 0.0034616883, 0.006449243, 0.32962227
209, 53547589, -0.6947803497314453, -0.7539253234863281, -25.363569259643555, 0.0046610064, -6.4527494E-4, 0.34326458
210, 53564256, -0.6952574253082275, -0.7547178864479065, -25.362138748168945, 0.0057759555, -0.0031066206, 0.3232298
211, 53580923, -0.695155918598175, -0.7558244466781616, -25.360782623291016, 0.007396138, 0.0069752387, 0.3511238
212, 53597590, -0.6954258680343628, -0.7551984190940857, -25.358877182006836, 0.023229688, -0.013322126, 0.33512497
213, 53614257, -0.6955694556236267, -0.754889726638794, -25.358089447021484, 0.018687217, -0.010122525, 0.34859657
214, 53630924, -0.6954711675643921, -0.7539142966270447, -25.358064651489258, 0.011023628, -0.003984195, 0.3487482
215, 53647591, -0.6947516798973083, -0.7541034817695618, -25.356969833374023, -0.0067950245, 0.005430722, 0.32696438
216, 53664258, -0.6935707926750183, -0.7545543313026428, -25.356342315673828, 0.0051211705, -0.00212887, 0.352664
217, 53680925, -0.6927399635314941, -0.7544834613800049, -25.355724334716797, 0.016063465, 0.0034537152, 0.34571838
218, 53697592, -0.6918290853500366, -0.754564106464386, -25.35494613647461, 0.006726933, -0.0042635375, 0.33008766
219, 53714259, -0.6910141706466675, -0.7555163502693176, -25.354597091674805, 0.011078752, -0.0017569725, 0.33916283
220, 53730926, -0.6907182931900024, -0.7565549612045288, -25.35401153564453, 0.017945202, -0.0021814236, 0.3505659
221, 53747593, -0.6903398036956787, -0.7563316226005554, -25.352394104003906, 0.002611693, -9.257697E-4, 0.3186388
222, 53764260, -0.6906434297561646, -0.7554084062576294, -25.35113525390625, -0.0060925893, 3.5824237E-4, 0.343812
223, 53780927, -0.6915119886398315, -0.7563561797142029, -25.35087776184082, -0.012145366, 0.014644778, 0.34400463
224, 53797594, -0.6924276947975159, -0.757731556892395, -25.350940704345703, 0.0031304038, -0.01588693, 0.3475933
225, 53814261, -0.6917952299118042, -0.7577887177467346, -25.35109519958496, 0.0050992174, -0.01048398, 0.34031487
226, 53830928, -0.6918424963951111, -0.7567022442817688, -25.35224151611328, -1.18192955E-4, 0.0063768667, 0.32271576
227, 53847595, -0.6927386522293091, -0.7566372752189636, -25.35075569152832, 0.002443936, -0.0055622878, 0.34167576
228, 53864262, -0.6923642158508301, -0.7570095062255859, -25.351364135742188, 0.0029618784, -0.0011913101, 0.3188467
229, 53880929, -0.690904438495636, -0.7579877376556396, -25.3494930267334, 1.422206E-4, 0.012415879, 0.29337978
230, 53897596, -0.6905581951141357, -0.7576682567596436, -25.348878860473633, 0.0013950596, -0.005713145, 0.31523705
231, 53914263, -0.6894917488098145, -0.7572940587997437, -25.348758697509766, 0.0096127195, -0.0015246588, 0.35359287
232, 53930930, -0.6888346672058105, -0.7575434446334839, -25.347536087036133, 0.00618314, -0.0046528415, 0.3392191
233, 53947597, -0.6887146830558777, -0.7577497363090515, -25.346179962158203, 0.006842098, 0.014093728, 0.33271027
234, 53964264, -0.6881387829780579, -0.7575021386146545, -25.344879150390625, 0.00919766, -0.0065953713, 0.35250092
235, 53980931, -0.6879057884216309, -0.757923424243927, -25.342069625854492, 0.004054972, 0.004610192, 0.33463287
236, 53997598, -0.6876352429389954, -0.7574873566627502, -25.34043312072754, -0.0069351424, 3.893037E-4, 0.3365364
237, 54014265, -0.6871010065078735, -0.7566190361976624, -25.341114044189453, -0.0072758673, -0.009645262, 0.33626366
238, 54030932, -0.6869547963142395, -0.7570900321006775, -25.340805053710938, 0.0027157278, -0.009619334, 0.33118534
239, 54047599, -0.6861269474029541, -0.7576629519462585, -25.33966636657715, -0.0021539838, -0.013905761, 0.32854939
240, 54064266, -0.6855026483535767, -0.7627838850021362, -25.345975875854492, 0.00895438, -0.0022660024, 0.3424015
241, 54080933, -0.686022937297821, -0.7631875872612, -25.345914840698242, 0.004246505, -0.012781819, 0.33187866
242, 54097600, -0.686477541923523, -0.7638393044471741, -25.346147537231445, -6.166094E-4, -0.001307467, 0.3158121
243, 54114267, -0.6868188977241516, -0.7620497345924377, -25.345388412475586, -0.0021832571, -0.009950077, 0.34214973
244, 54130934, -0.6876956820487976, -0.7607631683349609, -25.344392776489258, 0.008990739, -0.0071199215, 0.3370371
245, 54147601, -0.687814474105835, -0.7606728672981262, -25.344026565551758, 0.007634078, -0.004291323, 0.35455322
246, 54164268, -0.686773955821991, -0.761275589466095, -25.341903686523438, 0.0028528739, 0.0013715314, 0.3263874
247, 54180935, -0.686619758605957, -0.7620216012001038, -25.34056282043457, 0.0045574503, 0.0038761757, 0.328022
248, 54197602, -0.6862058043479919, -0.7616321444511414, -25.340242385864258, 0.0020923608, -0.0070665227, 0.34160614
249, 54214269, -0.6866952180862427, -0.7618004083633423, -25.33985710144043, -0.009060671, 0.005507925, 0.32718468
250, 54230936, -0.6858987808227539, -0.7624207139015198, -25.339284896850586, 0.0026566505, -0.0131115215, 0.33543015
251, 54247603, -0.6853992938995361, -0.7624421119689941, -25.338499069213867, 0.014500832, 0.01373039, 0.34220886
252, 54264270, -0.6859421133995056, -0.7640826106071472, -25.338022232055664, 0.01207133, -0.0013721042, 0.3286829
253, 54280937, -0.6868687272071838, -0.7647541761398315, -25.337562561035156, 0.009833795, -0.014522607, 0.32161903
254, 54297604, -0.6867976188659668, -0.7645972371101379, -25.337135314941406, 0.009436759, 0.009849923, 0.34257603
255, 54314271, -0.6863564252853394, -0.7647795081138611, -25.337358474731445, 0.0053484556, -0.0036463973, 0.30939388
256, 54330938, -0.6861880421638489, -0.7643784284591675, -25.337125778198242, 0.007438962, 0.0013759318, 0.3178215
257, 54347605, -0.6859725117683411, -0.7645521759986877, -25.336376190185547, -8.9826365E-4, -0.008791352, 0.31787872
258, 54364272, -0.6851483583450317, -0.7642943263053894, -25.335853576660156, -0.0024255766, -0.0050442684, 0.349432
259, 54380939, -0.6860138177871704, -0.7647088170051575, -25.33486557006836, 0.008542236, -0.0012984566, 0.33507442
260, 54397606, -0.6865781545639038, -0.764974057674408, -25.33592987060547, 0.002882011, -0.0028298695, 0.33469486
261, 54414273, -0.6870690584182739, -0.7648509740829468, -25.337032318115234, 0.0102435425, 2.1066096E-5, 0.33218575
262, 54430940, -0.6865180730819702, -0.76572185754776, -25.336280822753906, 0.009438278, -0.010741676, 0.3165846
263, 54447607, -0.6858066320419312, -0.7658737897872925, -25.33481788635254, 0.0018212569, 0.0021034945, 0.34566116
264, 54464274, -0.6853543519973755, -0.7674497961997986, -25.334566116333008, 0.005761225, -0.004189848, 0.34967518
265, 54480941, -0.6859748363494873, -0.7676492929458618, -25.334941864013672, -9.792312E-5, 0.0018605288, 0.35298157
266, 54497608, -0.6864098906517029, -0.7681390643119812, -25.335128784179688, 0.0034427177, -8.959936E-4, 0.34593678
267, 54514275, -0.6878986954689026, -0.7684481143951416, -25.336353302001953, 0.0054397606, 0.0060473178, 0.31519222
268, 54530942, -0.687362551689148, -0.7679778337478638, -25.335681915283203, -0.003046541, 0.005745708, 0.33681297
269, 54547609, -0.6867515444755554, -0.7677125334739685, -25.334774017333984, -0.0051202415, -0.0011757549, 0.32409096
270, 54564276, -0.6868525147438049, -0.7695035338401794, -25.33488655090332, 0.0051621576, -0.013753702, 0.34005737
271, 54580943, -0.6872427463531494, -0.7686280608177185, -25.33412742614746, -0.0019635125, 0.0022269783, 0.32940865
272, 54597610, -0.687123715877533, -0.7699199914932251, -25.334796905517578, 0.010530866, -0.0024012625, 0.33583355
273, 54614277, -0.6871393322944641, -0.7697771787643433, -25.333011627197266, 0.0076223784, 0.0018227411, 0.3337984
274, 54630944, -0.687065839767456, -0.7704307436943054, -25.33353614807129, -0.012691209, 0.0029776676, 0.33320045
275, 54647611, -0.6878409385681152, -0.7699683308601379, -25.333114624023438, 0.0067098658, 0.006900669, 0.33880997
276, 54664278, -0.6875588893890381, -0.770042896270752, -25.33238983154297, -0.0052132476, 0.005084312, 0.33395767
277, 54680945, -0.686410665512085, -0.7713273167610168, -25.331256866455078, 0.0023578627, -0.0015321883, 0.33248425
278, 54697612, -0.6873899102210999, -0.7726596593856812, -25.331058502197266, 0.005085293, -0.0032054482, 0.3242426
279, 54714279, -0.6869765520095825, -0.7726359367370605, -25.329538345336914, 0.0025691872, -0.005883336, 0.33102703
280, 54730946, -0.6867581009864807, -0.7734693884849548, -25.328218460083008, 0.011750956, -0.008803484, 0.3507719
281, 54747613, -0.6860665082931519, -0.7729764580726624, -25.327144622802734, 0.009139564, -0.012199169, 0.34481716
282, 54764280, -0.6855559349060059, -0.773099958896637, -25.326845169067383, -0.0027954765, -0.00790675, 0.3241768
283, 54780947, -0.6859232783317566, -0.7735030055046082, -25.32555389404297, -1.1579717E-4, -0.013976181, 0.3301735
284, 54797614, -0.6857250332832336, -0.7731099724769592, -25.32463836669922, 0.0026165685, 0.007107712, 0.36149883
285, 54814281, -0.6863300800323486, -0.7731486558914185, -25.324901580810547, 0.003833813, -0.010356285, 0.34834385
286, 54830948, -0.6853974461555481, -0.7734612822532654, -25.323759078979492, -0.004801893, 0.0030456923, 0.3404951
287, 54847615, -0.6847160458564758, -0.7740882039070129, -25.322904586791992, -0.018040482, -0.013851888, 0.32049847
288, 54864282, -0.6842904090881348, -0.7739966511726379, -25.3228816986084, 7.1175606E-4, 0.0057894047, 0.3360014
289, 54880949, -0.6848856210708618, -0.7742065191268921, -25.322509765625, 0.0019518408, 0.010799049, 0.33793926
290, 54897616, -0.6853718757629395, -0.7729686498641968, -25.32275390625, -0.009936663, 0.006160967, 0.34127426
291, 54914283, -0.6851471066474915, -0.7720780372619629, -25.323524475097656, -0.0018593728, 0.015309698, 0.34554005
292, 54930950, -0.6847297549247742, -0.7730821967124939, -25.321868896484375, 0.0032059755, 0.012035712, 0.33320045
293, 54947617, -0.6838235259056091, -0.7745103240013123, -25.320642471313477, 0.009797411, 0.0013182794, 0.31216526
294, 54964284, -0.6837925910949707, -0.7738488912582397, -25.320058822631836, 0.0033093502, -0.0016408645, 0.3582611
295, 54980951, -0.6837523579597473, -0.7740663290023804, -25.317825317382812, 0.013165538, 0.010594193, 0.34103775
296, 54997618, -0.684287428855896, -0.7736278176307678, -25.317180633544922, -0.017238209, -0.0047031944, 0.33873844
297, 55014285, -0.6833027601242065, -0.7718179225921631, -25.315217971801758, -0.004585899, -0.002517594, 0.33459377
298, 55030952, -0.6828814744949341, -0.7719421982765198, -25.315488815307617, -0.015421301, -0.0072391727, 0.33296013
299, 55047619, -0.68196040391922, -0.7733131647109985, -25.315658569335938, -0.0032049522, 0.005686016, 0.34662056
300, 55064286, -0.6829336285591125, -0.7737621665000916, -25.3156681060791, -0.0065632835, 0.005957354, 0.3215475
301, 55080953, -0.6827423572540283, -0.7725983262062073, -25.315738677978516, 0.0023740917, 0.002881089, 0.34564877
302, 55097620, -0.6829453706741333, -0.7738978862762451, -25.315576553344727, 0.0073718866, -0.006070605, 0.34918022
303, 55114287, -0.6828408241271973, -0.7735515236854553, -25.316301345825195, 0.0085467445, 0.009194617, 0.34723663
304, 55130954, -0.6823897957801819, -0.7730035781860352, -25.31557846069336, -0.0027191713, -0.006436258, 0.33052254
305, 55147621, -0.6817351579666138, -0.7733827233314514, -25.316715240478516, -0.009968472, 0.0062042237, 0.32722664
306, 55164288, -0.6820920705795288, -0.7727338075637817, -25.316144943237305, -0.004019657, 0.0017656755, 0.3383789
307, 55180955, -0.6809781789779663, -0.7729805111885071, -25.315650939941406, 7.365974E-4, -0.006776752, 0.344141
308, 55197622, -0.6809200048446655, -0.7729545831680298, -25.314239501953125, 0.0059726713, -1.4218218E-4, 0.32282925
309, 55214289, -0.6812392473220825, -0.7732782363891602, -25.313133239746094, 0.008390628, -0.0040300083, 0.33350086
310, 55230956, -0.6814953684806824, -0.7731782793998718, -25.314350128173828, 9.166406E-4, -0.008208646, 0.32304192
311, 55247623, -0.6812888979911804, -0.7739671468734741, -25.315237045288086, 0.004344257, 0.008137415, 0.3346281
312, 55264290, -0.6800330281257629, -0.7731621861457825, -25.31644058227539, -0.00766084, -0.0063868337, 0.3285036
313, 55280957, -0.6807313561439514, -0.7717218995094299, -25.31516456604004, -0.0012191689, -0.009378492, 0.33857632
314, 55297624, -0.6810681223869324, -0.7721105217933655, -25.314807891845703, 0.009096558, 0.0035312881, 0.32648277
315, 55314291, -0.6809183955192566, -0.7708908319473267, -25.314973831176758, -0.00897583, 0.002369377, 0.3250742
316, 55330958, -0.6806178092956543, -0.769950807094574, -25.3134765625, -1.0493584E-4, -4.4375006E-4, 0.32850742
317, 55347625, -0.6805477142333984, -0.7687132358551025, -25.3128719329834, -0.0028187567, 0.005991132, 0.36091042
318, 55364292, -0.6795564293861389, -0.7677977681159973, -25.310914993286133, -0.003089644, 0.009772175, 0.34305477
319, 55380959, -0.6798519492149353, -0.7684907913208008, -25.310382843017578, -0.006577665, -0.0020552087, 0.3276062
320, 55397626, -0.6796227693557739, -0.7703543901443481, -25.31111717224121, 0.0014979873, -0.007237245, 0.3385496
321, 55414293, -0.6789371967315674, -0.7696145176887512, -25.310779571533203, -0.0032444827, -0.0018018148, 0.3207636
322, 55430960, -0.6797539591789246, -0.7698907852172852, -25.309436798095703, -0.0031677617, 0.00336607, 0.31994247
323, 55447627, -0.6797093152999878, -0.7688502073287964, -25.30967140197754, 0.014577019, -0.007541006, 0.32616043
324, 55464294, -0.6807449460029602, -0.7684869766235352, -25.30966567993164, 0.0041743736, -0.004474045, 0.3329506
325, 55480961, -0.6808443069458008, -0.7696090340614319, -25.3095645904541, 0.009978883, 0.010641256, 0.3387165
326, 55497628, -0.6801503896713257, -0.769313395023346, -25.310667037963867, -0.0013062307, -0.008418343, 0.31837654
327, 55514295, -0.6802384853363037, -0.7691080570220947, -25.310514450073242, -0.0039437115, -6.441364E-4, 0.3565998
328, 55530962, -0.6806306838989258, -0.7691632509231567, -25.311325073242188, 0.0020962476, -0.011246446, 0.34337902
329, 55547629, -0.6798497438430786, -0.7690589427947998, -25.309968948364258, 0.0055406834, 0.0070230216, 0.3328209
330, 55564296, -0.6783877015113831, -0.7686474919319153, -25.31000328063965, -0.010088635, 0.0031213723, 0.31795216
331, 55580963, -0.6787852048873901, -0.7680114507675171, -25.309738159179688, 0.004279582, -0.008677436, 0.33162785
332, 55597630, -0.6783081293106079, -0.768814742565155, -25.30951690673828, -0.0021835505, -0.008294845, 0.3310566
333, 55614297, -0.6777732968330383, -0.7678887844085693, -25.309165954589844, -0.0027815488, -0.0013294201, 0.32973003
334, 55630964, -0.6771740913391113, -0.7676934599876404, -25.308914184570312, 5.791081E-5, -0.0045322212, 0.32927418
335, 55647631, -0.6771509051322937, -0.7698904275894165, -25.30831527709961, 0.008307921, -0.016833214, 0.32715416
336, 55664298, -0.6783490777015686, -0.7706332206726074, -25.30772590637207, 0.013442391, -0.0075099654, 0.36090088
337, 55680965, -0.6793366074562073, -0.7707871794700623, -25.306657791137695, 0.019207366, -0.0075920788, 0.35030937
338, 55697632, -0.6801004409790039, -0.7714640498161316, -25.306480407714844, -0.007329035, -0.00781205, 0.34356308
339, 55714299, -0.680059552192688, -0.7712001204490662, -25.305465698242188, -0.010119483, 0.0027873043, 0.33016586
340, 55730966, -0.679252028465271, -0.7710365056991577, -25.304067611694336, -0.0025290386, 0.007913022, 0.33202648
341, 55747633, -0.6796338558197021, -0.7721431851387024, -25.303810119628906, 0.0089197215, -0.0047247075, 0.32879925
342, 55764300, -0.6804150938987732, -0.7724127769470215, -25.30350112915039, -0.0024976246, -0.0018576371, 0.32637024
343, 55780967, -0.6807799339294434, -0.7732672095298767, -25.302698135375977, -0.0067065796, -0.016374748, 0.34195805
344, 55797634, -0.6809762120246887, -0.7731723785400391, -25.3028621673584, -8.806201E-4, 0.011455549, 0.34430885
345, 55814301, -0.6808125376701355, -0.7728062272071838, -25.30360984802246, -0.0022394427, -0.0024925815, 0.34440422
346, 55830968, -0.6807398200035095, -0.7726759314537048, -25.302303314208984, 0.0032411893, -0.014987242, 0.32997608
347, 55847635, -0.6806988716125488, -0.771689772605896, -25.30191421508789, -0.0075103464, -0.008917685, 0.32801247
348, 55864302, -0.6804747581481934, -0.7714633345603943, -25.299577713012695, -0.004322758, -0.010032491, 0.34283733
349, 55880969, -0.680724561214447, -0.7722353339195251, -25.300012588500977, 0.006937172, -2.3431143E-4, 0.318635
350, 55897636, -0.6801408529281616, -0.7702570557594299, -25.29897117614746, 0.00571465, 7.559697E-4, 0.3303299
351, 55914303, -0.6799596548080444, -0.7704969048500061, -25.2988338470459, 0.0020404742, 0.01373959, 0.347085
352, 55930970, -0.6799700260162354, -0.7718060612678528, -25.298574447631836, -9.29751E-4, 0.0041271667, 0.31610394
353, 55947637, -0.6799628734588623, -0.772278904914856, -25.297542572021484, 0.0021298549, -0.0027164507, 0.3333931
354, 55964304, -0.6797297596931458, -0.7723695635795593, -25.29615592956543, 0.0047287415, 5.823001E-4, 0.35111427
355, 55980971, -0.6794452667236328, -0.7722262740135193, -25.294404983520508, -0.0044091595, -0.0010016104, 0.35595322
356, 55997638, -0.6799527406692505, -0.7720711827278137, -25.29495620727539, 0.004132517, -0.00899741, 0.34712124
357, 56014305, -0.6801120638847351, -0.7718728184700012, -25.294418334960938, 0.0034622645, -8.897911E-4, 0.35260582
358, 56030972, -0.6808433532714844, -0.7721348404884338, -25.29530143737793, -0.0024916, 0.012950145, 0.33332348
359, 56047639, -0.6819881200790405, -0.7719548344612122, -25.295425415039062, 0.005018477, -0.022023626, 0.33657074
360, 56064306, -0.6845235824584961, -0.7668496966362, -25.295534133911133, -0.003281345, 5.230832E-4, 0.34790516
361, 56080973, -0.6842979788780212, -0.7664054036140442, -25.293842315673828, -0.0019431623, 0.0019910394, 0.3524351
362, 56097640, -0.6834081411361694, -0.7670990228652954, -25.294639587402344, 0.004706083, 0.010776007, 0.33013725
363, 56114307, -0.6825740933418274, -0.7679206132888794, -25.2938175201416, -0.0064373687, 0.007167404, 0.34578037
364, 56130974, -0.6811082363128662, -0.768367350101471, -25.293622970581055, -0.008379514, 0.003987981, 0.3357582
365, 56147641, -0.6799542903900146, -0.7687700986862183, -25.292879104614258, -0.011310688, 0.00466716, 0.3429718
366, 56164308, -0.6792281866073608, -0.7695466876029968, -25.292268753051758, 0.012340115, -0.0029973576, 0.33515453
367, 56180975, -0.6796380877494812, -0.7695996761322021, -25.29128074645996, 0.009131629, 8.0771296E-4, 0.3231945
368, 56197642, -0.6805062890052795, -0.7695961594581604, -25.291353225708008, 0.0056153648, 9.266358E-4, 0.33212376
369, 56214309, -0.6805670261383057, -0.7686185836791992, -25.290586471557617, 0.0023770113, -0.009617805, 0.33350468
370, 56230976, -0.6806495785713196, -0.7685514688491821, -25.290878295898438, 0.0031941677, -0.0026150108, 0.35573387
371, 56247643, -0.6802660822868347, -0.7684940695762634, -25.290267944335938, 0.0044411467, -0.008203093, 0.31938457
372, 56264310, -0.680837094783783, -0.7689232230186462, -25.290237426757812, 0.007607145, -0.008433626, 0.34466743
373, 56280977, -0.6813724040985107, -0.7691072821617126, -25.290124893188477, 0.008141533, -0.0075380513, 0.34165
374, 56297644, -0.6824649572372437, -0.7693514227867126, -25.29022789001465, 0.0027136358, 8.619777E-4, 0.33031178
375, 56314311, -0.6823524236679077, -0.768826425075531, -25.290315628051758, 0.0015871061, 0.004416127, 0.3308611
376, 56330978, -0.6823671460151672, -0.7691843509674072, -25.289152145385742, 0.012386327, -0.007425422, 0.35473347
377, 56347645, -0.6814339756965637, -0.7694146633148193, -25.288768768310547, -0.0147494, -0.007929513, 0.3374653
378, 56364312, -0.6817100644111633, -0.7698175311088562, -25.287965774536133, 6.179889E-4, -0.0072277593, 0.3391819
379, 56380979, -0.6824407577514648, -0.770596444606781, -25.28774642944336, 9.044801E-4, -0.01383717, 0.34270096
380, 56397646, -0.681853175163269, -0.770846962928772, -25.287508010864258, 0.002700218, 0.0066172546, 0.33883
381, 56414313, -0.6814865469932556, -0.7716136574745178, -25.287521362304688, 0.0026698937, -0.00562221, 0.35037804
382, 56430980, -0.6829429864883423, -0.7733539938926697, -25.286659240722656, -0.0030630669, -0.011389354, 0.3213024
383, 56447647, -0.6835311651229858, -0.7736111879348755, -25.285634994506836, 0.003753212, -0.008240203, 0.3085165
384, 56464314, -0.6826658248901367, -0.7727705836296082, -25.285903930664062, 0.004190323, -0.009508255, 0.34648514
385, 56480981, -0.6824660897254944, -0.773986279964447, -25.284868240356445, -0.0034578678, 0.0022809706, 0.32349968
386, 56497648, -0.6826335191726685, -0.7724878787994385, -25.28574562072754, -1.431845E-4, 0.0030832286, 0.34561348
387, 56514315, -0.6829465627670288, -0.7735574841499329, -25.284257888793945, -0.0057610883, -0.013229781, 0.3224163
388, 56530982, -0.68260657787323, -0.7730210423469543, -25.284343719482422, -0.010204421, -0.0021757658, 0.35725594
389, 56547649, -0.6818892955780029, -0.7716525197029114, -25.283201217651367, -9.0804585E-4, -0.0011085405, 0.3203802
390, 56564316, -0.6824444532394409, -0.7725951671600342, -25.282958984375, 0.0011562046, -0.008913641, 0.34019375
391, 56580983, -0.6821905374526978, -0.7720738649368286, -25.28483009338379, 0.0010733441, -0.0036339853, 0.33696842
392, 56597650, -0.6818140745162964, -0.7711848616600037, -25.284311294555664, -0.0022125896, -5.374998E-4, 0.3336153
393, 56614317, -0.6814735531806946, -0.7708538770675659, -25.28348731994629, -0.007894132, 0.00213114, 0.33016968
394, 56630984, -0.6820360422134399, -0.7707844376564026, -25.283573150634766, 0.0022719533, 0.0033517096, 0.33042622
395, 56647651, -0.6829927563667297, -0.771507978439331, -25.282501220703125, 0.011243236, 0.0032734869, 0.3325596
396, 56664318, -0.6841860413551331, -0.7710444331169128, -25.282724380493164, -0.0047302675, -9.794058E-4, 0.32667065
397, 56680985, -0.6840355396270752, -0.7702337503433228, -25.281578063964844, -0.007507444, -0.008110315, 0.3405962
398, 56697652, -0.6836941242218018, -0.7716185450553894, -25.279890060424805, -0.0209925, -0.0049530193, 0.34714794
399, 56714319, -0.6832124590873718, -0.7731448411941528, -25.280887603759766, -0.01128856, 0.011910587, 0.32657623
400, 56730986, -0.6822407841682434, -0.771780788898468, -25.281259536743164, 0.011870487, -0.0031502894, 0.33216763
401, 56747653, -0.6830408573150635, -0.7724164128303528, -25.282238006591797, -0.014671104, 0.0047375667, 0.32969666
402, 56764320, -0.6829695105552673, -0.7709509134292603, -25.282392501831055, -0.0036646975, -0.0052415393, 0.3297825
403, 56780987, -0.6834613084793091, -0.7706029415130615, -25.28169059753418, -0.009260013, -0.003895293, 0.32603645
404, 56797654, -0.6823289394378662, -0.7718710899353027, -25.28138542175293, 0.007432319, 0.0031704614, 0.3211832
405, 56814321, -0.6821283102035522, -0.7711859941482544, -25.281787872314453, -0.0022354962, -0.0021265862, 0.3371153
406, 56830988, -0.6812823414802551, -0.769983172416687, -25.281118392944336, 0.0075127594, 0.004053561, 0.32683754
407, 56847655, -0.6817044615745544, -0.7711933851242065, -25.27967071533203, -0.0020824422, 0.004932177, 0.3303976
408, 56864322, -0.6814939975738525, -0.7705678343772888, -25.278453826904297, -0.004084444, -0.0063535166, 0.32314777
409, 56880989, -0.6809566617012024, -0.7708075046539307, -25.277616500854492, -0.0013406167, -0.010821373, 0.35819817
410, 56897656, -0.6820554733276367, -0.7710983753204346, -25.27619171142578, 0.014869664, 0.0033557187, 0.34792995
411, 56914323, -0.6816484332084656, -0.7709654569625854, -25.275005340576172, -0.0028610183, -0.011710926, 0.32923985
412, 56930990, -0.6817392110824585, -0.7708263993263245, -25.274444580078125, 0.0021146527, -0.020097775, 0.32560444
413, 56947657, -0.6817268133163452, -0.7708466649055481, -25.274856567382812, 0.009701168, -0.012779395, 0.32492352
414, 56964324, -0.6820083856582642, -0.7699361443519592, -25.274124145507812, 0.0035232732, -0.0024958085, 0.32665062
415, 56980991, -0.6819940805435181, -0.7707716226577759, -25.27233123779297, -1.742947E-4, -2.7939118E-4, 0.31699085
416, 56997658, -0.6819109916687012, -0.7720944285392761, -25.271041870117188, 0.013915215, -0.0168358, 0.32548046
417, 57014325, -0.6814414858818054, -0.7726612091064453, -25.271848678588867, 0.002267972, 0.0034389494, 0.33969307
418, 57030992, -0.6823590993881226, -0.7715386152267456, -25.27115249633789, 0.0052877683, -0.0040587718, 0.33794975
419, 57047659, -0.6831348538398743, -0.7709106206893921, -25.27195930480957, 0.008813385, -0.014941171, 0.33588982
420, 57064326, -0.6829449534416199, -0.7703074812889099, -25.27198028564453, 0.0019109554, -0.0043682815, 0.3237381
421, 57080993, -0.6824948191642761, -0.7692810893058777, -25.271177291870117, 0.0032196762, -0.013207373, 0.3423128
422, 57097660, -0.6822545528411865, -0.7703176140785217, -25.271060943603516, 0.0046153716, -0.008170313, 0.32081223
423, 57114327, -0.6824829578399658, -0.7698621153831482, -25.27001190185547, 0.0026593257, 0.0044564013, 0.32703686
424, 57130994, -0.6831660270690918, -0.7697188854217529, -25.269502639770508, -0.008040141, 0.011580381, 0.31456852
425, 57147661, -0.6831502318382263, -0.7694894671440125, -25.269060134887695, -0.0018228948, -0.009278826, 0.3258524
426, 57164328, -0.68315190076828, -0.7699336409568787, -25.268152236938477, -0.009869232, -0.011043, 0.3408718
427, 57180995, -0.683713436126709, -0.7697005867958069, -25.268798828125, 0.0023718602, -0.0022063663, 0.32663536
428, 57197662, -0.6834128499031067, -0.7698507905006409, -25.267717361450195, -0.008441068, -0.0028206217, 0.30354595
429, 57214329, -0.683815062046051, -0.770598828792572, -25.267749786376953, -0.0020752584, 0.0036184792, 0.311903
430, 57230996, -0.6828784346580505, -0.770326554775238, -25.268381118774414, -0.0012895231, 0.0017182558, 0.33333778
431, 57247663, -0.6820914149284363, -0.771243691444397, -25.268341064453125, -0.010752698, -0.01873654, 0.3314991
432, 57264330, -0.6820480823516846, -0.7713605761528015, -25.26789665222168, -0.01008613, -0.0038524205, 0.30586243
433, 57280997, -0.6815126538276672, -0.7709885239601135, -25.26710319519043, -0.010399157, -0.0073788613, 0.3179474
434, 57297664, -0.680308997631073, -0.7707319259643555, -25.267301559448242, -0.004828205, -0.0049299137, 0.3416214
435, 57314331, -0.679585874080658, -0.7695740461349487, -25.266756057739258, -0.005518175, 0.005993961, 0.32513237
436, 57330998, -0.6778213381767273, -0.7703478932380676, -25.26704978942871, -0.0012829294, 0.00931653, 0.32376957
437, 57347665, -0.6778977513313293, -0.7699072360992432, -25.267545700073242, -0.012098173, 0.0024192694, 0.3347187
438, 57364332, -0.6782722473144531, -0.7706167697906494, -25.266462326049805, 0.0034708977, -0.017894754, 0.3304243
439, 57380999, -0.6774930953979492, -0.7708259224891663, -25.26601219177246, -0.0049806996, 0.0061520683, 0.34445
440, 57397666, -0.6782629489898682, -0.7708872556686401, -25.26617431640625, 0.008547335, -0.012378315, 0.33850384
441, 57414333, -0.6781166791915894, -0.7712895274162292, -25.265914916992188, -2.4655575E-4, -0.009689112, 0.3152399
442, 57431000, -0.6779400706291199, -0.7725962996482849, -25.266481399536133, -0.006992875, 0.0022690406, 0.33406258
443, 57447667, -0.6782635450363159, -0.7721841931343079, -25.26578140258789, 0.0048576663, -0.0032171058, 0.3317709
444, 57464334, -0.6794283986091614, -0.7716636061668396, -25.265647888183594, 0.020690765, -0.007801741, 0.32903194
445, 57481001, -0.6803285479545593, -0.772685170173645, -25.266128540039062, -0.002881103, -0.0025201226, 0.334692
446, 57497668, -0.6805621385574341, -0.7733797430992126, -25.26605224609375, -9.709892E-4, -0.0019015644, 0.32891083
447, 57514335, -0.6789590716362, -0.7731472849845886, -25.266653060913086, 0.009827355, -0.00989832, 0.3339491
448, 57531002, -0.6793796420097351, -0.7736603617668152, -25.266279220581055, -0.0060503315, -0.0051534125, 0.316288
449, 57547669, -0.6792476773262024, -0.7720952033996582, -25.266986846923828, -2.0906843E-4, 0.005511145, 0.31719494
450, 57564336, -0.6797198057174683, -0.7723008394241333, -25.267301559448242, -0.0026705817, 7.270318E-4, 0.343153
451, 57581003, -0.6809795498847961, -0.7727842330932617, -25.266738891601562, -0.0032494522, 0.014169143, 0.34139252
452, 57597670, -0.680138349533081, -0.7748544216156006, -25.265735626220703, 0.0060926382, -0.0024141564, 0.33870697
453, 57614337, -0.6809248328208923, -0.7756805419921875, -25.26591682434082, -0.0032922586, 0.0016996694, 0.34303188
454, 57631004, -0.6802218556404114, -0.7761510014533997, -25.264989852905273, 0.010774746, 0.0040478962, 0.3331213
455, 57647671, -0.6812196969985962, -0.7765963673591614, -25.265668869018555, -0.010186005, -5.8913126E-4, 0.33769035
456, 57664338, -0.681613564491272, -0.7765148878097534, -25.265810012817383, -0.011421788, -0.0132125635, 0.32816505
457, 57681005, -0.6811336874961853, -0.7768166065216064, -25.26641082763672, -0.013645651, -0.0072565787, 0.3503809
458, 57697672, -0.6825293302536011, -0.7780134677886963, -25.265352249145508, -0.0018446315, -0.0064829094, 0.31856823
459, 57714339, -0.683371901512146, -0.7776018381118774, -25.264835357666016, 0.0019356047, -0.0010049772, 0.33456326
460, 57731006, -0.6841718554496765, -0.7785263061523438, -25.265018463134766, -0.012246372, 0.0024276162, 0.34062958
461, 57747673, -0.6847700476646423, -0.7784265875816345, -25.26439666748047, 0.005523302, -6.467487E-4, 0.34043312
462, 57764340, -0.684766411781311, -0.7785851955413818, -25.263216018676758, -0.0074692233, -0.0016601564, 0.33417988
463, 57781007, -0.6852767467498779, -0.7795945405960083, -25.26268196105957, -0.012921867, 0.005453367, 0.33567238
464, 57797674, -0.6845163702964783, -0.7790445685386658, -25.262216567993164, -0.0027820691, -0.008996795, 0.34508038
465, 57814341, -0.6843276619911194, -0.7787891626358032, -25.261180877685547, -0.006592581, 0.0058724186, 0.32275105
466, 57831008, -0.6841251850128174, -0.7784159779548645, -25.261011123657227, 0.0025056605, 0.004811452, 0.32995892
467, 57847675, -0.6846103668212891, -0.7782840132713318, -25.259870529174805, -0.010438156, 0.002312968, 0.32376862
468, 57864342, -0.6845929026603699, -0.7773223519325256, -25.2603759765625, 0.0015048184, -0.0022144685, 0.3425455
469, 57881009, -0.6851083040237427, -0.7770179510116577, -25.259279251098633, 0.0057391003, 0.0064595593, 0.3169508
470, 57897676, -0.6855645179748535, -0.7775269746780396, -25.259511947631836, -0.0033180742, -0.002331324, 0.34976673
471, 57914343, -0.6856066584587097, -0.7776395082473755, -25.258527755737305, -0.0017658955, -0.00847383, 0.33856392
472, 57931010, -0.6847226023674011, -0.7779636979103088, -25.25891876220703, -0.006662778, -0.008654687, 0.31036568
473, 57947677, -0.6851884126663208, -0.7775628566741943, -25.259754180908203, -0.006755543, 0.0027840913, 0.32201767
474, 57964344, -0.6857834458351135, -0.7768084406852722, -25.259414672851562, -0.012217508, -0.0021432796, 0.3418026
475, 57981011, -0.6864677667617798, -0.777958869934082, -25.258625030517578, -0.0011165974, -0.0017702295, 0.33516788
476, 57997678, -0.6870551109313965, -0.7791863083839417, -25.25758171081543, -0.009000916, 0.0032906136, 0.33241653
477, 58014345, -0.6889387369155884, -0.7787408828735352, -25.2569580078125, -0.01275637, 0.0047776382, 0.34487343
478, 58031012, -0.6890719532966614, -0.7783618569374084, -25.258230209350586, 0.0025176778, 0.0040342063, 0.32750702
479, 58047679, -0.6895089149475098, -0.7790473103523254, -25.25819969177246, 0.017077, -9.501885E-4, 0.36369038
480, 58064346, -0.6879814863204956, -0.7707956433296204, -25.263959884643555, -0.015404855, 0.0017669467, 0.34121132
481, 58081013, -0.6878522038459778, -0.7712370753288269, -25.261585235595703, -0.016572239, -0.008499771, 0.3353243
482, 58097680, -0.6870117783546448, -0.7710744738578796, -25.2603816986084, 0.0080549875, -0.0023158386, 0.34536266
483, 58114347, -0.6864030957221985, -0.7722960114479065, -25.260568618774414, -0.002443929, 0.0040365392, 0.33363724
484, 58131014, -0.686958372592926, -0.7716382741928101, -25.261066436767578, 0.0049805148, 0.004533192, 0.3228569
485, 58147681, -0.6867271065711975, -0.7718126177787781, -25.261598587036133, 0.0061568776, -0.005494151, 0.30631542
486, 58164348, -0.6877812743186951, -0.7732133865356445, -25.261768341064453, 0.011396241, 0.002134863, 0.31849098
487, 58181015, -0.6878632307052612, -0.773103654384613, -25.262237548828125, -3.6574752E-4, 0.004828264, 0.34319782
488, 58197682, -0.6871022582054138, -0.7735331654548645, -25.26125144958496, -0.0070121917, -0.0040198877, 0.314126
489, 58214349, -0.6873262524604797, -0.7731776833534241, -25.261703491210938, -0.0030223143, -0.02284563, 0.34476376
490, 58231016, -0.6873037219047546, -0.7735819220542908, -25.260480880737305, -0.013304483, 0.0021997027, 0.35112095
491, 58247683, -0.6875525116920471, -0.7743644714355469, -25.25990104675293, -4.4653E-4, 0.012221347, 0.31679153
492, 58264350, -0.6876696944236755, -0.7755494713783264, -25.25943946838379, 0.0038232903, -0.016163675, 0.33052158
493, 58281017, -0.688373863697052, -0.7763504981994629, -25.258108139038086, 0.010122053, 0.012941931, 0.3393011
494, 58297684, -0.6891958713531494, -0.7763832211494446, -25.256752014160156, -0.0027665421, 0.0061477586, 0.33184433
495, 58314351, -0.688433051109314, -0.7767147421836853, -25.25570297241211, 0.002677011, -0.013429105, 0.32376003
496, 58331018, -0.6881269216537476, -0.7761813402175903, -25.25625991821289, -0.0050578224, -0.009229744, 0.33550644
497, 58347685, -0.6881178617477417, -0.7768928408622742, -25.256559371948242, 0.0134862615, -0.0051745065, 0.34313393
498, 58364352, -0.6891710758209229, -0.7779321074485779, -25.256322860717773, -0.009835279, -0.003734741, 0.33044147
499, 58381019, -0.6889322400093079, -0.7763730883598328, -25.25529670715332, 0.00457076, -0.0026033882, 0.35009098
500, 58397686, -0.6886669397354126, -0.7762720584869385, -25.254873275756836, -0.004846365, -9.881089E-4, 0.3219738
501, 58414353, -0.6881218552589417, -0.7759735584259033, -25.253278732299805, 0.005225883, -0.0058368035, 0.32526398
502, 58431020, -0.6886820197105408, -0.7769888043403625, -25.252485275268555, -1.9275199E-4, 0.006584189, 0.340477
503, 58447687, -0.6894268989562988, -0.7776367664337158, -25.253795623779297, -0.0074154474, 0.011941886, 0.34978962
504, 58464354, -0.6897167563438416, -0.7790529727935791, -25.253890991210938, -2.998531E-4, -2.1731047E-4, 0.34933853
505, 58481021, -0.6886293292045593, -0.7791706323623657, -25.254030227661133, -0.002636433, 0.017580226, 0.3273821
506, 58497688, -0.6890642642974854, -0.7803531289100647, -25.254051208496094, -0.009342964, -0.009477501, 0.34067917
507, 58514355, -0.6881534457206726, -0.7803330421447754, -25.254419326782227, -0.0016291161, 0.005913957, 0.34925938
508, 58531022, -0.688705563545227, -0.7802852988243103, -25.253355026245117, 2.4916456E-4, 0.0039307056, 0.3530836
509, 58547689, -0.6885460615158081, -0.7803342342376709, -25.252643585205078, 0.003165408, -0.0066030477, 0.32926273
510, 58564356, -0.6878047585487366, -0.7801982164382935, -25.252256393432617, 0.0020840836, 0.010626288, 0.34165
511, 58581023, -0.6885554790496826, -0.7810130715370178, -25.254362106323242, 0.0089383, 0.010691309, 0.32855606
512, 58597690, -0.6873067617416382, -0.7810142040252686, -25.254770278930664, -0.005625353, -0.017350571, 0.34052467
513, 58614357, -0.6871239542961121, -0.779454231262207, -25.253870010375977, 0.016092667, -0.0075774034, 0.33392334
514, 58631024, -0.6873930096626282, -0.7791054248809814, -25.25370979309082, 4.9681345E-4, 0.0042084767, 0.33544827
515, 58647691, -0.6867225170135498, -0.7805649638175964, -25.2537899017334, 0.012495946, 0.0055869506, 0.33844852
516, 58664358, -0.6878270506858826, -0.7803977727890015, -25.252439498901367, 0.012406548, 7.66377E-4, 0.33564568
517, 58681025, -0.6883897185325623, -0.779823899269104, -25.251480102539062, 0.0065543917, 0.006568326, 0.32256222
518, 58697692, -0.6894634366035461, -0.7799195051193237, -25.25071144104004, -1.1915336E-4, 0.005572045, 0.3430786
519, 58714359, -0.6890442967414856, -0.7802701592445374, -25.249977111816406, 2.4770125E-4, 0.014006572, 0.31618023
520, 58731026, -0.6883594393730164, -0.7795767188072205, -25.250930786132812, 0.005292633, 0.008920521, 0.36005878
521, 58747693, -0.6895439624786377, -0.7775158286094666, -25.24924659729004, -0.002398947, 0.012289469, 0.32706547
522, 58764360, -0.6895713806152344, -0.7767627835273743, -25.249656677246094, -0.009086154, 0.002105883, 0.3667326
523, 58781027, -0.6890671253204346, -0.7762739062309265, -25.24837875366211, 0.008901026, 0.0015650028, 0.33430386
524, 58797694, -0.6888841986656189, -0.7775675654411316, -25.248653411865234, -0.011671651, -0.007967001, 0.315588
525, 58814361, -0.6896613836288452, -0.7786531448364258, -25.248531341552734, 0.0040924735, 0.013532892, 0.3455038
526, 58831028, -0.6895025968551636, -0.7789660096168518, -25.249414443969727, -0.0069158683, 0.0042039854, 0.33483505
527, 58847695, -0.6901364326477051, -0.7796610593795776, -25.24913215637207, -0.011562762, 0.003141782, 0.33746624
528, 58864362, -0.6898730993270874, -0.7794176340103149, -25.2493953704834, 0.012326813, 0.0028297927, 0.35139275
529, 58881029, -0.6898364424705505, -0.7803255319595337, -25.250123977661133, -0.0016675673, -0.0039920323, 0.33103085
530, 58897696, -0.6908606290817261, -0.7801343202590942, -25.24955940246582, 0.010786407, 0.0017716195, 0.3396845
531, 58914363, -0.691677451133728, -0.7810187935829163, -25.248493194580078, 0.01448364, 0.0025970808, 0.33941364
532, 58931030, -0.6916924715042114, -0.7821440100669861, -25.248111724853516, 0.0022269154, 0.0016342709, 0.3260107
533, 58947697, -0.6931371092796326, -0.78087317943573, -25.248287200927734, -0.014435685, -0.0019281694, 0.33652592
534, 58964364, -0.6923182606697083, -0.78126060962677, -25.249235153198242, 0.002520884, -0.008817858, 0.33895874
535, 58981031, -0.6941729187965393, -0.7824878096580505, -25.249021530151367, 0.0014993738, -1.0836188E-4, 0.31767082
536, 58997698, -0.6947928667068481, -0.7838236689567566, -25.24930763244629, -0.0014756919, -0.005512661, 0.32557678
537, 59014365, -0.6950017213821411, -0.7841058373451233, -25.249799728393555, 0.007211551, -0.0020920115, 0.33730507
538, 59031032, -0.694632887840271, -0.7844144701957703, -25.249658584594727, -0.0018059078, -0.0073998994, 0.33897495
539, 59047699, -0.6951116919517517, -0.785088837146759, -25.249053955078125, 0.013623104, 0.008121615, 0.3324852
540, 59064366, -0.6946538090705872, -0.7867555618286133, -25.24904441833496, 0.007063973, -0.009810577, 0.32870483
541, 59081033, -0.6941700577735901, -0.7871294617652893, -25.24864387512207, 0.0011084497, 0.0011717317, 0.34470654
542, 59097700, -0.6947668790817261, -0.7865530848503113, -25.249454498291016, 0.0040096827, 6.137526E-4, 0.327878
543, 59114367, -0.6949538588523865, -0.7866357564926147, -25.24968910217285, -0.0059843287, -0.016779691, 0.33783913
544, 59131034, -0.6952600479125977, -0.7852354049682617, -25.249797821044922, 0.0031682611, 1.0211748E-4, 0.33805943
545, 59147701, -0.6951198577880859, -0.7855830788612366, -25.249597549438477, -0.0011203692, 0.007905381, 0.3296137
546, 59164368, -0.6934447288513184, -0.7870914936065674, -25.248828887939453, -0.0025342458, 0.018776119, 0.33111095
547, 59181035, -0.6929942965507507, -0.7867431640625, -25.248985290527344, -0.0055197747, 0.014271757, 0.33637524
548, 59197702, -0.6924654245376587, -0.7864267230033875, -25.248565673828125, -0.015296179, -0.0064622276, 0.31652355
549, 59214369, -0.6929476261138916, -0.7869569659233093, -25.249204635620117, -0.0039770077, 0.013792146, 0.31930733
550, 59231036, -0.6922245621681213, -0.7867140769958496, -25.248689651489258, 0.002020627, 0.00869325, 0.3383217
551, 59247703, -0.6925333142280579, -0.7861453294754028, -25.249584197998047, -0.008536386, 0.0016473393, 0.30980015
552, 59264370, -0.69287109375, -0.7863267064094543, -25.25095558166504, -0.0014568993, 0.010847474, 0.3390131
553, 59281037, -0.6943994164466858, -0.7855298519134521, -25.251415252685547, 0.006186814, -0.0049285865, 0.3375616
554, 59297704, -0.694366455078125, -0.7859979271888733, -25.250715255737305, 0.0050041825, 0.005403265, 0.33335686
555, 59314371, -0.6934801340103149, -0.7864952087402344, -25.25115203857422, 0.014177427, 0.011565622, 0.34143543
556, 59331038, -0.693120002746582, -0.7877854108810425, -25.252262115478516, 0.0071343277, 0.013096958, 0.33990192
557, 59347705, -0.6923543214797974, -0.7868364453315735, -25.251728057861328, 0.01789552, -0.0050588595, 0.33841038
558, 59364372, -0.6930620074272156, -0.7867985367774963, -25.250682830810547, 0.003021036, 0.0035073513, 0.32750893
559, 59381039, -0.6935665607452393, -0.7869052886962891, -25.250123977661133, -0.013253277, 0.005813202, 0.32581234
560, 59397706, -0.6935733556747437, -0.7878274917602539, -25.249755859375, -0.01059808, 0.015814526, 0.3393898
561, 59414373, -0.6942270994186401, -0.788179337978363, -25.24959373474121, 0.009284358, 0.0044971155, 0.34235
562, 59431040, -0.6950719356536865, -0.7871769070625305, -25.25065803527832, 0.0101889605, 0.008983454, 0.3444271
563, 59447707, -0.6959412097930908, -0.7876918315887451, -25.25025749206543, 0.0057382933, 0.011904251, 0.33756447
564, 59464374, -0.6964023113250732, -0.7878450751304626, -25.249298095703125, -0.010636373, 0.013355332, 0.33820248
565, 59481041, -0.6964045166969299, -0.789016604423523, -25.24922752380371, -0.01074447, -0.001865935, 0.32476807
566, 59497708, -0.6957531571388245, -0.7892422676086426, -25.24978256225586, 0.014800298, -0.008222951, 0.30891037
567, 59514375, -0.6952499151229858, -0.7890915274620056, -25.250537872314453, -0.009079107, 0.0092387125, 0.3297186
568, 59531042, -0.6954571008682251, -0.788604199886322, -25.25054931640625, 0.003284921, 0.008257672, 0.3270712
569, 59547709, -0.6959338188171387, -0.7882738709449768, -25.25128746032715, 0.0022977202, -0.005946639, 0.3132229
570, 59564376, -0.6960887312889099, -0.7890881896018982, -25.251277923583984, -0.0042129606, 0.017309876, 0.35991096
571, 59581043, -0.6960041522979736, -0.788947343826294, -25.250246047973633, -0.004668686, -0.002089888, 0.34588814
572, 59597710, -0.6961305141448975, -0.7886514663696289, -25.24911880493164, 0.0049318834, 0.0067978674, 0.35268593
573, 59614377, -0.6967143416404724, -0.7876283526420593, -25.247610092163086, 1.4560123E-4, 0.011556989, 0.32035255
574, 59631044, -0.6967756152153015, -0.7878122925758362, -25.246854782104492, -0.0022841208, 0.0014651694, 0.347517
575, 59647711, -0.6975254416465759, -0.7908155918121338, -25.246551513671875, -1.490971E-4, 0.020037014, 0.33341503
576, 59664378, -0.6979745030403137, -0.790784478187561, -25.245697021484375, -0.00911717, 0.01568521, 0.33298016
577, 59681045, -0.698498010635376, -0.7920255064964294, -25.2454833984375, -0.005087752, 0.0126663605, 0.31601143
578, 59697712, -0.6985272169113159, -0.7915753126144409, -25.245891571044922, -0.0067346725, -6.546415E-4, 0.3280592
579, 59714379, -0.6986521482467651, -0.7909115552902222, -25.245393753051758, 0.011348937, 0.0040294356, 0.34869194
580, 59731046, -0.6978145837783813, -0.7907801270484924, -25.24536895751953, -0.0068696425, 0.006744685, 0.33757305
581, 59747713, -0.6983963251113892, -0.7910600304603577, -25.244171142578125, -0.0036815552, 0.0064669005, 0.31453514
582, 59764380, -0.6989239454269409, -0.7917234897613525, -25.244407653808594, 0.0089996755, 0.0029262106, 0.35050392
583, 59781047, -0.6994116306304932, -0.7930489182472229, -25.24418830871582, -0.0062834555, 0.010867787, 0.34201527
584, 59797714, -0.6998000144958496, -0.7927061319351196, -25.244007110595703, -0.004932571, -0.0043206313, 0.36255646
585, 59814381, -0.6989303231239319, -0.792611837387085, -25.243497848510742, -0.005230406, 0.0036480248, 0.34126568
586, 59831048, -0.6990511417388916, -0.7925941944122314, -25.24395179748535, -0.0037828346, 0.013158278, 0.31451702
587, 59847715, -0.6994607448577881, -0.7927083969116211, -25.243934631347656, -0.007072966, 0.010543358, 0.2987938
588, 59864382, -0.7000391483306885, -0.7931528091430664, -25.243846893310547, 6.760184E-4, -0.0041792034, 0.3230934
589, 59881049, -0.7005693912506104, -0.792917788028717, -25.244770050048828, -0.0038506254, 0.0051745763, 0.35233688
590, 59897716, -0.700605571269989, -0.7921802401542664, -25.243772506713867, -0.009329728, 0.00953843, 0.32851887
591, 59914383, -0.7012084126472473, -0.7915635704994202, -25.244619369506836, 2.0296374E-4, 0.003050358, 0.34274006
592, 59931050, -0.7015786170959473, -0.7926734089851379, -25.24515724182129, -0.0037350308, -6.077946E-4, 0.3220997
593, 59947717, -0.7016803026199341, -0.7927411198616028, -25.24701690673828, -0.0037956168, -8.9734164E-4, 0.3350048
594, 59964384, -0.7017729878425598, -0.7925941944122314, -25.24720001220703, 0.010432282, -0.003197786, 0.34307098
595, 59981051, -0.702207088470459, -0.7926592826843262, -25.247241973876953, -0.0025150795, -8.502642E-4, 0.3499298
596, 59997718, -0.7008040547370911, -0.7933256030082703, -25.24779510498047, -0.019221935, 0.0045479788, 0.35497475
597, 60014385, -0.7007327675819397, -0.7933458685874939, -25.246875762939453, -0.0032891957, 0.017656986, 0.33872414
598, 60031052, -0.7005893588066101, -0.7932950258255005, -25.246784210205078, 0.01805728, 0.0039735995, 0.3448553
599, 60047719, -0.7005933523178101, -0.7931230068206787, -25.246795654296875, 4.977773E-4, -0.007044765, 0.3296671
600, 60064386, -0.6893046498298645, -0.7728703022003174, -25.24651527404785, 0.011698287, -0.010147649, 0.35509205
601, 60081053, -0.6892861127853394, -0.7740675806999207, -25.245939254760742, 0.0024664237, -0.00910772, 0.31840515
602, 60097720, -0.6893857717514038, -0.7743645310401917, -25.245426177978516, 0.0074730334, 0.018793605, 0.3593998
603, 60114387, -0.6880117654800415, -0.7734968662261963, -25.245838165283203, -0.0061234343, 0.0034320904, 0.31256294
604, 60131054, -0.6883749961853027, -0.7725876569747925, -25.244150161743164, 9.59604E-4, -1.7663112E-4, 0.3599844
605, 60147721, -0.687675952911377, -0.7720695734024048, -25.24361801147461, -0.009000982, 0.010604028, 0.32308578
606, 60164388, -0.6884551644325256, -0.7725279927253723, -25.243852615356445, 0.0011132831, -0.0028694244, 0.3477888
607, 60181055, -0.6877516508102417, -0.7735087275505066, -25.24323844909668, 6.3240196E-4, 0.012199295, 0.33844757
608, 60197722, -0.6872388124465942, -0.7726966142654419, -25.24382972717285, -0.0021377339, -0.020879338, 0.322464
609, 60214389, -0.6872553825378418, -0.7736420035362244, -25.244020462036133, 0.012693025, -0.007173732, 0.32555103
610, 60231056, -0.6879655122756958, -0.7728842496871948, -25.243146896362305, 0.007884186, 0.011738341, 0.3309679
611, 60247723, -0.6885185837745667, -0.7727729082107544, -25.242048263549805, -0.010597717, -0.0126964785, 0.36227036
612, 60264390, -0.6878661513328552, -0.7730522155761719, -25.243005752563477, 0.0059771836, -4.568116E-4, 0.3169737
613, 60281057, -0.6868438720703125, -0.7751741409301758, -25.242801666259766, -0.0061616898, -0.0049115503, 0.34609318
614, 60297724, -0.6871364116668701, -0.7760404944419861, -25.24341583251953, -0.0029804404, -0.011584893, 0.31851387
615, 60314391, -0.6858189105987549, -0.7775804996490479, -25.244186401367188, -0.005284164, 0.0053521367, 0.33784866
616, 60331058, -0.6858710050582886, -0.7771711349487305, -25.244726181030273, 0.005863747, -0.0017093363, 0.34482765
617, 60347725, -0.6858860850334167, -0.7756050825119019, -25.24461555480957, 6.280505E-4, 0.0022497626, 0.32992554
618, 60364392, -0.6855871081352234, -0.77684086561203, -25.244863510131836, 2.695252E-4, -0.006443711, 0.35144424
619, 60381059, -0.6841961145401001, -0.7767979502677917, -25.244762420654297, -0.0014690249, 0.01407861, 0.34133148
620, 60397726, -0.6843308210372925, -0.7775776982307434, -25.244815826416016, 5.8247475E-4, 0.008583121, 0.34610653
621, 60414393, -0.6834324598312378, -0.7775667309761047, -25.24423599243164, -0.004675643, -0.0043305075, 0.33427143
622, 60431060, -0.6832458972930908, -0.7784900665283203, -25.24384880065918, -0.0051261405, 0.006488658, 0.34286785
623, 60447727, -0.6843780875205994, -0.7789759039878845, -25.24407958984375, 0.0029940677, 0.020925708, 0.32393074
624, 60464394, -0.6834281086921692, -0.7780446410179138, -25.243417739868164, 0.00430677, -0.0016770177, 0.33702087
625, 60481061, -0.684374213218689, -0.7779017686843872, -25.242212295532227, 0.004362456, -0.0027110167, 0.3256693
626, 60497728, -0.6839620471000671, -0.7784714698791504, -25.24209213256836, -0.0047782636, 0.0018856671, 0.3221941
627, 60514395, -0.6835997700691223, -0.7767761945724487, -25.242101669311523, 0.0119091645, -0.0015178695, 0.3258171
628, 60531062, -0.6791092753410339, -0.7611174583435059, -25.2423095703125, 0.02423566, -0.012369277, 0.31833267
629, 60547729, -0.6833181381225586, -0.7318280935287476, -25.241456985473633, 0.39973676, -0.23842384, 0.3568592
630, 60564396, -0.6812298893928528, -0.7623198628425598, -25.262615203857422, 1.1564627, -0.55640996, 0.39239788
631, 60581063, -0.6782758831977844, -0.803544282913208, -25.246540069580078, -0.2586445, 0.18288364, 0.33864403
632, 60597730, -0.6788311004638672, -0.8093523383140564, -25.309438705444336, -0.31420666, 0.21372655, 0.30377007
633, 60614397, -0.67896568775177, -0.7853883504867554, -25.44940757751465, -0.09469694, 0.070782036, 0.33469772
634, 60631064, -0.6759089231491089, -0.7721862196922302, -25.568038940429688, 0.20077981, -0.12927063, 0.33829975
635, 60647731, -0.6784628629684448, -0.8119674921035767, -25.51752471923828, -0.09631608, 0.05934324, 0.3538561
636, 60664398, -0.6785233020782471, -0.8273489475250244, -25.49765968322754, -0.11189865, 0.084524825, 0.30112743
637, 60681065, -0.6833768486976624, -0.8269014358520508, -25.538463592529297, 0.16344197, 0.0010101319, 0.33071518
638, 60697732, -0.6797380447387695, -0.8245009183883667, -25.59014129638672, 0.027655404, 0.007875786, 0.3598032
639, 60714399, -0.6800041794776917, -0.8274403214454651, -25.66688346862793, 0.011939507, 0.03586209, 0.32770252
640, 60731066, -0.6796957850456238, -0.8420807719230652, -25.68609046936035, 0.062578656, -0.08255122, 0.33152676
641, 60747733, -0.6732673645019531, -0.874609649181366, -25.59965705871582, 0.101513155, -0.01766455, 0.3224125
642, 60764400, -0.6744547486305237, -0.8921965956687927, -25.52510643005371, -0.021273613, -0.0531635, 0.34676743
643, 60781067, -0.6772304177284241, -0.8941121101379395, -25.494564056396484, -0.06936486, 0.10072539, 0.32078838
644, 60797734, -0.6820253133773804, -0.8905841112136841, -25.485822677612305, -0.05229251, 0.1219711, 0.32060623
645, 60814401, -0.6830905675888062, -0.8864468932151794, -25.4562931060791, 0.028671453, 0.063321315, 0.32912636
646, 60831068, -0.6728214621543884, -0.8678873777389526, -25.482315063476562, 0.078710765, -0.1866109, 0.3613081
647, 60847735, -0.6585451364517212, -0.8429017663002014, -25.568008422851562, 0.2406754, -0.3460623, 0.3679762
648, 60864402, -0.650664210319519, -0.824199914932251, -25.66695213317871, 0.07624382, -0.16970222, 0.33902073
649, 60881069, -0.6470940709114075, -0.7975302934646606, -25.76403045654297, -0.16708441, 0.2249134, 0.3039055
650, 60897736, -0.6461533308029175, -0.7813270688056946, -25.82235336303711, 0.10912932, 0.09378305, 0.3546238
651, 60914403, -0.6506264805793762, -0.8111048340797424, -25.7653751373291, 0.06434808, 0.046037395, 0.30357456
652, 60931070, -0.6511635780334473, -0.8135743737220764, -25.779024124145508, -0.030576304, 0.051133342, 0.33733368
653, 60947737, -0.6418443322181702, -0.7982903122901917, -25.833879470825195, 0.04349838, 0.00727761, 0.30497742
654, 60964404, -0.6324625611305237, -0.7784212231636047, -25.863779067993164, 0.10272443, 0.008417247, 0.37384605
655, 60981071, -0.6210692524909973, -0.7466737627983093, -25.880722045898438, 0.0046669925, -0.06840443, 0.32557678
656, 60997738, -0.6071493625640869, -0.7145838737487793, -25.886564254760742, 0.0074810414, -0.09213724, 0.35746384
657, 61014405, -0.6008179187774658, -0.7232624292373657, -25.83920669555664, 0.12140193, -0.2632653, 0.3477869
658, 61031072, -0.6051332354545593, -0.7658903002738953, -25.75087547302246, -0.040945582, -0.114315756, 0.35400772
659, 61047739, -0.6177997589111328, -0.8036447763442993, -25.648386001586914, 0.04756224, 0.11490167, 0.3315134
660, 61064406, -0.6175676584243774, -0.810393214225769, -25.601011276245117, -0.0064003738, 0.2146932, 0.32509232
661, 61081073, -0.6134700775146484, -0.7820010185241699, -25.59293556213379, 0.048186895, 0.030780204, 0.33577633
662, 61097740, -0.5896558165550232, -0.7482430338859558, -25.669153213500977, 0.43986645, -0.4767908, 0.34296227
663, 61114407, -0.5734549164772034, -0.7378884553909302, -25.705707550048828, 0.10692625, -0.093922205, 0.32297516
664, 61131074, -0.572138786315918, -0.7457197308540344, -25.63994598388672, -0.15181972, 0.023565432, 0.35469627
665, 61147741, -0.5791979432106018, -0.7636615037918091, -25.5634822845459, 0.17843568, -0.115827896, 0.33890533
666, 61164408, -0.5797515511512756, -0.77472984790802, -25.504331588745117, 0.16612877, 0.018747114, 0.29803276
667, 61181075, -0.571891725063324, -0.7608864903450012, -25.477901458740234, 0.08929586, 0.05715498, 0.303236
668, 61197742, -0.5490276217460632, -0.7285745739936829, -25.52386474609375, 0.2631503, -0.28296828, 0.3522091
669, 61214409, -0.5268363952636719, -0.7051445841789246, -25.583484649658203, 0.11288874, -0.10656726, 0.34278584
670, 61231076, -0.516007125377655, -0.6926909685134888, -25.624141693115234, -0.021804499, 0.17526017, 0.34306335
671, 61247743, -0.5085376501083374, -0.6804919838905334, -25.63129234313965, 0.031079074, 0.16798253, 0.31204414
672, 61264410, -0.49471065402030945, -0.667457640171051, -25.64569854736328, -0.013037877, 0.06677636, 0.35585213
673, 61281077, -0.48109516501426697, -0.6648641228675842, -25.63956642150879, -0.08684509, -0.018439334, 0.32792377
674, 61297744, -0.4838225841522217, -0.6808022260665894, -25.586965560913086, -0.023374297, 0.085764885, 0.3342657
675, 61314411, -0.48988673090934753, -0.7045041918754578, -25.47553062438965, -0.1417958, 0.12742294, 0.28833485
676, 61331078, -0.47012656927108765, -0.7172315120697021, -25.4658260345459, -0.14514272, -0.15524672, 0.3718624
677, 61347745, -0.43392351269721985, -0.7360574007034302, -25.49137306213379, 0.085008405, -0.09573518, 0.3344736
678, 61364412, -0.43111008405685425, -0.7675544023513794, -25.496721267700195, 0.31866312, -0.1512462, 0.36726856
679, 61381079, -0.4280643165111542, -0.8000056743621826, -25.437469482421875, -0.031413898, -0.0012290453, 0.30112648
680, 61397746, -0.42252618074417114, -0.8243193030357361, -25.4119930267334, -0.13558617, 0.025303435, 0.32528687
681, 61414413, -0.4142821431159973, -0.8348811268806458, -25.430070877075195, -0.034782, -0.03698304, 0.33968258
682, 61431080, -0.42162761092185974, -0.827942967414856, -25.43726348876953, 0.095603585, -0.11434663, 0.34591007
683, 61447747, -0.43497565388679504, -0.8204590082168579, -25.403926849365234, 0.11412124, 0.061640795, 0.32695293
684, 61464414, -0.45810747146606445, -0.8270775675773621, -25.31102752685547, -0.1423432, -0.015077821, 0.36080742
685, 61481081, -0.5212132930755615, -0.823654294013977, -25.220090866088867, -0.043419287, -0.05526041, 0.3089733
686, 61497748, -0.551611065864563, -0.8251301646232605, -25.092741012573242, 0.031989504, -0.096897416, 0.3386259
687, 61514415, -0.5700790882110596, -0.8263870477676392, -25.04983139038086, -0.08552162, -0.13738675, 0.34210968
688, 61531082, -0.5880282521247864, -0.8133471608161926, -25.080028533935547, -0.06497746, 0.1828683, 0.3415346
689, 61547749, -0.6095953583717346, -0.7924280166625977, -25.091833114624023, -0.0755971, 0.32432252, 0.34607887
690, 61564416, -0.6255166530609131, -0.767468273639679, -25.111650466918945, -0.024741396, 0.1644675, 0.31764793
691, 61581083, -0.6308878660202026, -0.7436020374298096, -25.124326705932617, 0.17186923, -0.1310979, 0.3296051
692, 61597750, -0.6321716904640198, -0.7390435934066772, -25.107271194458008, 0.05336265, -0.16216314, 0.3357687
693, 61614417, -0.6411665678024292, -0.7375224828720093, -25.095577239990234, -0.16744772, 0.2459465, 0.31212234
694, 61631084, -0.6212795376777649, -0.7304245233535767, -25.0826416015625, -0.21306323, 0.05945708, 0.3355627
695, 61647751, -0.6009856462478638, -0.7051689028739929, -25.16244125366211, 0.023427375, -0.02331822, 0.29685402
696, 61664418, -0.5651071667671204, -0.6670624017715454, -25.242300033569336, 0.13763541, -0.23598565, 0.3536749
697, 61681085, -0.5548579692840576, -0.6324124336242676, -25.30354881286621, 0.114546485, -0.14303058, 0.37767887
698, 61697752, -0.5530492663383484, -0.6286112666130066, -25.3140869140625, 0.110766955, 0.12326941, 0.3191471
699, 61714419, -0.543212890625, -0.6300767660140991, -25.30274772644043, 0.039830685, -0.051073916, 0.28580952
700, 61731086, -0.5404603481292725, -0.63819420337677, -25.335573196411133, -0.011527712, -0.03331127, 0.34313107
701, 61747753, -0.5393284559249878, -0.6428442597389221, -25.393022537231445, 0.094006434, -0.00613857, 0.37672997
702, 61764420, -0.5322468876838684, -0.6389007568359375, -25.443220138549805, 0.10207395, -0.017903855, 0.31280327
703, 61781087, -0.5341760516166687, -0.644679069519043, -25.443912506103516, -0.013478526, -0.018644096, 0.32398129
704, 61797754, -0.5325707197189331, -0.648252546787262, -25.4469051361084, -0.08164463, 0.06944204, 0.34426212
705, 61814421, -0.5327388048171997, -0.6503447890281677, -25.46498680114746, -0.08307947, -0.0037239424, 0.38132286
706, 61831088, -0.5351293683052063, -0.6560376286506653, -25.49531364440918, 0.094009496, -0.043810327, 0.30613422
707, 61847755, -0.5531431436538696, -0.6775258183479309, -25.490964889526367, 0.15286073, -0.033804853, 0.32121086
708, 61864422, -0.556814432144165, -0.6975557804107666, -25.471769332885742, 0.09306849, -0.014629439, 0.33524227
709, 61881089, -0.5465301275253296, -0.7206072211265564, -25.406387329101562, 0.0940274, -0.046197608, 0.34906483
710, 61897756, -0.5450266003608704, -0.7281028628349304, -25.36029052734375, -0.004183157, 0.0068048625, 0.35053253
711, 61914423, -0.5155867338180542, -0.7319445013999939, -25.327980041503906, -0.015690442, 0.05904808, 0.31379223
712, 61931090, -0.49736708402633667, -0.7426457405090332, -25.35042953491211, -0.05960113, -0.059813395, 0.33072376
713, 61947757, -0.47648078203201294, -0.7468542456626892, -25.361202239990234, 0.17046791, -0.10396132, 0.31359196
714, 61964424, -0.4890710711479187, -0.7520882487297058, -25.390195846557617, -0.05714409, 0.044228107, 0.34692955
715, 61981091, -0.488965779542923, -0.754428505897522, -25.4363956451416, -0.090968974, 0.020636402, 0.32330608
716, 61997758, -0.486279159784317, -0.7351086735725403, -25.47442626953125, 0.035142563, 0.044799797, 0.29380512
717, 62014425, -0.4788154363632202, -0.720163881778717, -25.552091598510742, 0.23744337, -0.13737696, 0.34427547
718, 62031092, -0.4878118932247162, -0.7097761034965515, -25.53154182434082, 0.16068351, -0.14410238, 0.31580067
719, 62047759, -0.5391690135002136, -0.7115252614021301, -25.48883628845215, 0.013975235, 0.112166874, 0.33752346
720, 62064426, -0.5710972547531128, -0.7124122977256775, -25.462589263916016, -0.16640574, 0.049368422, 0.30809402
721, 62081093, -0.5759390592575073, -0.7008339166641235, -25.486845016479492, -0.14683625, 0.06605448, 0.32403088
722, 62097760, -0.5727719068527222, -0.6926336884498596, -25.539318084716797, -0.05651333, -0.038435712, 0.3470354
723, 62114427, -0.5744364857673645, -0.7030059099197388, -25.61686897277832, 0.055281863, 0.0032833808, 0.3487873
724, 62131094, -0.576021671295166, -0.728618323802948, -25.65520477294922, 0.11071591, -0.011467898, 0.3181343
725, 62147761, -0.5626066327095032, -0.7542747259140015, -25.680553436279297, -0.030923119, 0.029471168, 0.33073807
726, 62164428, -0.5469242334365845, -0.7640730142593384, -25.796039581298828, -0.10357437, 0.016244799, 0.2973442
727, 62181095, -0.5239352583885193, -0.7625909447669983, -25.89844512939453, -0.008326619, 0.033710428, 0.3243494
728, 62197762, -0.5250888466835022, -0.7762027978897095, -25.953508377075195, 0.07764708, -0.08139564, 0.34828758
729, 62214429, -0.4956192970275879, -0.7883328199386597, -26.022552490234375, 0.07872407, -0.03580715, 0.32449532
730, 62231096, -0.4714476764202118, -0.7916697859764099, -26.071746826171875, -0.25488842, 0.07174326, 0.35382462
731, 62247763, -0.46431300044059753, -0.7820361852645874, -26.150257110595703, -0.14914605, 0.044875056, 0.32023335
732, 62264430, -0.4629347026348114, -0.7693138122558594, -26.233896255493164, 0.05762196, -0.0038345952, 0.32441807
733, 62281097, -0.45548179745674133, -0.7635882496833801, -26.29840660095215, 0.22076525, -0.09178097, 0.3537836
734, 62297764, -0.4667441248893738, -0.8054876923561096, -26.225988388061523, 0.3025203, -0.06405804, 0.3566246
735, 62314431, -0.48450031876564026, -0.842466413974762, -26.14432716369629, -0.20331736, 0.060084432, 0.3370657
736, 62331098, -0.499811589717865, -0.8468049168586731, -26.13370704650879, -0.17179197, -0.0019653772, 0.31752682
737, 62347765, -0.4957237243652344, -0.8344581127166748, -26.132844924926758, -0.023532303, 0.07403241, 0.32373238
738, 62364432, -0.49782752990722656, -0.8118767738342285, -26.159780502319336, -0.12613562, 0.029976405, 0.33639336
739, 62381099, -0.4909791946411133, -0.7877240180969238, -26.19858169555664, 0.115240484, -0.05048873, 0.32192516
740, 62397766, -0.49257469177246094, -0.7777753472328186, -26.205421447753906, 0.0907025, -0.06019, 0.3504324
741, 62414433, -0.4942733645439148, -0.7557679414749146, -26.21619987487793, 0.114221126, 0.09697202, 0.32530785
742, 62431100, -0.49528488516807556, -0.7309387922286987, -26.20164680480957, -0.13073996, -0.17672439, 0.34725475
743, 62447767, -0.5003870129585266, -0.7159082889556885, -26.206005096435547, 0.025680026, 0.07751716, 0.28947735
744, 62464434, -0.49965962767601013, -0.7268874049186707, -26.121978759765625, 0.0919027, -0.03244614, 0.35269547
745, 62481101, -0.49411553144454956, -0.7227845788002014, -26.04960823059082, -0.1608948, 0.08698944, 0.34096146
746, 62497768, -0.5024130344390869, -0.7171903252601624, -26.032508850097656, -0.16725741, 0.020623581, 0.32197857
747, 62514435, -0.49992576241493225, -0.700599193572998, -26.058500289916992, -0.06366957, 0.06404764, 0.3238287
748, 62531102, -0.4966665506362915, -0.6867856979370117, -26.085487365722656, 0.034963135, -0.034986515, 0.32499695
749, 62547769, -0.49394679069519043, -0.6840171217918396, -26.115325927734375, 0.034570094, -0.019391987, 0.37005234
750, 62564436, -0.48726755380630493, -0.6864887475967407, -26.16899871826172, -0.04843227, -0.017334767, 0.2975607
751, 62581103, -0.4874064028263092, -0.6912242770195007, -26.224531173706055, -0.05548636, 0.049607072, 0.3308668
752, 62597770, -0.476796954870224, -0.6948944330215454, -26.251930236816406, -0.22876158, 0.061640367, 0.35707855
753, 62614437, -0.47685906291007996, -0.6936309337615967, -26.30571174621582, -0.11525386, 0.09874533, 0.3166504
754, 62631104, -0.4709915518760681, -0.6967164874076843, -26.33517074584961, 0.20767212, -0.11179011, 0.32298756
755, 62647771, -0.4646598994731903, -0.7116069793701172, -26.319026947021484, 0.2745151, -0.11307284, 0.3543644
756, 62664438, -0.4834228754043579, -0.7344110012054443, -26.302072525024414, 0.064287074, -0.03776098, 0.31507874
757, 62681105, -0.47827470302581787, -0.7441256642341614, -26.326522827148438, -0.08149929, 0.086177334, 0.3067255
758, 62697772, -0.476318895816803, -0.7355871796607971, -26.378925323486328, -0.06981903, -0.045697108, 0.34352207
759, 62714439, -0.4666811525821686, -0.7279065847396851, -26.409990310668945, 0.020901462, 0.078421585, 0.29326725
760, 62731106, -0.46457523107528687, -0.7212335467338562, -26.47008514404297, 0.07069885, -0.088645816, 0.3487463
761, 62747773, -0.4737730324268341, -0.7320806980133057, -26.45345687866211, 0.24299759, -0.14214996, 0.33381557
762, 62764440, -0.48357146978378296, -0.7581509947776794, -26.41819953918457, -0.19468671, 0.13943455, 0.30596638
763, 62781107, -0.4884782135486603, -0.7516891956329346, -26.42215347290039, -0.24905978, 0.10309609, 0.3452406
764, 62797774, -0.49640369415283203, -0.7285061478614807, -26.467164993286133, -0.107000835, 0.019411534, 0.31957436
765, 62814441, -0.48862868547439575, -0.7135794162750244, -26.490264892578125, 0.15100157, -0.040018074, 0.3301344
766, 62831108, -0.4896666705608368, -0.7002835869789124, -26.527074813842773, 0.2729641, -0.1796622, 0.3518734
767, 62847775, -0.5047304630279541, -0.6928679347038269, -26.59889793395996, 0.06947417, -0.010844468, 0.3018093
768, 62864442, -0.5125330090522766, -0.7036002278327942, -26.694215774536133, -0.44488662, 0.023190541, 0.37058926
769, 62881109, -0.5127668380737305, -0.7017139792442322, -26.701196670532227, -0.07403118, 0.34035203, 0.29429054
770, 62897776, -0.5269814133644104, -0.6971056461334229, -26.604978561401367, -0.30704904, 0.07379524, 0.33493996
771, 62914443, -0.5282623171806335, -0.6948681473731995, -26.595571517944336, -0.10466989, -0.0407236, 0.3381605
772, 62931110, -0.5310567617416382, -0.6855403184890747, -26.605939865112305, 0.31690687, -0.29110244, 0.3411913
773, 62947777, -0.5732094645500183, -0.6691464185714722, -26.571866989135742, 0.20286651, 0.03282834, 0.3255663
774, 62964444, -0.5871155858039856, -0.6573513746261597, -26.58781623840332, -0.16162886, 0.107116476, 0.3418188
775, 62981111, -0.5758054256439209, -0.6508225202560425, -26.577104568481445, -0.23416471, 0.29379812, 0.31719494
776, 62997778, -0.5361753702163696, -0.6333171129226685, -26.559524536132812, -0.10159903, -0.10731656, 0.3542099
777, 63014445, -0.5372554659843445, -0.638893187046051, -26.525943756103516, 0.12400556, -0.06706326, 0.31941605
778, 63031112, -0.5383215546607971, -0.6537933945655823, -26.51034164428711, 0.22585909, -0.13694616, 0.35047913
779, 63047779, -0.5245839953422546, -0.6663820147514343, -26.4976749420166, 0.2928319, -0.14216545, 0.34214878
780, 63064446, -0.5215637683868408, -0.6689596772193909, -26.458250045776367, -0.03374658, 0.050140202, 0.3455572
781, 63081113, -0.5192491412162781, -0.6848132014274597, -26.481414794921875, -0.2556481, 0.10189458, 0.32374668
782, 63097780, -0.5120649337768555, -0.6941966414451599, -26.550275802612305, -0.05692699, 0.037684456, 0.34757996
783, 63114447, -0.5001500248908997, -0.7030925154685974, -26.61073875427246, 0.036537893, -0.04561877, 0.33918095
784, 63131114, -0.49048489332199097, -0.7057113647460938, -26.668428421020508, 0.11482256, -0.08129413, 0.34043217
785, 63147781, -0.47873950004577637, -0.7164031267166138, -26.73149299621582, 0.21498795, -0.040509634, 0.3175249
786, 63164448, -0.4725502133369446, -0.7356815934181213, -26.761268615722656, 0.08645488, -0.08935231, 0.32856178
787, 63181115, -0.4723019301891327, -0.7538758516311646, -26.827709197998047, -0.026214477, 0.05062162, 0.3528328
788, 63197782, -0.4647229313850403, -0.7643511891365051, -26.875694274902344, -0.039437212, 0.044846654, 0.337245
789, 63214449, -0.4465330243110657, -0.7772347927093506, -26.946495056152344, -0.27403146, 0.033689808, 0.3398018
790, 63231116, -0.43574684858322144, -0.7763922810554504, -27.098339080810547, 0.08191019, -0.050794307, 0.35481262
791, 63247783, -0.432879239320755, -0.791742205619812, -27.156782150268555, 0.41863468, -0.09189643, 0.3197422
792, 63264450, -0.4324345588684082, -0.8059371113777161, -27.145261764526367, 0.008230983, 0.06623844, 0.3828516
793, 63281117, -0.42392459511756897, -0.8151901960372925, -27.144262313842773, -0.0645435, -0.0041655167, 0.30024529
794, 63297784, -0.4028656780719757, -0.8105687499046326, -27.136045455932617, 0.1972532, -0.1439577, 0.35778427
795, 63314451, -0.39226090908050537, -0.8149712681770325, -27.13157844543457, 0.37828147, -0.14771388, 0.3443308
796, 63331118, -0.37819355726242065, -0.8329518437385559, -27.162742614746094, 0.1744159, -0.15630674, 0.35037994
797, 63347785, -0.37656813859939575, -0.8389599323272705, -27.223600387573242, -0.08389247, 0.001044951, 0.34259796
798, 63364452, -0.380864679813385, -0.8238993883132935, -27.275976181030273, -0.20547666, 0.1540074, 0.31737614
799, 63381119, -0.3891911506652832, -0.8172770142555237, -27.298320770263672, -0.3264779, 0.089875594, 0.32287502
800, 63397786, -0.37736743688583374, -0.8151450753211975, -27.319988250732422, 0.055701707, -0.06298876, 0.34706402
801, 63414453, -0.3785697817802429, -0.8238232731819153, -27.300445556640625, 0.2668885, 0.0054103755, 0.3532648
802, 63431120, -0.3849496841430664, -0.8342303037643433, -27.32448387145996, -0.031092007, -0.068502784, 0.314579
803, 63447787, -0.38690924644470215, -0.8196786046028137, -27.359785079956055, 0.14249031, 0.047403194, 0.29652405
804, 63464454, -0.29924067854881287, -0.7659705877304077, -27.394020080566406, -0.05125322, -0.058289938, 0.35394287
805, 63481121, -0.3124217987060547, -0.7458413243293762, -27.37877655029297, -0.17195204, 0.058169205, 0.3242731
806, 63497788, -0.3162374794483185, -0.7504595518112183, -27.362014770507812, -0.19053094, 0.15926228, 0.37107372
807, 63514455, -0.3156837821006775, -0.7648043632507324, -27.283540725708008, -0.0095915105, 0.008948177, 0.30393505
808, 63531122, -0.28882962465286255, -0.7813206911087036, -27.192270278930664, 0.13229908, 0.095199086, 0.27844048
809, 63547789, -0.10689780116081238, -0.759480357170105, -27.1207275390625, 0.03322224, 0.10275313, 0.33522892
810, 63564456, -0.034034617245197296, -0.7198286056518555, -27.11433219909668, -0.22016959, -0.06878324, 0.32224083
811, 63581123, 0.12028690427541733, -0.622376024723053, -27.17557716369629, 0.14352083, -0.012039352, 0.35323238
812, 63597790, 0.15580977499485016, -0.5917129516601562, -27.12018585205078, -0.11484157, -0.15669768, 0.32007408
813, 63614457, 0.1994481086730957, -0.5998932123184204, -27.032562255859375, -0.057499215, 0.20384155, 0.33791733
814, 63631124, 0.3856247365474701, -0.5697889924049377, -26.969026565551758, 0.020191336, 0.31029117, 0.34466553
815, 63647791, 0.6337989568710327, -0.5658601522445679, -26.947856903076172, -0.029854082, 0.14109379, 0.28743076
816, 63664458, 0.8937305212020874, -0.5322358012199402, -26.932905197143555, 0.13755229, 0.18055063, 0.3626089
817, 63681125, 1.2387418746948242, -0.5207706689834595, -26.934925079345703, 0.10470005, 0.15059412, 0.35868645
818, 63697792, 1.5818312168121338, -0.50794917345047, -26.920520782470703, 0.11911219, 0.12024374, 0.305727
819, 63714459, 1.875870943069458, -0.4824948012828827, -26.95263671875, -0.040039074, 0.2602776, 0.29626846
820, 63731126, 2.092104911804199, -0.4168410897254944, -27.021800994873047, -0.052465707, 0.25966257, 0.31656837
821, 63747793, 2.2449913024902344, -0.4822404980659485, -27.029735565185547, 0.022041779, -0.11432608, 0.351655
822, 63764460, 2.3448498249053955, -0.53211510181427, -26.961206436157227, 0.26719958, -0.077916995, 0.35599613
823, 63781127, 2.4182920455932617, -0.5732702612876892, -26.866296768188477, -0.27205694, -0.0026576528, 0.30577278
824, 63797794, 2.4989171028137207, -0.5860204696655273, -26.87579917907715, 0.04085325, -0.014075044, 0.31935215
825, 63814461, 2.5742580890655518, -0.605557918548584, -26.813444137573242, -0.059241775, -0.46160355, 0.3419361
826, 63831128, 2.584643602371216, -0.6699011921882629, -25.965059280395508, 1.0395614, -2.0629263, 0.372221
827, 63847795, 2.521373987197876, -0.7257115244865417, -24.82120704650879, -1.1444051, -0.3838221, 0.28620243
828, 63864462, 2.463642120361328, -0.7234679460525513, -24.320829391479492, -1.0759865, 0.11058277, 0.2939024
829, 63881129, 2.379709482192993, -0.7512673735618591, -24.072343826293945, -0.3356497, -0.3274823, 0.36157513
830, 63897796, 2.2865474224090576, -0.801389217376709, -24.083309173583984, -0.6033381, 0.2828604, 0.27227402
831, 63914463, 2.232436418533325, -0.7445653080940247, -24.463424682617188, -0.6571078, 0.9390665, 0.2665472
832, 63931130, 2.211796522140503, -0.6364575624465942, -25.022768020629883, -0.55491215, 1.2826736, 0.2904415
833, 63947797, 2.208268404006958, -0.48642510175704956, -25.692188262939453, -0.42126903, 0.52965707, 0.3297205
834, 63964464, 2.2114038467407227, -0.38695237040519714, -26.208065032958984, -0.017735342, -0.004660161, 0.31586933
835, 63981131, 2.215101480484009, -0.3704698979854584, -26.483938217163086, 0.10860258, -0.11529616, 0.31097412
836, 63997798, 2.207663059234619, -0.3678077459335327, -26.625106811523438, 0.20227662, -0.07179887, 0.34383392
837, 64014465, 2.200631618499756, -0.36974799633026123, -26.705123901367188, 0.0016453976, 0.03645871, 0.32891846
838, 64031132, 2.2045507431030273, -0.4008103609085083, -26.70610237121582, 0.26622683, -0.060251564, 0.35024357
839, 64047799, 2.2128522396087646, -0.41158348321914673, -26.698650360107422, 0.014428103, -0.06829912, 0.34744453
840, 64064466, 2.219256639480591, -0.4290235638618469, -26.673240661621094, 0.13713317, -0.10476859, 0.33693218
841, 64081133, 2.215359687805176, -0.4463711977005005, -26.59153175354004, 0.30370867, -0.38941032, 0.33141422
842, 64097800, 2.192192316055298, -0.4696432650089264, -26.5073184967041, 0.09065964, -0.26879305, 0.30915546
843, 64114467, 2.1165359020233154, -0.4741324186325073, -26.45342254638672, 0.120000206, -0.5193488, 0.38780022
844, 64131134, 2.007617473602295, -0.5102131962776184, -26.383777618408203, 0.010805713, -0.0756359, 0.31391907
845, 64147801, 1.8667598962783813, -0.5099000930786133, -26.36455535888672, 0.13766389, -0.12773103, 0.35043907
846, 64164468, 1.67409086227417, -0.49876868724823, -26.384109497070312, -0.12324685, -0.098590754, 0.27267742
847, 64181135, 1.4263293743133545, -0.4559113383293152, -26.450193405151367, -0.14543165, 0.22602315, 0.3256731
848, 64197802, 1.1770777702331543, -0.3955239951610565, -26.542879104614258, 0.010333269, 0.067226924, 0.38694286
849, 64214469, 0.892470121383667, -0.437966912984848, -26.49974250793457, 0.1703713, -0.125935, 0.29171944
850, 64231136, 0.5354933738708496, -0.5291321873664856, -26.412151336669922, -0.11592384, 0.025939768, 0.37376213
851, 64247803, 0.12474609911441803, -0.6095405220985413, -26.311798095703125, -0.24172893, 0.20997316, 0.29308987
852, 64264470, -0.20035973191261292, -0.6549108624458313, -26.32093048095703, -0.13977735, 0.30816674, 0.37817955
853, 64281137, -0.3752044439315796, -0.655935525894165, -26.363454818725586, -0.122223005, 0.24414097, 0.30199623
854, 64297804, -0.4549379348754883, -0.666268527507782, -26.39610481262207, 0.0020158389, 0.17312668, 0.32149315
855, 64314471, -0.4957113265991211, -0.6688277721405029, -26.384653091430664, 0.029548679, -0.027815884, 0.34836388
856, 64331138, -0.5310997366905212, -0.6922249794006348, -26.310117721557617, -0.08957473, 0.16064046, 0.32274818
857, 64347805, -0.5451182723045349, -0.7099089622497559, -26.281051635742188, 0.020954138, 0.0335328, 0.34216785
858, 64364472, -0.5489159226417542, -0.7205309271812439, -26.269758224487305, 0.07451702, -0.018447133, 0.320899
859, 64381139, -0.5486260056495667, -0.7265396118164062, -26.261028289794922, 0.185599, -0.15791792, 0.32083035
860, 64397806, -0.5506975054740906, -0.7329742908477783, -26.283565521240234, 0.15162806, -0.069089316, 0.36129475
861, 64414473, -0.5616152286529541, -0.7495860457420349, -26.286882400512695, 0.07160271, -0.06365183, 0.3068447
862, 64431140, -0.561354398727417, -0.7638307809829712, -26.270858764648438, 0.2934711, -0.04911501, 0.37736034
863, 64447807, -0.564106822013855, -0.7817932367324829, -26.197864532470703, -0.05719159, 0.039766178, 0.3020239
864, 64464474, -0.5640741586685181, -0.7923439145088196, -26.1970157623291, 0.033333037, 0.006911869, 0.33712196
865, 64481141, -0.5420314073562622, -0.7873986959457397, -26.198389053344727, 0.04735363, -0.08499392, 0.35368156
866, 64497808, -0.5411924123764038, -0.780160129070282, -26.23634910583496, 0.17705992, -0.11154625, 0.3418808
867, 64514475, -0.5496905446052551, -0.7794716358184814, -26.25285530090332, -0.07967924, 0.03866145, 0.31015587
868, 64531142, -0.5513139963150024, -0.7696273922920227, -26.290491104125977, -0.17714319, 0.13633396, 0.31869316
869, 64547809, -0.5284190773963928, -0.7623529434204102, -26.376585006713867, -0.2590065, 0.07661472, 0.32755184
870, 64564476, -0.5235538482666016, -0.7677485346794128, -26.390575408935547, -0.017816825, 0.05464459, 0.3210001
871, 64581143, -0.5256443023681641, -0.7711271643638611, -26.394025802612305, -0.09579262, 0.0036740326, 0.343997
872, 64597810, -0.5198336243629456, -0.7717666625976562, -26.41888427734375, 0.14346632, -0.0807434, 0.32593918
873, 64614477, -0.5177115201950073, -0.7765097618103027, -26.388282775878906, 0.14118817, -0.09366942, 0.32421494
874, 64631144, -0.5191285014152527, -0.7704827189445496, -26.417144775390625, -0.23447151, 0.11010862, 0.33462715
875, 64647811, -0.5129221677780151, -0.7656883001327515, -26.515602111816406, -0.032640077, 0.0018725496, 0.32740593
876, 64664478, -0.5156797170639038, -0.7757474184036255, -26.517127990722656, -0.14011271, 0.063357554, 0.33017159
877, 64681145, -0.5224385857582092, -0.7748095989227295, -26.523311614990234, -0.09256427, 0.029483084, 0.3216734
878, 64697812, -0.5228193402290344, -0.776517927646637, -26.546810150146484, 0.09877032, -0.11850016, 0.32242012
879, 64714479, -0.5303850173950195, -0.7865777611732483, -26.535987854003906, 0.09898073, 0.02712466, 0.32379246
880, 64731146, -0.5414758920669556, -0.7900993227958679, -26.534664154052734, -0.14673267, 0.065525815, 0.3411808
881, 64747813, -0.5464377403259277, -0.7914693355560303, -26.550399780273438, -0.042339094, 0.030872036, 0.3613205
882, 64764480, -0.5412684082984924, -0.7890614867210388, -26.564220428466797, 0.10675782, 0.009548208, 0.30851078
883, 64781147, -0.5250365138053894, -0.7912783622741699, -26.534257888793945, 0.017989388, -0.09022875, 0.34486294
884, 64797814, -0.5337298512458801, -0.7955828905105591, -26.517518997192383, 0.23101585, -0.1219846, 0.30405712
885, 64814481, -0.5422257781028748, -0.8058452606201172, -26.46906089782715, -0.05523673, 0.01932463, 0.3607359
886, 64831148, -0.5387626886367798, -0.8065885901451111, -26.480899810791016, -0.053006854, 0.058395296, 0.34762383
887, 64847815, -0.5434691309928894, -0.8116778135299683, -26.46837043762207, -0.16161834, 0.083885014, 0.30143833
888, 64864482, -0.5401611924171448, -0.8172776103019714, -26.49363136291504, -0.25465703, 0.086821705, 0.31170273
889, 64881149, -0.5297431349754333, -0.8100358247756958, -26.541500091552734, -0.08454581, 0.005020171, 0.35103607
890, 64897816, -0.530809760093689, -0.8108308911323547, -26.5611515045166, -0.09161898, 0.036024597, 0.34478378
891, 64914483, -0.5315055251121521, -0.8107906579971313, -26.60381317138672, -0.056978095, 0.020340845, 0.33076954
892, 64931150, -0.5369598269462585, -0.81456059217453, -26.632061004638672, 0.08449025, -0.007674946, 0.3256979
893, 64947817, -0.5382018685340881, -0.8205389976501465, -26.62787437438965, -0.16554405, 0.06041132, 0.34135246
894, 64964484, -0.5339338183403015, -0.8140371441841125, -26.64888572692871, -0.3482288, 0.1313053, 0.3333273
895, 64981151, -0.5342025756835938, -0.7992216944694519, -26.66376304626465, -0.15247342, 0.060502093, 0.3110428
896, 64997818, -0.5322465300559998, -0.788283109664917, -26.665447235107422, -0.0077922205, -0.013145537, 0.33031654
897, 65014485, -0.5315456390380859, -0.7827356457710266, -26.667007446289062, -0.010935424, -5.6879857E-4, 0.32414627
898, 65031152, -0.5330291986465454, -0.7805035710334778, -26.67078971862793, 0.0020659512, -0.0074467743, 0.32750702
899, 65047819, -0.531103789806366, -0.7821469306945801, -26.713489532470703, 0.19197293, -0.14971696, 0.3488636
900, 65064486, -0.5325665473937988, -0.787044107913971, -26.743806838989258, 0.29342142, -0.13518564, 0.34262466
901, 65081153, -0.5388296842575073, -0.7819855809211731, -26.751310348510742, -0.12758008, 0.021028623, 0.33858776
902, 65097820, -0.5429344773292542, -0.7805538773536682, -26.77813720703125, 0.15993881, -0.06307038, 0.33873463
903, 65114487, -0.5477575659751892, -0.7836414575576782, -26.808090209960938, -0.059333205, 0.053669725, 0.3293581
904, 65131154, -0.5470027923583984, -0.7875080704689026, -26.84700584411621, 0.12575841, -0.04747017, 0.32294178
905, 65147821, -0.5514907240867615, -0.7941798567771912, -26.845407485961914, 0.08165184, -0.040537667, 0.3783121
906, 65164488, -0.5530713200569153, -0.7984815239906311, -26.821918487548828, -0.14375676, 0.058572553, 0.34192085
907, 65181155, -0.5556816458702087, -0.7998301982879639, -26.799406051635742, -0.22964703, 0.06734926, 0.2951231
908, 65197822, -0.5519886016845703, -0.7931695580482483, -26.850297927856445, -0.12002232, 0.035469163, 0.3131733
909, 65214489, -0.5410876274108887, -0.782927930355072, -26.924978256225586, -0.11962162, 0.06408035, 0.32603073
910, 65231156, -0.5434402823448181, -0.7791293263435364, -26.940065383911133, -0.07614901, 0.04356682, 0.33788204
911, 65247823, -0.5409562587738037, -0.7731819748878479, -26.943220138549805, -0.00869201, 2.0125945E-4, 0.34503937
912, 65264490, -0.5288167595863342, -0.7636339664459229, -26.942468643188477, -0.006250896, -0.00583044, 0.32086754
913, 65281157, -0.5122016072273254, -0.7491556406021118, -26.94090461730957, 0.0025476636, -0.004843414, 0.34296417
914, 65297824, -0.5011327862739563, -0.7281174063682556, -26.9335994720459, 0.04744969, -0.004844989, 0.34706974
915, 65314491, -0.4996362328529358, -0.7495952844619751, -26.506288528442383, 0.95730656, -0.033124052, 0.3289299
916, 65331158, -0.5269137024879456, -0.7020113468170166, -25.505720138549805, 0.8126077, -0.16496588, 0.34677315
917, 65347825, -0.6027278900146484, -0.780863344669342, -23.503677368164062, -1.0059841, 0.06254983, 0.32416534
918, 65364492, -0.6071218848228455, -0.7910970449447632, -23.202882766723633, -0.8242409, 0.11619738, 0.30585957
919, 65381159, -0.6046930551528931, -0.7926084995269775, -23.206100463867188, 0.009965776, 0.0048267273, 0.3278494
920, 65397826, -0.601534366607666, -0.7931557893753052, -23.206298828125, 0.010305875, 0.00158741, 0.32282925
921, 65414493, -0.6000500917434692, -0.7951036095619202, -23.20631980895996, 0.010456635, -0.003036207, 0.3559847
922, 65431160, -0.600131094455719, -0.7969125509262085, -23.206199645996094, -0.014582691, -0.012171741, 0.35241604
923, 65447827, -0.5995137095451355, -0.7987634539604187, -23.207027435302734, 0.00965452, 0.0060556363, 0.34106445
924, 65464494, -0.5989288091659546, -0.799002468585968, -23.208646774291992, 0.009075953, -0.005698044, 0.32872486
925, 65481161, -0.5983051657676697, -0.7989467978477478, -23.209331512451172, 0.012428616, 0.0040194616, 0.32760143
926, 65497828, -0.5984552502632141, -0.7992216944694519, -23.20927619934082, 0.02237971, -7.3035655E-4, 0.33256435
927, 65514495, -0.5986733436584473, -0.7998436093330383, -23.209047317504883, -0.0014578877, -0.006674069, 0.3229046
928, 65531162, -0.5989980697631836, -0.7988018989562988, -23.208234786987305, 0.005155176, -0.0027480428, 0.34044838
929, 65547829, -0.5990687012672424, -0.7976972460746765, -23.208906173706055, -0.0010380431, 0.0031167555, 0.3447895
930, 65564496, -0.5995660424232483, -0.7970615029335022, -23.207672119140625, -0.0056636715, 3.2916473E-4, 0.33480644
931, 65581163, -0.5992239713668823, -0.7976356744766235, -23.20795249938965, 0.007225538, -0.008640033, 0.32718563
932, 65597830, -0.5987929105758667, -0.797481894493103, -23.207542419433594, 0.0050283326, -0.00967406, 0.30677795
933, 65614497, -0.5972786545753479, -0.7967423796653748, -23.20857810974121, -0.017766962, -0.0023121997, 0.3280964
934, 65631164, -0.5972759127616882, -0.7970835566520691, -23.209400177001953, -0.005118461, -0.013567188, 0.35119438
935, 65647831, -0.5982666015625, -0.7975126504898071, -23.209793090820312, 0.0075127347, -0.0072608464, 0.3325472
936, 65664498, -0.5981487035751343, -0.7983340620994568, -23.211076736450195, -0.0033790898, -0.004242129, 0.34445
937, 65681165, -0.5984135270118713, -0.797485888004303, -23.21110725402832, 0.008593057, -9.707447E-5, 0.3311758
938, 65697832, -0.5980652570724487, -0.7971920967102051, -23.21148681640625, -0.0019257877, 0.006557863, 0.33811855
939, 65714499, -0.5979090332984924, -0.7980680465698242, -23.21055030822754, -0.002167199, -0.0079634525, 0.35881615
940, 65731166, -0.5976389646530151, -0.7980427145957947, -23.210405349731445, -0.0021384498, -0.011052855, 0.36529827
941, 65747833, -0.5971774458885193, -0.7979449033737183, -23.209501266479492, -0.006216248, 1.15269824E-4, 0.3135214
942, 65764500, -0.5970821380615234, -0.7988218069076538, -23.21017074584961, 0.015635883, 0.0047001, 0.32269573
943, 65781167, -0.596934974193573, -0.7997627854347229, -23.210092544555664, 0.0037764993, 0.006418007, 0.33807373
944, 65797834, -0.5959680080413818, -0.799094021320343, -23.209827423095703, 0.0010198163, 0.0028938502, 0.34532356
945, 65814501, -0.5945132374763489, -0.7999585270881653, -23.209796905517578, -0.0016801818, 0.0050209393, 0.33682728
946, 65831168, -0.5939666628837585, -0.7995185256004333, -23.210681915283203, 0.004163093, 0.0078099794, 0.33207035
947, 65847835, -0.5934070944786072, -0.7994609475135803, -23.210887908935547, 0.0061098733, -0.0026948748, 0.34703064
948, 65864502, -0.5925300717353821, -0.7995079755783081, -23.211057662963867, -0.0033874228, -0.001364833, 0.34119606
949, 65881169, -0.5927350521087646, -0.798653244972229, -23.211278915405273, 0.015578434, -0.004714035, 0.3389635
950, 65897836, -0.5922167897224426, -0.7991144061088562, -23.211702346801758, 0.009032036, 0.006931486, 0.3311348
951, 65914503, -0.5908056497573853, -0.7998384833335876, -23.2124080657959, 0.016046459, 0.010716342, 0.3431139
952, 65931170, -0.5906108617782593, -0.8005990982055664, -23.213045120239258, 0.0076763323, 0.0035954015, 0.33108234
953, 65947837, -0.5919456481933594, -0.8019927144050598, -23.21210289001465, 0.009188212, 8.311399E-4, 0.3465681
954, 65964504, -0.5907271504402161, -0.8011972308158875, -23.21306610107422, -0.004850713, -2.0009997E-4, 0.33451843
955, 65981171, -0.5908697247505188, -0.8005810379981995, -23.213163375854492, 0.0191599, 0.007470746, 0.34678364
956, 65997838, -0.5902601480484009, -0.8006715178489685, -23.21323013305664, 0.011342245, 0.0032650214, 0.32607174
957, 66014505, -0.589931845664978, -0.8010895848274231, -23.212642669677734, 0.021024086, -0.0029158802, 0.33527184
958, 66031172, -0.5902243852615356, -0.7988216876983643, -23.212804794311523, 0.0039282264, -0.007063065, 0.32940102
959, 66047839, -0.5897748470306396, -0.7998234033584595, -23.214130401611328, 0.0142614925, 0.0066311858, 0.35053062
960, 66064506, -0.5889467000961304, -0.7984458804130554, -23.213289260864258, -0.0019160717, -0.002880628, 0.32707405
961, 66081173, -0.5897002220153809, -0.7982400059700012, -23.21255874633789, -0.0047891145, -0.013248996, 0.34156227
962, 66097840, -0.5905885100364685, -0.7967172265052795, -23.21268081665039, 0.008003688, -0.01187817, 0.3351698
963, 66114507, -0.5906462669372559, -0.7954327464103699, -23.21351432800293, 0.012929624, -0.008727832, 0.30636692
964, 66131174, -0.5890703797340393, -0.7954392433166504, -23.2130126953125, -1.1660741E-4, -0.0044054054, 0.3360939
965, 66147841, -0.5884732007980347, -0.7948834896087646, -23.213409423828125, 0.0055393497, -0.016656088, 0.33959675
966, 66164508, -0.5880866646766663, -0.7952827215194702, -23.213808059692383, 0.011883898, 0.0010687133, 0.32839584
967, 66181175, -0.5884075164794922, -0.7948209643363953, -23.2132511138916, -0.010783955, -0.0061013307, 0.34215546
968, 66197842, -0.5888590812683105, -0.794964611530304, -23.213560104370117, 0.015788013, 0.0032357483, 0.31168842
969, 66214509, -0.5887768268585205, -0.7942343354225159, -23.213985443115234, -0.0012773521, -0.0023906177, 0.34775734
970, 66231176, -0.5882376432418823, -0.7944523692131042, -23.21372413635254, 0.016550642, -0.0020029414, 0.33967304
971, 66247843, -0.5875359773635864, -0.7945359945297241, -23.214393615722656, 0.0024114044, 0.0020602935, 0.32303715
972, 66264510, -0.5876249670982361, -0.792859673500061, -23.214258193969727, 0.008876468, 0.006655807, 0.3480158
973, 66281177, -0.5878535509109497, -0.7911766767501831, -23.214282989501953, 0.0012731543, -0.013492799, 0.34098816
974, 66297844, -0.5883033275604248, -0.7914270162582397, -23.214067459106445, 0.011351797, -5.819509E-4, 0.33217907
975, 66314511, -0.5879747867584229, -0.7916394472122192, -23.212875366210938, 0.02203958, -0.00642759, 0.33323193
976, 66331178, -0.5884670615196228, -0.7920739650726318, -23.21367835998535, 0.0031227134, 0.007758833, 0.33868408
977, 66347845, -0.5887783169746399, -0.7907407879829407, -23.213890075683594, 0.012113145, -0.0019665298, 0.3289013
978, 66364512, -0.587989330291748, -0.7907213568687439, -23.210920333862305, -0.0070975106, 0.005156793, 0.34152317
979, 66381179, -0.5873286724090576, -0.7911378145217896, -23.212261199951172, 0.010438149, -0.0042611207, 0.33562756
980, 66397846, -0.587056040763855, -0.7914762496948242, -23.213504791259766, 0.00331154, -0.004071393, 0.3467636
981, 66414513, -0.5865170359611511, -0.7918046116828918, -23.213455200195312, 0.0062266206, -0.0024074093, 0.3266058
982, 66431180, -0.5871104598045349, -0.7914958596229553, -23.21439552307129, -0.0088579515, -0.0036368002, 0.3503046
983, 66447847, -0.5867698192596436, -0.7919735908508301, -23.214693069458008, -0.0062266868, 0.0043787584, 0.32498932
984, 66464514, -0.5866121053695679, -0.7913039922714233, -23.214900970458984, 0.008907299, 0.002123869, 0.3468542
985, 66481181, -0.5871427655220032, -0.7913409471511841, -23.21585464477539, 0.0010247126, 5.19032E-4, 0.33999825
986, 66497848, -0.5873144865036011, -0.792077362537384, -23.215423583984375, 0.008856541, 0.007877285, 0.35371685
987, 66514515, -0.588420033454895, -0.7910809516906738, -23.216251373291016, -0.0023674737, 5.331622E-4, 0.33872128
988, 66531182, -0.587983250617981, -0.7921069860458374, -23.21702003479004, -7.249398E-4, 0.004899802, 0.3391962
989, 66547849, -0.5890068411827087, -0.7930660843849182, -23.216455459594727, 0.02313291, 0.0012163365, 0.33577156
990, 66564516, -0.5892221927642822, -0.7928512692451477, -23.216951370239258, 0.0074940785, -0.008156924, 0.3358097
991, 66581183, -0.5898037552833557, -0.7919599413871765, -23.217323303222656, 0.006826281, -0.005939123, 0.32946873
992, 66597850, -0.5905017852783203, -0.7912028431892395, -23.21646499633789, 0.0038800626, 7.316068E-4, 0.32471752
993, 66614517, -0.5920118689537048, -0.7897845506668091, -23.215456008911133, 0.0054750233, 0.0073837223, 0.34301376
994, 66631184, -0.5920780897140503, -0.7896035313606262, -23.21508026123047, 0.007838735, -0.0034341929, 0.320199
995, 66647851, -0.5920787453651428, -0.7880071401596069, -23.213333129882812, 0.011486327, -0.012825516, 0.32661152
996, 66664518, -0.5915260910987854, -0.7882460355758667, -23.2137393951416, 0.016448695, 4.4410626E-4, 0.32376957
997, 66681185, -0.591800332069397, -0.7879555225372314, -23.213842391967773, -0.008193465, -0.0033377819, 0.30235577
998, 66697852, -0.592231035232544, -0.787190854549408, -23.214174270629883, -0.0075098993, -0.012603002, 0.33639717
999, 66714519, -0.5927437543869019, -0.7876661419868469, -23.213804244995117, 8.687739E-4, 0.0056370245, 0.3146925
1000, 66731186, -0.5923941731452942, -0.7874987721443176, -23.214553833007812, -0.0010398591, -0.004075612, 0.32962132
1001, 66747853, -0.5925016403198242, -0.7876070141792297, -23.214752197265625, 0.0073780823, -0.006501049, 0.3326645
1002, 66764520, -0.5935848951339722, -0.7885786294937134, -23.214502334594727, 0.010703837, 0.015217625, 0.30984306
1003, 66781187, -0.5930722951889038, -0.7882372140884399, -23.213956832885742, 0.0023511956, -0.012761856, 0.34730434
1004, 66797854, -0.59356290102005, -0.788098156452179, -23.213754653930664, 0.005333962, -0.00846973, 0.3521433
1005, 66814521, -0.5935508608818054, -0.7870877385139465, -23.21452522277832, 0.02454905, -0.008394986, 0.33955193
1006, 66831188, -0.5938277840614319, -0.7860535979270935, -23.21483039855957, 0.011811898, 8.598334E-4, 0.3377838
1007, 66847855, -0.5933701395988464, -0.785534679889679, -23.214122772216797, 0.009744885, 0.006265009, 0.3277502
1008, 66864522, -0.5932372808456421, -0.7858234643936157, -23.214536666870117, 0.010040765, -0.00876863, 0.3295536
1009, 66881189, -0.592991828918457, -0.7866439819335938, -23.21595001220703, 0.0119132055, -0.0021626137, 0.32530403
1010, 66897856, -0.5932862758636475, -0.7854892015457153, -23.215211868286133, 0.013319679, -0.014415544, 0.33943653
1011, 66914523, -0.5934991836547852, -0.7848380208015442, -23.215225219726562, 0.013101715, -0.0019198506, 0.33355808
1012, 66931190, -0.5932562351226807, -0.783464789390564, -23.21526527404785, 0.009559447, -0.010893071, 0.34741497
1013, 66947857, -0.5926288366317749, -0.7839312553405762, -23.215116500854492, 4.8681122E-4, -0.007998216, 0.32638454
1014, 66964524, -0.5922171473503113, -0.7831593155860901, -23.214651107788086, 0.012794413, -0.013365111, 0.3425579
1015, 66981191, -0.5919170379638672, -0.7833462953567505, -23.213565826416016, 0.004832329, -0.0038254801, 0.32441616
1016, 66997858, -0.5922093987464905, -0.7838194966316223, -23.213165283203125, -6.210936E-4, -0.0043776897, 0.335289
1017, 67014525, -0.5919790267944336, -0.7826443314552307, -23.213668823242188, 0.0047237924, -0.012887087, 0.3324852
1018, 67031192, -0.5923405885696411, -0.7818397283554077, -23.213571548461914, -0.0043592746, -0.009045353, 0.3237524
1019, 67047859, -0.5924564003944397, -0.7799581289291382, -23.212907791137695, 0.009891059, -0.0077065313, 0.3369589
1020, 67064526, -0.5926219820976257, -0.7788277864456177, -23.21228790283203, 0.0025067502, 0.00627521, 0.32724094
1021, 67081193, -0.5921633839607239, -0.7778618335723877, -23.2116756439209, 0.0120769255, 0.0021890579, 0.31102085
1022, 67097860, -0.5915548205375671, -0.7788239121437073, -23.211328506469727, -0.005306009, -0.0036467256, 0.3435526
1023, 67114527, -0.5915626883506775, -0.7786677479743958, -23.210758209228516, 0.0016754112, -0.008322582, 0.33071136
1024, 67131194, -0.5918509364128113, -0.7783410549163818, -23.211414337158203, 0.0064888815, -0.015233637, 0.31970882
1025, 67147861, -0.5918481349945068, -0.7786795496940613, -23.211639404296875, -0.0064889756, -0.004575932, 0.32777786
1026, 67164528, -0.5926087498664856, -0.7791627049446106, -23.212186813354492, 0.006832187, -0.011744237, 0.34101677
1027, 67181195, -0.5922489166259766, -0.7788071036338806, -23.212848663330078, 0.007476952, -0.0019073269, 0.3315382
1028, 67197862, -0.591681718826294, -0.7802548408508301, -23.21337890625, 0.0027721613, -0.01580896, 0.3249197
1029, 67214529, -0.5910930633544922, -0.7811505198478699, -23.21327018737793, 0.010755639, -0.0031436537, 0.31948757
1030, 67231196, -0.5904438495635986, -0.7813349366188049, -23.214344024658203, 0.018987404, 0.007705288, 0.3336382
1031, 67247863, -0.5911158919334412, -0.7822632789611816, -23.215133666992188, 0.006008004, -0.0044016265, 0.33796406
1032, 67264530, -0.5901498198509216, -0.7829766869544983, -23.215187072753906, 0.009781723, -0.0056393086, 0.3227625
1033, 67281197, -0.5896480083465576, -0.7830850481987, -23.21406364440918, 0.005027323, -0.0051657828, 0.35227966
1034, 67297864, -0.5889919996261597, -0.7836041450500488, -23.21409034729004, 0.013058451, -0.007216109, 0.3474636
1035, 67314531, -0.5889944434165955, -0.783466100692749, -23.214319229125977, 0.011303382, -0.0023921335, 0.32663345
1036, 67331198, -0.5883688926696777, -0.7818403840065002, -23.215320587158203, 0.008161715, 0.009212149, 0.3264761
1037, 67347865, -0.5886515378952026, -0.7814003229141235, -23.216930389404297, 0.011927469, -0.001424972, 0.32248306
1038, 67364532, -0.5895426869392395, -0.7799928784370422, -23.21782684326172, 0.01019056, -0.013169935, 0.33443642
1039, 67381199, -0.5894565582275391, -0.7794201374053955, -23.217937469482422, 0.011159517, 0.0010965895, 0.3418331
1040, 67397866, -0.5894947052001953, -0.7789362072944641, -23.2191162109375, 0.011629934, -0.0047265934, 0.34268856
1041, 67414533, -0.5886961221694946, -0.7795873880386353, -23.219125747680664, -0.0048806043, 0.006247215, 0.3494234
