sep=,
DeviceTag:,Movella DOT,,,,,,,,,,,,,,,,,
FirmwareVersion:,3.0.0,,,,,,,,,,,,,,,,,
AppVersion:,2023.6.1,,,,,,,,,,,,,,,,,
SyncStatus:,Un-synced,,,,,,,,,,,,,,,,,
OutputRate:,60Hz,,,,,,,,,,,,,,,,,
FilterProfile:,General,,,,,,,,,,,,,,,,,
Measurement Mode:,Sensor fusion Mode - Complete (Euler),,,,,,,,,,,,,,,,,
StartTime:,2024-10-24 07:14:00.178 +0700,,,,,,,,,,,,,,,,,
 2024,,,,,,,,,,,,,,,,,,,

PacketCounter,SampleTimeFine,Euler_X,Euler_Y,Euler_Z,FreeAcc_X,FreeAcc_Y,FreeAcc_Z
1, 45329110, -0.5790082216262817, -0.7990195751190186, 17.82602882385254, -0.014666326, 0.0037412785, 0.3372593
2, 45345777, -0.5770834684371948, -0.8058264851570129, 17.75131607055664, -0.028672107, -0.0077140294, 0.3101778
3, 45362444, -0.5786436200141907, -0.789238691329956, 17.672468185424805, -0.014119006, -0.012531229, 0.3246622
4, 45379111, -0.5885055661201477, -0.7802757024765015, 17.6677303314209, 0.001753508, -0.008890169, 0.33763695
5, 45395778, -0.6005063652992249, -0.7874301671981812, 17.674997329711914, -0.013320876, 0.009386902, 0.34644127
6, 45412445, -0.6032847762107849, -0.7965695858001709, 17.669748306274414, -0.011614334, -0.01282744, 0.32511806
7, 45429112, -0.6097233891487122, -0.8059484958648682, 17.65306854248047, -0.008512617, -0.007551326, 0.32131386
8, 45445779, -0.6173403263092041, -0.8182192444801331, 17.656261444091797, -0.022232896, -0.0015064005, 0.3690338
9, 45462446, -0.6232908964157104, -0.8285641074180603, 17.653913497924805, -0.017173395, -7.946409E-4, 0.3320589
10, 45479113, -0.62772536277771, -0.8390071392059326, 17.648311614990234, -0.016102174, 0.003680668, 0.34001923
11, 45495780, -0.6322722434997559, -0.8535774350166321, 17.659042358398438, -0.025610339, -0.01146523, 0.3385811
12, 45512447, -0.6369792222976685, -0.8665747046470642, 17.664512634277344, -0.01975455, -0.0028724838, 0.33585358
13, 45529114, -0.6412180662155151, -0.8807083964347839, 17.672513961791992, -0.037209075, -0.008996823, 0.33874607
14, 45545781, -0.6454261541366577, -0.8932576179504395, 17.673725128173828, -0.03861022, -0.008013844, 0.3238325
15, 45562448, -0.6501411199569702, -0.9063370823860168, 17.683286666870117, -0.036014076, 0.0057927575, 0.32852268
16, 45579115, -0.6541881561279297, -0.9201035499572754, 17.685373306274414, -0.029948749, -0.01675647, 0.33135128
17, 45595782, -0.6585382223129272, -0.9334690570831299, 17.686376571655273, -0.012945423, 0.0057644444, 0.3477249
18, 45612449, -0.662552535533905, -0.9479230046272278, 17.695884704589844, -0.046824455, 0.005535585, 0.3351555
19, 45629116, -0.6669216156005859, -0.9622241258621216, 17.685077667236328, -0.047522355, -0.0036701385, 0.33902073
20, 45645783, -0.6710940003395081, -0.976093590259552, 17.681930541992188, -0.049680695, -0.0103521915, 0.32526016
21, 45662450, -0.6751768589019775, -0.989682137966156, 17.691837310791016, -0.04452276, 0.017950714, 0.31809807
22, 45679117, -0.6783319711685181, -1.0042445659637451, 17.694690704345703, -0.05657061, 0.0026339605, 0.33167076
23, 45695784, -0.681145429611206, -1.0177206993103027, 17.702350616455078, -0.052048787, -0.012245325, 0.33454418
24, 45712451, -0.68546462059021, -1.0316425561904907, 17.69772720336914, -0.06093733, -6.787669E-4, 0.33067513
25, 45729118, -0.689689576625824, -1.0455914735794067, 17.69400405883789, -0.045483623, 0.004889978, 0.3493271
26, 45745785, -0.6947153806686401, -1.0597575902938843, 17.69331169128418, -0.058481656, -0.009123393, 0.35881996
27, 45762452, -0.698888897895813, -1.0730456113815308, 17.703571319580078, -0.07211768, -8.177012E-4, 0.35258102
28, 45779119, -0.7029401063919067, -1.085632085800171, 17.70719337463379, -0.06442617, -0.0035371939, 0.33162498
29, 45795786, -0.7065845131874084, -1.098887324333191, 17.703588485717773, -0.06842677, -0.015778076, 0.31867027
30, 45812453, -0.7108580470085144, -1.1134546995162964, 17.70319938659668, -0.06294105, -0.014349214, 0.332345
31, 45829120, -0.7149028182029724, -1.1264050006866455, 17.701305389404297, -0.06949906, -0.0022431063, 0.36116314
32, 45845787, -0.7179912328720093, -1.1400256156921387, 17.699657440185547, -0.0690755, -0.00849565, 0.3667345
33, 45862454, -0.7213991284370422, -1.1535289287567139, 17.700193405151367, -0.08022992, -0.005419791, 0.3421793
34, 45879121, -0.7262175679206848, -1.1686288118362427, 17.69942283630371, -0.078430906, -0.023384795, 0.32967758
35, 45895788, -0.7297502160072327, -1.1818923950195312, 17.705263137817383, -0.081474915, -0.0035452193, 0.34202862
36, 45912455, -0.7344731688499451, -1.1955927610397339, 17.70616340637207, -0.094808206, -0.0151691465, 0.32878113
37, 45929122, -0.7375436425209045, -1.209221601486206, 17.706745147705078, -0.084071025, 0.0039717136, 0.33754063
38, 45945789, -0.7417395710945129, -1.2225648164749146, 17.703763961791992, -0.09215241, -0.009260131, 0.33053017
39, 45962456, -0.7463293671607971, -1.2360082864761353, 17.70669937133789, -0.09856624, -0.0011146836, 0.340003
40, 45979123, -0.74867844581604, -1.2482446432113647, 17.705554962158203, -0.09730961, 0.0026803499, 0.3145733
41, 45995790, -0.7535581588745117, -1.262435793876648, 17.708364486694336, -0.08774043, -0.0012732975, 0.33440495
42, 46012457, -0.7570976614952087, -1.2754040956497192, 17.708681106567383, -0.103536464, -7.250446E-4, 0.3498993
43, 46029124, -0.7611797451972961, -1.2893403768539429, 17.712406158447266, -0.103705086, -0.0011580241, 0.33081245
44, 46045791, -0.7651775479316711, -1.302573800086975, 17.70864486694336, -0.09847453, -0.008050266, 0.31289387
45, 46062458, -0.7682157754898071, -1.316701054573059, 17.709129333496094, -0.10027421, 5.905212E-4, 0.32657242
46, 46079125, -0.7719728350639343, -1.3298592567443848, 17.709514617919922, -0.113150366, 0.002540801, 0.32158852
47, 46095792, -0.7759132385253906, -1.3427191972732544, 17.70743179321289, -0.115300834, -0.0077215238, 0.33461666
48, 46112459, -0.7801191806793213, -1.356702208518982, 17.7086181640625, -0.12026398, 0.009405548, 0.3263054
49, 46129126, -0.7828599214553833, -1.367952585220337, 17.7080135345459, -0.1138011, 0.007206327, 0.3425722
50, 46145793, -0.7868754267692566, -1.381371259689331, 17.7032527923584, -0.13126914, -0.014921679, 0.3442421
51, 46162460, -0.7911413311958313, -1.394201397895813, 17.704025268554688, -0.12006119, -7.824979E-4, 0.3343916
52, 46179127, -0.7954483032226562, -1.4090921878814697, 17.701318740844727, -0.1285998, -8.56575E-4, 0.34311676
53, 46195794, -0.7991158366203308, -1.4233295917510986, 17.701648712158203, -0.12473898, -9.299082E-4, 0.30985546
54, 46212461, -0.8028455376625061, -1.4361886978149414, 17.705345153808594, -0.13384573, 0.002125982, 0.34868622
55, 46229128, -0.8067538738250732, -1.4500842094421387, 17.7059326171875, -0.13459149, -9.989283E-4, 0.32902336
56, 46245795, -0.8100453615188599, -1.4636261463165283, 17.70398712158203, -0.13575387, -0.0025186487, 0.3389063
57, 46262462, -0.8147019743919373, -1.4764151573181152, 17.703290939331055, -0.13535105, -0.0018396898, 0.3352356
58, 46279129, -0.818578839302063, -1.4896624088287354, 17.704059600830078, -0.1372327, -0.0070559755, 0.34846878
59, 46295796, -0.8223491311073303, -1.5030957460403442, 17.699007034301758, -0.14542934, -0.006496617, 0.36689377
60, 46312463, -0.8258427977561951, -1.5163825750350952, 17.6980037689209, -0.14139543, -0.0074061784, 0.3304882
61, 46329130, -0.830202579498291, -1.530526876449585, 17.69717025756836, -0.15899865, -0.0076039317, 0.34145832
62, 46345797, -0.8329340815544128, -1.542493224143982, 17.698192596435547, -0.14953017, -0.007395073, 0.33616066
63, 46362464, -0.8362405300140381, -1.553192138671875, 17.697757720947266, -0.14608493, -0.007636072, 0.33743954
64, 46379131, -0.8385627269744873, -1.5682694911956787, 17.69792938232422, -0.16585664, 0.006388004, 0.3481264
65, 46395798, -0.840589702129364, -1.5806243419647217, 17.69860076904297, -0.14109668, -1.1309057E-4, 0.3563385
66, 46412465, -0.8445276618003845, -1.5932337045669556, 17.69873046875, -0.15903561, -0.00817075, 0.33778858
67, 46429132, -0.846979558467865, -1.6061267852783203, 17.698163986206055, -0.16050017, -0.0028994973, 0.33738708
68, 46445799, -0.8509421944618225, -1.6177594661712646, 17.696189880371094, -0.15484984, 0.016941378, 0.33195877
69, 46462466, -0.8546068072319031, -1.6307494640350342, 17.693449020385742, -0.16813861, -0.008956248, 0.31406403
70, 46479133, -0.8565213680267334, -1.6430641412734985, 17.69427490234375, -0.16901818, -0.0059857885, 0.3415184
71, 46495800, -0.8594671487808228, -1.6560441255569458, 17.69187355041504, -0.164469, -0.01946362, 0.35177422
72, 46512467, -0.8615067005157471, -1.6686488389968872, 17.69108772277832, -0.17721666, -0.0044370536, 0.34480286
73, 46529134, -0.865078330039978, -1.681752324104309, 17.68820571899414, -0.18626156, -0.010068763, 0.34596825
74, 46545801, -0.8686320185661316, -1.6937429904937744, 17.689388275146484, -0.16837306, -0.0023388988, 0.33827877
75, 46562468, -0.8721169233322144, -1.7064878940582275, 17.68760108947754, -0.16700064, -0.012021937, 0.33484077
76, 46579135, -0.8749767541885376, -1.7164994478225708, 17.68631362915039, -0.17781723, -0.011488161, 0.3350029
77, 46595802, -0.8774005770683289, -1.7285659313201904, 17.685428619384766, -0.18167742, -0.012466962, 0.35122776
78, 46612469, -0.8802323937416077, -1.7396893501281738, 17.681737899780273, -0.18623017, -0.0029394329, 0.3353262
79, 46629136, -0.8834212422370911, -1.7515021562576294, 17.67898178100586, -0.1814555, -0.00555517, 0.3356924
80, 46645803, -0.8867128491401672, -1.7632368803024292, 17.675487518310547, -0.18427718, -0.018943628, 0.3412943
81, 46662470, -0.8889178037643433, -1.7747166156768799, 17.6719970703125, -0.20289877, -0.015752355, 0.33235836
82, 46679137, -0.8922271132469177, -1.7856858968734741, 17.671123504638672, -0.18436132, -0.006729839, 0.32914543
83, 46695804, -0.894894003868103, -1.7959574460983276, 17.669200897216797, -0.19401008, -0.019766863, 0.33725643
84, 46712471, -0.8980234861373901, -1.8063775300979614, 17.665939331054688, -0.19506778, -0.006793872, 0.3332739
85, 46729138, -0.9004371762275696, -1.8173750638961792, 17.66219139099121, -0.20234588, 0.007919158, 0.3313837
86, 46745805, -0.9038732051849365, -1.8277336359024048, 17.656654357910156, -0.19662213, -0.0029167219, 0.34885693
87, 46762472, -0.9073542356491089, -1.8367465734481812, 17.65450668334961, -0.19818142, -0.006421405, 0.3425007
88, 46779139, -0.9106569886207581, -1.8470673561096191, 17.65361213684082, -0.20720923, -0.012166935, 0.3370533
89, 46795806, -0.914952278137207, -1.856593132019043, 17.650211334228516, -0.20910002, -2.930709E-4, 0.34485245
90, 46812473, -0.9171832203865051, -1.865174651145935, 17.647756576538086, -0.22260797, -0.01099154, 0.34140396
91, 46829140, -0.9191131591796875, -1.8746720552444458, 17.643827438354492, -0.21233846, -0.016697466, 0.3142271
92, 46845807, -0.9219477772712708, -1.883697509765625, 17.639978408813477, -0.21766064, 0.0020257886, 0.34676838
93, 46862474, -0.923865795135498, -1.8941854238510132, 17.636743545532227, -0.2076903, -0.0112259975, 0.3487835
94, 46879141, -0.9269598722457886, -1.9043662548065186, 17.633220672607422, -0.22633758, -0.014287189, 0.32883453
95, 46895808, -0.9298434853553772, -1.9145103693008423, 17.628551483154297, -0.23497236, -0.0116949, 0.3408575
96, 46912475, -0.9318125247955322, -1.9229356050491333, 17.625661849975586, -0.23689826, -0.007392087, 0.32042503
97, 46929142, -0.9347519278526306, -1.932847023010254, 17.62409782409668, -0.22649324, 0.001067449, 0.35688877
98, 46945809, -0.9377233982086182, -1.9429999589920044, 17.619951248168945, -0.22558519, -0.013319947, 0.33965874
99, 46962476, -0.9399471879005432, -1.9521178007125854, 17.614667892456055, -0.22104998, -0.010258721, 0.34616947
100, 46979143, -0.942673921585083, -1.960475206375122, 17.607988357543945, -0.21960285, -0.011936559, 0.3374529
101, 46995810, -0.9449113011360168, -1.9691458940505981, 17.600854873657227, -0.23266838, -0.009775238, 0.35262394
102, 47012477, -0.9468674063682556, -1.9784051179885864, 17.594667434692383, -0.22940531, -0.00810788, 0.34250164
103, 47029144, -0.9496827721595764, -1.9864896535873413, 17.58757972717285, -0.23709299, -0.00864539, 0.32613945
104, 47045811, -0.9524382948875427, -1.995168924331665, 17.582294464111328, -0.24883564, -0.012244965, 0.3577013
105, 47062478, -0.9556403756141663, -2.0034382343292236, 17.577085494995117, -0.23790379, -0.009098332, 0.33189106
106, 47079145, -0.958038330078125, -2.011634349822998, 17.57252311706543, -0.22512355, -0.004955607, 0.3293934
107, 47095812, -0.9609781503677368, -2.020369052886963, 17.57036781311035, -0.23942369, -0.018029397, 0.3407135
108, 47112479, -0.9624144434928894, -2.028978109359741, 17.563438415527344, -0.23159066, -0.009581047, 0.35166836
109, 47129146, -0.9646294713020325, -2.035890579223633, 17.56067657470703, -0.25506747, -0.0032377073, 0.33495235
110, 47145813, -0.9673753976821899, -2.042731285095215, 17.554737091064453, -0.23462163, -0.0015507713, 0.3341608
111, 47162480, -0.9684727191925049, -2.050609827041626, 17.55194091796875, -0.25058126, -0.023591565, 0.33538628
112, 47179147, -0.9703100323677063, -2.056882381439209, 17.546239852905273, -0.25192022, -0.009076816, 0.34589767
113, 47195814, -0.9713920950889587, -2.0642311573028564, 17.538372039794922, -0.22806482, -0.0013653848, 0.32672024
114, 47212481, -0.9737035632133484, -2.0722928047180176, 17.529510498046875, -0.23758678, -0.013075574, 0.33521652
115, 47229148, -0.9757073521614075, -2.0783705711364746, 17.52259063720703, -0.2536442, 0.0020088332, 0.33486938
116, 47245815, -0.9774417877197266, -2.0858867168426514, 17.516693115234375, -0.24799816, -0.003627755, 0.33986664
117, 47262482, -0.9790554642677307, -2.090545892715454, 17.50920295715332, -0.2410281, -0.015218746, 0.34157562
118, 47279149, -0.9812785387039185, -2.0965375900268555, 17.502094268798828, -0.24664174, -0.013801684, 0.3310213
119, 47295816, -0.9842548370361328, -2.101811170578003, 17.494464874267578, -0.25869176, -0.0040270505, 0.3462839
120, 47312483, -0.6043875813484192, -0.6903090476989746, 17.15005111694336, 0.0061680987, 0.0038846796, 0.33135796
121, 47329150, -0.6042044758796692, -0.6901965737342834, 17.154218673706055, 0.010048605, 0.005096986, 0.33724403
122, 47345817, -0.6043215394020081, -0.6903876066207886, 17.154891967773438, -0.0031737583, 0.01116939, 0.32147217
123, 47362484, -0.6034670472145081, -0.690596342086792, 17.15862274169922, 6.354264E-4, 0.004458633, 0.33991623
124, 47379151, -0.6032842397689819, -0.6908179521560669, 17.16104507446289, -3.227667E-4, 0.008799381, 0.35217094
125, 47395818, -0.6028083562850952, -0.6905730366706848, 17.164913177490234, 0.0067022806, 0.0033615616, 0.32835007
126, 47412485, -0.6023878455162048, -0.6902309656143188, 17.169538497924805, -0.0072726365, 0.004682998, 0.3533001
127, 47429152, -0.6021818518638611, -0.6900160908699036, 17.173114776611328, -1.0016873E-4, 0.010888867, 0.3495779
128, 47445819, -0.6029232144355774, -0.6900031566619873, 17.175167083740234, 4.439526E-4, 0.0020489572, 0.34508896
129, 47462486, -0.6019551753997803, -0.6907205581665039, 17.179502487182617, -0.01268121, 0.01438587, 0.33911896
130, 47479153, -0.601730465888977, -0.6910558938980103, 17.182056427001953, -4.8644101E-4, 0.008543797, 0.33533
131, 47495820, -0.6018280982971191, -0.690838098526001, 17.185047149658203, -0.009808349, 0.015832938, 0.31903934
132, 47512487, -0.603088915348053, -0.6906875967979431, 17.1864013671875, 0.0016201197, -8.095639E-4, 0.34418964
133, 47529154, -0.6031976342201233, -0.6895897388458252, 17.18842315673828, 0.007969019, 4.372123E-5, 0.3302374
134, 47545821, -0.602543830871582, -0.689207136631012, 17.191795349121094, -5.71341E-4, 0.020862158, 0.3323021
135, 47562488, -0.6018496751785278, -0.6890237331390381, 17.196487426757812, 0.011279735, 0.011456443, 0.3427925
136, 47579155, -0.6011692881584167, -0.6902573704719543, 17.19756317138672, -0.0025641057, 0.009906136, 0.32720852
137, 47595822, -0.6007482409477234, -0.6901834011077881, 17.198707580566406, 0.010752105, -0.0045429845, 0.3205824
138, 47612489, -0.6008538007736206, -0.6908558011054993, 17.202789306640625, 0.0015763671, 0.0077421432, 0.3432665
139, 47629156, -0.601414680480957, -0.6896896362304688, 17.205875396728516, 0.0032774194, -7.273915E-4, 0.33366013
140, 47645823, -0.6019241809844971, -0.6893951892852783, 17.20711898803711, 0.012834777, -0.0044371057, 0.34966087
141, 47662490, -0.6026163101196289, -0.6893413066864014, 17.209789276123047, 0.013828244, 0.010355561, 0.33786964
142, 47679157, -0.6026036739349365, -0.6885782480239868, 17.21307373046875, 0.0017692657, 0.0059113065, 0.3493786
143, 47695824, -0.6030246615409851, -0.6890195608139038, 17.216541290283203, 0.008939617, 0.0068953815, 0.3324747
144, 47712491, -0.6038404107093811, -0.6889554262161255, 17.220006942749023, 0.010384356, 0.0033398913, 0.33375645
145, 47729158, -0.6033582091331482, -0.6891767978668213, 17.221824645996094, 0.0037832223, -0.0014467819, 0.34095192
146, 47745825, -0.6029888987541199, -0.6886624097824097, 17.224267959594727, -0.009742423, -0.0071464917, 0.32967472
147, 47762492, -0.603469729423523, -0.6878271102905273, 17.22544288635254, 0.004959473, 0.0014388716, 0.33694744
148, 47779159, -0.604088544845581, -0.688828706741333, 17.228750228881836, 0.002706679, 0.01455384, 0.33362484
149, 47795826, -0.6038773655891418, -0.6890902519226074, 17.232036590576172, -0.0071910196, 0.003876937, 0.324605
150, 47812493, -0.6038605570793152, -0.6885016560554504, 17.23403549194336, 0.012644051, 0.014703623, 0.34546185
151, 47829160, -0.6036809682846069, -0.6879658102989197, 17.238882064819336, 0.005775826, 0.0041473983, 0.33608437
152, 47845827, -0.6041166186332703, -0.6883245706558228, 17.24040985107422, 3.47409E-4, 0.016886167, 0.33588886
153, 47862494, -0.6041049957275391, -0.6893298625946045, 17.24276351928711, -4.0619986E-4, -0.006896122, 0.32258892
154, 47879161, -0.6042526364326477, -0.69020676612854, 17.245128631591797, 0.007835631, 0.018398443, 0.33055496
155, 47895828, -0.6046139001846313, -0.68984454870224, 17.247495651245117, 0.0026775314, -4.190868E-7, 0.32370186
156, 47912495, -0.6043551564216614, -0.6897104978561401, 17.250080108642578, -0.0014092561, -0.0051795146, 0.33308697
157, 47929162, -0.6054995656013489, -0.6895500421524048, 17.252578735351562, 0.008213409, -0.0073224837, 0.32623672
158, 47945829, -0.6055160164833069, -0.6888614296913147, 17.25580406188965, 0.012852204, 0.006912763, 0.3525839
159, 47962496, -0.6049176454544067, -0.6888636946678162, 17.258577346801758, 0.016398853, 0.019517677, 0.35386944
160, 47979163, -0.6043674945831299, -0.688587486743927, 17.260616302490234, 0.004964593, 0.0068620085, 0.32485867
161, 47995830, -0.6041281819343567, -0.6887744069099426, 17.26319122314453, 0.0011572733, 0.011505574, 0.3441515
162, 48012497, -0.6040380597114563, -0.688443124294281, 17.263652801513672, 0.0055729393, -0.0055573424, 0.34191704
163, 48029164, -0.6041786670684814, -0.6868315935134888, 17.266414642333984, -0.012996391, -0.0041375533, 0.35374355
164, 48045831, -0.60420161485672, -0.6868994235992432, 17.268768310546875, 0.013941271, 0.010296848, 0.32707977
165, 48062498, -0.6028856635093689, -0.6859766244888306, 17.27054214477539, -0.009731007, -0.004622311, 0.34924793
166, 48079165, -0.6030259132385254, -0.6863837838172913, 17.271455764770508, -0.005425672, 0.0048520085, 0.3274002
167, 48095832, -0.604516327381134, -0.6868888139724731, 17.27407455444336, -0.0028910073, 0.015266773, 0.3197813
168, 48112499, -0.6030636429786682, -0.6860485672950745, 17.275211334228516, 0.008686614, -0.0119390525, 0.3256607
169, 48129166, -0.602516233921051, -0.6841795444488525, 17.276639938354492, 0.005507401, 0.022420255, 0.33707047
170, 48145833, -0.6015403866767883, -0.6857536435127258, 17.27852439880371, 0.007263843, 0.00782434, 0.33273315
171, 48162500, -0.6007592082023621, -0.6861517429351807, 17.280588150024414, 0.004006707, -0.0016084551, 0.3324337
172, 48179167, -0.6005196571350098, -0.686223030090332, 17.283588409423828, 0.014866531, -0.008641643, 0.31843948
173, 48195834, -0.6015959978103638, -0.6856721043586731, 17.28575325012207, -0.0034085587, 0.0016506676, 0.35261917
174, 48212501, -0.600892186164856, -0.6851043105125427, 17.287914276123047, 0.017409354, 0.0028990817, 0.33042908
175, 48229168, -0.601473867893219, -0.6859855651855469, 17.289493560791016, 0.011516002, 0.0022967004, 0.338027
176, 48245835, -0.601366400718689, -0.6857755184173584, 17.28903579711914, 0.0038502621, -0.012661736, 0.3152628
177, 48262502, -0.5991191864013672, -0.6860613226890564, 17.291622161865234, 0.015262365, 0.00493548, 0.34704018
178, 48279169, -0.5973063707351685, -0.6868669986724854, 17.293790817260742, 0.0060114996, -5.082615E-4, 0.33862972
179, 48295836, -0.596643328666687, -0.6867846250534058, 17.296466827392578, 0.01297383, 0.0010626994, 0.32991314
180, 48312503, -0.5966854691505432, -0.6856406331062317, 17.29886817932129, 4.4673256E-4, 0.0013319487, 0.35105038
181, 48329170, -0.5963951349258423, -0.6861016154289246, 17.300708770751953, -0.014575221, -0.015904142, 0.32838345
182, 48345837, -0.5960886478424072, -0.6866185069084167, 17.302885055541992, 0.0031588248, 9.042461E-4, 0.34227848
183, 48362504, -0.5953911542892456, -0.6849060654640198, 17.30480194091797, -3.205944E-4, 0.0069710235, 0.33231258
184, 48379171, -0.5953524112701416, -0.6862691640853882, 17.30586814880371, 0.003525477, -0.001600035, 0.33768463
185, 48395838, -0.5943376421928406, -0.6860730648040771, 17.307910919189453, 0.0030924904, 0.010395944, 0.33297157
186, 48412505, -0.5939652919769287, -0.6876141428947449, 17.310176849365234, 0.010070006, 0.0016328983, 0.34283066
187, 48429172, -0.5936670899391174, -0.6879400014877319, 17.311386108398438, -0.010983196, -0.0010524667, 0.3350563
188, 48445839, -0.5946281552314758, -0.688198447227478, 17.31426429748535, 0.007480231, 0.0075463876, 0.3400879
189, 48462506, -0.5943395495414734, -0.6878489255905151, 17.315120697021484, 0.0073114093, 0.0078626545, 0.33794403
190, 48479173, -0.5949134230613708, -0.6868734955787659, 17.316301345825195, 0.008655008, 0.0021119565, 0.33531094
191, 48495840, -0.5952259302139282, -0.6866965293884277, 17.319286346435547, -0.004301486, -0.0011710577, 0.33292294
192, 48512507, -0.5951868295669556, -0.6867162585258484, 17.321134567260742, 0.010612472, 0.0022094955, 0.32530785
193, 48529174, -0.5954506397247314, -0.6861075758934021, 17.32371711730957, -0.0051262206, -5.7329325E-4, 0.35175514
194, 48545841, -0.5957614779472351, -0.6869766712188721, 17.324899673461914, -6.538732E-4, 0.005046692, 0.33071136
195, 48562508, -0.5963621735572815, -0.6870574355125427, 17.325836181640625, 0.012208997, 0.0024678623, 0.3460369
196, 48579175, -0.5964035987854004, -0.6858189105987549, 17.326841354370117, 0.0043755453, 0.0065993774, 0.32956028
197, 48595842, -0.5955008268356323, -0.6865845322608948, 17.328039169311523, 0.014073333, 3.4857544E-4, 0.32787228
198, 48612509, -0.5964795351028442, -0.6868237853050232, 17.329368591308594, 0.014110408, 5.421586E-5, 0.33194923
199, 48629176, -0.5959533452987671, -0.6871283054351807, 17.331722259521484, 0.009065895, 0.0051605334, 0.35646725
200, 48645843, -0.5962081551551819, -0.6877970695495605, 17.332612991333008, -0.007491484, -7.8994366E-5, 0.3393526
201, 48662510, -0.5962641835212708, -0.6866357326507568, 17.334327697753906, 0.002419926, -0.0034770514, 0.34279728
202, 48679177, -0.5954901576042175, -0.6860377788543701, 17.33600425720215, -6.31934E-4, 0.018686438, 0.34594822
203, 48695844, -0.5956976413726807, -0.685106635093689, 17.337066650390625, 0.0071358816, 0.003923267, 0.33113575
204, 48712511, -0.5953116416931152, -0.6837517023086548, 17.338624954223633, 0.003704329, 0.010181692, 0.3183937
205, 48729178, -0.5960827469825745, -0.6837120056152344, 17.34222984313965, 0.00820528, 0.016565174, 0.32008266
206, 48745845, -0.5949534773826599, -0.6839373111724854, 17.345354080200195, 0.0016965192, 0.004158455, 0.35811424
207, 48762512, -0.595359206199646, -0.6847751140594482, 17.347366333007812, 0.020952187, 0.005635247, 0.3331108
208, 48779179, -0.5964624285697937, -0.6839898824691772, 17.348905563354492, -0.00671808, 0.011872792, 0.3478155
209, 48795846, -0.5965010523796082, -0.6839874982833862, 17.35218048095703, 0.0047560413, 0.005946143, 0.35165405
210, 48812513, -0.5968870520591736, -0.6824784278869629, 17.353090286254883, 0.0012577632, 0.0014083306, 0.3552723
211, 48829180, -0.597512423992157, -0.6811975836753845, 17.355056762695312, 7.6448414E-5, 0.009432631, 0.35765362
212, 48845847, -0.5965200662612915, -0.6823537945747375, 17.35712242126465, 0.0039405474, 0.0032004681, 0.33722782
213, 48862514, -0.5962244868278503, -0.6820117831230164, 17.35869026184082, -0.00960059, 0.0057918946, 0.3238001
214, 48879181, -0.5952742099761963, -0.6834285855293274, 17.360965728759766, -0.0028330826, 2.5371165E-4, 0.34451962
215, 48895848, -0.595259428024292, -0.6838728189468384, 17.36310386657715, -0.015455121, -0.0022044175, 0.32899666
216, 48912515, -0.5956168174743652, -0.6846166849136353, 17.365367889404297, -0.0013727538, 0.0033382603, 0.34563828
217, 48929182, -0.5954486131668091, -0.6848264932632446, 17.36850357055664, -0.0012340639, 0.012928646, 0.34224892
218, 48945849, -0.5946337580680847, -0.6850554943084717, 17.371280670166016, 0.0012796746, -6.204231E-5, 0.3542137
219, 48962516, -0.5952110886573792, -0.6871850490570068, 17.373231887817383, -0.005674945, -0.0027753673, 0.32552052
220, 48979183, -0.5948704481124878, -0.687325119972229, 17.37588882446289, 3.014561E-4, 0.0070474544, 0.3516693
221, 48995850, -0.5951712727546692, -0.6880820393562317, 17.376388549804688, -0.0032828606, -0.004189911, 0.34626198
222, 49012517, -0.5958067774772644, -0.6892263889312744, 17.37762451171875, 1.3082493E-5, 0.009990742, 0.3476925
223, 49029184, -0.5965907573699951, -0.6897228360176086, 17.37811279296875, 0.011161727, 0.010203835, 0.3406973
224, 49045851, -0.5959033370018005, -0.6886690258979797, 17.38157081604004, 0.0075894664, 0.010149259, 0.36123085
225, 49062518, -0.5972061157226562, -0.6875765919685364, 17.383441925048828, 0.006535973, -4.5330872E-4, 0.33978748
226, 49079185, -0.5969745516777039, -0.6875802278518677, 17.384990692138672, -0.0014848384, 0.014406529, 0.34510803
227, 49095852, -0.5974137187004089, -0.6870946884155273, 17.38751220703125, 0.0026703023, -0.0034663088, 0.33419037
228, 49112519, -0.5972548127174377, -0.6875174641609192, 17.390518188476562, 0.0024825165, -0.009340994, 0.33154106
229, 49129186, -0.5968854427337646, -0.688284158706665, 17.392393112182617, 0.0021992696, 0.003817776, 0.32559395
230, 49145853, -0.5965304970741272, -0.6893458962440491, 17.394302368164062, -0.0012787735, 0.008458236, 0.34588528
231, 49162520, -0.5971155762672424, -0.6907587051391602, 17.395465850830078, 9.059399E-4, 0.0108697945, 0.3309555
232, 49179187, -0.5976941585540771, -0.6894335746765137, 17.39584732055664, -0.0028259302, -1.2894602E-4, 0.333395
233, 49195854, -0.5980176329612732, -0.6895506381988525, 17.397357940673828, 0.0047372314, 0.0013861051, 0.33667564
234, 49212521, -0.598621129989624, -0.6882694363594055, 17.39825439453125, 0.008221093, 0.01124465, 0.35699368
235, 49229188, -0.5972450971603394, -0.6887246966362, 17.400375366210938, 0.007954749, 0.008370166, 0.3423729
236, 49245855, -0.5976054072380066, -0.6887528896331787, 17.4013614654541, -0.0044562477, 0.0036711583, 0.3288927
237, 49262522, -0.59836745262146, -0.6902116537094116, 17.40310287475586, 0.0048870966, 0.00902618, 0.3600912
238, 49279189, -0.5987892150878906, -0.6917178630828857, 17.404794692993164, 3.7270784E-4, 1.5718199E-4, 0.34368896
239, 49295856, -0.5993428826332092, -0.6919748187065125, 17.406051635742188, -0.011643534, -0.014164969, 0.33457184
240, 49312523, -0.5978595018386841, -0.6909714341163635, 17.401283264160156, 0.004844741, 0.0089972, 0.33443356
241, 49329190, -0.5982568264007568, -0.6916508078575134, 17.402812957763672, 0.00904251, 0.0056055826, 0.34474182
242, 49345857, -0.5982984900474548, -0.693644642829895, 17.405153274536133, -0.002397337, 0.016015165, 0.3375826
243, 49362524, -0.5977561473846436, -0.6949670910835266, 17.405702590942383, 0.0019156946, -0.00315352, 0.34163952
244, 49379191, -0.5976104736328125, -0.6944875717163086, 17.40796661376953, 0.005503818, 0.0057833525, 0.3318119
245, 49395858, -0.5971938371658325, -0.6931946873664856, 17.409103393554688, 0.0021645273, 0.0063561983, 0.34114552
246, 49412525, -0.5968616008758545, -0.6929316520690918, 17.40900993347168, 0.0028727981, -0.0031417785, 0.3463726
247, 49429192, -0.5974808931350708, -0.6941371560096741, 17.41118621826172, 0.010942593, -0.0048670643, 0.34265232
248, 49445859, -0.5968998670578003, -0.6945554614067078, 17.412818908691406, 0.0048864544, -0.0042837933, 0.35512447
249, 49462526, -0.5970690250396729, -0.6940533518791199, 17.413721084594727, 0.010327836, 0.0021095537, 0.35765457
250, 49479193, -0.5963625907897949, -0.6933534145355225, 17.41545867919922, -0.002272596, -7.17061E-4, 0.33583736
251, 49495860, -0.59599769115448, -0.692472517490387, 17.417551040649414, 0.0030910375, -0.0015690784, 0.35505962
252, 49512527, -0.5952998399734497, -0.6926895380020142, 17.419342041015625, 0.0020643238, -0.003555396, 0.33786488
253, 49529194, -0.5947609543800354, -0.6935865879058838, 17.421714782714844, 0.005614226, 0.0018250217, 0.34197044
254, 49545861, -0.5941411852836609, -0.6935887336730957, 17.421463012695312, 0.008053556, -0.0017502706, 0.33254242
255, 49562528, -0.594400942325592, -0.6930658221244812, 17.422996520996094, -0.0023256594, 0.0115403235, 0.3325777
256, 49579195, -0.5945801138877869, -0.6929082870483398, 17.42574691772461, 0.0035550224, -0.021310752, 0.32417583
257, 49595862, -0.5937806963920593, -0.6936224102973938, 17.42690658569336, -0.011762034, -0.0038975386, 0.3578987
258, 49612529, -0.5947716236114502, -0.6939648985862732, 17.42736053466797, 0.0033680887, -0.005821196, 0.36719227
259, 49629196, -0.5943540334701538, -0.6939879059791565, 17.427879333496094, 0.0035603729, 0.0039810906, 0.33436203
260, 49645863, -0.5938823819160461, -0.6930374503135681, 17.4290771484375, -0.01140976, -0.007925997, 0.3227415
261, 49662530, -0.593270480632782, -0.6926263570785522, 17.430879592895508, 0.0013046241, 0.007992904, 0.3295536
262, 49679197, -0.5936179161071777, -0.6933601498603821, 17.43446922302246, 0.009365549, 1.1675758E-4, 0.33477402
263, 49695864, -0.5932064056396484, -0.6938945055007935, 17.43585777282715, -0.0029178988, -0.0065044193, 0.33303928
264, 49712531, -0.5928447842597961, -0.6927573680877686, 17.438142776489258, 0.011382495, 4.8139103E-4, 0.34383678
265, 49729198, -0.5926868915557861, -0.6926376819610596, 17.440162658691406, -0.001694298, -0.01019416, 0.3518839
266, 49745865, -0.5924908518791199, -0.6917430758476257, 17.44172477722168, -0.005528935, 0.00677664, 0.33434677
267, 49762532, -0.5939181447029114, -0.6918089985847473, 17.443330764770508, 0.0045893146, 0.0036460725, 0.35645866
268, 49779199, -0.5938625931739807, -0.6918010115623474, 17.44645118713379, -0.0033184618, -0.008550824, 0.34888744
269, 49795866, -0.5946522355079651, -0.6917704939842224, 17.44704246520996, 0.010043038, -0.007533892, 0.3089609
270, 49812533, -0.5953337550163269, -0.6912494897842407, 17.448415756225586, 0.00476399, 0.007216112, 0.34066677
271, 49829200, -0.5950406193733215, -0.6924164891242981, 17.449787139892578, 0.0027166812, 0.008259872, 0.31319523
272, 49845867, -0.5941050052642822, -0.693050742149353, 17.451154708862305, 0.001891199, 0.0070015886, 0.3173418
273, 49862534, -0.5944400429725647, -0.6916305422782898, 17.453073501586914, -0.008440765, 0.0035445523, 0.33015537
274, 49879201, -0.5934777855873108, -0.691618025302887, 17.454551696777344, -0.0026976129, -9.7215915E-4, 0.33022308
275, 49895868, -0.5933776497840881, -0.6921564936637878, 17.455198287963867, -0.01087386, -0.007840943, 0.32535553
276, 49912535, -0.5941615700721741, -0.6926651000976562, 17.456024169921875, -0.012059589, -0.008789448, 0.3500061
277, 49929202, -0.5942018032073975, -0.690841555595398, 17.456043243408203, 0.0018472717, -0.0064214435, 0.33578205
278, 49945869, -0.5945289731025696, -0.6912729144096375, 17.4567813873291, 0.0059843007, -0.005095533, 0.33983612
279, 49962536, -0.5936791300773621, -0.6907482147216797, 17.45801544189453, -0.001352449, 0.018315595, 0.34212494
280, 49979203, -0.5942168831825256, -0.6915663480758667, 17.459976196289062, 0.006663969, 0.0026143088, 0.3613739
281, 49995870, -0.5942245721817017, -0.6908984184265137, 17.46071434020996, -0.0038019903, 0.0019638862, 0.35912132
282, 50012537, -0.594195544719696, -0.6891160011291504, 17.46208953857422, -0.0049304306, 0.010797289, 0.35825062
283, 50029204, -0.5944111943244934, -0.6894318461418152, 17.463394165039062, 6.903826E-4, 0.014463125, 0.33198357
284, 50045871, -0.5928728580474854, -0.6903334856033325, 17.464147567749023, -0.0027721263, 0.016708532, 0.35498047
285, 50062538, -0.5932139754295349, -0.6918885111808777, 17.4654598236084, -0.0040740613, -0.004076021, 0.31893063
286, 50079205, -0.5933806896209717, -0.6919925212860107, 17.46599006652832, -0.0057072425, -0.010202438, 0.30618
287, 50095872, -0.5926247239112854, -0.691980242729187, 17.46661376953125, 0.008668454, 0.0016143922, 0.3319292
288, 50112539, -0.5928028225898743, -0.6914056539535522, 17.468557357788086, -6.328909E-5, 0.009498749, 0.3357067
289, 50129206, -0.5926545858383179, -0.6924127340316772, 17.470521926879883, 1.7095248E-4, -0.0022951392, 0.35049438
290, 50145873, -0.5921449065208435, -0.6921110153198242, 17.470258712768555, -2.7615027E-4, 0.009511339, 0.3283453
291, 50162540, -0.591559886932373, -0.6919577121734619, 17.47165870666504, -0.006695701, 0.009069572, 0.33253098
292, 50179207, -0.5904137492179871, -0.6916405558586121, 17.47290802001953, -0.0018863446, 0.0039465646, 0.318326
293, 50195874, -0.590035617351532, -0.6927527189254761, 17.474395751953125, -0.0032630865, 8.2176283E-4, 0.33317757
294, 50212541, -0.5907770395278931, -0.6923660635948181, 17.47515869140625, 0.0037987703, -0.0031269288, 0.33381748
295, 50229208, -0.5913786888122559, -0.6925916075706482, 17.47585105895996, 0.0020720419, 8.815491E-4, 0.3474455
296, 50245875, -0.5917283892631531, -0.6932964324951172, 17.477108001708984, 0.0014307973, 0.0012388695, 0.3444271
297, 50262542, -0.5912784337997437, -0.6931805610656738, 17.47859764099121, -0.010174314, 3.978845E-4, 0.33284092
298, 50279209, -0.5915092825889587, -0.6936524510383606, 17.47993278503418, -0.002429027, 0.0035502834, 0.34181118
299, 50295876, -0.5907779932022095, -0.694184422492981, 17.481475830078125, -0.010361732, 0.004173801, 0.3337946
300, 50312543, -0.5907731056213379, -0.6949247121810913, 17.481712341308594, -0.008753899, 0.0060685934, 0.32570648
301, 50329210, -0.5897237062454224, -0.6946007609367371, 17.482261657714844, -5.7407906E-5, 0.008502118, 0.3271227
302, 50345877, -0.5892205238342285, -0.6933783888816833, 17.48309898376465, -0.0045321863, 0.0053503765, 0.3389635
303, 50362544, -0.5893860459327698, -0.6943637132644653, 17.484088897705078, 0.0031841795, 0.0033354594, 0.3238678
304, 50379211, -0.5886721611022949, -0.6933760643005371, 17.484811782836914, 0.0056373877, 0.013247742, 0.34313107
305, 50395878, -0.5901130437850952, -0.6934430599212646, 17.485219955444336, 0.01274232, -4.132545E-5, 0.32763767
306, 50412545, -0.5896758437156677, -0.6936280727386475, 17.486373901367188, -0.005863681, 0.0043659694, 0.3289137
307, 50429212, -0.5892239809036255, -0.693277895450592, 17.48688316345215, 0.0074836398, -0.0062747383, 0.3458662
308, 50445879, -0.5893290638923645, -0.6939821839332581, 17.487937927246094, -0.0011274553, -0.0040720007, 0.33128452
309, 50462546, -0.5897718071937561, -0.6949322819709778, 17.49002456665039, 0.009048796, 0.009471306, 0.3438015
310, 50479213, -0.589558482170105, -0.6945379972457886, 17.49082374572754, 0.0049418085, 0.0054580155, 0.3294382
311, 50495880, -0.588610827922821, -0.695659339427948, 17.4907283782959, -6.01187E-4, 0.005465283, 0.3586645
312, 50512547, -0.588735044002533, -0.6948437690734863, 17.492353439331055, 0.0021600921, 0.001194792, 0.33331108
313, 50529214, -0.5877236127853394, -0.6949408054351807, 17.492292404174805, -0.0015358554, 0.0040631196, 0.35185623
314, 50545881, -0.5876954197883606, -0.694987952709198, 17.491777420043945, 0.0072427695, -0.0053322786, 0.32466316
315, 50562548, -0.5873706340789795, -0.6944547295570374, 17.493350982666016, -9.888911E-4, 0.00811564, 0.34431362
316, 50579215, -0.586330771446228, -0.693696141242981, 17.494739532470703, -0.006528024, -0.01105918, 0.3316841
317, 50595882, -0.5872988104820251, -0.6928122043609619, 17.496984481811523, -0.0021490282, -0.0127973985, 0.35089874
318, 50612549, -0.5878894925117493, -0.6926100850105286, 17.496829986572266, -0.012406387, -0.013321928, 0.33767605
319, 50629216, -0.5868933200836182, -0.6931078433990479, 17.49837875366211, 0.0058181123, -0.0038873828, 0.30811977
320, 50645883, -0.5863050222396851, -0.693388819694519, 17.50078773498535, 0.0024807702, -0.005113044, 0.32863903
321, 50662550, -0.5880781412124634, -0.6939231157302856, 17.502046585083008, 0.00819965, -0.006787432, 0.34606266
322, 50679217, -0.5880202651023865, -0.6938158273696899, 17.504146575927734, -0.0071031926, -0.008960076, 0.3439808
323, 50695884, -0.5887090563774109, -0.6940193772315979, 17.505577087402344, 0.004710312, -0.0156393, 0.33512974
324, 50712551, -0.5889450907707214, -0.6943899989128113, 17.50710105895996, -0.0070702387, 0.0055969637, 0.31717014
325, 50729218, -0.5880731344223022, -0.6947194933891296, 17.507991790771484, -0.0050399867, 0.005913147, 0.32830048
326, 50745885, -0.5880596041679382, -0.6948471665382385, 17.508468627929688, -0.009510609, 0.009684701, 0.3449669
327, 50762552, -0.5881466865539551, -0.695544421672821, 17.508459091186523, 0.0012394771, -0.003142477, 0.32585335
328, 50779219, -0.5883171558380127, -0.6965691447257996, 17.508079528808594, 0.009366597, 0.006634699, 0.33231163
329, 50795886, -0.5867039561271667, -0.6958228349685669, 17.506977081298828, -0.0059294426, -0.013499243, 0.33012486
330, 50812553, -0.5861901044845581, -0.6964876055717468, 17.508264541625977, -0.0066588703, 0.0034594845, 0.29536533
331, 50829220, -0.5865747928619385, -0.6963337659835815, 17.509525299072266, -0.013335726, -0.005413861, 0.32214642
332, 50845887, -0.5864236950874329, -0.697877049446106, 17.5107479095459, -0.014419977, 0.008389597, 0.33966827
333, 50862554, -0.5858832001686096, -0.6982555389404297, 17.5108642578125, -0.0059678657, -0.0016718629, 0.353549
334, 50879221, -0.5855939984321594, -0.6985357999801636, 17.510618209838867, 0.007572053, -0.007511621, 0.32131767
335, 50895888, -0.5861420035362244, -0.6972063183784485, 17.512414932250977, -0.011775047, 0.008431611, 0.33001518
336, 50912555, -0.586012601852417, -0.6978927254676819, 17.514446258544922, -0.01753984, -0.020337958, 0.314332
337, 50929222, -0.5854462385177612, -0.6985761523246765, 17.51388168334961, 0.010640383, 6.229271E-4, 0.34701824
338, 50945889, -0.584297239780426, -0.6996109485626221, 17.515071868896484, 0.006710578, -0.0029168092, 0.34168053
339, 50962556, -0.5834694504737854, -0.6992709040641785, 17.516510009765625, 0.0015688374, -0.005448617, 0.3319626
340, 50979223, -0.5824642181396484, -0.6986364722251892, 17.5173282623291, 0.013418831, 2.2905189E-4, 0.33968067
341, 50995890, -0.5817204117774963, -0.6993886232376099, 17.516876220703125, 0.0078054494, -0.0016969872, 0.34299946
342, 51012557, -0.5816518664360046, -0.6993198990821838, 17.51801300048828, -0.0010966803, -0.0038749778, 0.34054184
343, 51029224, -0.5816129446029663, -0.7001438140869141, 17.517532348632812, 0.008829167, 0.0039352006, 0.33628464
344, 51045891, -0.5824509859085083, -0.7003028988838196, 17.517284393310547, -0.008625421, 0.0049267877, 0.33446693
345, 51062558, -0.5826410055160522, -0.6995447278022766, 17.517629623413086, 0.0026982625, -0.0076163085, 0.3419218
346, 51079225, -0.5827108025550842, -0.7013970613479614, 17.517940521240234, 0.010032036, -0.0030799073, 0.32298756
347, 51095892, -0.5835813283920288, -0.7001739144325256, 17.518394470214844, 2.4289572E-4, -0.0016330555, 0.33808613
348, 51112559, -0.5825391411781311, -0.7010443210601807, 17.51793670654297, -0.011652282, 0.005966294, 0.33564568
349, 51129226, -0.5822020173072815, -0.700946033000946, 17.518875122070312, 0.004474394, -0.009720743, 0.36760235
350, 51145893, -0.5826195478439331, -0.7020675539970398, 17.5196533203125, -5.949915E-4, -0.008986443, 0.34648895
351, 51162560, -0.582160234451294, -0.7009384632110596, 17.520456314086914, -0.0018000336, -0.0153387375, 0.3355198
352, 51179227, -0.5817165374755859, -0.7014750838279724, 17.52176284790039, 0.0059106746, -0.0010385425, 0.35490513
353, 51195894, -0.5821640491485596, -0.7001832723617554, 17.522228240966797, -0.0047704997, -0.0050016018, 0.32217884
354, 51212561, -0.5828760266304016, -0.7006552815437317, 17.521808624267578, 0.008400176, -0.0055673514, 0.35548878
355, 51229228, -0.5826047658920288, -0.6985686421394348, 17.521265029907227, -0.0038087864, -0.0062270747, 0.33339596
356, 51245895, -0.5826355218887329, -0.6986492872238159, 17.52074432373047, -0.014011709, -0.0071816775, 0.32755566
357, 51262562, -0.5821574926376343, -0.6983438730239868, 17.52100372314453, 4.384346E-5, -0.015633589, 0.3430338
358, 51279229, -0.5818473100662231, -0.6993169188499451, 17.520954132080078, 0.0031855695, -0.0051401765, 0.3498373
359, 51295896, -0.5819754004478455, -0.6987868547439575, 17.522274017333984, 0.0049032667, -0.014733509, 0.33673477
360, 51312563, -0.593696117401123, -0.6935279965400696, 17.522953033447266, 4.964991E-4, -0.0021963431, 0.32854939
361, 51329230, -0.5938220620155334, -0.6925303339958191, 17.523433685302734, -0.0052038776, 0.0020707252, 0.33432674
362, 51345897, -0.5929691791534424, -0.6922891736030579, 17.523466110229492, 0.004415743, 0.0028928828, 0.3486166
363, 51362564, -0.5932108759880066, -0.6914464831352234, 17.523632049560547, -0.011197723, -0.0039686086, 0.3257103
364, 51379231, -0.5930780172348022, -0.6917243599891663, 17.524133682250977, 0.017637407, -0.0107446695, 0.34348297
365, 51395898, -0.5928047299385071, -0.690943717956543, 17.523963928222656, 0.007258814, -0.0026339989, 0.33300114
366, 51412565, -0.5931036472320557, -0.6897367238998413, 17.5250301361084, -0.0045110504, 0.011799787, 0.334651
367, 51429232, -0.5926599502563477, -0.688854455947876, 17.525989532470703, -0.005818804, -0.003070677, 0.34576988
368, 51445899, -0.5928165912628174, -0.6903213858604431, 17.525787353515625, -0.0015735731, 0.004681262, 0.3339119
369, 51462566, -0.5916404128074646, -0.689151406288147, 17.52646255493164, 0.0016788826, -0.0017836893, 0.31893253
370, 51479233, -0.5902225375175476, -0.6891307234764099, 17.52719497680664, -0.0029874393, -0.008170125, 0.3584156
371, 51495900, -0.5901774168014526, -0.6893288493156433, 17.527481079101562, -0.008673797, 0.018442752, 0.342124
372, 51512567, -0.5899835824966431, -0.6886872053146362, 17.52851676940918, -4.3494223E-5, 0.008549066, 0.33684444
373, 51529234, -0.5897255539894104, -0.6887374520301819, 17.529109954833984, -0.0060722115, 0.0071952734, 0.34313202
374, 51545901, -0.5896552801132202, -0.6879331469535828, 17.529848098754883, -0.01623751, -2.6636457E-4, 0.35359287
375, 51562568, -0.5892441868782043, -0.6888857483863831, 17.5307559967041, -0.0049136807, -0.0035737278, 0.32658863
376, 51579235, -0.5887396335601807, -0.6891810297966003, 17.531877517700195, 0.0012710693, 5.4525986E-4, 0.34950542
377, 51595902, -0.5871917009353638, -0.6903363466262817, 17.53221893310547, 0.012761821, 0.011720828, 0.34753036
378, 51612569, -0.5869109630584717, -0.6898939609527588, 17.533201217651367, 0.0042254566, -0.0027245425, 0.3366537
379, 51629236, -0.5875240564346313, -0.6896103620529175, 17.534448623657227, -4.6833648E-4, 0.0017850269, 0.35254478
380, 51645903, -0.5872738361358643, -0.6898849606513977, 17.534345626831055, 0.010532922, -0.004294494, 0.356452
381, 51662570, -0.5878609418869019, -0.6904385089874268, 17.535198211669922, 0.006599688, 0.0018721655, 0.3277855
382, 51679237, -0.5878817439079285, -0.6904171109199524, 17.535810470581055, -2.4149877E-4, 0.0019378818, 0.350626
383, 51695904, -0.5878249406814575, -0.6902857422828674, 17.536500930786133, -0.0071786214, 0.020353522, 0.35631084
384, 51712571, -0.5870095491409302, -0.6894452571868896, 17.53765869140625, 0.008308668, -7.5535505E-4, 0.34736156
385, 51729238, -0.5865088701248169, -0.6907572150230408, 17.537948608398438, 0.007935506, -0.004322325, 0.36123753
386, 51745905, -0.585624635219574, -0.689957320690155, 17.538692474365234, -0.008900258, 9.4909885E-4, 0.3470621
387, 51762572, -0.5866033434867859, -0.6892266869544983, 17.5393123626709, 0.0020223313, 0.0032631215, 0.35291386
388, 51779239, -0.5871683359146118, -0.6895318627357483, 17.53910255432129, 0.004955967, 0.0037961372, 0.33630943
389, 51795906, -0.5861310362815857, -0.6899248361587524, 17.54045295715332, 0.00645175, 0.0015146006, 0.3316698
390, 51812573, -0.585686445236206, -0.6891095042228699, 17.54166030883789, 0.010368703, 0.006777007, 0.34230423
391, 51829240, -0.5851521492004395, -0.6890484690666199, 17.542896270751953, 0.022889264, 0.012566194, 0.32994175
392, 51845907, -0.5856055021286011, -0.6882537603378296, 17.542863845825195, 0.0013182026, -0.0068291835, 0.34764004
393, 51862574, -0.5849667191505432, -0.6887743473052979, 17.543664932250977, -0.0029032168, -0.0067290426, 0.36264324
394, 51879241, -0.5852448344230652, -0.6889136433601379, 17.544158935546875, 0.015578218, 0.008569456, 0.3354435
395, 51895908, -0.5855474472045898, -0.6894604563713074, 17.544315338134766, 0.0018207016, -0.00720955, 0.33804893
396, 51912575, -0.5848641395568848, -0.6906346678733826, 17.546226501464844, -0.0044993088, 9.6935476E-4, 0.348588
397, 51929242, -0.5853251218795776, -0.6898032426834106, 17.546794891357422, -0.006540178, 0.0045055007, 0.3544445
398, 51945909, -0.5860387682914734, -0.6881844401359558, 17.54711151123047, 0.00911817, 0.009565349, 0.3480158
399, 51962576, -0.5855971574783325, -0.6884148716926575, 17.54688262939453, -0.0010827945, 0.0028968188, 0.336936
400, 51979243, -0.5851210355758667, -0.6889547109603882, 17.5478458404541, 0.015511673, 0.0019645218, 0.33969498
401, 51995910, -0.5852503180503845, -0.6890780329704285, 17.5493106842041, 0.00579296, 0.003699391, 0.34533978
402, 52012577, -0.5843794345855713, -0.6893543601036072, 17.549962997436523, -0.0035852806, 0.007675023, 0.3295393
403, 52029244, -0.5836189389228821, -0.6883392930030823, 17.55063819885254, -0.007384798, 0.0019381053, 0.33158493
404, 52045911, -0.5830160975456238, -0.6891070008277893, 17.550182342529297, 0.0051194387, -0.004344135, 0.3543644
405, 52062578, -0.5840903520584106, -0.6904329657554626, 17.551259994506836, 0.0069588525, -0.007706716, 0.3534422
406, 52079245, -0.5834270119667053, -0.6900054216384888, 17.55096435546875, 0.010815191, -0.010472906, 0.33489418
407, 52095912, -0.5831223130226135, -0.6894553303718567, 17.551082611083984, 0.005880612, -0.0070217117, 0.3499565
408, 52112579, -0.5837127566337585, -0.6878389120101929, 17.552412033081055, -0.0028206077, -0.009804917, 0.33079243
409, 52129246, -0.5838074088096619, -0.6890606880187988, 17.553098678588867, 0.0022918528, -0.02071962, 0.34586143
410, 52145913, -0.5831521153450012, -0.6886751651763916, 17.555070877075195, 0.01472057, -0.004174122, 0.34642792
411, 52162580, -0.5826585292816162, -0.689079225063324, 17.556995391845703, 0.003414803, 0.010445215, 0.36224556
412, 52179247, -0.582773745059967, -0.6882650852203369, 17.55758285522461, 0.006972417, -0.0037859008, 0.36100578
413, 52195914, -0.5824218988418579, -0.6891344785690308, 17.55721092224121, 0.0066058347, -0.018630007, 0.33457088
414, 52212581, -0.5833364725112915, -0.6886817812919617, 17.557889938354492, 0.014877232, 0.008767788, 0.33812714
415, 52229248, -0.5824223756790161, -0.6884580850601196, 17.559139251708984, 0.0045908024, -0.0038579663, 0.3332281
416, 52245915, -0.5814622044563293, -0.6889862418174744, 17.56052589416504, -0.005449602, -2.9104878E-4, 0.34476948
417, 52262582, -0.5816461443901062, -0.68952876329422, 17.561948776245117, 0.004218409, 0.0026486146, 0.31516743
418, 52279249, -0.5827053189277649, -0.6890662312507629, 17.560894012451172, 0.0025306067, -0.0010858888, 0.31821346
419, 52295916, -0.5826779007911682, -0.6887494921684265, 17.561935424804688, -9.231085E-5, 3.5796998E-6, 0.341177
420, 52312583, -0.5833173990249634, -0.688001275062561, 17.562963485717773, -0.0039222473, -6.430118E-4, 0.32992172
421, 52329250, -0.5838207006454468, -0.6875037550926208, 17.56357765197754, 0.008989209, 0.0028430847, 0.34246063
422, 52345917, -0.5832318067550659, -0.6875942945480347, 17.563810348510742, 0.0029184506, 0.0015945904, 0.32463932
423, 52362584, -0.5834506154060364, -0.6865361332893372, 17.565208435058594, 0.0060850703, 0.0031778445, 0.3320608
424, 52379251, -0.5826829075813293, -0.6882155537605286, 17.56648826599121, 0.010172458, -0.003925345, 0.347044
425, 52395918, -0.582034707069397, -0.6883314251899719, 17.567001342773438, 0.008379011, 0.0069592786, 0.33191776
426, 52412585, -0.5813532471656799, -0.6881280541419983, 17.56756019592285, 0.0046777558, -7.347325E-4, 0.33199596
427, 52429252, -0.5815824270248413, -0.687972903251648, 17.56888198852539, 0.003231257, -0.0026046839, 0.3458395
428, 52445919, -0.5823323726654053, -0.6888740062713623, 17.569175720214844, -0.005044485, 0.003634083, 0.3267975
429, 52462586, -0.5829015970230103, -0.6892096400260925, 17.568241119384766, 0.005312428, -0.00397003, 0.33171368
430, 52479253, -0.5836530327796936, -0.6886268258094788, 17.568634033203125, -0.0019996308, 0.011389127, 0.3353052
431, 52495920, -0.5830537676811218, -0.688319981098175, 17.567596435546875, -0.0062595294, 0.0013801017, 0.3553009
432, 52512587, -0.5830051302909851, -0.687732994556427, 17.567771911621094, -3.774086E-4, 0.003659127, 0.35144234
433, 52529254, -0.5831114649772644, -0.687895655632019, 17.567607879638672, 0.013348536, -0.0057736505, 0.34645844
434, 52545921, -0.5829559564590454, -0.6884771585464478, 17.567766189575195, 0.012846554, -0.0147078475, 0.33922005
435, 52562588, -0.5822802782058716, -0.6882511973381042, 17.5677490234375, 0.0034328797, 0.0024351387, 0.34690094
436, 52579255, -0.5824506878852844, -0.688811719417572, 17.568193435668945, -0.015138001, -0.003422186, 0.33345318
437, 52595922, -0.5820972919464111, -0.6895998120307922, 17.56945037841797, 0.0010848271, 0.0043888306, 0.3613119
438, 52612589, -0.582170307636261, -0.6892068982124329, 17.569499969482422, 0.008586097, -0.009807546, 0.35046768
439, 52629256, -0.5821183919906616, -0.6887457370758057, 17.56993865966797, 0.014038032, -0.0023599407, 0.35035515
440, 52645923, -0.5815407633781433, -0.6889461874961853, 17.568923950195312, -0.014368562, -0.004709746, 0.3144331
441, 52662590, -0.5828131437301636, -0.6891897916793823, 17.569087982177734, -0.0029797421, -0.0024561489, 0.3406353
442, 52679257, -0.582459568977356, -0.6897003650665283, 17.569625854492188, -0.006801597, 0.010547744, 0.3371048
443, 52695924, -0.5817317962646484, -0.6890820264816284, 17.570314407348633, 0.0012915976, -0.013154767, 0.32730198
444, 52712591, -0.5819816589355469, -0.6888048052787781, 17.570634841918945, 0.0026840344, -0.009380126, 0.33883572
445, 52729258, -0.5803362727165222, -0.6884921789169312, 17.571340560913086, 4.0805084E-5, 0.015496028, 0.37264252
446, 52745925, -0.5787609219551086, -0.6893413066864014, 17.570825576782227, 0.003602505, 0.002610586, 0.32436275
447, 52762592, -0.5784973502159119, -0.6893946528434753, 17.571165084838867, 0.0018597814, -0.006126979, 0.3285408
448, 52779259, -0.5782043933868408, -0.6892969608306885, 17.569400787353516, 5.612759E-4, 0.0028032437, 0.3441944
449, 52795926, -0.5780426859855652, -0.6901332139968872, 17.570816040039062, 0.0059133773, 0.0074781147, 0.35241222
450, 52812593, -0.5790420770645142, -0.6902348399162292, 17.569856643676758, 0.009755188, 0.010368012, 0.34928226
451, 52829260, -0.5778006315231323, -0.6898708939552307, 17.570138931274414, -0.008956021, 0.0011995276, 0.34261608
452, 52845927, -0.5769665241241455, -0.6891018152236938, 17.569528579711914, 0.012024969, 0.0014207775, 0.34517288
453, 52862594, -0.5769631862640381, -0.6895513534545898, 17.56985855102539, -0.005187261, -4.7375666E-4, 0.3535471
454, 52879261, -0.577813982963562, -0.6895531415939331, 17.570512771606445, -0.009062623, 0.006561593, 0.35412598
455, 52895928, -0.5788021683692932, -0.6892017126083374, 17.57058334350586, -0.0056454833, 0.0045724744, 0.35705948
456, 52912595, -0.5778766870498657, -0.6883788704872131, 17.571487426757812, 0.003427131, 0.0020289563, 0.32815075
457, 52929262, -0.5779850482940674, -0.6883344650268555, 17.57198715209961, -0.008438124, -0.010531232, 0.34120274
458, 52945929, -0.5780708193778992, -0.6892033219337463, 17.57159423828125, -0.013043878, -0.0041524726, 0.3389635
459, 52962596, -0.5786798596382141, -0.6885440945625305, 17.57208251953125, -0.010048441, -1.7288727E-4, 0.32365513
460, 52979263, -0.5789323449134827, -0.6890950202941895, 17.57187843322754, 0.0037402238, -0.003969248, 0.33723068
461, 52995930, -0.5791184306144714, -0.6901103854179382, 17.5733642578125, -0.011508979, -0.004169613, 0.30674076
462, 53012597, -0.5793011784553528, -0.6913948059082031, 17.574419021606445, -0.015088406, 0.0013905475, 0.33687687
463, 53029264, -0.5788267254829407, -0.6923470497131348, 17.574411392211914, 0.0035062616, 0.0035578338, 0.33419418
464, 53045931, -0.5793213844299316, -0.6930813789367676, 17.57513427734375, 0.0053085373, -0.00865679, 0.3474207
465, 53062598, -0.5800110697746277, -0.691981852054596, 17.574512481689453, -0.0035471995, 0.0039990414, 0.35114574
466, 53079265, -0.5798061490058899, -0.6914875507354736, 17.575456619262695, 0.008338884, 0.0054950765, 0.35765076
467, 53095932, -0.5791847109794617, -0.6916632652282715, 17.574649810791016, 0.0124943815, -0.015154098, 0.31417656
468, 53112599, -0.5790550708770752, -0.6911351084709167, 17.573469161987305, -0.004382565, -0.004202403, 0.33203316
469, 53129266, -0.5791069865226746, -0.6912872791290283, 17.572877883911133, 0.0145137785, 0.0053656204, 0.3285904
470, 53145933, -0.5783075094223022, -0.6910834312438965, 17.572994232177734, 0.005219719, 0.009626039, 0.34256744
471, 53162600, -0.5779717564582825, -0.6919656991958618, 17.573820114135742, 0.019761646, 0.009335322, 0.35634613
472, 53179267, -0.5786972641944885, -0.6915000081062317, 17.57414436340332, 0.008953189, -0.0036359027, 0.34428406
473, 53195934, -0.578013002872467, -0.6915017366409302, 17.57406234741211, -0.008098147, -0.003632159, 0.35138893
474, 53212601, -0.5796661376953125, -0.6926689147949219, 17.574567794799805, -0.0066232756, -0.010001691, 0.33315754
475, 53229268, -0.57909095287323, -0.692373514175415, 17.576446533203125, -0.001707625, 0.002318912, 0.3316059
476, 53245935, -0.5800814032554626, -0.693110466003418, 17.57710838317871, 0.001732868, -0.003921189, 0.33290863
477, 53262602, -0.5800726413726807, -0.6927663087844849, 17.57670021057129, -0.0033584847, 8.098852E-4, 0.34416962
478, 53279269, -0.5804948210716248, -0.6925410628318787, 17.576221466064453, -0.002878274, 0.0022784388, 0.3382845
479, 53295936, -0.5808423161506653, -0.6918249726295471, 17.576786041259766, 0.007614381, -0.007031763, 0.33074093
480, 53312603, -0.590800940990448, -0.6947777271270752, 17.578903198242188, -9.826188E-5, -5.0618E-4, 0.33187962
481, 53329270, -0.5903546810150146, -0.6959332227706909, 17.57843780517578, -0.00959451, -0.0055067865, 0.32947826
482, 53345937, -0.5908825397491455, -0.6958966851234436, 17.57828712463379, 0.0150386505, -0.006253131, 0.3200245
483, 53362604, -0.5901299715042114, -0.6942870616912842, 17.57898712158203, 0.0063232863, -0.008150903, 0.33830357
484, 53379271, -0.5897221565246582, -0.6940879225730896, 17.58087921142578, 0.0075315414, -0.0016604882, 0.337039
485, 53395938, -0.5898343920707703, -0.6931856870651245, 17.58053970336914, 0.011453865, -0.0024542003, 0.33301735
486, 53412605, -0.5904382467269897, -0.6935335993766785, 17.580793380737305, -0.0057136337, 0.015434569, 0.3560238
487, 53429272, -0.5901622176170349, -0.6936404705047607, 17.581287384033203, 0.00320644, -0.006878779, 0.33107185
488, 53445939, -0.5903531908988953, -0.6940142512321472, 17.58104705810547, -0.0026679134, -0.006544351, 0.34798717
489, 53462606, -0.5919901132583618, -0.6942503452301025, 17.581649780273438, 0.010424673, 0.0015308437, 0.33227253
490, 53479273, -0.591765284538269, -0.6943648457527161, 17.582279205322266, 0.009458181, 0.0017103875, 0.32479668
491, 53495940, -0.5909257531166077, -0.694062352180481, 17.58221435546875, -0.012605939, 0.001081237, 0.33320713
492, 53512607, -0.5906180143356323, -0.6928157210350037, 17.582372665405273, 0.002975202, 0.0045153354, 0.33022404
493, 53529274, -0.5905401110649109, -0.6940402984619141, 17.581968307495117, -0.0077454504, 0.015801614, 0.33433056
494, 53545941, -0.5911014080047607, -0.6939190030097961, 17.583738327026367, 0.004445512, 0.0068293093, 0.33222485
495, 53562608, -0.5919771194458008, -0.6922107934951782, 17.5830135345459, 0.010985341, 0.017779624, 0.33633518
496, 53579275, -0.591722309589386, -0.6915923357009888, 17.583547592163086, 0.010969073, -0.0060306555, 0.34644794
497, 53595942, -0.590756356716156, -0.6918519139289856, 17.58379554748535, 0.0065496, 0.0029743428, 0.33367252
498, 53612609, -0.59159255027771, -0.6909418702125549, 17.58354377746582, 0.015698083, -0.002019967, 0.332654
499, 53629276, -0.5910031199455261, -0.6912256479263306, 17.58513832092285, -0.006579048, 0.009417816, 0.3494625
500, 53645943, -0.5906521677970886, -0.6908334493637085, 17.584457397460938, -0.009702757, -0.009615338, 0.33442783
501, 53662610, -0.5913271307945251, -0.6908724308013916, 17.583789825439453, -0.006603313, 0.0010280479, 0.35823822
502, 53679277, -0.5909139513969421, -0.6892030239105225, 17.584548950195312, 0.0025723057, 0.009789434, 0.34025097
503, 53695944, -0.5907555222511292, -0.688463568687439, 17.586406707763672, 1.6681051E-4, 0.0015348041, 0.34623337
504, 53712611, -0.5908830165863037, -0.6889784336090088, 17.587055206298828, 0.0039597414, -0.004033791, 0.33555508
505, 53729278, -0.5919793248176575, -0.6887855529785156, 17.587087631225586, 0.0012736677, -0.0044441707, 0.33976746
506, 53745945, -0.5923243165016174, -0.6881890296936035, 17.58761215209961, 0.0051449607, -0.0154791735, 0.3346882
507, 53762612, -0.59284508228302, -0.6897261142730713, 17.587289810180664, 0.010742759, 0.0021319643, 0.3268652
508, 53779279, -0.593635618686676, -0.688535749912262, 17.58740997314453, 0.011001552, -0.0058652908, 0.33058262
509, 53795946, -0.5930635333061218, -0.6891010403633118, 17.587553024291992, -0.006066023, -0.0018041407, 0.34636688
510, 53812613, -0.5935353636741638, -0.6888088583946228, 17.586645126342773, -0.009739758, -0.0074709137, 0.33709812
511, 53829280, -0.5933048725128174, -0.6893691420555115, 17.58737564086914, -5.573156E-4, 0.0020984584, 0.3367014
512, 53845947, -0.592275083065033, -0.6898536682128906, 17.58597183227539, 0.006620279, -0.011455112, 0.31892395
513, 53862614, -0.5906248688697815, -0.6909691095352173, 17.585163116455078, 0.0046748994, 0.0051744543, 0.3562336
514, 53879281, -0.5917773246765137, -0.6914520859718323, 17.58538818359375, -0.0012011866, -0.0032314316, 0.3307352
515, 53895948, -0.5916590690612793, -0.6915136575698853, 17.58420181274414, -8.3223655E-4, -0.0013812227, 0.34181786
516, 53912615, -0.5924502611160278, -0.6918655633926392, 17.585695266723633, 0.015708547, 0.0041270237, 0.32636452
517, 53929282, -0.5929993391036987, -0.6906103491783142, 17.585336685180664, 0.0027656306, -0.022584056, 0.3162651
518, 53945949, -0.59441077709198, -0.6914395689964294, 17.585784912109375, -0.0072277314, -0.013010102, 0.33965778
519, 53962616, -0.5941985249519348, -0.6921953558921814, 17.586837768554688, 0.00531752, 0.015151961, 0.33701897
520, 53979283, -0.5950221419334412, -0.6923381686210632, 17.587146759033203, 0.011901241, -0.007912114, 0.3317442
521, 53995950, -0.5956610441207886, -0.6928202509880066, 17.58698081970215, 0.0012908013, -0.0074022114, 0.3166542
522, 54012617, -0.5964251160621643, -0.6922498345375061, 17.587026596069336, -0.011681475, 0.0035035657, 0.33450985
523, 54029284, -0.5961009860038757, -0.6914395689964294, 17.587383270263672, 0.008748618, -0.006609774, 0.3393364
524, 54045951, -0.5953758358955383, -0.6919687986373901, 17.586965560913086, -0.018579578, 0.0013037266, 0.33533764
525, 54062618, -0.5955905914306641, -0.6923933625221252, 17.586523056030273, 0.003697498, -0.0038417268, 0.32433796
526, 54079285, -0.5965262055397034, -0.6922547817230225, 17.58715057373047, -0.011992577, -0.0015911119, 0.33374405
527, 54095952, -0.5959813594818115, -0.6928815245628357, 17.58772087097168, -0.0065462124, -0.0095932735, 0.3415575
528, 54112619, -0.5966776013374329, -0.6920880079269409, 17.58837890625, 0.008934483, -0.008360237, 0.3296032
529, 54129286, -0.5973659157752991, -0.6920198202133179, 17.5889949798584, 0.0057885596, 0.015449327, 0.34561253
530, 54145953, -0.597810685634613, -0.692344605922699, 17.58904266357422, 0.00453857, -0.0033909744, 0.3410139
531, 54162620, -0.5991722941398621, -0.6927632689476013, 17.589609146118164, -0.002935696, 0.002383874, 0.32712746
532, 54179287, -0.5991964936256409, -0.6923370361328125, 17.588865280151367, -0.004243121, -0.0036755903, 0.37260056
533, 54195954, -0.5992907881736755, -0.6923555135726929, 17.58888053894043, 0.0046729995, -0.011248607, 0.29673386
534, 54212621, -0.6001735925674438, -0.691650390625, 17.589805603027344, -0.0015983691, -3.7250528E-4, 0.35076427
535, 54229288, -0.6004041433334351, -0.6906255483627319, 17.590103149414062, -0.010508231, 0.0036894341, 0.3396721
536, 54245955, -0.5995707511901855, -0.6905592083930969, 17.590164184570312, 0.0031117334, 0.0035479714, 0.33333015
537, 54262622, -0.6002262830734253, -0.6900923848152161, 17.5899658203125, -0.0016390624, 0.004641313, 0.34255314
538, 54279289, -0.600049614906311, -0.6892246603965759, 17.5908260345459, 8.610348E-4, 0.0072392286, 0.32779884
539, 54295956, -0.5998130440711975, -0.6879394054412842, 17.589599609375, -5.1882945E-4, -0.0031731855, 0.35680676
540, 54312623, -0.6005162596702576, -0.6879349946975708, 17.590801239013672, -0.010845624, -0.010596965, 0.32475662
541, 54329290, -0.6001200079917908, -0.6869037747383118, 17.590673446655273, 0.009737146, -0.004428476, 0.35336494
542, 54345957, -0.599409818649292, -0.6865231394767761, 17.58985137939453, -0.00983166, 0.005082255, 0.31943417
543, 54362624, -0.5997558832168579, -0.6859223246574402, 17.591468811035156, -0.0097160665, 0.011452224, 0.34413815
544, 54379291, -0.5998944044113159, -0.6873509883880615, 17.591941833496094, 0.008386842, 0.0011056941, 0.33758545
545, 54395958, -0.6006162762641907, -0.686922013759613, 17.59212303161621, 0.007802139, 0.008591018, 0.33952808
546, 54412625, -0.6002175807952881, -0.6877907514572144, 17.59207534790039, -0.016209083, -0.0016372883, 0.34646797
547, 54429292, -0.5997210144996643, -0.6870723366737366, 17.592233657836914, 0.0047862297, 0.008365849, 0.33807468
548, 54445959, -0.5993584990501404, -0.686876654624939, 17.59109115600586, -0.005666263, -0.004965861, 0.32169247
549, 54462626, -0.5991616249084473, -0.6860762238502502, 17.592105865478516, -0.003110462, -0.002337296, 0.33046627
550, 54479293, -0.5998753309249878, -0.6862736940383911, 17.59218978881836, -3.3163735E-5, -0.0023621162, 0.340456
551, 54495960, -0.6005756258964539, -0.6859201192855835, 17.592391967773438, -0.016207958, 0.0051092547, 0.35325432
552, 54512627, -0.6007929444313049, -0.685283362865448, 17.593143463134766, -0.011595223, 0.0054151253, 0.33214283
553, 54529294, -0.601585865020752, -0.685657799243927, 17.59319496154785, 0.014122666, -0.008180868, 0.3037405
554, 54545961, -0.6001197695732117, -0.6853289604187012, 17.592262268066406, 0.017492285, -0.0037650478, 0.3235426
555, 54562628, -0.6005544066429138, -0.6843385696411133, 17.592058181762695, -0.008736723, 0.0076188897, 0.35518074
556, 54579295, -0.6010137796401978, -0.6832180619239807, 17.591039657592773, 0.001141767, -6.115978E-4, 0.33476353
557, 54595962, -0.6011348366737366, -0.6840085387229919, 17.590717315673828, 0.0011670869, 0.009566903, 0.34095097
558, 54612629, -0.6000562906265259, -0.684130847454071, 17.590620040893555, 0.004730442, -0.0097435545, 0.34089947
559, 54629296, -0.5991891026496887, -0.6841698884963989, 17.591678619384766, 3.9901253E-4, 0.0038892722, 0.33205318
560, 54645963, -0.6003792881965637, -0.6848481893539429, 17.59181022644043, 0.001016523, 0.009930562, 0.34642696
561, 54662630, -0.599740207195282, -0.6852607727050781, 17.592079162597656, 0.0025728995, 6.6256576E-4, 0.34034824
562, 54679297, -0.5996676683425903, -0.6856682896614075, 17.593568801879883, 0.0110819535, -0.0025278092, 0.34222507
563, 54695964, -0.599685788154602, -0.6857470870018005, 17.59363555908203, 0.010145595, 0.00409277, 0.34574986
564, 54712631, -0.5995140671730042, -0.6852687001228333, 17.594911575317383, 0.0070113847, -0.012081745, 0.35007954
565, 54729298, -0.5991718173027039, -0.6855483055114746, 17.594844818115234, -9.858039E-4, -0.013246464, 0.33117676
566, 54745965, -0.5993354320526123, -0.6850058436393738, 17.59345817565918, 0.003836034, -0.0014128988, 0.33619785
567, 54762632, -0.6000313758850098, -0.684855043888092, 17.593109130859375, 0.005462915, -0.004421418, 0.31690884
568, 54779299, -0.5998348593711853, -0.6845588088035583, 17.59233856201172, -0.0055347257, 5.3503413E-6, 0.33351326
569, 54795966, -0.5994782447814941, -0.684562087059021, 17.593536376953125, 4.6821774E-4, 0.007003328, 0.33209515
570, 54812633, -0.5990169048309326, -0.6847202777862549, 17.593870162963867, 0.0071689617, 0.00387305, 0.35231018
571, 54829300, -0.5989198088645935, -0.6849032640457153, 17.593341827392578, 0.01959309, 0.0052686613, 0.3390627
572, 54845967, -0.5983495116233826, -0.6851884722709656, 17.5931396484375, 0.0028006523, -0.0038890627, 0.34610367
573, 54862634, -0.5983414649963379, -0.6844267249107361, 17.593368530273438, 0.00841805, -0.0019548058, 0.3294096
574, 54879301, -0.5974358916282654, -0.6846068501472473, 17.594608306884766, 0.004021082, -8.0033357E-4, 0.33542347
575, 54895968, -0.5969788432121277, -0.6854347586631775, 17.594423294067383, 0.0018337981, -0.0043623303, 0.31868172
576, 54912635, -0.5982012748718262, -0.6863241195678711, 17.594188690185547, -0.0024806864, 0.0024294043, 0.33631992
577, 54929302, -0.5980746150016785, -0.6850215792655945, 17.594486236572266, 0.019739373, -0.0014874368, 0.33296394
578, 54945969, -0.5976915955543518, -0.6849661469459534, 17.59370994567871, 0.009402261, -0.0095171435, 0.34439945
579, 54962636, -0.5980520248413086, -0.684439480304718, 17.59395980834961, 0.0016052282, 0.0035714752, 0.30989647
580, 54979303, -0.5965210199356079, -0.6837430000305176, 17.594423294067383, -0.007204472, 0.0076895407, 0.33084106
581, 54995970, -0.5971021056175232, -0.6846208572387695, 17.59413719177246, 0.0037133256, -0.014738496, 0.33989334
582, 55012637, -0.5974212288856506, -0.6837557554244995, 17.593692779541016, -0.00965387, -0.002722304, 0.3757162
583, 55029304, -0.5985633730888367, -0.6841825842857361, 17.59320831298828, 0.0015075878, 0.0067343265, 0.31215572
584, 55045971, -0.599352240562439, -0.6848071217536926, 17.59211540222168, -0.008336027, 0.015426628, 0.3426466
585, 55062638, -0.599714994430542, -0.6849473118782043, 17.592239379882812, 0.004757578, -0.0047026565, 0.33800793
586, 55079305, -0.5999221205711365, -0.6845598220825195, 17.591978073120117, 0.0046009864, 0.011125675, 0.34254265
587, 55095972, -0.6000366806983948, -0.6859506368637085, 17.59060287475586, 0.0025673816, -0.0043695527, 0.34813404
588, 55112639, -0.6004006862640381, -0.6860644817352295, 17.59038734436035, 0.0063029747, 0.0013905091, 0.3304081
589, 55129306, -0.6015218496322632, -0.6879554390907288, 17.59030532836914, -0.01021559, -6.5498025E-4, 0.34920216
590, 55145973, -0.6019986867904663, -0.6883922815322876, 17.59014892578125, 0.0074722827, 0.0063454662, 0.32545662
591, 55162640, -0.6023799180984497, -0.6894991397857666, 17.590240478515625, -0.0032310125, 0.004996866, 0.34930038
592, 55179307, -0.6028083562850952, -0.688765823841095, 17.588651657104492, 0.0027447182, 0.001017602, 0.32095242
593, 55195974, -0.6025607585906982, -0.6885157227516174, 17.5891170501709, -0.0038668509, -0.0018780327, 0.33468723
594, 55212641, -0.6027900576591492, -0.6877599358558655, 17.590063095092773, -0.001976176, -1.9965993E-4, 0.32684422
595, 55229308, -0.6030815243721008, -0.6885833144187927, 17.5898380279541, 0.0023679521, -0.0074513806, 0.34004307
596, 55245975, -0.6030219793319702, -0.6883715391159058, 17.589574813842773, 0.0026137116, -0.017284378, 0.3274107
597, 55262642, -0.6030843257904053, -0.6878026723861694, 17.588214874267578, 0.010193462, -0.006068796, 0.33053207
598, 55279309, -0.60332190990448, -0.6891281008720398, 17.58957862854004, 0.004833321, -0.0037188784, 0.32613564
599, 55295976, -0.6031504273414612, -0.689861536026001, 17.588956832885742, 7.6249347E-4, 0.0036604577, 0.34277916
600, 55312643, -0.5944269895553589, -0.692074716091156, 17.596302032470703, -0.015261706, 0.0024498103, 0.34763336
601, 55329310, -0.5941538214683533, -0.6928985118865967, 17.597047805786133, -5.007249E-4, 0.006614663, 0.32645893
602, 55345977, -0.5941308736801147, -0.693274974822998, 17.59673500061035, -0.0029974484, -0.0010898631, 0.33679008
603, 55362644, -0.5937454700469971, -0.6927497982978821, 17.595727920532227, -0.0039983257, 0.0050041615, 0.34299088
604, 55379311, -0.5939452052116394, -0.691146969795227, 17.596078872680664, -0.0038817355, 0.008402533, 0.32781315
605, 55395978, -0.5932726263999939, -0.6911593079566956, 17.596630096435547, 7.1642187E-4, -0.005492995, 0.3395071
606, 55412645, -0.5925641655921936, -0.6918644905090332, 17.59695816040039, 0.005251423, -0.0024556424, 0.3338833
607, 55429312, -0.5930453538894653, -0.6930606961250305, 17.597383499145508, 6.657613E-4, 0.0013458902, 0.33381367
608, 55445979, -0.593025267124176, -0.6935849785804749, 17.59750747680664, -0.0022654575, -0.0089103365, 0.3293991
609, 55462646, -0.5944482088088989, -0.693437933921814, 17.596837997436523, -0.016550135, -0.011870026, 0.34988976
610, 55479313, -0.5949057936668396, -0.6938501596450806, 17.596542358398438, -0.006972759, -0.0011574829, 0.35792828
611, 55495980, -0.5939095616340637, -0.6943331956863403, 17.597332000732422, -0.001562167, 0.016650252, 0.3450117
612, 55512647, -0.5945920348167419, -0.6953721046447754, 17.596755981445312, 8.7508117E-4, 0.006501817, 0.32206154
613, 55529314, -0.5948991179466248, -0.6953662633895874, 17.59722137451172, 0.003289964, 0.0052174977, 0.3316803
614, 55545981, -0.5949525833129883, -0.6948090195655823, 17.59835433959961, -0.0035401168, 4.6054844E-4, 0.33926487
615, 55562648, -0.5942168831825256, -0.693415641784668, 17.599102020263672, 0.012170595, -0.0076199966, 0.32790184
616, 55579315, -0.5948379635810852, -0.6932446956634521, 17.598983764648438, 0.015353692, 0.0068784473, 0.3305359
617, 55595982, -0.5940065979957581, -0.6938936710357666, 17.598634719848633, 0.0034242533, 0.0071573737, 0.32531452
618, 55612649, -0.5935530662536621, -0.6927523016929626, 17.59782600402832, -0.0020226736, 0.008798713, 0.32734394
619, 55629316, -0.5936861634254456, -0.6929371356964111, 17.59743881225586, 0.0012530625, -0.0058728065, 0.34086132
620, 55645983, -0.5940575003623962, -0.6929503679275513, 17.597318649291992, -3.2074808E-4, -0.0050425255, 0.3497324
621, 55662650, -0.5937716960906982, -0.6926450133323669, 17.59794807434082, -0.002939405, -0.00843789, 0.3341608
622, 55679317, -0.5941480398178101, -0.6926524639129639, 17.597854614257812, 0.005503832, -0.0031086635, 0.3221159
623, 55695984, -0.5943610668182373, -0.6923359036445618, 17.59723663330078, -0.0034642832, 0.0030756919, 0.3274784
624, 55712651, -0.5949370265007019, -0.6927405595779419, 17.59685516357422, 0.014144822, -0.010760504, 0.31803894
625, 55729318, -0.5943058133125305, -0.692816436290741, 17.595792770385742, -0.004762216, -0.008561, 0.31748486
626, 55745985, -0.5947085022926331, -0.6927212476730347, 17.595243453979492, -0.00923799, 0.010317418, 0.32203484
627, 55762652, -0.5938716530799866, -0.6930045485496521, 17.596721649169922, -0.0030640971, 0.0030361721, 0.34088135
628, 55779319, -0.594855010509491, -0.6927022933959961, 17.59699249267578, 0.004021124, -0.004069326, 0.34361076
629, 55795986, -0.5952183604240417, -0.6928321123123169, 17.597061157226562, -0.009036468, 0.0026958352, 0.3383751
630, 55812653, -0.5953813791275024, -0.691950261592865, 17.59726905822754, -0.009046058, -0.0051716985, 0.35793495
631, 55829320, -0.595632016658783, -0.6924620270729065, 17.59625816345215, 0.005561631, -0.0049263025, 0.35104942
632, 55845987, -0.5956558585166931, -0.691461443901062, 17.59579086303711, 0.0077706794, -0.017388148, 0.35908604
633, 55862654, -0.5952440500259399, -0.6899391412734985, 17.594432830810547, 0.014304752, -7.9817174E-4, 0.34483433
634, 55879321, -0.595605194568634, -0.6900967359542847, 17.59450912475586, 0.005233116, -0.0040550977, 0.3440895
635, 55895988, -0.5959495902061462, -0.6901668906211853, 17.595922470092773, -0.0100084, -9.308826E-4, 0.35458755
636, 55912655, -0.5971840023994446, -0.6887096166610718, 17.596582412719727, -0.004116487, -0.011439104, 0.37876892
637, 55929322, -0.5960267782211304, -0.6878683567047119, 17.59697914123535, -0.0010985523, 0.0044925683, 0.34377098
638, 55945989, -0.5956469178199768, -0.6884623765945435, 17.597501754760742, -0.008933069, 0.0014891726, 0.34129906
639, 55962656, -0.5961925387382507, -0.6894443035125732, 17.596843719482422, -0.009480197, 0.0044614933, 0.34521675
640, 55979323, -0.5954325199127197, -0.6897667050361633, 17.59760093688965, 0.0024637345, -0.005983655, 0.3392477
641, 55995990, -0.5940733551979065, -0.6897998452186584, 17.597370147705078, 0.0016281382, -0.0011285343, 0.33934975
642, 56012657, -0.5939513444900513, -0.6900843977928162, 17.598867416381836, 0.011074159, 0.0017791666, 0.34559822
643, 56029324, -0.5932321548461914, -0.6905938982963562, 17.598487854003906, -6.290842E-4, -0.009430476, 0.34016705
644, 56045991, -0.5929387211799622, -0.6909246444702148, 17.598447799682617, -0.0027808435, -0.0069167446, 0.32789898
645, 56062658, -0.5936955809593201, -0.691002368927002, 17.59931182861328, 0.007846694, -0.0014758526, 0.33777523
646, 56079325, -0.5946454405784607, -0.6918818950653076, 17.600505828857422, 0.015507273, -0.011281467, 0.33970737
647, 56095992, -0.5952969193458557, -0.6920822858810425, 17.6010799407959, 0.0019576661, -7.940787E-4, 0.33703518
648, 56112659, -0.5952921509742737, -0.6924967169761658, 17.6009578704834, 0.0043987976, -0.008965272, 0.3365345
649, 56129326, -0.595342218875885, -0.6928539872169495, 17.60079002380371, 0.006523463, 0.003759034, 0.31622982
650, 56145993, -0.5953871607780457, -0.6939129829406738, 17.60072135925293, -0.004536747, 0.008844708, 0.33339596
651, 56162660, -0.5962679386138916, -0.6942575573921204, 17.602548599243164, 0.0051557664, 0.0093809785, 0.34906673
652, 56179327, -0.5953384637832642, -0.6945648789405823, 17.602985382080078, 0.0018078077, -0.0075391023, 0.33103466
653, 56195994, -0.5958532691001892, -0.6946643590927124, 17.603063583374023, 0.016114188, -0.007298414, 0.3488903
654, 56212661, -0.5963314175605774, -0.6952874064445496, 17.60355567932129, 0.0066205305, -0.003800761, 0.34723473
655, 56229328, -0.5977903008460999, -0.6955745816230774, 17.603811264038086, -0.008209645, 0.010163613, 0.35747147
656, 56245995, -0.5976870059967041, -0.696304202079773, 17.60431480407715, -0.007966407, 0.0068579363, 0.31255722
657, 56262662, -0.5979830026626587, -0.6951874494552612, 17.605239868164062, 0.01676707, -0.012836042, 0.32569695
658, 56279329, -0.5983952879905701, -0.6948728561401367, 17.606510162353516, 0.0031260871, 0.003879661, 0.32865906
659, 56295996, -0.5989466309547424, -0.6935054063796997, 17.60614776611328, 0.0044507575, -0.014580864, 0.34009933
660, 56312663, -0.5988399386405945, -0.6927083134651184, 17.60617446899414, 6.834677E-4, 0.0012359219, 0.3475294
661, 56329330, -0.5990281701087952, -0.6935378909111023, 17.606117248535156, -0.004718086, -0.009134507, 0.32152653
662, 56345997, -0.5989934802055359, -0.6950927376747131, 17.60602378845215, 0.0054871663, 0.005196194, 0.30797482
663, 56362664, -0.5993149280548096, -0.6948399543762207, 17.60700225830078, -6.505135E-4, 4.5567306E-4, 0.34154892
664, 56379331, -0.5988689064979553, -0.6949430704116821, 17.606800079345703, -0.0097443545, 0.002051821, 0.330369
665, 56395998, -0.599303126335144, -0.6944254636764526, 17.60713768005371, -0.0030263446, -0.00801874, 0.3180685
666, 56412665, -0.5999308824539185, -0.6942224502563477, 17.607681274414062, 0.006249003, 0.0053190705, 0.34274673
667, 56429332, -0.599906861782074, -0.6938666105270386, 17.6083927154541, 0.006547875, -0.007443631, 0.34209442
668, 56445999, -0.5998141765594482, -0.6933298707008362, 17.60831642150879, -0.0040690745, 0.0034232684, 0.35476494
669, 56462666, -0.599985659122467, -0.6930862069129944, 17.607879638671875, 2.2444892E-4, -0.008041305, 0.3571682
670, 56479333, -0.5994111895561218, -0.6942791938781738, 17.609468460083008, -0.0051755123, -0.0067210067, 0.32776642
671, 56496000, -0.5994660258293152, -0.6949946880340576, 17.609580993652344, 0.018510925, -0.0040191785, 0.33895683
672, 56512667, -0.5991325378417969, -0.6934057474136353, 17.61013412475586, 1.5811446E-4, -0.009751322, 0.30936146
673, 56529334, -0.598616898059845, -0.6937298774719238, 17.610267639160156, 0.00753129, 0.009115861, 0.34233952
674, 56546001, -0.5989654064178467, -0.693730890750885, 17.61021614074707, 0.001358833, -0.0068410365, 0.31861877
675, 56562668, -0.5987746119499207, -0.6933649778366089, 17.60995864868164, -0.0036022535, -0.014216852, 0.3304224
676, 56579335, -0.5996462106704712, -0.6924571394920349, 17.610000610351562, -0.006372124, 0.0014106741, 0.34262753
677, 56596002, -0.5993251204490662, -0.6938700675964355, 17.610572814941406, -0.005582753, -0.0028463362, 0.30793095
678, 56612669, -0.5987687706947327, -0.6942173838615417, 17.6102294921875, -0.0048477934, -0.0010746503, 0.32226944
679, 56629336, -0.5984106063842773, -0.6927737593650818, 17.609352111816406, -0.0052483496, 0.008977789, 0.32553768
680, 56646003, -0.5982199907302856, -0.6931053400039673, 17.60898208618164, -0.0034954213, -0.002089731, 0.36416054
681, 56662670, -0.5974177122116089, -0.6941497325897217, 17.60933494567871, 2.4958016E-4, -0.0010527774, 0.33749485
682, 56679337, -0.5966870784759521, -0.6927226781845093, 17.609121322631836, 7.6128513E-4, 0.016293075, 0.32736683
683, 56696004, -0.5961974263191223, -0.6929647326469421, 17.60972023010254, 3.7396512E-5, -0.004609256, 0.33406162
684, 56712671, -0.5957823395729065, -0.6932915449142456, 17.610191345214844, -0.0031194796, 0.0148990555, 0.3459177
685, 56729338, -0.596947968006134, -0.6928859949111938, 17.610702514648438, 0.0021825063, 5.8528964E-5, 0.32940483
686, 56746005, -0.5981667041778564, -0.6931995153427124, 17.612409591674805, -0.0052900207, -0.010628362, 0.33695984
687, 56762672, -0.5969071984291077, -0.6935127973556519, 17.612462997436523, 0.01200558, -0.0026773533, 0.32325745
688, 56779339, -0.5964371562004089, -0.6937798261642456, 17.61187744140625, -0.0154399155, 0.002589862, 0.33980274
689, 56796006, -0.5968127846717834, -0.6938117146492004, 17.61174774169922, -0.008820981, 0.0031154074, 0.35236168
690, 56812673, -0.596014678478241, -0.6930146217346191, 17.612255096435547, 0.0036503647, 0.0013093668, 0.33359814
691, 56829340, -0.5956480503082275, -0.6930884122848511, 17.61183738708496, -0.0030445678, 0.0076461933, 0.3293314
692, 56846007, -0.5965490937232971, -0.6934992671012878, 17.611352920532227, 0.002634582, -0.017941525, 0.3407936
693, 56862674, -0.5974302291870117, -0.6946267485618591, 17.612682342529297, 0.0037976666, -0.008747878, 0.3333292
694, 56879341, -0.597342848777771, -0.6955066919326782, 17.611980438232422, -0.008189438, -0.0052782306, 0.35520554
695, 56896008, -0.5973343849182129, -0.6952309012413025, 17.61164665222168, -0.0010403411, -0.008217164, 0.34336567
696, 56912675, -0.5970304012298584, -0.6960009932518005, 17.612773895263672, 0.0070399805, 8.394902E-4, 0.32099724
697, 56929342, -0.5961312055587769, -0.6959102749824524, 17.61465072631836, 0.007320978, 7.1614597E-4, 0.3376093
698, 56946009, -0.5968982577323914, -0.6963541507720947, 17.615402221679688, 0.0019679198, 0.008584476, 0.32565212
699, 56962676, -0.5970125794410706, -0.6958501935005188, 17.61555290222168, -0.0032557945, -0.001994654, 0.33542347
700, 56979343, -0.5974131226539612, -0.6955029368400574, 17.616140365600586, -0.0014031933, -0.0010852532, 0.34814167
701, 56996010, -0.5980222821235657, -0.6962369680404663, 17.617233276367188, 0.008743422, -0.013881872, 0.33935356
702, 57012677, -0.5989400148391724, -0.696548342704773, 17.617311477661133, 0.0040130075, 0.006556204, 0.334857
703, 57029344, -0.5986780524253845, -0.6966521143913269, 17.617544174194336, 0.0026796618, -0.0022600512, 0.31868935
704, 57046011, -0.5981870293617249, -0.6967657208442688, 17.61741065979004, -0.005259909, -0.00839324, 0.35156536
705, 57062678, -0.5976906418800354, -0.6952522397041321, 17.61754608154297, -0.006395593, -0.004444953, 0.35796928
706, 57079345, -0.5976772904396057, -0.6963872313499451, 17.618000030517578, 0.0026983742, -0.0059102485, 0.34316444
707, 57096012, -0.597869873046875, -0.6961711645126343, 17.617488861083984, 0.014555785, 7.376207E-4, 0.3370762
708, 57112679, -0.5977311730384827, -0.69748854637146, 17.61800765991211, 0.0035427152, 0.0032097124, 0.32537937
709, 57129346, -0.5981084704399109, -0.6983384490013123, 17.617748260498047, -0.0029648435, -8.4781955E-4, 0.35868073
710, 57146013, -0.598652720451355, -0.6990929841995239, 17.617189407348633, 0.00825381, -0.008504783, 0.33558273
711, 57162680, -0.5998103618621826, -0.6993826627731323, 17.61690330505371, -0.0056064315, -0.002082477, 0.34485435
712, 57179347, -0.5999260544776917, -0.7001360058784485, 17.616682052612305, -0.0059152353, -0.0019872223, 0.34013653
713, 57196014, -0.5997271537780762, -0.7005093693733215, 17.61612319946289, 0.007703926, -0.006814089, 0.33186722
714, 57212681, -0.6004430055618286, -0.7008922100067139, 17.61635398864746, 0.010142124, -0.011222956, 0.35871696
715, 57229348, -0.6005144119262695, -0.7004280686378479, 17.615819931030273, -0.0060493154, 3.2450588E-4, 0.34286785
716, 57246015, -0.5999853014945984, -0.7000128626823425, 17.6170654296875, -0.012015679, 0.0074635376, 0.35336304
717, 57262682, -0.6005663275718689, -0.7001766562461853, 17.617076873779297, 0.0049836263, -0.009503041, 0.33000565
718, 57279349, -0.6001737713813782, -0.7008540630340576, 17.616455078125, 0.0014447598, -0.0049787825, 0.34785843
719, 57296016, -0.6013652682304382, -0.7020243406295776, 17.616416931152344, 0.0049929162, 0.01721135, 0.34963226
720, 57312683, -0.5930450558662415, -0.6980534791946411, 17.61983299255371, 0.0125870835, -0.0038034956, 0.31659985
721, 57329350, -0.5932757258415222, -0.6988438367843628, 17.619518280029297, 0.0022108294, -0.013771356, 0.32388496
722, 57346017, -0.5938800573348999, -0.6988948583602905, 17.61907196044922, -0.0027566901, -0.005433883, 0.33592033
723, 57362684, -0.594384491443634, -0.6974372863769531, 17.619522094726562, -0.005136188, 0.014189483, 0.3331995
724, 57379351, -0.5945403575897217, -0.6985576152801514, 17.618886947631836, -0.009893923, 0.0041882065, 0.34774208
725, 57396018, -0.5953875184059143, -0.698340654373169, 17.6187744140625, -0.005005237, -0.0020218738, 0.34312916
726, 57412685, -0.5955175161361694, -0.6983153820037842, 17.61939811706543, 0.004875516, -0.006271931, 0.33502865
727, 57429352, -0.5954753756523132, -0.6987659931182861, 17.618724822998047, -0.0037809662, -0.006641677, 0.3251772
728, 57446019, -0.5959309935569763, -0.6997184157371521, 17.618850708007812, -0.0024095674, 0.0015408285, 0.33093357
729, 57462686, -0.5946475863456726, -0.7007063627243042, 17.619354248046875, 0.012123867, -9.951809E-4, 0.33577728
730, 57479353, -0.5942890644073486, -0.7014337778091431, 17.619606018066406, 0.015010236, -0.004892489, 0.33775425
731, 57496020, -0.5939822196960449, -0.7011069655418396, 17.62061309814453, 0.014399941, -0.013886857, 0.34441185
732, 57512687, -0.5927428007125854, -0.7007225751876831, 17.620943069458008, -0.012569659, 0.003030902, 0.34599876
733, 57529354, -0.5919549465179443, -0.6999422311782837, 17.62216567993164, -0.008572414, 0.0046473513, 0.33461
734, 57546021, -0.5918238759040833, -0.6988754272460938, 17.621980667114258, -0.0075603887, -6.451876E-4, 0.34981441
735, 57562688, -0.5917969346046448, -0.6984910368919373, 17.621557235717773, -0.0010265461, 0.007038765, 0.35341454
736, 57579355, -0.5915340781211853, -0.6992990374565125, 17.62167739868164, -0.01341267, -0.005259211, 0.3260603
737, 57596022, -0.5918778777122498, -0.6992510557174683, 17.62055015563965, -0.0012554514, -0.0044161514, 0.33542156
738, 57612689, -0.5917615294456482, -0.6994554996490479, 17.621044158935547, -0.0047976635, -0.0040550386, 0.3294878
739, 57629356, -0.5905187129974365, -0.7000746130943298, 17.62160873413086, -0.003649317, -0.0013572056, 0.33698654
740, 57646023, -0.5904735326766968, -0.6989244222640991, 17.622955322265625, -0.009925446, -0.0054142694, 0.32184315
741, 57662690, -0.5906984210014343, -0.6982531547546387, 17.623947143554688, -0.0021675169, 8.048562E-4, 0.33650017
742, 57679357, -0.5911859273910522, -0.698917806148529, 17.62332534790039, -0.0034584298, 0.008144494, 0.34589005
743, 57696024, -0.5895335078239441, -0.6989777684211731, 17.624563217163086, 5.5897795E-4, -0.009978802, 0.34695435
744, 57712691, -0.5913202166557312, -0.6988323926925659, 17.624046325683594, -0.0026091365, 0.0013729773, 0.34321976
745, 57729358, -0.5906652808189392, -0.6983433961868286, 17.625307083129883, 0.0148006575, 0.0017247901, 0.34940338
746, 57746025, -0.5899457335472107, -0.6977187991142273, 17.62596321105957, 0.001124354, -0.010079449, 0.35118103
747, 57762692, -0.5902516841888428, -0.6992088556289673, 17.625865936279297, 0.0063373395, 0.0018666335, 0.3463173
748, 57779359, -0.5902941823005676, -0.7000818848609924, 17.627178192138672, -0.0018726265, -0.0109383995, 0.34986973
749, 57796026, -0.5905442833900452, -0.7016969919204712, 17.627479553222656, 0.0034220952, -0.0043243296, 0.35417175
750, 57812693, -0.591320276260376, -0.7021487355232239, 17.627004623413086, 0.002276214, 0.011077962, 0.3504057
751, 57829360, -0.5918639302253723, -0.70262610912323, 17.62740135192871, -7.2231004E-4, -0.0017806928, 0.34090042
752, 57846027, -0.5903940796852112, -0.6914201378822327, 17.62945556640625, 0.017784122, -0.0038078574, 0.35354614
753, 57862694, -0.6012523770332336, -0.6468133330345154, 17.652372360229492, 0.08991978, 0.03846976, 0.34337425
754, 57879361, -0.6305075883865356, -0.5909790396690369, 17.929384231567383, 0.31470814, 0.16649678, 0.34307957
755, 57896028, -0.6375007033348083, -0.609833836555481, 18.39501190185547, 0.38815394, 0.34082982, 0.33216286
756, 57912695, -0.6398489475250244, -0.6181079745292664, 18.76197624206543, -0.061650425, -0.17181109, 0.320302
757, 57929362, -0.6457399725914001, -0.6342968344688416, 18.83950424194336, -0.4784212, -0.17128673, 0.35504436
758, 57946029, -0.6497906446456909, -0.6442389488220215, 18.841320037841797, 0.10864853, 0.1393221, 0.3396654
759, 57962696, -0.6401457190513611, -0.6596646904945374, 18.83048439025879, 0.21628393, 0.0877855, 0.3105688
760, 57979363, -0.6257372498512268, -0.6577320694923401, 18.758272171020508, 0.012629942, -0.18517894, 0.34424305
761, 57996030, -0.6037861704826355, -0.6716738343238831, 18.61678123474121, 0.3299341, -0.02033429, 0.33063984
762, 58012697, -0.6020073294639587, -0.6881507039070129, 18.49827003479004, -0.15336664, 9.685061E-4, 0.3339157
763, 58029364, -0.6023702025413513, -0.7043859958648682, 18.420360565185547, -0.17419682, 0.059155457, 0.33745098
764, 58046031, -0.6052665710449219, -0.7247196435928345, 18.319185256958008, -0.08898443, 0.025354331, 0.3207655
765, 58062698, -0.6013652086257935, -0.7479580640792847, 18.184829711914062, 0.009799834, -0.040783484, 0.34859467
766, 58079365, -0.5951870083808899, -0.7547809481620789, 18.032546997070312, -0.015703842, -0.030132033, 0.34268284
767, 58096032, -0.5839343070983887, -0.7555106282234192, 17.887704849243164, 0.2342382, -0.014347164, 0.33760834
768, 58112699, -0.5726587772369385, -0.7581737637519836, 17.689821243286133, 0.14042297, -0.053941816, 0.34530354
769, 58129366, -0.5638739466667175, -0.7876697778701782, 17.441696166992188, 0.046801616, -0.09974031, 0.34825802
770, 58146033, -0.5602145195007324, -0.8127332925796509, 17.21065330505371, 0.016699372, 0.08346393, 0.31447315
771, 58162700, -0.5628264546394348, -0.8023480176925659, 17.15149688720703, -0.10096841, 0.19082525, 0.31680965
772, 58179367, -0.5632626414299011, -0.7856190204620361, 17.202056884765625, 0.11446689, 0.09011113, 0.3304081
773, 58196034, -0.5596809387207031, -0.7757190465927124, 17.20867156982422, -0.10746526, -0.046404906, 0.35382366
774, 58212701, -0.5569083094596863, -0.7812254428863525, 17.15409278869629, -0.09112162, -0.021820951, 0.3408594
775, 58229368, -0.546040415763855, -0.8048803806304932, 17.071958541870117, 8.754723E-5, -0.021164062, 0.33616543
776, 58246035, -0.5394965410232544, -0.807149350643158, 16.99607276916504, 0.2659566, 0.14026353, 0.30434322
777, 58262702, -0.5310767889022827, -0.7757136225700378, 17.012683868408203, 0.8533624, 0.054450832, 0.38852978
778, 58279369, -0.5331066846847534, -0.790671706199646, 16.998916625976562, -0.6112714, -0.17445365, 0.30029583
779, 58296036, -0.5390153527259827, -0.7986839413642883, 16.93118667602539, -0.20747434, 0.07032984, 0.35749722
780, 58312703, -0.5308111310005188, -0.7917219400405884, 16.897218704223633, 0.120705046, 0.012563057, 0.336195
781, 58329370, -0.5209678411483765, -0.7609107494354248, 17.014015197753906, 0.5015333, 0.20587799, 0.36608315
782, 58346037, -0.5109167695045471, -0.7328246831893921, 17.174726486206055, -0.0790071, -0.06903787, 0.3599682
783, 58362704, -0.5077931880950928, -0.7199053168296814, 17.2785587310791, 0.24338178, -0.009972495, 0.3571701
784, 58379371, -0.508334755897522, -0.7260961532592773, 17.363529205322266, 0.24763769, -0.10081496, 0.29604435
785, 58396038, -0.50532066822052, -0.7233497500419617, 17.45502281188965, 0.009657401, -0.10209155, 0.3881445
786, 58412705, -0.49296489357948303, -0.7130758166313171, 17.4676456451416, -0.1706556, -0.102433704, 0.32493782
787, 58429372, -0.4778430759906769, -0.6794140934944153, 17.42108726501465, -0.075851694, -0.07476628, 0.33272743
788, 58446039, -0.4502984285354614, -0.6270360350608826, 17.465505599975586, 0.26766422, -0.42781445, 0.3404789
789, 58462706, -0.4016847610473633, -0.3761219084262848, 17.484619140625, -0.78159744, -0.11190264, 0.56659126
790, 58479373, -0.31544414162635803, 0.3446061909198761, 16.94521713256836, -0.9151285, -0.15950237, 1.2275286
791, 58496040, -0.5107895731925964, 1.3256518840789795, 15.858582496643066, 0.3013754, 0.34393838, 1.5331631
792, 58512707, -0.427901029586792, 1.8983608484268188, 15.421528816223145, 0.45508155, 2.14398, 1.7437944
793, 58529374, -0.08800282329320908, 1.8157172203063965, 15.490904808044434, 0.61154544, -0.10747772, 0.8346138
794, 58546041, 0.13967472314834595, 1.7586346864700317, 15.34012222290039, 0.66405785, -0.23024176, 0.10321808
795, 58562708, 0.2867337167263031, 1.406130313873291, 15.433650970458984, 0.9234622, -0.28468508, -0.3328476
796, 58579375, 0.22546708583831787, 1.0225791931152344, 15.611498832702637, 0.40025732, -0.8171138, -1.0419273
797, 58596042, -0.018380215391516685, 0.691233217716217, 15.81778621673584, -0.030719599, -0.49268705, -0.87554455
798, 58612709, -0.31542500853538513, 0.5749949812889099, 15.902456283569336, -0.29438946, -0.19800939, -0.5253124
799, 58629376, -0.5523680448532104, 0.6079901456832886, 15.94432544708252, -0.20919372, 0.31135473, 0.18277645
800, 58646043, -0.6775159239768982, 0.4648185968399048, 16.157745361328125, -0.05754957, 0.6660922, 0.800539
801, 58662710, -0.6696059107780457, 0.07186499238014221, 16.552305221557617, 0.03479942, 0.42982677, 0.5424528
802, 58679377, -0.5753476023674011, -0.33426007628440857, 16.893312454223633, -0.05982649, -0.27010053, -0.020106316
803, 58696044, -0.5095391869544983, -0.5619663596153259, 17.041467666625977, 0.018081468, -0.53747565, -0.39578915
804, 58712711, -0.548689603805542, -0.7554000616073608, 17.089773178100586, 0.41177154, -0.29067656, -0.10279369
805, 58729378, -0.6813353300094604, -1.141938328742981, 17.179349899291992, 0.4808771, -0.20667085, 0.0629406
806, 58746045, -0.815590500831604, -1.4711296558380127, 17.23430633544922, -0.30835953, 0.042616613, 0.17441273
807, 58762712, -0.8489965796470642, -1.652762770652771, 17.361825942993164, -0.8061598, 0.69974405, 0.6831465
808, 58779379, -0.7774686813354492, -1.8397746086120605, 17.602203369140625, -0.5375452, 0.39256123, 0.90250015
809, 58796046, -0.6499729752540588, -1.9340158700942993, 17.804933547973633, -0.22677416, 0.047357358, 0.5997696
810, 58812713, -0.489591121673584, -1.9525792598724365, 17.898643493652344, -0.00501605, -0.0144995265, 0.4552536
811, 58829380, -0.33506515622138977, -1.9290714263916016, 17.949939727783203, 0.14125009, -0.24798715, 0.10711861
812, 58846047, -0.24262621998786926, -1.8769612312316895, 17.958646774291992, 0.41501758, -0.28220618, 0.22920418
813, 58862714, -0.2551891505718231, -1.9045263528823853, 18.001203536987305, 0.52300704, -0.27837652, 0.5015516
814, 58879381, -0.3135990500450134, -1.9938780069351196, 18.052536010742188, 0.17532785, -0.0057542766, 0.5157337
815, 58896048, -0.3241281509399414, -2.123513698577881, 18.174583435058594, -0.14902782, 0.3603709, 0.49502945
816, 58912715, -0.22994042932987213, -2.116467237472534, 18.271053314208984, 0.1089785, 0.26507458, 0.43748474
817, 58929382, -0.026857594028115273, -1.9088722467422485, 18.305665969848633, -0.011197468, 0.08863589, 0.35836792
818, 58946049, 0.2018752098083496, -1.6284631490707397, 18.214889526367188, 0.085817575, -0.11431871, 0.2563982
819, 58962716, 0.3458356261253357, -1.4503086805343628, 18.11876678466797, 0.4715297, -0.22952123, 0.14619827
820, 58979383, 0.3719286322593689, -1.3767532110214233, 18.0394287109375, 0.3927189, -0.16491267, 0.1543951
821, 58996050, 0.37203776836395264, -1.2948131561279297, 17.94718360900879, 0.49875727, -0.14157408, 0.27319622
822, 59012717, 0.39293479919433594, -1.191202998161316, 17.842517852783203, 0.5264691, -0.056228172, 0.46708298
823, 59029384, 0.40926095843315125, -1.164283275604248, 17.75824546813965, 0.49511662, -0.20771578, 0.5770159
824, 59046051, 0.3531726896762848, -1.253713846206665, 17.68821907043457, 0.14917609, 0.0069660256, 0.77233696
825, 59062718, 0.25940102338790894, -1.429121494293213, 17.70769500732422, -0.38023797, 0.2591729, 0.6829262
826, 59079385, 0.21462464332580566, -1.5149627923965454, 17.66805648803711, -0.47474426, 0.18026172, 0.5218582
827, 59096052, 0.26032471656799316, -1.4529719352722168, 17.526823043823242, -0.20930137, 0.25798553, 0.41828442
828, 59112719, 0.4060487151145935, -1.2986382246017456, 17.312480926513672, 0.092110105, 0.14838108, 0.27559662
829, 59129386, 0.5716310739517212, -1.1320146322250366, 17.061580657958984, 0.24036226, -0.033707477, -0.020840645
830, 59146053, 0.6214362382888794, -1.1203423738479614, 16.910400390625, 0.27136084, -0.3127354, -0.26698017
831, 59162720, 0.5214516520500183, -1.1681307554244995, 16.850961685180664, -0.033102974, -0.15535617, -0.06775284
832, 59179387, 0.3898369073867798, -1.2030686140060425, 16.827171325683594, -0.3482866, 0.26870146, 0.5690346
833, 59196054, 0.3535897731781006, -1.2351582050323486, 16.864805221557617, -0.33991978, 0.5027442, 0.96350574
834, 59212721, 0.4554680287837982, -1.2664891481399536, 16.920928955078125, -0.14120282, 0.2355844, 0.75920105
835, 59229388, 0.6620210409164429, -1.1824654340744019, 16.869037628173828, -0.10277992, 0.049605403, 0.32343388
836, 59246055, 0.9227958917617798, -1.0031691789627075, 16.736913681030273, -0.12860069, 0.11174093, 0.22381306
837, 59262722, 1.153436303138733, -0.8921899199485779, 16.6824951171875, 0.22707894, -0.16666557, -0.016905785
838, 59279389, 1.2157280445098877, -0.9289003014564514, 16.734140396118164, 0.3542055, -0.3797142, -0.09805679
839, 59296056, 1.16573965549469, -1.0228530168533325, 16.80217170715332, 0.16489664, -0.23646128, 0.14493656
840, 59312723, 1.1135674715042114, -1.0888558626174927, 16.81688690185547, -0.027168866, -0.0035472205, 0.5252075
841, 59329390, 1.1421828269958496, -1.0835607051849365, 16.76642417907715, -0.19783665, 0.14891134, 0.8346567
842, 59346057, 1.2758616209030151, -0.9144560694694519, 16.5747127532959, -0.3109471, 0.0021679848, 0.4129181
843, 59362724, 1.4103367328643799, -0.6739501357078552, 16.3387508392334, 0.21210282, -0.13408177, -0.04472351
844, 59379391, 1.4551626443862915, -0.5072342157363892, 16.18153190612793, 0.24704635, -0.21688199, -0.11492252
845, 59396058, 1.4067306518554688, -0.4390527904033661, 16.09724998474121, 0.23165633, -0.1799694, 0.043452263
846, 59412725, 1.3315863609313965, -0.44447922706604004, 16.07565689086914, 0.12951559, -0.09475771, 0.34050274
847, 59429392, 1.2821099758148193, -0.4667126536369324, 16.065715789794922, 0.23214561, 0.045663796, 0.590374
848, 59446059, 1.232374906539917, -0.5970838665962219, 16.123865127563477, 0.107490644, -0.030672878, 0.6007824
849, 59462726, 1.2032253742218018, -0.6989414691925049, 16.10858726501465, -0.15813659, -0.10548145, 0.5975256
850, 59479393, 1.1862808465957642, -0.7136226296424866, 15.999822616577148, -0.3570518, 0.015163321, 0.48809624
851, 59496060, 1.172080159187317, -0.7142589688301086, 15.891657829284668, -0.1805107, 0.102900304, 0.42261505
852, 59512727, 1.1697108745574951, -0.7082301378250122, 15.790022850036621, -0.27026695, 0.12102658, 0.26368618
853, 59529394, 1.202353596687317, -0.6642938256263733, 15.70112133026123, -0.26383036, 0.13516329, 0.3176918
854, 59546061, 1.2331135272979736, -0.6221022605895996, 15.656545639038086, -0.17613682, -0.0145147005, 0.38094234
855, 59562728, 1.25746488571167, -0.5445045828819275, 15.612669944763184, -0.0040812804, -0.01318908, 0.5055456
856, 59579395, 1.23689866065979, -0.5016489624977112, 15.582414627075195, 0.033445936, -0.010861913, 0.49607754
857, 59596062, 1.1777327060699463, -0.5590530037879944, 15.595932960510254, -0.10608136, 0.01484147, 0.45055485
858, 59612729, 1.1083019971847534, -0.6138894557952881, 15.599674224853516, -0.20711356, 0.0881267, 0.3803177
859, 59629396, 1.0562846660614014, -0.6334852576255798, 15.596810340881348, -0.23038624, 0.02838136, 0.19282913
860, 59646063, 1.0169498920440674, -0.5799927711486816, 15.577991485595703, -0.051437866, -0.03086864, 0.1260271
861, 59662730, 0.9784969687461853, -0.5180038213729858, 15.557247161865234, 0.27741525, -0.08924239, 0.2115593
862, 59679397, 0.9093506932258606, -0.4794439673423767, 15.526591300964355, 0.20036528, -0.11356107, 0.270957
863, 59696064, 0.8212276101112366, -0.4535003900527954, 15.498988151550293, -0.015842706, 0.015381086, 0.38099957
864, 59712731, 0.7303852438926697, -0.43794411420822144, 15.500752449035645, -0.003595667, 0.058075685, 0.56496906
865, 59729398, 0.655515193939209, -0.40273037552833557, 15.500797271728516, -0.022118924, 0.040358588, 0.66757584
866, 59746065, 0.6205679178237915, -0.30635640025138855, 15.451778411865234, -0.0058405106, -0.043644454, 0.46015835
867, 59762732, 0.6136177182197571, -0.1256370097398758, 15.32852554321289, 0.13077772, -0.060006462, 0.18149948
868, 59779399, 0.5968126058578491, 0.05439544841647148, 15.214447975158691, 0.26517966, -0.076015264, 0.04747677
869, 59796066, 0.566052258014679, 0.17360056936740875, 15.188003540039062, 0.3824006, 0.0010041809, 0.31384468
870, 59812733, 0.5396571755409241, 0.2609112560749054, 15.203811645507812, 0.35029662, -0.09117254, 0.37065506
871, 59829400, 0.49131232500076294, 0.2926133871078491, 15.230268478393555, 0.43206882, -0.31270865, 0.22058105
872, 59846067, 0.362983375787735, 0.28695765137672424, 15.217253684997559, 0.37608075, -0.37383485, 0.2102747
873, 59862734, 0.19340166449546814, 0.22475777566432953, 15.183882713317871, -0.048684437, 0.04227672, 0.5496988
874, 59879401, 0.10107763856649399, 0.2452331930398941, 15.099661827087402, -0.361592, 0.35815522, 0.57651615
875, 59896068, 0.0880136713385582, 0.3741368353366852, 14.991838455200195, -0.22299922, 0.259003, 0.34602833
876, 59912735, 0.06994671374559402, 0.47282907366752625, 14.939703941345215, -0.02652608, -0.0192634, 0.08018017
877, 59929402, 0.008968188427388668, 0.5114212036132812, 14.920546531677246, 0.21274737, -0.17045434, 0.060138702
878, 59946069, -0.0657893717288971, 0.5124204754829407, 14.89950942993164, 0.17053592, -0.186178, 0.1486969
879, 59962736, -0.08941163122653961, 0.5693807005882263, 14.804974555969238, 0.042174377, 0.041716468, 0.36985207
880, 59979403, -0.028927825391292572, 0.6525581479072571, 14.684869766235352, -0.27493083, 0.13793816, 0.3054247
881, 59996070, 0.08530399948358536, 0.8154205679893494, 14.527165412902832, -0.53020394, 0.13779236, 0.235816
882, 60012737, 0.19489267468452454, 1.0193274021148682, 14.371817588806152, -0.33332404, 0.020440444, 0.2191658
883, 60029404, 0.1965169459581375, 1.1443835496902466, 14.261474609375, 0.14693052, -0.143886, 0.19017506
884, 60046071, 0.10696175694465637, 1.1084548234939575, 14.276394844055176, 0.16686241, 0.0015050354, 0.39295387
885, 60062738, 0.04733068123459816, 1.1029702425003052, 14.263662338256836, 0.02360915, 0.24328884, 0.5627079
886, 60079405, 0.08416523784399033, 1.1894288063049316, 14.17789077758789, 0.06899528, 0.15585187, 0.5183306
887, 60096072, 0.12064839899539948, 1.2307376861572266, 14.088462829589844, 0.4429121, -0.18063407, 0.25008583
888, 60112739, 0.05873292312026024, 1.1795637607574463, 14.028270721435547, 0.27763408, -0.25826836, 0.30458832
889, 60129406, -0.06554795056581497, 1.126965045928955, 13.985008239746094, -0.02854433, 0.040888995, 0.6335354
890, 60146073, -0.17785221338272095, 1.1226013898849487, 13.91754150390625, -0.17125143, 0.1978371, 0.7238741
891, 60162740, -0.24007567763328552, 1.1633069515228271, 13.837339401245117, -0.23300809, 0.25385082, 0.50452614
892, 60179407, -0.2731730043888092, 1.2003939151763916, 13.795979499816895, -0.26906988, 0.17963241, 0.15458679
893, 60196074, -0.2988543212413788, 1.2488874197006226, 13.811653137207031, -0.19113491, 0.11631511, 0.11308575
894, 60212741, -0.30534303188323975, 1.340431809425354, 13.804750442504883, 0.28983554, 0.0017956682, 0.27771282
895, 60229408, -0.3663293421268463, 1.3154674768447876, 13.821979522705078, 0.5353866, -0.27918875, 0.04497814
896, 60246075, -0.5310586094856262, 1.1694735288619995, 13.884805679321289, 0.22699538, -0.22324504, -0.13887024
897, 60262742, -0.7600556015968323, 1.0198997259140015, 13.967720031738281, -0.24296719, -0.008385351, 0.23155022
898, 60279409, -0.9726026058197021, 0.8959545493125916, 14.054433822631836, -0.25298283, 0.18704921, 0.78189373
899, 60296076, -1.1291568279266357, 0.8126002550125122, 14.130250930786133, -0.22176905, 0.23324245, 0.7989397
900, 60312743, -1.2340196371078491, 0.7555847764015198, 14.183380126953125, -0.2401228, 0.19570255, 0.4446659
901, 60329410, -1.3072212934494019, 0.718451201915741, 14.25571346282959, -0.20178191, 0.123915404, 0.03995514
902, 60346077, -1.3965026140213013, 0.7461255788803101, 14.326622009277344, -0.13327236, -0.092323005, 0.0034303665
903, 60362744, -1.5382747650146484, 0.7981378436088562, 14.393899917602539, 0.16812415, -0.3596585, 0.12100887
904, 60379411, -1.727851390838623, 0.7855888605117798, 14.449989318847656, 0.525001, -0.36145353, 0.40569496
905, 60396078, -1.8850570917129517, 0.7121018767356873, 14.434566497802734, 0.30149272, -0.20532154, 0.5392494
906, 60412745, -1.9448026418685913, 0.6845409274101257, 14.317878723144531, -0.072621144, 0.043731917, 0.45552444
907, 60429412, -1.9505304098129272, 0.6498771905899048, 14.235651016235352, -0.33494684, 0.17809062, 0.5131655
908, 60446079, -1.9681878089904785, 0.5181640982627869, 14.25523853302002, -0.13415124, 0.0066495524, 0.36475563
909, 60462746, -2.063077688217163, 0.2929418683052063, 14.381410598754883, -0.13895622, -0.25510946, 0.0043992996
910, 60479413, -2.181502342224121, 0.11762520670890808, 14.455690383911133, -0.2900785, -0.016052812, 0.20489502
911, 60496080, -2.226698160171509, 0.044191863387823105, 14.467870712280273, -0.3121557, 0.034956645, 0.3483429
912, 60512747, -2.256716728210449, -0.03769272193312645, 14.490955352783203, 0.12613465, -0.1463802, 0.46495533
913, 60529414, -2.3355095386505127, -0.22719493508338928, 14.57491397857666, 0.06290324, -0.32884738, 0.38422775
914, 60546081, -2.449070930480957, -0.378153532743454, 14.618952751159668, -0.42352813, -0.09366304, 0.32918835
915, 60562748, -2.534846067428589, -0.4839078485965729, 14.649308204650879, -0.49709964, 0.094282374, 0.31588554
916, 60579415, -2.6252248287200928, -0.5750349164009094, 14.6963472366333, -0.49327448, 0.0053020767, 0.18101215
917, 60596082, -2.682483673095703, -0.6524481177330017, 14.765656471252441, -0.4661341, 0.026859831, 0.4308834
918, 60612749, -2.67069673538208, -0.7038619518280029, 14.81644058227539, -0.0744318, -0.14944421, 0.6166353
919, 60629416, -2.634600877761841, -0.7999550700187683, 14.890625, 0.19098508, -0.22926399, 0.46032715
920, 60646083, -2.610698938369751, -0.8905158042907715, 14.953883171081543, -0.05812913, -0.115923345, 0.38749504
921, 60662750, -2.5983879566192627, -1.0394233465194702, 15.18015193939209, -0.1987947, 0.1785597, 0.4500761
922, 60679417, -2.549858331680298, -1.324466586112976, 15.6025972366333, -0.051306646, -0.015581242, 0.37453747
923, 60696084, -2.5114786624908447, -1.5959866046905518, 16.01252555847168, -0.23947395, -0.25843033, 0.08728123
924, 60712751, -2.4564719200134277, -1.7513806819915771, 16.26801109313965, -0.41205707, -0.1843653, 0.13440418
925, 60729418, -2.3791251182556152, -1.741926670074463, 16.376604080200195, 0.038157698, -0.21707037, 0.24729633
926, 60746085, -2.279928684234619, -1.6762489080429077, 16.387178421020508, -0.17416519, 0.070799276, 0.27855015
927, 60762752, -2.1622331142425537, -1.5576454401016235, 16.342727661132812, -0.23292254, 0.04170848, 0.2140665
928, 60779419, -2.056532382965088, -1.425635814666748, 16.237390518188477, 0.06796025, -0.07204236, 0.42407322
929, 60796086, -1.9038426876068115, -1.4413225650787354, 16.29558753967285, 0.50499785, 0.06173103, 0.74296284
930, 60812753, -1.8428308963775635, -1.579278588294983, 16.522808074951172, 0.06524033, 0.102414064, 0.38671494
931, 60829420, -1.7580878734588623, -1.6958144903182983, 16.688140869140625, -0.19333637, -0.08671623, -0.046801567
932, 60846087, -1.521559715270996, -1.7260029315948486, 16.700712203979492, -0.35661045, 0.12537535, -0.03608799
933, 60862754, -1.0765262842178345, -1.7118189334869385, 16.579662322998047, -0.35839617, -0.0024851707, 0.2244463
934, 60879421, -0.5077845454216003, -1.662024974822998, 16.37833595275879, -0.04372661, -0.030364068, 0.48844242
935, 60896088, -0.03388151898980141, -1.6424111127853394, 16.14472007751465, 0.24077396, 0.011424669, 0.7322397
936, 60912755, 0.16285178065299988, -1.7226742506027222, 16.022634506225586, 0.11709583, -0.050836414, 0.53557014
937, 60929422, 0.1340734213590622, -1.8226714134216309, 16.0452938079834, 0.034140807, 0.04510007, 0.42850304
938, 60946089, 0.08322194963693619, -1.9173030853271484, 16.238887786865234, 0.15257232, -0.07898676, 0.34738255
939, 60962756, -0.025153623893857002, -2.0179946422576904, 16.485490798950195, 0.011917418, -0.019829186, 0.32802773
940, 60979423, -0.09458799660205841, -2.1048882007598877, 16.63896942138672, -0.6185962, 0.055031404, 0.2446003
941, 60996090, -0.12957239151000977, -2.18404221534729, 16.74609375, -0.59331805, 0.06303405, 0.19907856
942, 61012757, -0.16342492401599884, -2.32450532913208, 16.745948791503906, -0.5088431, -0.15964131, 0.33548164
943, 61029424, -0.17364650964736938, -2.48887300491333, 16.721294403076172, -0.12463194, -0.17637073, 0.4004364
944, 61046091, -0.17117859423160553, -2.6056296825408936, 16.636829376220703, -0.2752018, -0.25138292, 0.3153696
945, 61062758, -0.16844788193702698, -2.6708388328552246, 16.574548721313477, -0.10879574, -0.099895746, 0.37609673
946, 61079425, -0.1445319503545761, -2.7302653789520264, 16.537195205688477, -0.07287907, -0.057062656, 0.28728676
947, 61096092, -0.045448608696460724, -2.763883352279663, 16.46668815612793, 0.0033631716, -0.13965209, 0.23499203
948, 61112759, 0.10184592008590698, -2.7776365280151367, 16.345853805541992, -0.03610015, -0.051339235, 0.30679512
949, 61129426, 0.21347439289093018, -2.788736581802368, 16.243911743164062, -0.035032358, 0.0127540575, 0.41182518
950, 61146093, 0.23888450860977173, -2.7937870025634766, 16.22635841369629, -0.1419818, 0.0067491485, 0.43783474
951, 61162760, 0.23239833116531372, -2.7889058589935303, 16.292072296142578, -0.032369092, 0.033119813, 0.3364935
952, 61179427, 0.2262631505727768, -2.8152334690093994, 16.40004539489746, 0.023628728, -0.031646416, 0.2468338
953, 61196094, 0.19426901638507843, -2.8175997734069824, 16.526596069335938, 0.07207452, 0.06725486, 0.33404732
954, 61212761, 0.1777666211128235, -2.7991085052490234, 16.589618682861328, 0.17820017, 0.04249709, 0.35723114
955, 61229428, 0.17269903421401978, -2.7822265625, 16.630508422851562, 0.02178022, -0.03174095, 0.36273575
956, 61246095, 0.21019496023654938, -2.7633886337280273, 16.671077728271484, 2.7592675E-4, -0.03178622, 0.3852024
957, 61262762, 0.19643819332122803, -2.7952380180358887, 16.731157302856445, -0.07844085, -0.0025876025, 0.40454006
958, 61279429, 0.13347232341766357, -2.852799654006958, 16.883466720581055, -0.06481525, -0.06473201, 0.32557964
959, 61296096, 0.09218214452266693, -2.8847227096557617, 17.01325798034668, 0.06609577, -0.011153527, 0.2826023
960, 61312763, 0.11155308037996292, -2.8885390758514404, 17.039175033569336, 0.045613855, 0.04855604, 0.34472752
961, 61329430, 0.12174735218286514, -2.8856213092803955, 17.033723831176758, -0.017075747, 0.0042871567, 0.35078335
962, 61346097, 0.10607688874006271, -2.896254777908325, 17.025291442871094, -0.028613038, -0.0028627506, 0.37858963
963, 61362764, 0.024206385016441345, -2.9521944522857666, 17.01685333251953, -0.06037353, 0.03847461, 0.42408752
964, 61379431, -0.04488470032811165, -3.018636703491211, 17.01300621032715, 0.040658824, -0.08480473, 0.2446661
965, 61396098, -0.0771588534116745, -3.082240104675293, 17.004026412963867, -0.047071103, -0.024485474, 0.40200615
966, 61412765, -0.08028943091630936, -3.107048988342285, 16.99163055419922, 0.04622136, -0.0016716429, 0.20615101
967, 61429432, 0.05096995830535889, -2.9619157314300537, 16.999460220336914, -0.11343344, -0.12016526, 0.4662161
968, 61446099, 0.020050039514899254, -2.9834678173065186, 17.000953674316406, 0.10968834, 0.073020354, 0.17276287
969, 61462766, 0.019890349358320236, -2.9779953956604004, 17.00209617614746, -0.064947404, -0.022515194, 0.4024582
970, 61479433, 0.020661426708102226, -2.9788706302642822, 17.002870559692383, -0.02574432, 0.0094908215, 0.34761715
971, 61496100, 0.016727404668927193, -2.9791972637176514, 17.000720977783203, -0.009170233, -0.022439463, 0.35015965
972, 61512767, 0.015051823109388351, -2.978996992111206, 17.001190185546875, -0.015949437, -0.008212261, 0.3546028
973, 61529434, 0.015086940489709377, -2.9797561168670654, 17.001543045043945, -0.012509881, -0.020660114, 0.35237694
974, 61546101, 0.01587529666721821, -2.980410099029541, 17.001373291015625, -0.0145000955, -0.018263098, 0.33223152
975, 61562768, 0.01679341122508049, -2.9784951210021973, 17.003231048583984, -0.016417697, -0.01695051, 0.34815884
976, 61579435, 0.017502162605524063, -2.977987766265869, 17.002973556518555, 0.0011837526, -0.016530354, 0.3277359
977, 61596102, 0.017672834917902946, -2.978471040725708, 17.002395629882812, -0.019338118, -0.025335304, 0.33112907
978, 61612769, 0.016126122325658798, -2.97699236869812, 17.00157928466797, -0.020504212, -0.014637775, 0.34034538
979, 61629436, 0.016661277040839195, -2.976884365081787, 17.001361846923828, -0.02017266, -0.0024161926, 0.33571053
980, 61646103, 0.018634788691997528, -2.9764294624328613, 17.000036239624023, -0.018944455, -0.011567546, 0.33664417
981, 61662770, 0.0218648724257946, -2.975649356842041, 16.999757766723633, 9.0955803E-4, -0.023301303, 0.3195362
982, 61679437, 0.02756817452609539, -2.973902702331543, 16.999624252319336, -0.0051391777, -0.017489998, 0.347044
983, 61696104, 0.034441228955984116, -2.9709548950195312, 16.998924255371094, -0.019940848, -0.018264476, 0.32880783
984, 61712771, 0.03981383517384529, -2.969153881072998, 16.996034622192383, -0.026137605, -0.015557375, 0.35762405
985, 61729438, 0.03975845128297806, -2.9689128398895264, 16.99375343322754, -0.023784308, -0.020525722, 0.3624735
986, 61746105, 0.03844087943434715, -2.968215227127075, 16.991853713989258, -0.009710465, -0.016533926, 0.3518734
987, 61762772, 0.03980036452412605, -2.9676425457000732, 16.99150276184082, -0.008244191, -0.013765915, 0.33073997
988, 61779439, 0.039894476532936096, -2.9680228233337402, 16.99106216430664, -0.01959186, -0.020734172, 0.34562016
989, 61796106, 0.039820797741413116, -2.9679274559020996, 16.990997314453125, -0.015673595, -0.0018548258, 0.3606224
990, 61812773, 0.039883803576231, -2.967374086380005, 16.990907669067383, -0.010127987, -0.007056681, 0.33452225
991, 61829440, 0.04024664685130119, -2.9677882194519043, 16.990360260009766, -0.007794679, -0.013889193, 0.32759285
992, 61846107, 0.040081340819597244, -2.9678962230682373, 16.990283966064453, -0.0043438906, -0.017788233, 0.3571806
993, 61862774, 0.04076226428151131, -2.9674887657165527, 16.98963165283203, -0.017704768, -0.01054488, 0.3490038
994, 61879441, 0.04212610051035881, -2.9678595066070557, 16.990633010864258, -0.0070539573, -0.011339123, 0.3439951
995, 61896108, 0.0412372425198555, -2.9679603576660156, 16.9908504486084, -0.010137319, -0.016216584, 0.3283882
996, 61912775, 0.0407152883708477, -2.9680287837982178, 16.99103546142578, -0.0053512077, -0.005729339, 0.34138298
997, 61929442, 0.040859878063201904, -2.968731164932251, 16.99091148376465, -0.007689069, -0.012868842, 0.32111835
998, 61946109, 0.0407148040831089, -2.9687960147857666, 16.99150276184082, -0.010153243, -0.0197945, 0.33393192
999, 61962776, 0.03927246108651161, -2.9678022861480713, 16.991525650024414, -0.015477685, -0.02478684, 0.3646059
1000, 61979443, 0.03978677839040756, -2.9689371585845947, 16.99081039428711, -0.011968001, -0.005769156, 0.33165932
1001, 61996110, 0.03861993923783302, -2.968841552734375, 16.990795135498047, -0.01617284, -0.008486846, 0.35062122
1002, 62012777, 0.03892034292221069, -2.9688804149627686, 16.990459442138672, -0.015794516, -0.016553186, 0.3129158
1003, 62029444, 0.039522506296634674, -2.9699108600616455, 16.989290237426758, 6.404205E-4, -0.023345966, 0.33267975
1004, 62046111, 0.03834515064954758, -2.9676780700683594, 16.9888858795166, -0.009904027, -0.0062585864, 0.35412598
1005, 62062778, 0.03806282952427864, -2.9683005809783936, 16.987773895263672, -0.009690907, -0.0040901056, 0.3424301
1006, 62079445, 0.03833448141813278, -2.968933582305908, 16.98673439025879, 0.0037367456, -0.025444932, 0.34743786
1007, 62096112, 0.038929734379053116, -2.9685771465301514, 16.986770629882812, -0.008750336, -0.044947255, 0.35672188
1008, 62112779, 0.0394895114004612, -2.9691641330718994, 16.985837936401367, -0.016306918, -0.019304002, 0.3438549
1009, 62129446, 0.0393717959523201, -2.969043254852295, 16.987661361694336, -0.021170672, -0.008263242, 0.3719015
1010, 62146113, 0.03906198963522911, -2.9699103832244873, 16.988880157470703, -0.013907814, -0.020724474, 0.34856415
1011, 62162780, 0.038922082632780075, -2.969259262084961, 16.989173889160156, -0.018247792, -0.03040831, 0.32905388
1012, 62179447, 0.03986385464668274, -2.969680070877075, 16.98862075805664, -0.013590091, -0.020859525, 0.34971237
1013, 62196114, 0.04005122184753418, -2.968991994857788, 16.988555908203125, -0.010501812, -0.014173972, 0.3490095
1014, 62212781, 0.04013550281524658, -2.9695656299591064, 16.988733291625977, 0.011511532, -0.004862825, 0.33612156
1015, 62229448, 0.04022722318768501, -2.9697437286376953, 16.9891414642334, -0.00348412, -0.015364906, 0.35630512
1016, 62246115, 0.04051690176129341, -2.9690356254577637, 16.9876651763916, -0.006130178, -0.004631688, 0.3358755
1017, 62262782, 0.040379367768764496, -2.9683926105499268, 16.987316131591797, -0.002404245, -0.018234711, 0.34545708
1018, 62279449, 0.040461473166942596, -2.9696054458618164, 16.988319396972656, -0.022314388, -0.027283803, 0.35060215
1019, 62296116, 0.041360050439834595, -2.9703001976013184, 16.988733291625977, -0.003529074, -0.01920277, 0.33899498
1020, 62312783, 0.04107314720749855, -2.97067928314209, 16.988922119140625, -0.020691125, -0.008383339, 0.36819553
1021, 62329450, 0.04100045934319496, -2.970212697982788, 16.988983154296875, -0.018902406, -0.012016626, 0.34287167
1022, 62346117, 0.042035382241010666, -2.9698688983917236, 16.989870071411133, -0.031088179, -0.0066683204, 0.35137844
1023, 62362784, 0.0421484112739563, -2.9709019660949707, 16.98973274230957, -0.0023718637, -0.0047528143, 0.33124542
1024, 62379451, 0.04289939999580383, -2.9719324111938477, 16.99012565612793, -0.018738376, -0.02427328, 0.33184433
1025, 62396118, 0.041103992611169815, -2.9737350940704346, 16.98942756652832, -0.018578257, -0.014106087, 0.32237625
1026, 62412785, 0.04055485874414444, -2.9740371704101562, 16.989368438720703, -0.01830669, -0.02039909, 0.34160423
1027, 62429452, 0.041782446205616, -2.9758994579315186, 16.988914489746094, -0.015616934, -0.0155906, 0.33702183
1028, 62446119, 0.040749065577983856, -2.9755709171295166, 16.988908767700195, -0.017304989, -0.028220892, 0.34681225
1029, 62462786, 0.040120095014572144, -2.975785493850708, 16.989974975585938, -0.012806146, -0.012743266, 0.32524395
1030, 62479453, 0.04018527641892433, -2.9763922691345215, 16.989408493041992, -0.01710785, -0.017676588, 0.33453655
1031, 62496120, 0.04089100658893585, -2.9748668670654297, 16.98922348022461, -0.021977777, -0.013663131, 0.34244633
1032, 62512787, 0.041184697300195694, -2.975508689880371, 16.98801612854004, -0.010304366, -0.020945607, 0.34998226
1033, 62529454, 0.04134174436330795, -2.9761714935302734, 16.98922348022461, -0.022686621, -0.028826088, 0.34087467
1034, 62546121, 0.04171549156308174, -2.9771311283111572, 16.990665435791016, -0.008484496, -0.0071947565, 0.34573364
1035, 62562788, 0.0405677929520607, -2.976187229156494, 16.990222930908203, -0.009403106, -0.015899578, 0.34147263
1036, 62579455, 0.041533369570970535, -2.9763987064361572, 16.990863800048828, -0.01190145, -0.028107433, 0.32749557
1037, 62596122, 0.042063158005476, -2.9762589931488037, 16.989931106567383, -0.0210331, -0.014762727, 0.33426476
1038, 62612789, 0.0424361377954483, -2.9761273860931396, 16.99036979675293, -0.015305776, -0.015237476, 0.33868313
1039, 62629456, 0.04284560680389404, -2.975748062133789, 16.990755081176758, -0.013228474, -0.026159165, 0.32400417
1040, 62646123, 0.04325257986783981, -2.9747140407562256, 16.990209579467773, -0.025978394, -0.017941836, 0.32519245
1041, 62662790, 0.042624689638614655, -2.975679636001587, 16.990158081054688, -0.010041823, -0.015319681, 0.3589716
1042, 62679457, 0.042240291833877563, -2.9773902893066406, 16.989473342895508, -0.011552686, -0.02728622, 0.34347534
1043, 62696124, 0.042727384716272354, -2.9773645401000977, 16.988624572753906, -0.012761248, -0.024408882, 0.32339382
1044, 62712791, 0.04194197058677673, -2.976510763168335, 16.988771438598633, -0.00589141, -0.018672373, 0.3294754
1045, 62729458, 0.042694494128227234, -2.9764654636383057, 16.98904037475586, -0.005989784, -0.029502925, 0.34484005
1046, 62746125, 0.04252289608120918, -2.975167989730835, 16.98990821838379, -0.009589991, -0.01942829, 0.33228588
1047, 62762792, 0.04122390225529671, -2.9760689735412598, 16.989290237426758, -0.016074829, -0.016688732, 0.33674622
