PacketCounter,SampleTimeFine,Euler_X,Euler_Y,Euler_Z,FreeAcc_X,FreeAcc_Y,FreeAcc_Z
1,400824873,-2.4154269695281982,0.1258090883493423,2.393167495727539,-0.007951232,-0.0111320065,0.33582497
2,400841540,-2.430384397506714,0.1136528402566909,2.271239280700684,-0.01888352,0.0029741472,0.32127666
3,400858207,-2.4327821731567383,0.1165346875786781,2.167618989944458,-0.037385408,0.002409735,0.34585
4,400874874,-2.4336400032043457,0.1362069994211197,2.150581359863281,-0.01116747,0.002982501,0.3382101
5,400891541,-2.433733463287353,0.1392979025840759,2.1095964908599854,-0.006011273,0.0076194867,0.32513905
6,400908208,-2.431812286376953,0.1327059715986251,2.1219675540924072,-0.009168662,0.018302009,0.33563805
7,400924875,-2.4264702796936035,0.1213283315300941,2.170165777206421,-0.03330679,0.011905446,0.35002518
8,400941542,-2.4237923622131348,0.1135529652237892,2.177975416183472,-0.025754672,0.006985814,0.34936428
9,400958209,-2.421952724456787,0.1052830219268798,2.196360349655152,-0.02986363,0.0061720866,0.349123
10,400974876,-2.421825885772705,0.0964289754629135,2.1963977813720703,-0.020999705,0.001534654,0.32674217
11,400991543,-2.422407865524292,0.0870806351304054,2.1973674297332764,-0.018690856,0.009355791,0.32157612
12,401008210,-2.424648761749268,0.0755686536431312,2.2032411098480225,-0.019070104,0.012473853,0.33221436
13,401024877,-2.4249393939971924,0.0622066892683506,2.2189173698425293,-0.025724825,0.006892078,0.36176014
14,401041544,-2.4263625144958496,0.0485279485583305,2.214402198791504,-0.027653025,-0.0009814315,0.32241058
15,401058211,-2.4279465675354004,0.0356869734823703,2.2224106788635254,-0.030509531,0.005447751,0.34797668
16,401074878,-2.431300163269043,0.0218771491199731,2.218472480773926,-0.031985536,-0.0004224255,0.3261099
17,401091545,-2.434641122817993,0.0071771079674363,2.2134249210357666,-0.024489699,0.0027556634,0.34227276
18,401108212,-2.4380125999450684,-0.0071933767758309,2.2207553386688232,-0.045778595,-0.003273375,0.3406601
19,401124879,-2.4413719177246094,-0.0226534567773342,2.2159152030944824,-0.05642028,0.005577696,0.34454727
20,401141546,-2.444533109664917,-0.0383665412664413,2.213167905807495,-0.050302222,0.019705908,0.31825352
21,401158213,-2.4480905532836914,-0.0510371029376983,2.214818239212036,-0.054118913,0.0067981607,0.33653355
22,401174880,-2.4513185024261475,-0.0646501705050468,2.226149320602417,-0.045084428,0.015921624,0.34404278
23,401191547,-2.4546985626220703,-0.079474814236164,2.2337841987609863,-0.05240838,0.0075323586,0.34077072
24,401208214,-2.4583301544189453,-0.0934619158506393,2.242704391479492,-0.040990334,0.012149774,0.33469868
25,401224881,-2.4613873958587646,-0.1079650446772575,2.245765686035156,-0.061540354,0.011753806,0.33959103
26,401241548,-2.464129686355591,-0.1215763837099075,2.243165969848633,-0.06087879,0.014585617,0.3347025
27,401258215,-2.4674746990203857,-0.1363721787929535,2.2521073818206787,-0.062185425,0.008556873,0.35949612
28,401274882,-2.470959186553955,-0.1500166952610016,2.2517693042755127,-0.07316965,0.005418876,0.32215595
29,401291549,-2.473170757293701,-0.1642286032438278,2.2634119987487797,-0.0701216,0.0007630313,0.34256935
30,401308216,-2.4754199981689453,-0.1777914762496948,2.2628393173217773,-0.07327994,0.014614828,0.36539173
31,401324883,-2.476759433746338,-0.1917565613985061,2.2688589096069336,-0.06876977,0.00839829,0.32410622
32,401341550,-2.4796483516693115,-0.2071812450885772,2.265077829360962,-0.07069659,0.0067599537,0.33640862
33,401358217,-2.4824702739715576,-0.2211175709962844,2.265195369720459,-0.08114382,0.019126618,0.33100414
34,401374884,-2.485106945037842,-0.2367103993892669,2.270315408706665,-0.06702972,0.007789608,0.31372452
35,401391551,-2.4885454177856445,-0.2501707375049591,2.276085376739502,-0.07473019,0.033943906,0.33445454
36,401408218,-2.4915342330932617,-0.2648926377296448,2.280649185180664,-0.08570292,0.02218211,0.34342098
37,401424885,-2.4954962730407715,-0.2804131805896759,2.283566236495972,-0.0822947,0.01779145,0.3466959
38,401441552,-2.4988439083099365,-0.2952294051647186,2.289773464202881,-0.097808786,0.021934807,0.3342352
39,401458219,-2.5023980140686035,-0.3099830746650696,2.29128360748291,-0.08567481,-0.00082208065,0.35408974
40,401474886,-2.505723476409912,-0.3248750567436218,2.2881381511688232,-0.10324005,0.009392085,0.33121204
41,401491553,-2.508600234985352,-0.3403569161891937,2.282522201538086,-0.11127689,0.011584383,0.34484768
42,401508220,-2.5122861862182617,-0.3545698523521423,2.2822201251983643,-0.1125722,0.014276136,0.32567406
43,401524887,-2.514966487884521,-0.3684645593166351,2.2884669303894043,-0.11343745,0.02431642,0.34713745
44,401541554,-2.518065452575684,-0.3826581239700317,2.2840776443481445,-0.10665843,0.021805994,0.34789658
45,401558221,-2.5216009616851807,-0.3973464667797088,2.278176784515381,-0.111452974,0.019699384,0.3339262
46,401574888,-2.5243947505950928,-0.4089334607124328,2.283827304840088,-0.11431345,0.01449624,0.33900928
47,401591555,-2.528578758239746,-0.4230229556560516,2.2855875492095947,-0.107652366,0.018939035,0.331707
48,401608222,-2.5317299365997314,-0.4356047213077545,2.29128646850586,-0.12566297,0.017010188,0.3433075
49,401624889,-2.5353286266326904,-0.4491539299488067,2.294250011444092,-0.11454368,0.017617948,0.34001827
50,401641556,-2.539360284805298,-0.4616783261299133,2.3036491870880127,-0.12502517,0.020236738,0.3260603
51,401658223,-2.542616844177246,-0.4754931628704071,2.310749053955078,-0.11873192,0.016921245,0.33912373
52,401674890,-2.5459864139556885,-0.4873396158218384,2.310320854187012,-0.11439263,0.025765847,0.33564854
53,401691557,-2.54866623878479,-0.4998652040958404,2.313697099685669,-0.15075438,0.014537045,0.33781815
54,401708224,-2.5516393184661865,-0.5134731531143188,2.3200783729553223,-0.1384707,0.027449906,0.32738018
55,401724891,-2.554694652557373,-0.526870846748352,2.3202834129333496,-0.1294244,0.017253049,0.3295431
56,401741558,-2.557100296020508,-0.5401125550270081,2.3203673362731934,-0.13609312,0.024086734,0.34524155
57,401758225,-2.5606274604797363,-0.5546090602874756,2.3204407691955566,-0.14620271,0.031424135,0.33005714
58,401774892,-2.5638351440429688,-0.5675632357597351,2.320396423339844,-0.1369204,0.019533832,0.32607746
59,401791559,-2.567605495452881,-0.581209659576416,2.321122407913208,-0.14667569,0.019675035,0.32196426
60,401808226,-2.57018780708313,-0.5953578948974609,2.321121454238892,-0.149643,0.015416346,0.35263634
61,401824893,-2.571908950805664,-0.608263373374939,2.31987738609314,-0.14008617,0.024959147,0.3588133
62,401841560,-2.5743703842163086,-0.6221476793289185,2.3227131366729736,-0.15492924,0.026275191,0.3307066
63,401858227,-2.576815128326416,-0.6342222690582275,2.326075792312622,-0.14624676,0.021658195,0.31507778
64,401874894,-2.5793588161468506,-0.6477965712547302,2.3285932540893555,-0.1512759,0.02912276,0.3482399
65,401891561,-2.582505464553833,-0.659895658493042,2.330467700958252,-0.1596125,0.050843444,0.3258047
66,401908228,-2.5863022804260254,-0.6714663505554199,2.326148271560669,-0.15485805,0.031915832,0.33511734
67,401924895,-2.5900304317474365,-0.6846524477005005,2.322514057159424,-0.15943716,0.038572036,0.35613155
68,401941562,-2.592945098876953,-0.6979684233665466,2.318676710128784,-0.16937314,0.023747036,0.34416962
69,401958229,-2.596376657485962,-0.7104195356369019,2.31845760345459,-0.17095815,0.051590744,0.34202003
70,401974896,-2.599120855331421,-0.7234683036804199,2.3229360580444336,-0.1753539,0.01895095,0.34443092
71,401991563,-2.6017298698425293,-0.7360536456108093,2.3199784755706787,-0.16719529,0.024852797,0.32030964
72,402008230,-2.604464292526245,-0.7482431530952454,2.3235387802124023,-0.17375606,0.0330617,0.3605852
73,402024897,-2.6072709560394287,-0.7607125639915466,2.323072671890259,-0.17344297,0.011043258,0.34834003
74,402041564,-2.610151052474976,-0.7730857729911804,2.317909240722656,-0.19000518,0.027716262,0.33305264
75,402058231,-2.6111900806427,-0.7853676080703735,2.3185155391693115,-0.17321682,0.03947585,0.34112644
76,402074898,-2.614316701889038,-0.7955296039581299,2.3129844665527344,-0.17603746,0.0347395,0.32331276
77,402091565,-2.617526054382324,-0.8077174425125122,2.310561418533325,-0.18771411,0.04908252,0.3309412
78,402108232,-2.6199891567230225,-0.8208942413330078,2.311232566833496,-0.17596826,0.04609062,0.35560513
79,402124899,-2.622258186340332,-0.8327928185462952,2.308201313018799,-0.18127555,0.02940056,0.3390293
80,402141566,-2.6249732971191406,-0.845879852771759,2.307971477508545,-0.19162324,0.04025179,0.35648155
81,402158233,-2.627732515335083,-0.8584707379341125,2.306364059448242,-0.18885596,0.039327312,0.33824062
82,402174900,-2.6301186084747314,-0.8679604530334473,2.307404041290283,-0.19544195,0.048770595,0.35484886
83,402191567,-2.632113218307495,-0.8781328201293945,2.3087379932403564,-0.19238643,0.035595052,0.32517242
84,402208234,-2.635411500930786,-0.8897085189819336,2.306793451309204,-0.20777847,0.030748453,0.32836533
85,402224901,-2.6378564834594727,-0.8998175859451294,2.304464101791382,-0.19361907,0.045478225,0.3555622
86,402241568,-2.639739751815796,-0.9112107157707214,2.29978084564209,-0.20003448,0.033367395,0.33195877
87,402258235,-2.642392635345459,-0.9221745729446412,2.2967329025268555,-0.1952092,0.047372494,0.3327036
88,402274902,-2.6450557708740234,-0.9325607419013976,2.295350313186645,-0.20762864,0.04861369,0.34764957
89,402291569,-2.6475255489349365,-0.9442644715309144,2.294276475906372,-0.20695867,0.037058894,0.35017872
90,402308236,-2.64957594871521,-0.956587553024292,2.292567014694214,-0.21683942,0.044101186,0.3474474
91,402324903,-2.6527867317199707,-0.9665740132331848,2.2883620262146,-0.21902502,0.036935043,0.3516369
92,402341570,-2.6555309295654297,-0.9778578281402588,2.28762435913086,-0.2185978,0.04030926,0.33743572
93,402358237,-2.6578314304351807,-0.988079845905304,2.2896533012390137,-0.21224937,0.04820638,0.33522987
94,402374904,-2.660817623138428,-0.9995027780532836,2.2883124351501465,-0.2235602,0.039718658,0.35442543
95,402391571,-2.662172555923462,-1.0085822343826294,2.2862377166748047,-0.22317816,0.04188662,0.33157063
96,402408238,-2.663740873336792,-1.019316792488098,2.287109851837158,-0.20917664,0.046864044,0.36406994
97,402424905,-2.6656978130340576,-1.028261661529541,2.284383535385132,-0.21202594,0.04274994,0.3399887
98,402441572,-2.6674630641937256,-1.0374528169631958,2.2834677696228027,-0.22835833,0.04512507,0.33158207
99,402458239,-2.6694397926330566,-1.0470346212387085,2.280867099761963,-0.23219095,0.04551312,0.32970047
100,402474906,-2.6707253456115723,-1.055516242980957,2.273538589477539,-0.22249551,0.0458187,0.32898426
101,402491573,-2.6737632751464844,-1.0641438961029053,2.270659923553467,-0.23423126,0.036718316,0.33502674
102,402508240,-2.6751837730407715,-1.0734975337982178,2.269446611404419,-0.22465597,0.03691473,0.33024693
103,402524907,-2.677001714706421,-1.082608938217163,2.268688678741455,-0.23725177,0.052127104,0.34255695
104,402541574,-2.6797666549682617,-1.0920530557632446,2.26689076423645,-0.2323045,0.04144211,0.32065392
105,402558241,-2.6813178062438965,-1.0994700193405151,2.261709213256836,-0.23202349,0.03600928,0.33030796
106,402574908,-2.682613611221313,-1.1080055236816406,2.259692668914795,-0.23188365,0.039869864,0.34834862
107,402591575,-2.6835718154907227,-1.1158640384674072,2.2609972953796387,-0.23917742,0.041857705,0.34357548
108,402608242,-2.686113119125366,-1.1240323781967163,2.257464408874512,-0.23414446,0.03965011,0.33309746
109,402624909,-2.688427448272705,-1.1317710876464844,2.253856420516968,-0.25017455,0.043955162,0.32726765
110,402641576,-2.690884590148926,-1.1391600370407104,2.250875949859619,-0.24380659,0.04158428,0.33378696
111,402658243,-2.69374418258667,-1.1462403535842896,2.2479851245880127,-0.23958999,0.044182714,0.32605267
112,402674910,-2.695503234863281,-1.1554009914398191,2.2508978843688965,-0.22593547,0.048064716,0.34646225
113,402691577,-2.697645664215088,-1.1619619131088257,2.248321771621704,-0.2501106,0.036309037,0.33408546
114,402708244,-2.7000319957733154,-1.1689648628234863,2.2436811923980717,-0.24388666,0.042815026,0.36353683
115,402724911,-2.702340602874756,-1.1760576963424685,2.239556312561035,-0.24996379,0.03522014,0.3316574
116,402741578,-2.703716516494751,-1.1830493211746216,2.236483573913574,-0.25596574,0.055012252,0.3355074
117,402758245,-2.7062671184539795,-1.1879007816314695,2.2332842350006104,-0.25574353,0.02977039,0.34009647
118,402774912,-2.7083065509796143,-1.1943113803863523,2.227902173995972,-0.26575163,0.042186253,0.32807255
119,402791579,-2.709989547729492,-1.2001994848251345,2.221996068954468,-0.2622206,0.06303972,0.33736134
120,402808246,-2.391898393630981,0.2566048800945282,1.8948259353637693,0.006649828,0.006669878,0.34461117
121,402824913,-2.392803192138672,0.2564535737037658,1.8970438241958616,0.0004975695,0.007716198,0.34466648
122,402841580,-2.393625974655152,0.2568338513374328,1.901166558265686,0.008054831,0.0011595573,0.3399582
123,402858247,-2.3933794498443604,0.255563348531723,1.903697371482849,0.0037470707,0.007179194,0.3371544
124,402874914,-2.3933234214782715,0.2553602457046509,1.9053863286972048,0.0059127524,-0.011917655,0.34114933
125,402891581,-2.3936028480529785,0.2548994123935699,1.905793070793152,0.008536993,0.011274971,0.33659935
126,402908248,-2.393893957138061,0.2548262178897857,1.907825589179993,0.008416814,-0.0154655315,0.34283257
127,402924915,-2.394761085510254,0.2544138133525848,1.9096506834030151,0.0073718023,-0.0035481146,0.34099483
128,402941582,-2.3944668769836426,0.2558193206787109,1.9115759134292605,-0.0069845216,0.0011052855,0.34576416
129,402958249,-2.3941266536712646,0.2556411027908325,1.9128022193908687,-0.0012265187,-0.0060292482,0.33441925
130,402974916,-2.393989086151123,0.2559458613395691,1.9143637418746948,0.01122023,-0.01071116,0.31803226
131,402991583,-2.3928468227386475,0.2560276985168457,1.9169002771377563,-0.0029962785,-0.0046978653,0.3414936
132,403008250,-2.3929665088653564,0.2567383944988251,1.9198957681655884,0.012029481,0.009456456,0.34683037
133,403024917,-2.3937137126922607,0.2566441893577575,1.9219670295715328,0.0012831425,-0.000116589945,0.33580875
134,403041584,-2.3954765796661377,0.2572074830532074,1.9244228601455688,0.0026363544,-0.0023241017,0.35034943
135,403058251,-2.3966715335845947,0.2579456865787506,1.9267946481704712,0.015379403,-0.0026550405,0.33065033
136,403074918,-2.397630214691162,0.258037120103836,1.9287511110305784,0.008752619,-0.00067218725,0.33261395
137,403091585,-2.3978042602539062,0.2580863535404205,1.9287805557250977,0.0036895615,0.0048583336,0.3729353
138,403108252,-2.3984134197235107,0.2583740651607513,1.930798053741455,0.00012281863,0.0021700873,0.32340145
139,403124919,-2.3988265991210938,0.2603563964366913,1.9342561960220337,0.0056819576,0.010790102,0.3453722
140,403141586,-2.399113893508911,0.259582370519638,1.9350731372833248,0.0031652246,-0.0001711271,0.33135223
141,403158253,-2.39984130859375,0.2598497271537781,1.9402272701263428,0.0038040455,0.010219962,0.34416962
142,403174920,-2.4002387523651123,0.260652095079422,1.943071246147156,-0.006979267,-0.006226512,0.34387589
143,403191587,-2.399916172027588,0.2602404952049255,1.9449217319488523,0.009332647,-0.005460729,0.32727146
144,403208254,-2.400828123092652,0.2597973048686981,1.9467148780822756,0.00773861,-0.00030211968,0.36427975
145,403224921,-2.4008708000183105,0.2576959431171417,1.949210286140442,0.008714724,0.0053008194,0.33608627
146,403241588,-2.401507616043091,0.2576504647731781,1.9504153728485107,-0.0069721113,-0.0040916144,0.35438251
147,403258255,-2.4017176628112797,0.2574095129966736,1.9523956775665283,0.0002510068,0.0072856285,0.3321905
148,403274922,-2.4009292125701904,0.2567936182022095,1.9536306858062744,-0.0033453847,-0.0029196101,0.32243156
149,403291589,-2.4011566638946533,0.2575436234474182,1.9563086032867432,0.00088857574,0.0029706827,0.3294363
150,403308256,-2.400137424468994,0.2581638395786285,1.9578074216842647,0.0021466778,0.0025982822,0.34375
151,403324923,-2.4006388187408447,0.2585157454013824,1.9603334665298464,-0.0074534793,0.0027772603,0.35739136
152,403341590,-2.4011905193328857,0.2580192983150482,1.960134983062744,0.01704832,0.0026877434,0.32082176
153,403358257,-2.4023244380950928,0.257074624300003,1.9624849557876587,0.002072454,-0.0025230702,0.34529495
154,403374924,-2.402015209197998,0.2581861317157745,1.9647884368896484,0.004100965,0.0022396278,0.34401512
155,403391591,-2.401292085647583,0.2588800191879272,1.966468453407288,-0.0057829106,0.0044319686,0.35661793
156,403408258,-2.400892734527588,0.2605303227901459,1.9691394567489624,0.014860495,0.0039348756,0.35089397
157,403424925,-2.400511741638184,0.2606954574584961,1.969554662704468,0.015022557,-0.01033848,0.32689667
158,403441592,-2.4012575149536133,0.2616201639175415,1.971306324005127,-0.005876873,0.0063662776,0.3529129
159,403458259,-2.401720762252808,0.2610669434070587,1.9721087217330933,-0.0048411824,0.0063887546,0.31906033
160,403474926,-2.4025676250457764,0.2618631720542907,1.974119782447815,0.0048541008,0.008449935,0.35873604
161,403491593,-2.403313636779785,0.2627121210098266,1.975123405456543,0.0029364976,0.012806258,0.34056282
162,403508260,-2.4038102626800537,0.2634612321853637,1.976189374923706,0.008405223,0.004401808,0.3298645
163,403524927,-2.403320789337158,0.2638528943061828,1.977244853973389,0.0022154832,0.00548315,0.34439373
164,403541594,-2.4030916690826416,0.2641501426696777,1.9793380498886108,-0.001128042,0.00555378,0.34127045
165,403558261,-2.4028337001800537,0.2626917958259582,1.9805676937103271,0.002715658,0.0028248685,0.3521986
166,403574928,-2.4031503200531006,0.2632414996623993,1.9827518463134768,0.008060857,-0.002104221,0.33928204
167,403591595,-2.403956890106201,0.2621703445911407,1.982105374336243,-0.0034137762,-0.0028651846,0.33452988
168,403608262,-2.404338121414185,0.2638706862926483,1.9832953214645384,0.016582644,-0.0052605867,0.3086872
169,403624929,-2.4046947956085205,0.2633658945560455,1.983545184135437,0.00022119227,-0.0050414745,0.32499504
170,403641596,-2.404758930206299,0.2638523876667022,1.9846084117889404,0.00078900944,0.010630472,0.35717297
171,403658263,-2.404758214950561,0.2662991881370544,1.985820770263672,0.015048237,0.011116068,0.3412094
172,403674930,-2.404650449752808,0.2662091851234436,1.9875710010528564,0.0016845141,0.0042630625,0.33428955
173,403691597,-2.404916524887085,0.2656886279582977,1.9896069765090945,0.012133661,-0.013996046,0.3445425
174,403708264,-2.4060890674591064,0.2653623819351196,1.9905335903167725,0.004537449,0.005997188,0.34471416
175,403724931,-2.406606435775757,0.2670163512229919,1.9912129640579224,-0.0076043997,0.0060653314,0.35156822
176,403741598,-2.4071741104125977,0.2664890587329864,1.9922711849212649,-0.0024620388,0.00022236745,0.33784103
177,403758265,-2.408066987991333,0.2665202915668487,1.993578314781189,0.01014914,-0.0012853392,0.3560381
178,403774932,-2.408297300338745,0.2661652565002441,1.9927444458007808,0.0044425717,-0.00072993746,0.33701324
179,403791599,-2.4084904193878174,0.2660187482833862,1.9940216541290283,0.008449125,0.0012062854,0.33403873
180,403808266,-2.4088077545166016,0.265536367893219,1.9942395687103271,0.005708772,-3.7298723e-05,0.32663345
181,403824933,-2.408949375152588,0.266034871339798,1.995750308036804,-0.0040724725,0.017745182,0.327137
182,403841600,-2.4104459285736084,0.2655482888221741,1.9970619678497317,0.0028245018,-0.0043026246,0.35408878
183,403858267,-2.409468650817871,0.2651391625404358,1.9972935914993288,0.0056008236,0.004324892,0.32716656
184,403874934,-2.410137414932251,0.2638905644416809,1.995985746383667,0.015112717,-0.0019951744,0.33785534
185,403891601,-2.4093971252441406,0.2635330557823181,1.9972976446151731,-0.0047677495,0.0010010866,0.3599701
186,403908268,-2.409390449523926,0.2638950645923614,1.9961107969284055,0.017141057,0.0021529046,0.35017204
187,403924935,-2.408930778503418,0.26531782746315,1.999109506607056,0.006247038,0.009311396,0.35295105
188,403941602,-2.4097321033477783,0.2662650048732757,2.001138210296631,0.00846739,-0.0024443516,0.3385439
189,403958269,-2.410042285919189,0.266599953174591,2.0014724731445312,5.9877024e-05,0.0065861307,0.3337927
190,403974936,-2.410277366638184,0.2674952149391174,2.00304913520813,0.0023427599,8.4222476e-05,0.33522987
191,403991603,-2.410179615020752,0.2694495618343353,2.003265142440796,0.012402032,-0.0030849536,0.3426838
192,404008270,-2.410358190536499,0.2694693803787231,2.0013201236724854,0.0054643974,0.005482242,0.3360529
193,404024937,-2.410102844238281,0.2689957320690155,2.0026986598968506,0.015675424,-0.013597383,0.35584545
194,404041604,-2.4108214378356934,0.2690854072570801,2.0057764053344727,0.015427618,0.016738396,0.3619461
195,404058271,-2.411222219467163,0.2697965502738952,2.005865812301636,0.0041304217,0.0019661316,0.3392439
196,404074938,-2.4120051860809326,0.2699698507785797,2.006451368331909,0.008831077,-0.009508534,0.3544731
197,404091605,-2.412993192672729,0.2697189748287201,2.0074737071990967,0.0118524,-0.0020143266,0.34544182
198,404108272,-2.4127237796783447,0.2686400115489959,2.0082457065582275,0.018592851,-0.0014358053,0.32327747
199,404124939,-2.413714408874512,0.2675986588001251,2.0101590156555176,0.009700376,0.013666881,0.34125042
200,404141606,-2.4140074253082275,0.2672424912452698,2.012373924255371,0.009239015,0.015088047,0.3349886
201,404158273,-2.413692712783813,0.2675554156303406,2.012943744659424,-0.0074043153,0.008327715,0.34910965
202,404174940,-2.4148318767547607,0.2665005028247833,2.012899398803711,0.0013430597,-0.009268286,0.34141922
203,404191607,-2.416057825088501,0.2673755884170532,2.0137381553649902,0.013123019,-0.006358762,0.3604784
204,404208274,-2.41534161567688,0.2678658962249756,2.016348123550415,0.010105602,0.0061022528,0.3511448
205,404224941,-2.41480565071106,0.2673898637294769,2.0185158252716064,0.013422323,0.009328062,0.36067295
206,404241608,-2.4163296222686768,0.2683908939361572,2.0206425189971924,0.023689141,-0.0022508313,0.35515213
207,404258275,-2.417023181915283,0.2690863609313965,2.021573543548584,0.0010708662,0.01092034,0.3144169
208,404274942,-2.4179413318634038,0.2689549624919891,2.021113872528076,-0.0017272767,0.00026871846,0.33778763
209,404291609,-2.4174392223358154,0.2698180675506592,2.0224947929382324,0.010388817,-0.00020934783,0.31760788
210,404308276,-2.41727066040039,0.2683876156806946,2.023247718811035,0.0017688763,-0.0011442886,0.33229637
211,404324943,-2.417417287826538,0.2676730751991272,2.0243403911590576,0.0075984327,0.0006795213,0.32760143
212,404341610,-2.4175195693969727,0.2675788402557373,2.025675773620605,0.010264856,0.0017593263,0.32545662
213,404358277,-2.417328357696533,0.2666393220424652,2.025575399398804,0.01902384,0.004037594,0.36063862
214,404374944,-2.417513370513916,0.2662056982517242,2.0261569023132324,-0.010638267,-0.00472227,0.3484583
215,404391611,-2.418137550354004,0.2654791176319122,2.0266788005828857,0.017093413,0.0020691294,0.33849335
216,404408278,-2.417997121810913,0.265379399061203,2.026886224746704,0.022481646,0.009681938,0.34400368
217,404424945,-2.4171621799468994,0.2645967304706573,2.02681565284729,-0.009527053,0.0044476283,0.3359251
218,404441612,-2.4180943965911865,0.2648197114467621,2.02710223197937,0.00038240274,0.005712153,0.35092068
219,404458279,-2.4183671474456787,0.2641981542110443,2.027348518371582,0.0030778241,-0.007979245,0.34374905
220,404474946,-2.418763399124145,0.2646684646606445,2.0303914546966557,-0.00046262293,0.009140716,0.3350649
221,404491613,-2.41785740852356,0.2646858096122741,2.031949758529663,0.002372681,0.015147417,0.34178448
222,404508280,-2.418832302093506,0.2652744352817535,2.0329577922821045,0.00661517,0.006955765,0.3282671
223,404524947,-2.41900897026062,0.2645007967948913,2.0335781574249268,0.00025471396,-0.0035141965,0.32563782
224,404541614,-2.419102668762207,0.2654627561569214,2.0348660945892334,0.00948254,0.0015779455,0.3407135
225,404558281,-2.4193661212921143,0.2650296092033386,2.0345404148101807,0.0063624447,-0.014014319,0.3651247
226,404574948,-2.419430732727051,0.2657240629196167,2.0354135036468506,0.012582641,-0.0034509143,0.32929134
227,404591615,-2.419614315032959,0.2649500966072082,2.0345394611358643,0.008229816,0.010249885,0.35499763
228,404608282,-2.420185804367065,0.2645650506019592,2.035186290740967,0.013088908,-0.0020140472,0.33063602
229,404624949,-2.421276092529297,0.2635411024093628,2.036412715911865,-0.0014542225,0.001192288,0.35071087
230,404641616,-2.42249059677124,0.2628457248210907,2.0377514362335205,0.00077698345,0.015558555,0.34763527
231,404658283,-2.422788619995117,0.2631730139255523,2.036882877349853,0.009322954,0.011659665,0.32732582
232,404674950,-2.422675132751465,0.2633204460144043,2.037665605545044,0.009518575,-0.00088335114,0.35823917
233,404691617,-2.422689199447632,0.2635049521923065,2.037871599197388,-0.004724231,0.011232252,0.3389082
234,404708284,-2.422456741333008,0.2632534801959991,2.0376272201538086,0.00020503298,0.019918386,0.35263538
235,404724951,-2.4227042198181152,0.2649946808815002,2.039278507232666,0.010185257,0.013768985,0.33799553
236,404741618,-2.422896385192871,0.2654039561748504,2.0395188331604004,0.017701052,0.008362542,0.3320856
237,404758285,-2.4222283363342285,0.265493780374527,2.040743350982666,-0.0039226594,0.012059264,0.33596706
238,404774952,-2.421767473220825,0.2657828032970428,2.040911197662353,0.012415289,0.01377678,0.34842396
239,404791619,-2.421517133712769,0.265857070684433,2.0418288707733154,0.003621453,-0.00013584,0.31198883
240,404808286,-2.3898167610168457,0.2631445527076721,2.0342049598693848,-0.0004897937,-0.0059145857,0.33506966
241,404824953,-2.3893606662750244,0.2624301314353943,2.035361289978028,0.008002656,0.002227111,0.33437443
242,404841620,-2.389350175857544,0.2610435485839844,2.03558349609375,0.000856898,-0.00043026244,0.3477478
243,404858287,-2.3884265422821045,0.2601002752780914,2.0358924865722656,0.00038557383,-0.0002085795,0.33695126
244,404874954,-2.388803005218506,0.2613492608070373,2.036165714263916,0.024249954,-0.0060367077,0.3484726
245,404891621,-2.3898766040802,0.2609446048736572,2.036989212036133,-0.0034307125,-0.011847137,0.33760452
246,404908288,-2.390155553817749,0.2618970572948456,2.037527084350586,0.0011189181,-0.0029447554,0.3123026
247,404924955,-2.3901689052581787,0.2615841627120971,2.038107395172119,-0.005748776,-0.002570441,0.3385725
248,404941622,-2.3909473419189453,0.2616961002349853,2.037506580352783,0.0060465145,-0.01582624,0.33286285
249,404958289,-2.3889589309692383,0.2611195147037506,2.035897016525269,-0.011671755,0.008755072,0.35210896
250,404974956,-2.389498233795166,0.2602068483829498,2.0356225967407227,-0.0055775163,-0.019289363,0.34890842
251,404991623,-2.3892221450805664,0.2596299052238464,2.034205436706543,0.012262357,0.011369489,0.3583622
252,405008290,-2.389371395111084,0.2589007616043091,2.0354998111724854,-0.0049210656,-0.012046413,0.35942554
253,405024957,-2.38983416557312,0.2581886053085327,2.034350872039795,0.019121705,0.005150353,0.32820988
254,405041624,-2.390014886856079,0.2586497366428375,2.0338149070739746,-0.0017151197,0.0038490887,0.33427334
255,405058291,-2.3903090953826904,0.2591812014579773,2.0331759452819824,0.017264014,-0.0068523064,0.35056686
256,405074958,-2.390159368515014,0.2581484317779541,2.033111333847046,0.006844057,0.022231745,0.33510494
257,405091625,-2.390124082565308,0.2582419812679291,2.035076856613159,0.0074865823,-0.009839054,0.329175
258,405108292,-2.3897900581359863,0.2588986456394195,2.035505533218384,0.0037439973,0.0127666965,0.33230972
259,405124959,-2.389211416244507,0.2596190273761749,2.0366365909576416,-0.0005927267,-0.003173884,0.33327198
260,405141626,-2.388290405273437,0.2598676383495331,2.0364303588867188,0.011761236,0.0050097075,0.34589958
261,405158293,-2.388589143753052,0.2590669691562652,2.0365936756134038,0.013850908,0.003091687,0.3439455
262,405174960,-2.3878040313720703,0.2582614421844482,2.037292957305908,0.0024397697,0.0036294034,0.3418255
263,405191627,-2.388964891433716,0.2587723433971405,2.039139032363892,-0.008973128,0.0013848584,0.35557747
264,405208294,-2.388737916946411,0.2587164640426636,2.038322687149048,0.015411899,-0.008809875,0.34171867
265,405224961,-2.3888726234436035,0.2589263617992401,2.037802219390869,0.014472506,-0.013129026,0.3252983
266,405241628,-2.390261173248291,0.2588895261287689,2.037750005722046,0.00816034,0.00041552456,0.3375721
267,405258295,-2.389978170394897,0.2583948373794555,2.038263320922852,0.015027953,0.011088533,0.3637781
268,405274962,-2.389620780944824,0.2589319348335266,2.0391695499420166,0.012046992,0.0030287122,0.34589958
269,405291629,-2.3908252716064453,0.2575269043445587,2.040327310562134,-0.004155214,-0.005075085,0.35387897
270,405308296,-2.39132022857666,0.2579231262207031,2.039900302886963,-0.0038448786,-0.005549589,0.34725475
271,405324963,-2.3919577598571777,0.257819265127182,2.040477514266968,0.012513406,-0.0018389948,0.3738966
272,405341630,-2.3917348384857178,0.2573155760765075,2.0403730869293213,0.0039085746,0.010551167,0.3285513
273,405358297,-2.3922619819641118,0.2576744258403778,2.0419745445251465,-0.007629976,0.006455026,0.3530388
274,405374964,-2.39177680015564,0.2579221427440643,2.042686700820923,-0.005923731,0.002417111,0.33774948
275,405391631,-2.3916375637054443,0.258452832698822,2.04282283782959,0.006971027,0.005901608,0.3336153
276,405408298,-2.391322612762451,0.259995549917221,2.0425844192504883,-0.009597308,0.0012277985,0.3369503
277,405424965,-2.3914740085601807,0.2588576972484588,2.044675350189209,-0.002110027,0.0128385145,0.34289646
278,405441632,-2.391774654388428,0.2598897218704223,2.044108390808105,0.0061317384,-0.011003976,0.36321735
279,405458299,-2.391951560974121,0.2589685320854187,2.044536590576172,0.009937518,0.008773792,0.35738373
280,405474966,-2.3915371894836426,0.2595695257186889,2.046278238296509,0.0014500263,-0.009120236,0.334013
281,405491633,-2.3909504413604736,0.2582266330718994,2.04591703414917,0.007154873,-0.004417622,0.33977795
282,405508300,-2.389511108398437,0.2583886086940765,2.0472545623779297,0.0075205895,0.0006281832,0.34304905
283,405524967,-2.3900129795074463,0.2589597105979919,2.0477914810180664,-0.006000914,-0.0005809102,0.3465109
284,405541634,-2.3903276920318604,0.2585961818695068,2.047973155975342,0.0042274036,0.011353509,0.32923698
285,405558301,-2.389232635498047,0.2583325207233429,2.047639846801758,-0.00817953,-0.0078081875,0.33670044
286,405574968,-2.389528751373291,0.2573359608650207,2.0484769344329834,0.00815744,0.0104743475,0.3414774
287,405591635,-2.390056848526001,0.257469117641449,2.049323558807373,0.0045195473,-0.004009557,0.36137295
288,405608302,-2.389504194259644,0.2576959133148193,2.049259662628174,0.020956568,0.0015815637,0.3483181
289,405624969,-2.3886239528656006,0.257837176322937,2.048708438873291,0.0024298234,0.00024628334,0.32306957
290,405641636,-2.3878018856048584,0.2576301693916321,2.0505800247192383,-0.0019389417,-0.0039222334,0.3624115
291,405658303,-2.387519836425781,0.2574135959148407,2.0499467849731445,0.011716756,0.0071065524,0.33904934
292,405674970,-2.387558937072754,0.2557428181171417,2.049938440322876,0.012739739,0.0053277947,0.32292175
293,405691637,-2.388190984725952,0.2552773356437683,2.0502870082855225,0.009745304,0.014063659,0.34637833
294,405708304,-2.3881630897521973,0.2558108568191528,2.0502138137817383,0.0050475025,0.002289136,0.3380041
295,405724971,-2.388876438140869,0.2569197416305542,2.0499188899993896,0.008396485,0.00073345774,0.34430695
296,405741638,-2.3886330127716064,0.2564047574996948,2.049579620361328,0.0023421207,0.00023274684,0.33329964
297,405758305,-2.3867766857147217,0.2561053335666656,2.0502068996429443,0.011893321,-0.0026205496,0.34843826
298,405774972,-2.3877291679382324,0.2558266520500183,2.0504472255706787,-0.0057549784,0.00975405,0.34683228
299,405791639,-2.38715934753418,0.255313366651535,2.0499768257141118,0.0066232826,0.0006269259,0.37208366
300,405808306,-2.387754201889038,0.2546637654304504,2.0506417751312256,0.009251695,0.008220471,0.33026886
301,405824973,-2.388256788253784,0.2538620233535766,2.050178050994873,0.015131017,-0.00863228,0.35724354
302,405841640,-2.387146234512329,0.2529877424240112,2.050896406173706,-0.0074918433,0.0025127467,0.35278893
303,405858307,-2.386568307876587,0.2530786991119385,2.050507068634033,0.0046601454,0.0019955796,0.35927296
304,405874974,-2.3868560791015625,0.2536657750606537,2.052035331726074,0.0063970587,0.005158763,0.34994507
305,405891641,-2.387302875518799,0.2533838748931885,2.052191972732544,0.0067716255,-0.011782541,0.3345642
306,405908308,-2.387608051300049,0.2539306282997131,2.0521090030670166,-0.00060505304,-0.0007634504,0.34903717
307,405924975,-2.3869800567626958,0.2533460259437561,2.051705837249756,0.0068483236,0.008448636,0.33203983
308,405941642,-2.386993646621704,0.2536450624465942,2.0522031784057617,0.00094605004,0.0072121904,0.3637457
309,405958309,-2.387510061264038,0.2540061473846435,2.054009199142456,0.0070790187,0.0021870602,0.35701847
310,405974976,-2.3878934383392334,0.2536480724811554,2.0537686347961426,0.0060272226,0.0017884808,0.35398006
311,405991643,-2.388556241989136,0.2534546554088592,2.0547611713409424,0.007918698,-0.0019017041,0.35420704
312,406008310,-2.3884365558624268,0.2523919641971588,2.054115056991577,0.006088026,-9.732592e-05,0.3526926
313,406024977,-2.388346910476685,0.2522919178009033,2.0543081760406494,0.0058040726,-1.1189617e-05,0.3447857
314,406041644,-2.38824462890625,0.2518430948257446,2.054062366485596,0.007538766,-0.009172734,0.34461784
315,406058311,-2.388526678085327,0.2519745826721191,2.053323745727539,0.0034170644,0.0007883861,0.35300255
316,406074978,-2.387459278106689,0.2534837126731872,2.054358720779419,-0.008337545,0.0084679555,0.32918644
317,406091645,-2.386275053024292,0.2541077136993408,2.055241107940674,-0.003786175,-0.0013873728,0.34648132
318,406108312,-2.38604736328125,0.2549413442611694,2.054417371749878,-0.0053931074,-0.0060124425,0.34532166
319,406124979,-2.3860578536987305,0.2542821764945984,2.0556135177612305,0.00033364721,-0.00606406,0.3480873
320,406141646,-2.3862712383270264,0.2530318796634674,2.055893898010254,-0.0023071235,0.0067754183,0.35331345
321,406158313,-2.386007308959961,0.2538344860076904,2.0569398403167725,0.006833161,0.012422599,0.34919548
322,406174980,-2.3854076862335205,0.2545986771583557,2.0569770336151123,-0.002029302,0.00013881552,0.32933426
323,406191647,-2.384403705596924,0.2541978657245636,2.0558269023895264,0.0016504616,0.009715871,0.35876274
324,406208314,-2.384608268737793,0.2530482709407806,2.0561914443969727,-0.0026753978,0.0072790626,0.32610226
325,406224981,-2.3849010467529297,0.2528176009654999,2.0556347370147705,0.008392191,0.0017594381,0.3441782
326,406241648,-2.3850576877593994,0.2519283294677734,2.0555593967437744,0.0002981209,-0.0008542665,0.33234406
327,406258315,-2.385380268096924,0.2537704408168793,2.0567550659179688,0.0072969696,-0.0024895573,0.33674526
328,406274982,-2.3847286701202397,0.253781646490097,2.0563580989837646,0.001194572,-0.0020280448,0.35782337
329,406291649,-2.385305881500244,0.2549099922180176,2.0568408966064453,0.010031676,-0.0075654807,0.33463097
330,406308316,-2.3854899406433105,0.254230797290802,2.057823657989502,0.017606396,0.00931412,0.3581667
331,406324983,-2.3847978115081787,0.2541447877883911,2.0582616329193115,0.009900489,-0.0023975256,0.34593296
332,406341650,-2.3855245113372803,0.2549277544021606,2.0595412254333496,0.005948577,0.0031628062,0.33609676
333,406358317,-2.3853933811187744,0.2542063593864441,2.060619115829468,0.0083277365,-0.00901988,0.3462038
334,406374984,-2.38526463508606,0.253642588853836,2.061054944992065,0.005032773,-0.012133974,0.32345295
335,406391651,-2.384921073913574,0.2534022033214569,2.062274932861328,0.0021885044,-0.0038176433,0.33762836
336,406408318,-2.3861124515533447,0.2542910277843475,2.0624468326568604,0.0013559116,0.009338763,0.3406086
337,406424985,-2.385977506637573,0.2543173432350158,2.0634331703186035,-0.0006101642,0.0018665707,0.33121777
338,406441652,-2.38561749458313,0.255559504032135,2.064615249633789,0.0066451337,-0.0030106357,0.34733486
339,406458319,-2.385367155075073,0.2563663721084595,2.065682172775269,0.008590529,0.0036905902,0.34932137
340,406474986,-2.3846921920776367,0.2554401159286499,2.0659096240997314,0.011471104,-0.00061500986,0.34262276
341,406491653,-2.3844637870788574,0.2545295357704162,2.066184759140014,0.012741146,-0.0020694786,0.3331232
342,406508320,-2.3848416805267334,0.255292683839798,2.067258358001709,0.0059706345,-0.004598751,0.34572887
343,406524987,-2.385206460952759,0.2553103268146515,2.066107273101806,0.0065031443,0.010628558,0.3445549
344,406541654,-2.386869192123413,0.2550651431083679,2.0671546459198,0.0011242824,-0.013512042,0.313735
345,406558321,-2.3877551555633545,0.2563551962375641,2.0685834884643555,0.015634235,0.005728469,0.3448944
346,406574988,-2.3868560791015625,0.2549195289611816,2.0689961910247803,-0.0048392685,0.0053097177,0.34151554
347,406591655,-2.386544942855835,0.2536081373691559,2.0688235759735107,0.011752016,-0.010782698,0.3438654
348,406608322,-2.3863985538482666,0.2527058720588684,2.06925892829895,0.00360869,-0.0071446616,0.33026123
349,406624989,-2.3857011795043945,0.2529974281787872,2.069091320037842,0.0075338334,0.008350262,0.3383913
350,406641656,-2.385375022888184,0.2541731894016266,2.069952249526977,0.0028158897,0.0015901689,0.35126972
351,406658323,-2.38514256477356,0.2549745738506317,2.071760892868042,0.011952441,0.0074837585,0.3450842
352,406674990,-2.385024070739746,0.2559517621994018,2.072711944580078,0.019532356,-0.00058642816,0.34175873
353,406691657,-2.384845018386841,0.2545243203639984,2.0730350017547607,1.57175e-05,0.0037707894,0.3344984
354,406708324,-2.3849477767944336,0.2540492117404938,2.0746500492095947,-0.0038234126,-0.010094306,0.3229637
355,406724991,-2.385565757751465,0.2536292970180511,2.074148178100586,0.010339807,0.0014096543,0.32827187
356,406741658,-2.385460138320923,0.2545881569385528,2.073573589324951,0.018223511,-0.009202881,0.35528088
357,406758325,-2.385666847229004,0.2545970678329468,2.072666645050049,0.0028679979,0.0041832407,0.33515072
358,406774992,-2.386087656021118,0.2536876201629638,2.072763204574585,-0.004309445,0.0020543635,0.34505653
359,406791659,-2.385542631149292,0.253332257270813,2.0723605155944824,-0.0070558395,0.004757948,0.34014988
360,406808326,-2.3889198303222656,0.2578024566173553,2.0724754333496094,0.016326938,-0.0032597408,0.32403183
361,406824993,-2.3886983394622803,0.2572047412395477,2.0731446743011475,0.0053082076,-0.0036070521,0.3367157
362,406841660,-2.3900864124298096,0.2577360570430755,2.072913408279419,0.027186846,0.0042167255,0.33560467
363,406858327,-2.3898394107818604,0.2579301595687866,2.0730717182159424,0.0032660114,-0.009503254,0.35350227
364,406874994,-2.388808488845825,0.2563582956790924,2.072516918182373,0.008305181,-0.0075764884,0.3518772
365,406891661,-2.3893072605133057,0.2544063925743103,2.0740463733673096,0.0059679286,-0.0034264256,0.36539078
366,406908328,-2.388777017593384,0.2549953162670135,2.0741395950317383,0.0050458494,-0.005574455,0.34487247
367,406924995,-2.3887686729431152,0.2530437409877777,2.074946165084839,-0.0045225103,0.007162319,0.34723854
368,406941662,-2.3884410858154297,0.252435952425003,2.07647967338562,0.009060236,-0.0007868075,0.3373623
369,406958329,-2.3883485794067383,0.2500624060630798,2.0756049156188965,-0.0007517317,-0.010068434,0.32462788
370,406974996,-2.386913061141968,0.2514069378376007,2.076210260391236,0.012875958,0.009448702,0.32884216
371,406991663,-2.386073112487793,0.2510654628276825,2.0762369632720947,0.012979772,-0.001111502,0.3651209
372,407008330,-2.3854823112487797,0.2508242130279541,2.075547695159912,0.007235956,-0.0035948986,0.35350704
373,407024997,-2.3862311840057373,0.2510217130184173,2.076019763946533,0.012438773,-0.0076007256,0.34387875
374,407041664,-2.3863959312438965,0.250469446182251,2.075321674346924,0.002295237,0.002478228,0.37154388
375,407058331,-2.386064052581787,0.2501522600650787,2.0742886066436768,0.014333449,-0.018914504,0.34514523
376,407074998,-2.384931325912476,0.2499073445796966,2.0746171474456787,-0.00017539306,0.008550223,0.35948944
377,407091665,-2.3842697143554688,0.251545250415802,2.074872732162476,0.013880832,-0.0044357264,0.36565113
378,407108332,-2.385337352752685,0.2519260346889496,2.074662208557129,-0.0024543959,-0.004927972,0.3379202
379,407124999,-2.385394096374512,0.2517211437225342,2.0745084285736084,-0.017067159,0.0042557428,0.33360767
380,407141666,-2.385316610336304,0.2527219355106354,2.074964761734009,0.0057923277,-0.011613621,0.35587215
381,407158333,-2.3855977058410645,0.253110259771347,2.0739543437957764,0.012143822,0.007930966,0.35510063
382,407175000,-2.3869550228118896,0.2525663077831268,2.072883129119873,0.012445153,-0.002669094,0.33135223
383,407191667,-2.387861490249634,0.2511166632175445,2.0732710361480717,0.004455805,-0.016244963,0.33218193
384,407208334,-2.387566089630127,0.2491933405399322,2.0736746788024902,0.013219157,-0.007927585,0.3523798
385,407225001,-2.3874752521514893,0.2486435621976852,2.075165033340454,0.019689552,0.0037316745,0.33220768
386,407241668,-2.3873119354248047,0.2488923072814941,2.0767412185668945,0.002920347,0.006775502,0.34549522
387,407258335,-2.387715101242065,0.2496497929096222,2.0780014991760254,0.0007217914,0.0044011516,0.35798836
388,407275002,-2.388174533843994,0.2489132285118103,2.077950954437256,0.014220415,-0.00070051756,0.3545723
389,407291669,-2.388519525527954,0.2481711655855178,2.078477621078491,0.017535847,-0.0023669323,0.33330536
390,407308336,-2.3885433673858643,0.2498561888933181,2.0791735649108887,0.005541774,-0.008599885,0.33234406
391,407325003,-2.3877112865448,0.2493611872196197,2.0778212547302246,0.0061478005,0.010683654,0.33934307
392,407341670,-2.3870785236358643,0.248304933309555,2.0771195888519287,-4.192614e-06,0.006777108,0.3539505
393,407358337,-2.387706995010376,0.2484479993581771,2.0778183937072754,-0.0058888784,0.0037583564,0.34514046
394,407375004,-2.388295888900757,0.2491063922643661,2.0785462856292725,0.0018483631,0.01797139,0.35350323
395,407391671,-2.388139486312866,0.2480323165655136,2.0794620513916016,-0.006119423,0.009314623,0.33883
396,407408338,-2.3892359733581543,0.2484479695558548,2.078986167907715,0.008327719,0.0070950557,0.33856583
397,407425005,-2.388933658599853,0.2502225637435913,2.079376697540283,0.0020804917,-0.012461211,0.34202576
398,407441672,-2.389120101928711,0.2502439618110657,2.079639434814453,-7.612013e-05,-0.001707611,0.34660053
399,407458339,-2.3896644115448,0.250704675912857,2.080254316329956,0.00012736047,0.0015243025,0.3577547
400,407475006,-2.389620065689087,0.2508451044559479,2.080962419509888,0.018033497,-0.0036510143,0.35136795
401,407491673,-2.389427900314331,0.2513950169086456,2.080925703048706,0.0030448576,-0.004400914,0.34892845
402,407508340,-2.3891100883483887,0.251678854227066,2.081303358078003,0.0060461913,-0.0018159869,0.34701443
403,407525007,-2.3897125720977783,0.2521425485610962,2.082677125930786,0.012447806,0.002029791,0.3379345
404,407541674,-2.38919997215271,0.2522268891334533,2.083179235458374,0.008151703,-0.0071476093,0.33652782
405,407558341,-2.3899524211883545,0.2526206970214844,2.084157466888428,0.013540869,-0.008835356,0.32967854
406,407575008,-2.3896713256835938,0.2528154850006103,2.084996461868286,0.0021982326,-0.003991201,0.333107
407,407591675,-2.390244722366333,0.2518030405044555,2.084112882614136,0.005700023,-0.00376041,0.33899117
408,407608342,-2.390248537063598,0.2515314519405365,2.084444284439087,0.010950171,-0.0019969067,0.34073544
409,407625009,-2.390528440475464,0.251508355140686,2.0837979316711426,0.0076313014,0.0017541157,0.33112717
410,407641676,-2.390906572341919,0.2509791851043701,2.08427357673645,0.010997392,0.016400501,0.35042477
411,407658343,-2.390275716781616,0.2498615831136703,2.085542678833008,0.00087293336,-0.006002329,0.3391838
412,407675010,-2.390326499938965,0.2502129971981048,2.084860324859619,0.003156616,0.006621725,0.35062504
413,407691677,-2.3897595405578613,0.2502228617668152,2.0849783420562744,0.0040523876,0.015656343,0.34880257
414,407708344,-2.3895740509033203,0.2508114576339721,2.0838940143585205,0.012251417,0.007978477,0.3443203
415,407725011,-2.389411211013794,0.2508163154125213,2.084066152572632,0.0049851965,0.003570368,0.35536766
416,407741678,-2.390150547027588,0.2499742060899734,2.083441734313965,0.003078327,0.003966,0.3455019
417,407758345,-2.38969087600708,0.2506332695484161,2.084434032440185,0.012093088,-0.010272111,0.35451794
418,407775012,-2.389270305633545,0.2505305409431457,2.0850181579589844,-0.0016669788,0.0025682896,0.32254505
419,407791679,-2.3892464637756348,0.2510144114494324,2.0865843296051025,0.0088673495,0.009921391,0.33611107
420,407808346,-2.3905599117279053,0.2512585818767547,2.085963010787964,0.0018637435,0.015793635,0.32120228
421,407825013,-2.3919522762298584,0.2512726187705993,2.0853164196014404,0.019685604,-0.00732607,0.32584095
422,407841680,-2.3920786380767822,0.250214010477066,2.0871894359588623,0.0086265085,-0.00080633693,0.36932182
423,407858347,-2.39171838760376,0.2505937218666076,2.0876448154449463,0.0030979996,9.485331e-06,0.3358221
424,407875014,-2.3923757076263428,0.2505623996257782,2.087785482406616,0.003121933,-0.0037496393,0.35502052
425,407891681,-2.392453670501709,0.2498583495616912,2.089324712753296,0.009891828,-0.00087682734,0.34570026
426,407908348,-2.392526865005493,0.2522642612457275,2.0913004875183105,0.004083312,0.0034456619,0.34718323
427,407925015,-2.392679452896118,0.2515430450439453,2.093067407608032,0.014804817,0.0041456064,0.3292694
428,407941682,-2.392399787902832,0.2509313225746155,2.0927517414093018,0.011149769,-0.00303342,0.33256912
429,407958349,-2.392167329788208,0.2506204545497894,2.090510606765747,0.011698193,0.0105007645,0.34866238
430,407975016,-2.391762018203736,0.2501265406608581,2.090775728225708,0.007899122,0.0052147945,0.32808113
431,407991683,-2.392251253128052,0.2507347464561462,2.0903983116149902,0.009150585,0.008395663,0.33428097
432,408008350,-2.392350196838379,0.2505598962306976,2.0910205841064453,0.019654864,0.0014275074,0.35070705
433,408025017,-2.391202688217163,0.2503436207771301,2.091252088546753,0.011258755,-0.0058867726,0.34085178
434,408041684,-2.390735149383545,0.2501067817211151,2.091083526611328,0.004329671,0.0049061654,0.3249159
435,408058351,-2.389504194259644,0.2502013146877289,2.0906805992126465,0.016045768,-0.0002916844,0.34342098
436,408075018,-2.389387369155884,0.2497024089097976,2.0903053283691406,0.01505673,0.01269087,0.368289
437,408091685,-2.3897173404693604,0.2505337297916412,2.092695713043213,0.009771744,-0.0011666818,0.3385172
438,408108352,-2.388423442840576,0.2507407069206238,2.092453956604004,-0.009520854,-0.007219482,0.34661484
439,408125019,-2.3881828784942627,0.2507498860359192,2.092961311340332,0.0018889743,-0.013782228,0.35234928
440,408141686,-2.38720965385437,0.250267893075943,2.0939416885375977,-0.0029152026,-0.0035087902,0.35479164
441,408158353,-2.3866963386535645,0.2489909678697586,2.0925838947296143,-0.0026846088,-0.001552507,0.3410635
442,408175020,-2.3868324756622314,0.2498787939548492,2.0921502113342285,0.013103882,0.00012011027,0.3519268
443,408191687,-2.386645555496216,0.250496506690979,2.0932629108428955,0.010255382,-0.0041139936,0.3517809
444,408208354,-2.3867950439453125,0.2492009550333023,2.091836929321289,0.007675035,0.0026109945,0.3624525
445,408225021,-2.387471914291382,0.2494769543409347,2.090980291366577,0.010573432,-0.011985142,0.32147312
446,408241688,-2.3873353004455566,0.2502818703651428,2.090207576751709,0.015788104,0.0017816217,0.3609419
447,408258355,-2.387278318405152,0.2487343549728393,2.090944766998291,0.013038801,0.0072482456,0.35812855
448,408275022,-2.387034177780152,0.2494029402732849,2.090599536895752,0.011384467,-0.0031674579,0.3427391
449,408291689,-2.3869214057922363,0.2495777010917663,2.089897394180298,-0.0042202985,0.0050561843,0.34127426
450,408308356,-2.3872199058532715,0.2492397725582122,2.0895450115203857,0.011294062,0.0016019453,0.34078312
451,408325023,-2.387534618377685,0.2498359233140945,2.088691473007202,0.012359059,0.0045939037,0.3472004
452,408341690,-2.386777400970459,0.2502965629100799,2.0889761447906494,-0.0072238096,0.0016757605,0.32875347
453,408358357,-2.385542631149292,0.2508184909820556,2.088623046875,0.010089665,0.0006358664,0.33415413
454,408375024,-2.3844940662384038,0.2513770461082458,2.0883469581604004,0.011115977,0.0078078383,0.35709858
455,408391691,-2.385826110839844,0.2498653680086136,2.0879037380218506,-0.010950334,-0.007864191,0.35248184
456,408408358,-2.385193109512329,0.2497559785842895,2.089750051498413,0.0010161283,0.007932908,0.32610512
457,408425025,-2.3855059146881104,0.2512257993221283,2.0893092155456543,0.009673823,-0.0020578,0.35070515
458,408441692,-2.385000228881836,0.2513738572597503,2.0904252529144287,0.009369394,0.0077401977,0.35716057
459,408458359,-2.3853960037231445,0.2506434917449951,2.089927911758423,0.0019006442,-0.0007246709,0.3598442
460,408475026,-2.3862812519073486,0.2495306432247162,2.089021682739258,0.018429795,-0.0013070758,0.33866692
461,408491693,-2.3861658573150635,0.2512289583683014,2.089143991470337,-0.0014901538,-0.0042095454,0.33306122
462,408508360,-2.3851752281188965,0.2515158951282501,2.089414119720459,0.013159161,-0.0035720584,0.34772587
463,408525027,-2.385220766067505,0.2503286004066467,2.090066432952881,-0.0040626135,0.0026792078,0.33799362
464,408541694,-2.384695529937744,0.2500217258930206,2.0899908542633057,0.021434652,0.0009883604,0.3523035
465,408558361,-2.384647846221924,0.2483792454004287,2.0900187492370605,0.0029322298,-0.0020120635,0.33544064
466,408575028,-2.3844311237335205,0.246782585978508,2.090026617050171,0.002938792,0.008180602,0.3511753
467,408591695,-2.384517192840576,0.2470547705888748,2.0899770259857178,0.010124227,0.00066886254,0.35486126
468,408608362,-2.3845551013946533,0.2466880232095718,2.088513135910034,-0.013361815,-0.009158947,0.35858822
469,408625029,-2.3840041160583496,0.2464375495910644,2.0877270698547363,-0.000914725,-0.001418553,0.33638954
470,408641696,-2.383890390396118,0.2478653490543365,2.0871574878692627,0.012980661,0.013356771,0.3403759
471,408658363,-2.384158134460449,0.2480320036411285,2.086681365966797,0.0076161865,-0.01003189,0.32872486
472,408675030,-2.383826971054077,0.2478988170623779,2.087423324584961,-0.0067387237,0.0053451727,0.35105515
473,408691697,-2.383960485458374,0.2474828064441681,2.087193250656128,0.0099662645,-0.0064603067,0.33072186
474,408708364,-2.3833227157592773,0.2483153194189071,2.086548089981079,-5.9440476e-06,5.2274092e-05,0.35416985
475,408725031,-2.3835175037384038,0.2482757270336151,2.087757110595703,0.0098520545,-0.005822666,0.34389496
476,408741698,-2.383341073989868,0.2494821101427078,2.087762355804444,0.015257833,-0.004869914,0.3334093
477,408758365,-2.383650302886963,0.2494801878929138,2.088534355163574,0.006933892,0.003255145,0.37609768
478,408775032,-2.3838508129119877,0.2497276812791824,2.0883595943450928,0.0005734871,0.0059351074,0.34169388
479,408791699,-2.383974075317383,0.2505286633968353,2.0877935886383057,-9.659776e-05,-0.0078524435,0.32849598
480,408808366,-2.387539863586426,0.2518125176429748,2.087514877319336,0.014942291,0.0038354404,0.35131073
481,408825033,-2.387081384658813,0.2523133456707001,2.08823561668396,0.0109632285,0.010168792,0.36112022
482,408841700,-2.387226104736328,0.2526280879974365,2.0887258052825928,0.0070923218,-0.0111922575,0.33333683
483,408858367,-2.3874382972717285,0.2508448362350464,2.0887093544006348,0.0015285615,-0.007852471,0.33635616
484,408875034,-2.38770055770874,0.2497279345989227,2.088611602783203,-0.0008416642,-0.004399503,0.3397789
485,408891701,-2.3880615234375,0.2496140748262405,2.088535785675049,0.013054335,-0.00154196,0.3475561
486,408908368,-2.3873887062072754,0.2498191148042678,2.0880441665649414,0.013443446,0.00077243283,0.34345722
487,408925035,-2.3867204189300537,0.2505763173103332,2.0890233516693115,-0.0012923571,0.0019927437,0.34301662
488,408941702,-2.387103080749512,0.2507413029670715,2.0883259773254395,0.013377394,0.013303435,0.3332939
489,408958369,-2.3860530853271484,0.2511807084083557,2.0882160663604736,0.005306986,-0.0115305865,0.3418951
490,408975036,-2.384741306304932,0.2511939406394958,2.0900821685791016,0.009912864,-0.025908295,0.32700634
491,408991703,-2.3853561878204346,0.2507347464561462,2.091468334197998,0.011680054,-0.00376041,0.34078026
492,409008370,-2.3858234882354736,0.2508650720119476,2.092313528060913,0.013642804,0.0018374721,0.327137
493,409025037,-2.385881900787353,0.250907838344574,2.0924489498138428,0.002900271,0.009104088,0.3450699
494,409041704,-2.385164260864258,0.251574695110321,2.0926172733306885,0.009077962,0.005166111,0.34252357
495,409058371,-2.3848588466644287,0.2520219385623932,2.091893196105957,0.013920569,0.000116617884,0.34709072
496,409075038,-2.3832452297210693,0.2529953718185425,2.092779397964477,0.004493061,-0.013371956,0.3314333
497,409091705,-2.383380174636841,0.2533115446567535,2.0940606594085693,-0.0007712611,-0.01743211,0.3340292
498,409108372,-2.3835015296936035,0.2522724866867065,2.093368530273437,0.008421686,-0.010937607,0.3368864
499,409125039,-2.3818230628967285,0.2516339123249054,2.0945210456848145,0.0071360953,-0.0037316885,0.35855865
500,409141706,-2.381147861480713,0.2526600360870361,2.095247745513916,-0.0026598512,-0.005882498,0.33930492
501,409158373,-2.3813564777374268,0.2529343068599701,2.096642017364502,-0.0003185496,0.0049889907,0.34228706
502,409175040,-2.3816325664520264,0.2520297467708587,2.0963196754455566,-0.013688345,-0.005586106,0.33760262
503,409191707,-2.3815150260925293,0.2526962459087372,2.098534107208252,0.014211252,0.00939344,0.30600834
504,409208374,-2.3818166255950928,0.2508701980113983,2.0982367992401123,0.010399468,0.0035666241,0.3225355
505,409225041,-2.382092237472534,0.2504552006721496,2.099507093429565,0.004070265,-0.0005430806,0.33852386
506,409241708,-2.3817479610443115,0.2506603598594665,2.100182056427002,0.0022436266,-0.013969923,0.35533333
507,409258375,-2.3820033073425293,0.2508257627487182,2.099587202072144,0.00831942,-0.0032544604,0.33934975
508,409275042,-2.3820221424102783,0.2504754066467285,2.100425243377685,0.0019384424,-0.00646894,0.33999825
509,409291709,-2.382115364074707,0.250567615032196,2.100346565246582,0.0035054444,-0.0013300697,0.31863213
510,409308376,-2.382599353790283,0.2503944337368011,2.1012778282165527,0.0049633323,-0.011047449,0.3482628
511,409325043,-2.3833723068237305,0.2504731714725494,2.100952625274658,0.014867481,-3.078891e-05,0.3392105
512,409341710,-2.3824539184570312,0.2493056952953338,2.1012964248657227,0.005752993,0.0016895903,0.3269043
513,409358377,-2.381934881210327,0.249881774187088,2.1013104915618896,0.00035406722,-0.014707111,0.35642338
514,409375044,-2.3810362815856934,0.2478769868612289,2.1017990112304688,0.010433786,0.004514263,0.3253994
515,409391711,-2.380775213241577,0.2469191551208496,2.103195905685425,0.0005834282,-0.0065251533,0.3314848
516,409408378,-2.382075071334839,0.246847465634346,2.1044270992279053,0.013002568,-0.0019043583,0.3332901
517,409425045,-2.382288217544556,0.2448947876691818,2.105229616165161,0.010313478,0.0048821797,0.33571243
518,409441712,-2.3833436965942383,0.2452399432659149,2.105602502822876,-0.007106596,-0.005062792,0.3363495
519,409458379,-2.3834445476531982,0.2443631738424301,2.1058826446533203,0.012683602,-0.01681696,0.3372965
520,409475046,-2.383998155593872,0.2441892474889755,2.106252908706665,0.011340761,0.0056285453,0.35307217
521,409491713,-2.38339638710022,0.2438148707151413,2.107701778411865,-0.002570399,-0.007146324,0.34304905
522,409508380,-2.383591890335083,0.2444197088479995,2.107743978500366,0.019894294,-0.007927893,0.33880997
523,409525047,-2.383967876434326,0.2437393516302108,2.106528282165528,0.005783059,-0.011951727,0.34341526
524,409541714,-2.384375810623169,0.2430225610733032,2.106730937957764,0.010216713,-0.009366953,0.34283638
525,409558381,-2.3862314224243164,0.2427286803722381,2.108250141143799,0.007435745,0.0075141145,0.33257198
526,409575048,-2.384882926940918,0.2422566264867782,2.107894897460937,0.010380222,-0.0047133435,0.33814526
527,409591715,-2.3851749897003174,0.2407151013612747,2.1084558963775635,-0.0023939006,0.0019656986,0.33611774
528,409608382,-2.386573553085327,0.2410406619310379,2.109480381011963,-0.0057346807,0.003360685,0.33968353
529,409625049,-2.385944128036499,0.2413497567176818,2.109549760818481,-0.0020731613,-0.0058026896,0.3606968
530,409641716,-2.385586738586426,0.2430201321840286,2.111102819442749,0.0075657615,0.002280754,0.35068226
531,409658383,-2.3848373889923096,0.2438039183616638,2.111098527908325,0.006345827,-0.015255318,0.3428898
532,409675050,-2.384473323822021,0.2425206005573272,2.1108028888702397,-0.0042630816,0.008114177,0.34567738
533,409691717,-2.3849823474884038,0.2422416508197784,2.1105990409851074,0.0085299825,-0.008984899,0.33156872
534,409708384,-2.384345769882202,0.2422192394733429,2.111670970916748,0.014754518,-0.0026270037,0.36005783
535,409725051,-2.3840763568878174,0.2430777102708816,2.1129021644592285,0.011191405,0.012080512,0.34222794
536,409741718,-2.384122610092163,0.2433188557624817,2.112468242645264,0.011170696,-0.014058686,0.34666443
537,409758385,-2.3841207027435303,0.2454850524663925,2.112544059753418,-0.002145838,-0.010053291,0.3486271
538,409775052,-2.383504629135132,0.2440954148769378,2.1137020587921143,0.015158698,-0.0061293957,0.36561108
539,409791719,-2.3835694789886475,0.2434323728084564,2.113020896911621,-0.0017772039,-0.016224569,0.33003902
540,409808386,-2.3830456733703613,0.2447743266820907,2.1135942935943604,-0.00040509627,-0.00019785088,0.346385
541,409825053,-2.3820879459381104,0.2432989925146103,2.11280369758606,-0.002765407,0.0049750074,0.3499632
542,409841720,-2.383143663406372,0.2428239732980728,2.113243341445923,0.00613538,-0.01230144,0.33325863
543,409858387,-2.38379979133606,0.2428426593542099,2.114682197570801,-0.0029327676,0.007891237,0.34824753
544,409875054,-2.3840925693511963,0.2414041757583618,2.1152806282043457,0.0077088224,-0.00059019995,0.36108685
545,409891721,-2.3840575218200684,0.2413536459207534,2.115509510040283,-0.011294253,0.0048996694,0.33813858
546,409908388,-2.383331060409546,0.2403151392936706,2.115823268890381,0.0034633717,0.01053221,0.32914543
547,409925055,-2.3831241130828857,0.2411890029907226,2.1148104667663574,-0.000787857,-0.004880992,0.32688332
548,409941722,-2.3824079036712646,0.2396083176136016,2.1146388053894043,0.017861592,-0.0041842745,0.3279667
549,409958389,-2.3821465969085693,0.2391742020845413,2.115085363388061,-0.00981162,0.0027813814,0.34696865
550,409975056,-2.381291151046753,0.2394609451293945,2.1156392097473145,0.0051502325,8.546576e-05,0.3543911
551,409991723,-2.3808419704437256,0.2393710315227508,2.1160922050476074,-0.011487453,0.008351995,0.32527733
552,410008390,-2.380225896835327,0.2373111099004745,2.116935968399048,-0.0011786205,-0.002423062,0.3208065
553,410025057,-2.380522489547729,0.2355363219976425,2.116598129272461,0.00024524087,0.005554213,0.3347435
554,410041724,-2.380238771438598,0.2338722199201584,2.1163175106048584,0.010755161,-0.008364819,0.35723877
555,410058391,-2.380176305770874,0.2324822396039962,2.115225315093994,-0.000922211,4.8893457e-06,0.35731316
556,410075058,-2.380138397216797,0.2312455028295517,2.1150479316711426,0.01695565,-0.0059679914,0.34846687
557,410091725,-2.3808767795562744,0.2309276014566421,2.1161274909973145,0.0016485861,0.006144623,0.33703232
558,410108392,-2.380732774734497,0.2311476916074752,2.11669921875,0.011964787,0.002909091,0.33266068
559,410125059,-2.3816850185394287,0.2311962991952896,2.1164426803588867,0.0074828626,-0.0048636557,0.32848167
560,410141726,-2.38081955909729,0.2311993241310119,2.1161916255950928,-0.009309002,0.0039516394,0.31738663
561,410158393,-2.380495309829712,0.2306942343711853,2.116288423538208,0.0025932847,0.0028556015,0.3497877
562,410175060,-2.381335973739624,0.2307133823633194,2.115572214126587,0.0045430833,-0.0095498,0.36007023
563,410191727,-2.3814070224761963,0.2315097451210022,2.1162266731262207,-0.009468238,-0.0010606667,0.3374834
564,410208394,-2.381972312927246,0.2319285720586776,2.1163225173950195,0.012711033,-0.024344962,0.33015347
565,410225061,-2.3825607299804688,0.2314139902591705,2.115957260131836,0.010619771,0.002038899,0.3489895
566,410241728,-2.383014917373657,0.2311462014913559,2.1158313751220703,0.0110585885,-0.0108205695,0.34847355
567,410258395,-2.3830113410949707,0.2319254577159881,2.1168720722198486,-0.004924184,0.0053319293,0.34484005
568,410275062,-2.3823156356811523,0.2317376732826233,2.118279933929444,0.018753372,-0.005830475,0.35045433
569,410291729,-2.382867813110352,0.2309984117746353,2.117841958999634,0.00468355,0.00514619,0.33117676
570,410308396,-2.3833141326904297,0.2303801029920578,2.1191437244415283,0.005920869,0.0068451823,0.32491398
571,410325063,-2.383720636367798,0.2294166982173919,2.119381189346313,0.0010193832,0.00070037786,0.3617382
572,410341730,-2.383294105529785,0.229266345500946,2.119357824325561,-0.013686411,-0.009234969,0.35895252
573,410358397,-2.382952928543091,0.229396253824234,2.118702173233032,-0.0010415511,-0.006388196,0.32254696
574,410375064,-2.381931781768799,0.227626621723175,2.1190481185913086,-0.018708246,-0.0018465802,0.3456993
575,410391731,-2.3814430236816406,0.22747902572155,2.120086908340454,0.0079096155,-0.005144332,0.34343147
576,410408398,-2.3807532787323,0.2263676524162292,2.12004017829895,-0.0015537958,0.01564817,0.33357906
577,410425065,-2.380720376968384,0.2272322922945022,2.120919942855835,-0.0013320011,-0.0017470191,0.3317051
578,410441732,-2.3801090717315674,0.2276439070701599,2.120991468429565,0.0028317424,-0.020743888,0.33624172
579,410458399,-2.381171703338623,0.2276964485645294,2.121238946914673,0.0049374835,-0.019329596,0.33953
580,410475066,-2.380643367767334,0.2288843691349029,2.120369911193848,0.002466104,0.0019020394,0.33915997
581,410491733,-2.3801064491271973,0.2292608022689819,2.1205391883850098,-0.008415301,-0.018580673,0.33249092
582,410508400,-2.380454540252685,0.2296610623598098,2.1201932430267334,-0.0050582676,0.0071387524,0.3499174
583,410525067,-2.3802168369293213,0.230017215013504,2.1210412979125977,-0.0024608967,0.0047221305,0.35087395
584,410541734,-2.3801920413970947,0.2303899973630905,2.120842695236206,-0.00783499,-0.0071129366,0.329463
585,410558401,-2.3813135623931885,0.2309545576572418,2.120744466781616,0.007902485,0.011928244,0.35003376
586,410575068,-2.38196325302124,0.2302556037902832,2.1216697692871094,0.016170066,-0.0056316606,0.33720875
587,410591735,-2.382338285446167,0.2300666570663452,2.121687889099121,-0.0036984934,-0.00028683696,0.33191204
588,410608402,-2.382854700088501,0.2298416048288345,2.12034273147583,0.0007166751,0.0063634417,0.33907795
589,410625069,-2.383852958679199,0.2293290197849273,2.1206629276275635,0.012555388,-0.00903153,0.36121368
590,410641736,-2.3846099376678467,0.2298570573329925,2.120468854904175,0.00037151694,0.0013284073,0.35772228
591,410658403,-2.384300947189331,0.2287769764661789,2.1216955184936523,0.0060316254,-0.0011414946,0.34956646
592,410675070,-2.3834662437438965,0.2297761291265487,2.121141195297241,-0.006172153,-0.012623662,0.34916687
593,410691737,-2.383021831512451,0.2287254482507705,2.1214489936828613,0.008943363,-0.011964747,0.3412838
594,410708404,-2.382669448852539,0.2281964868307113,2.121131181716919,-0.00064362475,-0.00051285047,0.3319769
595,410725071,-2.38266921043396,0.2277565896511078,2.1206984519958496,0.00995795,-0.013272855,0.34770393
596,410741738,-2.382504463195801,0.228950634598732,2.1211678981781006,0.004519708,0.012471241,0.33833122
597,410758405,-2.381934881210327,0.2285810112953186,2.120602607727051,-3.4085726e-05,-0.006467543,0.3252468
598,410775072,-2.382053136825561,0.2285000383853912,2.120985984802246,0.0011360552,-0.0044005928,0.33385944
599,410791739,-2.382559537887573,0.2269192487001419,2.121333122253418,0.0025826574,-0.009617092,0.35293388
600,410808406,-2.386448383331299,0.2327849864959716,2.109321117401123,0.0010956483,-0.0013045194,0.32946014
601,410825073,-2.387080192565918,0.2319423109292984,2.1107001304626465,0.0029588419,-0.0039290087,0.33606625
602,410841740,-2.387389659881592,0.2322689592838287,2.112168312072754,0.002323796,0.0105498815,0.35758877
603,410858407,-2.387118101119995,0.2338611483573913,2.1124536991119385,-0.00036084943,-0.006090295,0.3401289
604,410875074,-2.38752818107605,0.2336118668317794,2.112035751342773,0.018053282,0.00449356,0.33728123
605,410891741,-2.387960433959961,0.2340874224901199,2.112283706665039,-0.0015208013,-0.008182139,0.35043716
606,410908408,-2.38736629486084,0.2346962094306945,2.1126441955566406,0.008089463,-0.00033417981,0.33801174
607,410925075,-2.38700795173645,0.234698086977005,2.1125214099884038,0.009672393,-0.009119357,0.33151722
608,410941742,-2.386425495147705,0.2355508357286453,2.113343477249145,0.016029285,0.013383327,0.33172798
609,410958409,-2.3868212699890137,0.2357556670904159,2.1137585639953613,0.0042054662,0.014370724,0.3421049
610,410975076,-2.3878908157348637,0.2354506850242614,2.113873243331909,0.007539017,0.00015641715,0.32204247
611,410991743,-2.387802600860596,0.2343364059925079,2.113522291183472,0.0069097406,0.008616913,0.34940243
612,411008410,-2.3883578777313232,0.232915997505188,2.1131112575531006,0.0038204824,-0.008714505,0.35486507
613,411025077,-2.38847017288208,0.233407974243164,2.113459825515747,0.0057067843,-0.0068422207,0.34514046
614,411041744,-2.3893210887908936,0.2332065105438232,2.115197896957397,-0.0045002988,0.001953517,0.34605694
615,411058411,-2.389375686645508,0.2342491000890731,2.115454912185669,-0.0023245923,-0.0073494134,0.35301495
616,411075078,-2.388852834701538,0.2340496629476547,2.115171194076538,-0.0075209527,-0.0012965009,0.33526516
617,411091745,-2.3892722129821777,0.2341394275426864,2.114473342895508,0.0075308797,-0.011603409,0.34884644
618,411108412,-2.389595031738281,0.2344144433736801,2.114346504211426,0.021941492,-0.005806238,0.3525753
619,411125079,-2.3890130519866943,0.2355129867792129,2.113408088684082,0.012522349,0.0041473666,0.33075714
620,411141746,-2.3888328075408936,0.2350551784038543,2.1146488189697266,0.015188972,0.001588339,0.3518362
621,411158413,-2.388356208801269,0.2354020178318023,2.114678144454956,0.0038137124,-0.010414363,0.35034466
622,411175080,-2.388485908508301,0.2351887822151184,2.115029573440552,0.005050442,0.00016844495,0.35527802
623,411191747,-2.388457536697388,0.2349524796009063,2.1159558296203613,-0.006468575,-0.0031797232,0.3502226
624,411208414,-2.3882036209106445,0.2362297028303146,2.11604642868042,0.0094440635,-0.003715316,0.32550526
625,411225081,-2.388521671295166,0.2365648597478866,2.1167116165161133,0.00023994116,-0.0022001218,0.34601402
626,411241748,-2.3888113498687744,0.237337976694107,2.115757703781128,-0.008179263,0.0031237751,0.32404327
627,411258415,-2.38850736618042,0.2383389770984649,2.115690231323242,-0.0066069365,0.008752851,0.3561287
628,411275082,-2.3888139724731445,0.2377858012914657,2.115570545196533,0.0077168685,-0.006357309,0.3526106
629,411291749,-2.38928484916687,0.2361109405755996,2.1146814823150635,0.0019803266,-0.008816524,0.34580135
630,411308416,-2.38887882232666,0.2365156263113021,2.114447832107544,-0.0044786846,0.0044724243,0.3504095
631,411325083,-2.389143228530884,0.2361111044883728,2.114596128463745,-0.003603565,-0.006153144,0.34942436
632,411341750,-2.3896186351776123,0.234521597623825,2.113465547561645,0.0096761985,-0.00816592,0.36155605
633,411358417,-2.389534473419189,0.2357422262430191,2.11321759223938,-0.0043928134,0.01540605,0.3203106
634,411375084,-2.390336751937866,0.2362463772296905,2.1143269538879395,0.00979907,0.013653051,0.3387413
635,411391751,-2.3898491859436035,0.2356985211372375,2.113631248474121,0.00042106,-0.0035206364,0.32344818
636,411408418,-2.3893938064575195,0.2372087836265564,2.114685535430908,0.0016214363,0.005235847,0.3458624
637,411425085,-2.389284610748291,0.2366256862878799,2.1143441200256348,0.0007866783,0.0026819739,0.33773518
638,411441752,-2.388762950897217,0.237341821193695,2.1144859790802,0.0053580473,0.005620722,0.3529663
639,411458419,-2.3887338638305664,0.2384909689426422,2.114241361618042,-0.0050418517,-0.004950365,0.3368473
640,411475086,-2.3879973888397217,0.2376108318567276,2.114384889602661,0.0016534667,-0.009225776,0.33423042
641,411491753,-2.388493061065674,0.2376421838998794,2.1149377822875977,0.0075947884,-0.0024347266,0.34091282
642,411508420,-2.38763427734375,0.2385755479335785,2.114587783813477,0.0038216524,0.010773478,0.3670969
643,411525087,-2.388187885284424,0.23874332010746,2.113964557647705,0.00182191,-0.0021292402,0.3359394
644,411541754,-2.3893792629241943,0.2400663197040558,2.1143341064453125,0.010789704,-0.00077670754,0.33210945
645,411558421,-2.3885114192962646,0.2415299862623214,2.115175485610962,0.01263953,0.0023318827,0.35387897
646,411575088,-2.3882763385772705,0.2424764186143875,2.11509370803833,0.00302676,-0.016978282,0.35296917
647,411591755,-2.38843035697937,0.2422078996896743,2.1154003143310547,0.0059674038,-0.017852552,0.3535738
648,411608422,-2.3882503509521484,0.2414465546607971,2.1162800788879395,-0.003987499,-0.009614633,0.33293724
649,411625089,-2.3896281719207764,0.2414827793836593,2.116356134414673,-0.0039675785,0.0044591394,0.35721684
650,411641756,-2.388335466384888,0.2411219626665115,2.115955114364624,0.005968571,0.0005597463,0.36939716
651,411658423,-2.3877973556518555,0.2417148798704147,2.115597009658813,-0.002273448,-0.003298185,0.3507328
652,411675090,-2.3882148265838623,0.2421750575304031,2.114260196685791,0.014174324,-0.00055006536,0.334548
653,411691757,-2.3889856338500977,0.241199254989624,2.113425970077514,0.0029944868,0.00044828316,0.309659
654,411708424,-2.3884260654449463,0.24109847843647,2.1142234802246094,0.0022535136,0.0010186183,0.34370995
655,411725091,-2.387794017791748,0.2414322197437286,2.114443778991699,0.002403695,-0.008745881,0.32517147
656,411741758,-2.3883392810821533,0.2413738220930099,2.1135659217834477,-0.004183307,-0.0067500356,0.36033344
657,411758425,-2.3877158164978027,0.2425694465637207,2.1137733459472656,-0.0039466345,-0.0056420118,0.34796143
658,411775092,-2.387770652770996,0.2423572540283203,2.1139721870422363,0.010072917,0.008251903,0.3340397
659,411791759,-2.388197660446167,0.2416525781154632,2.113592624664306,0.014672307,-0.015736094,0.33939743
660,411808426,-2.3881289958953857,0.2428075969219207,2.1130599975585938,0.016514389,0.0039010136,0.34637547
661,411825093,-2.3873610496521,0.2432338148355484,2.1132376194000244,-0.0022089279,0.0068825646,0.35441685
662,411841760,-2.38748836517334,0.2428459674119949,2.113358736038208,-0.0055193645,-0.0061761797,0.34527302
663,411858427,-2.3865177631378174,0.2433496117591858,2.114147663116455,0.004434025,-0.0010102087,0.3603754
664,411875094,-2.386043071746826,0.2426591962575912,2.112785816192627,0.009208154,-0.0024956898,0.35504723
665,411891761,-2.3850815296173096,0.2430391907691955,2.111792802810669,-0.0054238318,0.008842074,0.34864426
666,411908428,-2.384477138519287,0.2432173490524292,2.112653970718384,-0.0008895571,-0.0040550837,0.3412466
667,411925095,-2.384030103683472,0.2433399856090545,2.1121575832366943,-0.0059600654,-0.0009609101,0.3278618
668,411941762,-2.3834803104400635,0.2448566854000091,2.112942695617676,0.0056843255,-0.0036661993,0.3270235
669,411958429,-2.3839011192321777,0.243779718875885,2.113433837890625,0.003288149,0.0021616358,0.3173132
670,411975096,-2.3841140270233154,0.2448678314685821,2.113938331604004,0.009535833,-0.0070744227,0.33484554
671,411991763,-2.3842430114746094,0.2457470595836639,2.1128830909729004,0.003288169,-0.00020959927,0.33404636
672,412008430,-2.3838441371917725,0.245789036154747,2.1127524375915527,0.011979177,-0.00027873463,0.3327036
673,412025097,-2.383991479873657,0.2473123222589492,2.114123821258545,0.0069630286,-0.002842079,0.3400097
674,412041764,-2.3849923610687256,0.2461213618516922,2.11407732963562,0.008193733,0.013196708,0.3299408
675,412058431,-2.3849740028381348,0.2464874386787414,2.1148743629455566,0.002194754,-0.0029245133,0.3626585
676,412075098,-2.3844168186187744,0.2455093413591385,2.115011215209961,-0.003904204,-0.005722672,0.3492403
677,412091765,-2.384219169616699,0.245808258652687,2.1163692474365234,0.006526133,0.0127152465,0.35201263
678,412108432,-2.3846452236175537,0.2450803220272064,2.11592435836792,0.009087282,0.0031332604,0.33601952
679,412125099,-2.3846914768218994,0.2437905520200729,2.1158602237701416,0.00080118043,-0.011174837,0.34273815
680,412141766,-2.385232925415039,0.2437506169080734,2.1156346797943115,0.0009372038,0.00680115,0.33724022
681,412158433,-2.385895252227783,0.2444412112236023,2.114619255065918,0.0024566343,-0.007261615,0.32239723
682,412175100,-2.386155128479004,0.2439746558666229,2.114187002182007,0.0042292876,-0.012428103,0.33239746
683,412191767,-2.385998487472534,0.2440926879644394,2.1151347160339355,0.016617818,0.0020516114,0.31834984
684,412208434,-2.385556697845459,0.2434539794921875,2.115967273712158,-0.0038353915,-0.009721613,0.34460545
685,412225101,-2.385606527328491,0.2440186738967895,2.1167778968811035,0.0055427426,0.0011040842,0.3496828
686,412241768,-2.384561777114868,0.2458783835172653,2.115986585617065,0.015798945,-0.003095487,0.34673405
687,412258435,-2.3849213123321533,0.2460388094186782,2.115525484085083,0.008874475,-0.010032142,0.34861946
688,412275102,-2.384587526321411,0.2454012334346771,2.1154778003692627,0.003329325,-0.0008050238,0.34602547
689,412291769,-2.3851144313812256,0.2459799498319625,2.1163008213043213,0.005175006,-0.0013380185,0.3525219
690,412308436,-2.3895797729492188,0.260840505361557,2.105437994003296,0.3845221,0.038595967,0.34887218
691,412325103,-2.392050266265869,0.2629503607749939,2.107941150665283,0.9800769,0.016723296,0.35408592
692,412341770,-2.4084701538085938,0.2981040477752685,2.1431703567504883,0.56859887,0.17354998,0.30963707
693,412358437,-2.4208998680114746,0.3301921188831329,2.161736011505127,-0.08295259,-0.13158634,0.3369894
694,412375104,-2.431419849395752,0.3631510436534881,2.1622543334960938,-0.19840461,0.019219503,0.36486912
695,412391771,-2.4458372592926025,0.3974166214466095,2.168428659439087,-0.025128098,0.020468911,0.3694973
696,412408438,-2.467176914215088,0.4414521753787994,2.1857447624206543,0.15992849,0.0802358,0.31639862
697,412425105,-2.487614631652832,0.4892789423465729,2.195035219192505,0.005858135,-0.03505,0.34053898
698,412441772,-2.4961700439453125,0.5269495844841003,2.197845220565796,-0.11391667,-0.06567621,0.36579895
699,412458439,-2.4904444217681885,0.5393168926239014,2.2291650772094727,0.011297239,-0.034972683,0.34675884
700,412475106,-2.451341152191162,0.5272148847579956,2.2826695442199707,0.06288526,-0.045438215,0.38070202
701,412491773,-2.3982765674591064,0.5008993744850159,2.343156337738037,0.18666941,0.031505197,0.3278017
702,412508440,-2.361449718475342,0.5013468861579895,2.380307912826538,0.120658144,-0.016147204,0.3558731
703,412525107,-2.30386734008789,0.4779410064220428,2.403341293334961,0.1283981,-0.031670388,0.32119083
704,412541774,-2.285400867462158,0.5036562085151672,2.392315149307251,0.13666596,0.080061585,0.3346777
705,412558441,-2.261626482009888,0.5161234140396118,2.342893600463867,0.08151448,0.019456774,0.36295986
706,412575108,-2.254207134246826,0.5467987656593323,2.2549526691436768,0.14697005,0.035873607,0.33153057
707,412591775,-2.281132221221924,0.5962810516357422,2.1642441749572754,0.008615318,-0.08786579,0.3324623
708,412608442,-2.295724630355835,0.6228143572807312,2.060386896133423,-0.028668124,-0.08587352,0.34538078
709,412625109,-2.332259178161621,0.653116762638092,1.9764518737792969,-0.13284731,0.093861364,0.4112501
710,412641776,-2.3443737030029297,0.6492709517478943,1.9705331325531008,0.06449102,0.111665525,0.36867142
711,412658443,-2.323436498641968,0.595033586025238,2.0227575302124023,0.25637543,-0.007222821,0.36126614
712,412675110,-2.317612886428833,0.5701724290847778,2.1002421379089355,0.24117534,-0.02689674,0.32471275
713,412691777,-2.312654972076416,0.5615748763084412,2.1797642707824707,0.01964665,0.10614743,0.3300619
714,412708444,-2.3053057193756104,0.5379186272621155,2.2327303886413574,-0.08132538,0.047421988,0.40703487
715,412725111,-2.3047070503234863,0.5296720266342163,2.2179343700408936,0.13087444,-0.12120905,0.3111124
716,412741778,-2.3393824100494385,0.5584772825241089,2.1835663318634038,0.15274255,0.036293197,0.29415703
717,412758445,-2.3425936698913574,0.5607492327690125,2.1706109046936035,-0.0015437411,-0.007100071,0.3853693
718,412775112,-2.3454980850219727,0.5543659329414368,2.1572909355163574,-0.09587112,-0.034255553,0.32310867
719,412791779,-2.3483762741088867,0.5378748774528503,2.168416976928711,0.0015850386,0.013175405,0.33441734
720,412808446,-2.34609055519104,0.5059081315994263,2.199003219604492,0.045515098,-0.040174566,0.34527683
721,412825113,-2.334078550338745,0.4555476903915405,2.2324140071868896,-0.09679906,-0.09133724,0.33947563
722,412841780,-2.337520837783813,0.4366151988506317,2.214063167572021,-0.12215453,0.036475778,0.37378597
723,412858447,-2.341301679611206,0.4383847713470459,2.1507387161254883,0.08867729,-0.022807766,0.31333923
724,412875114,-2.3791115283966064,0.4673970639705658,2.097722291946411,-0.040835526,-0.028823448,0.40168
725,412891781,-2.378021001815796,0.4466826021671295,2.088253736495972,0.041403137,0.13265704,0.3391857
726,412908448,-2.3985531330108643,0.4461344182491302,2.100974798202514,0.09118079,-0.04043774,0.29241657
727,412925115,-2.4149930477142334,0.4571783542633056,2.070295572280884,-0.06130149,-0.10170151,0.3334608
728,412941782,-2.418829202651977,0.4478031694889068,1.978566288948059,-0.0010141656,-0.060230512,0.3035717
729,412958449,-2.425433397293091,0.4621908068656921,1.8622193336486816,-0.0058755237,-0.073854156,0.37253094
730,412975116,-2.408782482147217,0.4617194533348083,1.7716039419174194,0.3294556,0.11427701,0.27087593
731,412991783,-2.4004690647125244,0.4718158543109894,1.7040380239486694,-0.07721485,-0.041401584,0.3948021
732,413008450,-2.3868894577026367,0.4782993793487549,1.6867703199386597,0.045047946,0.06962915,0.30825138
733,413025117,-2.3495497703552246,0.4446610808372497,1.747442603111267,0.101504594,-0.036896277,0.39287853
734,413041784,-2.2757527828216557,0.3759389519691467,1.7972043752670288,-0.075421765,-0.22902276,0.3227911
735,413058451,-2.2181661128997803,0.3651511073112488,1.7730920314788818,0.035822727,0.16025,0.27893925
736,413075118,-2.14811635017395,0.3694798052310943,1.7465299367904663,-0.080725476,-0.2567619,0.35415745
737,413091785,-2.038657188415528,0.3475237786769867,1.7229067087173462,-0.06754299,0.09877956,0.32780552
738,413108452,-1.949195146560669,0.3077729046344757,1.7210062742233276,-0.08565086,0.130531,0.4226389
739,413125119,-1.930304765701294,0.2879642248153686,1.7902125120162964,0.32742718,0.32363582,0.23647118
740,413141786,-1.902427077293396,0.2440264672040939,1.857394814491272,-0.24308884,-0.51136684,0.4994154
741,413158453,-1.826488018035889,0.1522898375988006,1.8194185495376587,0.029026646,0.123923436,0.2770834
742,413175120,-1.8375790119171145,0.1575813889503479,1.7489169836044312,-0.2504822,0.192931,0.40899277
743,413191787,-1.8157601356506348,0.0991682559251785,1.6437196731567385,-0.321291,-0.24013513,0.37165928
744,413208454,-1.823097944259644,0.0569368042051792,1.6080803871154783,0.11504403,0.31995913,0.33633804
745,413225121,-1.843686819076538,0.0261048693209886,1.640106201171875,0.186914,-0.13459451,0.39638042
746,413241788,-1.8624669313430784,-0.0262127313762903,1.6495094299316406,0.37843296,0.09856625,0.3436699
747,413258455,-1.9055205583572388,-0.0801499038934707,1.664150595664978,-0.07346568,0.06248769,0.37598705
748,413275122,-1.9308645725250244,-0.1349683105945587,1.657288908958435,-0.11533685,-0.03509117,0.30723763
749,413291789,-1.9824694395065308,-0.1396282315254211,1.6306225061416626,-0.094270445,-0.02607878,0.35500908
750,413308456,-1.9899752140045168,-0.1943697035312652,1.6096739768981934,0.0018959923,-0.17357305,0.35595036
751,413325123,-2.0051708221435547,-0.2488541901111602,1.595030665397644,0.27526388,0.0822436,0.24447918
752,413341790,-2.0404303073883057,-0.2782845795154571,1.5558574199676514,0.10387594,0.08874167,0.36144733
753,413358457,-2.071836471557617,-0.242158755660057,1.5720478296279907,0.14025277,0.098483086,0.27315617
754,413375124,-2.0982308387756348,-0.2008273750543594,1.5764071941375732,-0.09578191,-0.18124235,0.35976028
755,413391791,-2.1424717903137207,-0.1509951800107956,1.499548077583313,0.05381791,0.032612845,0.37197495
756,413408458,-2.197101831436157,-0.081708014011383,1.458452820777893,0.1487628,0.09862703,0.30754757
757,413425125,-2.241605520248413,-0.0489921495318412,1.444550633430481,-0.01501009,-0.027985554,0.27578545
758,413441792,-2.278355836868286,-0.0113864764571189,1.4224494695663452,-0.036966816,-0.063288644,0.3570814
759,413458459,-2.328521728515625,0.0483546741306781,1.3950055837631226,-0.07940589,0.024757426,0.32236385
760,413475126,-2.3878016471862797,0.1266478598117828,1.3639298677444458,0.0027858256,0.032460604,0.33060074
761,413491793,-2.440800905227661,0.2107431888580322,1.3218399286270142,0.15686171,-0.14957793,0.31598282
762,413508460,-2.4289450645446777,0.2185865044593811,1.2956993579864502,-0.13847269,-0.16252178,0.4533987
763,413525127,-2.344407081604004,0.1492252647876739,1.3050057888031006,0.14917411,-0.11258307,0.30276966
764,413541794,-2.288435220718384,0.1166632324457168,1.286669135093689,0.16361113,0.09310059,0.33151627
765,413558461,-2.234955310821533,0.1148163601756095,1.298940896987915,-0.007372544,0.08095194,0.3590803
766,413575128,-2.173260450363159,0.103313073515892,1.2900152206420898,-0.22764136,-0.031198805,0.46203518
767,413591795,-2.128431558609009,0.0643400251865387,1.2684121131896973,-0.3152502,-0.11994892,0.36213017
768,413608462,-2.0582075119018555,-0.0066441833041608,1.2497073411941528,-0.15850781,-0.14745285,0.34041977
769,413625129,-2.015296459197998,-0.019137093797326,1.2144396305084229,0.10784787,0.4965784,0.2138977
770,413641796,-2.0968785285949707,0.1184373795986175,1.2002795934677124,0.24037251,0.19505447,0.18926525
771,413658463,-2.133283853530884,0.2044549137353897,1.1872550249099731,-0.3883412,-0.49829108,0.55887794
772,413675130,-2.049118995666504,0.1270009726285934,1.1158794164657593,-0.45593607,-0.24906227,0.4148779
773,413691797,-1.9744685888290403,0.0099752554669976,1.0227378606796265,0.15610506,-0.018201442,0.36241245
774,413708464,-1.8993744850158687,-0.0832985639572143,0.9735642075538636,0.24858814,0.23395395,0.26388073
775,413725131,-1.880962371826172,-0.1094996929168701,0.9314711093902588,-0.019716602,0.27014345,0.32542133
776,413741798,-1.9013752937316892,-0.1179324239492416,0.8214184045791626,-0.26818508,-0.18898241,0.3838644
777,413758465,-1.8847862482070925,-0.1950221508741378,0.737323522567749,-0.058710415,-0.111077264,0.38496017
778,413775132,-1.8568652868270876,-0.291949450969696,0.7595582604408264,0.21678741,0.16522805,0.35685635
779,413791799,-1.86146879196167,-0.3279670178890228,0.7401844263076782,0.088069655,0.010035774,0.26046944
780,413808466,-1.8811923265457156,-0.3362164795398712,0.7315513491630554,-0.12832518,-0.031601965,0.32742023
781,413825133,-1.8843294382095337,-0.3511677980422973,0.716892421245575,-0.032524463,-0.046089128,0.36247635
782,413841800,-1.8709840774536133,-0.3507006764411926,0.6996580958366394,0.048390336,-0.062397778,0.3459568
783,413858467,-1.873096346855164,-0.3409972488880157,0.6620645523071289,-0.01246447,0.076382466,0.34238434
784,413875134,-1.8950893878936768,-0.3162224292755127,0.6124011278152466,-0.053308755,-0.04438323,0.32224083
785,413891801,-1.9210180044174197,-0.296820729970932,0.5677782893180847,-0.059543084,0.10608233,0.3353157
786,413908468,-1.9466853141784668,-0.2910523414611816,0.547878086566925,0.018510308,-0.0800624,0.3358345
787,413925135,-1.9411476850509644,-0.304567277431488,0.5037274956703186,0.021213422,-0.10425766,0.36941147
788,413941802,-1.9183030128479004,-0.3285650312900543,0.4379921853542328,0.00029814008,-0.109048426,0.32020283
789,413958469,-1.8441579341888428,-0.4012334644794464,0.3711006641387939,-0.23586713,-0.12831049,0.32794666
790,413975136,-1.800947189331055,-0.4423278868198395,0.335229754447937,0.15886456,0.1806227,0.2907982
791,413991803,-1.7842000722885132,-0.4471091032028198,0.3130868971347809,0.08680559,0.023748446,0.3308916
792,414008470,-1.818241834640503,-0.3941116034984588,0.2624512612819671,0.1316799,0.15200385,0.26235294
793,414025137,-1.9025028944015503,-0.2691145539283752,0.2086427509784698,0.097192235,0.18738376,0.35270977
794,414041804,-1.956576228141785,-0.1794953942298889,0.2183145731687545,-0.20254458,-0.17463711,0.36580086
795,414058471,-1.94107186794281,-0.1770874857902526,0.2481954395771026,-0.20846196,-0.15245293,0.44052124
796,414075138,-1.9130209684371948,-0.2042198777198791,0.2398765981197357,0.032938767,-0.13754126,0.33045387
797,414091805,-1.8707250356674197,-0.2346277236938476,0.2480587363243103,0.19976406,0.05551714,0.28756714
798,414108472,-1.8487673997879028,-0.2348282635211944,0.3017738163471222,0.27760017,-0.02596367,0.27629662
799,414125139,-1.807755827903748,-0.1969010978937149,0.3647368252277374,0.16588646,0.062036622,0.26997375
800,414141806,-1.816573143005371,-0.149659514427185,0.4927796423435211,-0.13839883,0.30771634,0.45499134
801,414158473,-1.8132970333099363,-0.1662826091051101,0.5054065585136414,-0.45259073,-0.3883469,0.46870422
802,414175140,-1.796126365661621,-0.2339488416910171,0.463429719209671,0.23317386,0.08475817,0.37590694
803,414191807,-1.795505166053772,-0.2855565249919891,0.4114049971103668,0.43367246,0.12085091,0.2958536
804,414208474,-1.811013340950012,-0.3071557581424713,0.3701311349868774,0.3556879,-0.078007616,0.3625784
805,414225141,-1.793441653251648,-0.3540697693824768,0.4198749959468841,0.38737002,-0.05284271,0.3351698
806,414241808,-1.754875421524048,-0.4216101467609405,0.453289657831192,-0.015486492,-0.09769612,0.42091084
807,414258475,-1.7298678159713743,-0.4632727801799774,0.4550392031669616,0.025708454,0.10534792,0.2921381
808,414275142,-1.718820571899414,-0.4837811291217804,0.4271873533725738,-0.13988808,-0.02545881,0.3236065
809,414291809,-1.7004660367965698,-0.5014070272445679,0.4002471566200256,-0.11366546,0.007052644,0.34112644
810,414308476,-1.7102872133255005,-0.5203660130500793,0.3623616695404053,-0.3214211,-0.049892228,0.33050728
811,414325143,-1.7196747064590454,-0.5481013655662537,0.3101606667041778,-0.2507369,-0.040385608,0.34384918
812,414341810,-1.689264178276062,-0.604213535785675,0.2202822715044021,-0.14594756,-0.30000207,0.46354008
813,414358477,-1.5748586654663086,-0.6816394925117493,0.038711279630661,0.013180726,-0.14156552,0.3928671
814,414375144,-1.4899336099624634,-0.7513531446456909,-0.1376571655273437,0.13894959,0.22933352,0.2998762
815,414391811,-1.4787062406539917,-0.7793540954589844,-0.3126789927482605,0.09788348,0.032576833,0.3453083
816,414408478,-1.4922107458114624,-0.7813131213188171,-0.481563925743103,0.15714741,0.11345011,0.2971096
817,414425145,-1.4909882545471191,-0.7776516675949097,-0.5999953746795654,0.26907262,-0.06316011,0.3095789
818,414441812,-1.4834579229354858,-0.7657723426818848,-0.6693564057350159,0.13861142,-0.015686935,0.2412138
819,414458479,-1.51409912109375,-0.7154438495635986,-0.7420867681503296,-0.17503583,0.111657456,0.32333565
820,414475146,-1.6023482084274292,-0.6105160713195801,-0.8924940228462219,-0.22354953,0.10868455,0.26281357
821,414491813,-1.7386943101882937,-0.4537550806999206,-1.073814868927002,0.0019861711,0.14411514,0.25008392
822,414508480,-1.8806512355804443,-0.3002015352249145,-1.1991883516311646,0.24453114,-0.11449978,0.39854527
823,414525147,-1.966482162475586,-0.1787101775407791,-1.2455838918685913,0.12988544,-0.117369026,0.31686974
824,414541814,-2.044600248336792,-0.0648513510823249,-1.2969529628753662,-0.04675789,-0.19353668,0.3888073
825,414558481,-2.100898027420044,0.0595762729644775,-1.388047218322754,0.024650311,0.13002925,0.25773335
826,414575148,-2.19008469581604,0.2274653911590576,-1.4043447971343994,0.21822564,0.12988997,0.20721436
827,414591815,-2.284308910369873,0.3912916481494903,-1.3251008987426758,-0.20986928,-0.022114288,0.70109653
828,414608482,-2.307806968688965,0.4033634662628174,-1.2459161281585691,-0.5488389,-0.2166677,0.44197464
829,414625149,-2.328256845474243,0.3626493513584137,-1.1671857833862305,-0.48542264,0.020940483,0.37938595
830,414641816,-2.325406789779663,0.3139037489891052,-1.104720115661621,-0.040493324,-0.102539405,0.26128864
831,414658483,-2.326965093612671,0.3299342691898346,-1.0651122331619265,0.31862685,0.21502005,0.25938606
832,414675150,-2.320397138595581,0.3363028168678283,-0.8601074814796448,0.39613417,-0.04738423,0.41442966
833,414691817,-2.321255922317505,0.3562453985214233,-0.6156272292137146,0.47229606,0.047571994,0.24874687
834,414708484,-2.351999282836914,0.4184029102325439,-0.3482899069786072,0.03791574,0.034895472,0.45138645
835,414725151,-2.345677137374878,0.4087568521499634,-0.0201551523059606,-0.24420288,-0.07393582,0.25653648
836,414741818,-2.333810329437256,0.3992945849895477,0.2820302546024322,-0.29688933,0.043735813,0.4061737
837,414758485,-2.32033920288086,0.372446596622467,0.4577314853668213,-0.36734712,-0.21098676,0.353961
838,414775152,-2.3066139221191406,0.3164139986038208,0.5337731242179871,-0.012145383,0.019468104,0.34121895
839,414791819,-2.2905681133270264,0.2811225950717926,0.6018528342247009,0.22220603,0.03750176,0.3151884
840,414808486,-2.2936854362487797,0.2843840718269348,0.6881621479988098,0.17024656,0.07895502,0.38791752
841,414825153,-2.275895357131958,0.2630973160266876,0.7960551977157593,0.18873991,-0.059836585,0.289176
842,414841820,-2.283769369125366,0.2552040219306946,0.8692262172698975,-0.044926573,0.039070483,0.3864603
843,414858487,-2.279423713684082,0.2217277139425277,0.8747839331626892,-0.06292293,-0.08898928,0.3584652
844,414875154,-2.24704384803772,0.1622300595045089,0.9065241813659668,0.040542804,-0.09967967,0.34624672
845,414891821,-2.193563222885132,0.0874640643596649,0.9929540157318116,-0.10837164,-0.009521806,0.2605257
846,414908488,-2.149864435195923,0.0465522110462188,1.1307651996612549,-0.046931818,0.20115866,0.26922607
847,414925155,-2.170003890991211,0.0990941748023033,1.214227318763733,-0.01933406,0.13489054,0.28961277
848,414941822,-2.2123045921325684,0.1746691167354583,1.2058180570602417,-0.18727492,-0.19548626,0.44687653
849,414958489,-2.214688539505005,0.1720803678035736,1.253017544746399,-0.071303934,0.06923585,0.36441898
850,414975156,-2.201842784881592,0.1536778062582016,1.4079035520553589,0.119453944,0.058247447,0.36620712
851,414991823,-2.210484743118286,0.1680226624011993,1.5907264947891235,0.0809413,-0.05129199,0.2858143
852,415008490,-2.192265033721924,0.1514111757278442,1.7733871936798096,-0.24600786,-0.04668092,0.40334988
853,415025157,-2.1829943656921387,0.1366135030984878,1.8561965227127075,-0.13435818,-0.07186516,0.46287727
854,415041824,-2.1801204681396484,0.1170413121581077,1.862856388092041,0.24326245,0.111001246,0.16110802
855,415058491,-2.187285184860229,0.1370521485805511,1.9045541286468504,0.17386772,-0.020065289,0.41069984
856,415075158,-2.158320665359497,0.0931818112730979,1.985082507133484,0.0051812697,-0.10389847,0.33349037
857,415091825,-2.133107662200928,0.0516059659421443,2.110956907272339,0.19824792,0.05258448,0.33814716
858,415108492,-2.1104536056518555,0.0265395790338516,2.2139954566955566,0.052126538,0.014937636,0.38742828
859,415125159,-2.084059953689575,-0.0218151807785034,2.272752523422241,-0.18712905,-0.085466005,0.33103275
860,415141826,-2.064696788787842,-0.0887650251388549,2.2206828594207764,-0.35374117,0.0663127,0.3680811
861,415158493,-2.059166431427002,-0.1449950188398361,2.1607182025909424,-0.090502396,-0.20094827,0.34006786
862,415175160,-2.0556857585906982,-0.1798244267702102,2.109804630279541,0.08558983,0.193327,0.2673807
863,415191827,-2.0534985065460205,-0.2036329507827758,2.085254430770874,-0.052391876,-0.12743716,0.40381622
864,415208494,-2.027909517288208,-0.2523117959499359,1.991188883781433,-0.047818333,-0.08368557,0.38243008
865,415225161,-2.020965099334717,-0.2934461534023285,1.861615896224976,0.1551413,0.056923803,0.31609726
866,415241828,-2.014230251312256,-0.34360271692276,1.7806950807571411,0.17775482,-0.08545804,0.3732481
867,415258495,-1.996957778930664,-0.3586076200008392,1.7726103067398071,-0.019302135,0.09206713,0.3010397
868,415275162,-2.011826038360596,-0.3324519991874695,1.8251198530197144,-0.14135887,0.20433009,0.23497105
869,415291829,-2.054889678955078,-0.2611000835895538,1.833830952644348,-0.2429607,-0.025050355,0.30620098
870,415308496,-2.0952484607696533,-0.195253238081932,1.8414469957351685,-0.16554882,0.024011858,0.3775034
871,415325163,-2.118143081665039,-0.1670202165842056,1.8087660074234009,-0.10224022,-0.26714608,0.42122173
872,415341830,-2.102989435195923,-0.1806333661079406,1.7726527452468872,0.097725414,-0.0004099088,0.35550308
873,415358497,-2.073666572570801,-0.1982679814100265,1.7731037139892578,0.07684878,0.058639687,0.311121
874,415375164,-2.087130069732666,-0.1798221468925476,1.7300697565078735,-0.016774444,0.028848132,0.2802286
875,415391831,-2.0904483795166016,-0.1641209423542022,1.714277744293213,-0.042016614,0.017503439,0.4006424
876,415408498,-2.0883829593658447,-0.1554026156663894,1.6935787200927734,-0.08728469,-0.05716907,0.37578392
877,415425165,-2.081651449203491,-0.1466300040483474,1.6630586385726929,-0.09110007,-0.024242062,0.30779362
878,415441832,-2.085589647293091,-0.1188553646206855,1.6447992324829102,-0.11969633,0.061713617,0.29296684
879,415458499,-2.120046615600586,-0.0484357923269271,1.579068660736084,0.015332842,0.033412475,0.33261108
880,415475166,-2.1573925018310547,0.0323810055851936,1.5071449279785156,-0.012857139,-0.036459573,0.34617233
881,415491833,-2.193593978881836,0.1099387183785438,1.3507311344146729,-0.12307763,-0.06879257,0.40415478
882,415508500,-2.2193596363067627,0.1626239418983459,1.156826138496399,-0.05376726,-0.055239327,0.36112976
883,415525167,-2.216119766235352,0.1841762661933899,0.9621626734733582,-0.15551984,-0.08173113,0.38607883
884,415541834,-2.211423397064209,0.1835645884275436,0.821696400642395,-0.03816493,0.088498674,0.36186695
885,415558501,-2.2130980491638184,0.1956198662519455,0.7848904728889465,0.15959586,0.098219365,0.33754253
886,415575168,-2.222108125686645,0.2175940126180648,0.7816351056098938,-0.08258236,-0.07286783,0.3886156
887,415591835,-2.21955680847168,0.2191434353590011,0.774135410785675,-0.21201038,0.013478264,0.3610239
888,415608502,-2.2074458599090576,0.2036753296852111,0.7277381420135498,-0.14106368,-0.16692668,0.33339596
889,415625169,-2.172016143798828,0.1584702879190445,0.5269978642463684,-0.25292084,-0.15314771,0.36912537
890,415641836,-2.1189932823181152,0.084366887807846,0.2225181013345718,0.07784389,-0.08139044,0.41436958
891,415658503,-2.0428147315979004,-0.0291057433933019,0.030574195086956,0.3466349,-0.02638178,0.3767252
892,415675170,-1.9548795223236084,-0.1517589539289474,-0.0386157557368278,0.2514241,0.017276531,0.32342148
893,415691837,-1.895473599433899,-0.2554168999195099,-0.0683439075946807,0.15955697,0.005557552,0.3012228
894,415708504,-1.828265190124512,-0.350811243057251,-0.0309405140578746,-0.03599913,0.20913132,0.23818684
895,415725171,-1.815713167190552,-0.377934455871582,-0.0243033096194267,-0.12013134,0.093155,0.30426216
896,415741838,-1.8394800424575808,-0.3629680275917053,-0.0618161149322986,-0.25950277,-0.03981439,0.37093353
897,415758505,-1.8621697425842283,-0.3515824973583221,-0.1514549255371093,-0.08732376,0.0095747085,0.34267235
898,415775172,-1.875601291656494,-0.3445691168308258,-0.2240048348903656,0.1165095,-0.008864887,0.35151005
899,415791839,-1.8691211938858032,-0.3643199205398559,-0.2144236117601394,0.1862981,-0.040458262,0.34439564
900,415808506,-1.8716744184494016,-0.3686931729316711,-0.2406246364116668,0.035479404,-0.003312518,0.30018044
901,415825173,-1.8889185190200808,-0.338970810174942,-0.2700862884521484,-0.30151132,0.017474229,0.34219646
902,415841840,-1.8877615928649905,-0.3401735723018646,-0.3092716932296753,-0.32477462,-0.096525274,0.41131496
903,415858507,-1.8595073223114011,-0.3867912590503692,-0.3133121728897095,-0.01608438,-0.08178868,0.41354752
904,415875174,-1.7869654893875122,-0.4907487630844116,-0.2996366620063782,-0.013760858,-0.15586303,0.42091656
905,415891841,-1.6852792501449585,-0.6438649892807007,-0.2933231294155121,0.03459492,-0.11735992,0.3678751
906,415908508,-1.5652568340301514,-0.8227841854095459,-0.304948627948761,-0.028916545,-0.111174926,0.37185192
907,415925175,-1.4407552480697632,-1.0128988027572632,-0.3244604766368866,-0.09527324,0.07455697,0.3477831
908,415941842,-1.370825171470642,-1.1302640438079834,-0.2716692984104156,0.26613584,0.39097065,0.13813877
909,415958509,-1.3503894805908203,-1.1429972648620603,-0.2319101095199585,0.15609059,-0.004266513,0.32979202
910,415975176,-1.343514084815979,-1.1462140083312988,-0.2259222269058227,-0.029294461,0.062288765,0.33815956
911,415991843,-1.3464534282684326,-1.1426408290863037,-0.2283960282802581,-0.064746045,-0.10933255,0.35457993
912,416008510,-1.3615573644638062,-1.1290345191955566,-0.2448486983776092,0.022707408,0.13369447,0.2628641
913,416025177,-1.4096111059188845,-1.0538194179534912,-0.2520848512649536,0.2033204,0.14539404,0.28151512
914,416041844,-1.5040974617004397,-0.9064209461212158,-0.2514938712120056,0.2873604,0.20999002,0.2488985
915,416058511,-1.6716989278793335,-0.674933671951294,-0.2804922461509704,0.18964069,0.11098862,0.3095913
916,416075178,-1.8491785526275637,-0.4281035959720611,-0.2793354094028473,-0.16595331,-0.034428302,0.34125328
917,416091845,-1.9651302099227903,-0.2561505138874054,-0.2601393759250641,-0.44354874,-0.25513077,0.4294119
918,416108512,-2.0111820697784424,-0.1809607446193695,-0.2764586508274078,-0.39846486,-0.27267015,0.45175743
919,416125179,-2.027729749679565,-0.1551577150821685,-0.3135906159877777,0.012392452,-0.06349496,0.33893108
920,416141846,-2.028111219406128,-0.1474749892950058,-0.3296142220497131,0.05555355,-0.07505782,0.35276985
921,416158513,-2.0311439037323,-0.1378963738679886,-0.354532778263092,0.17094056,0.030896489,0.35168457
922,416175180,-2.0353286266326904,-0.1218221783638,-0.3892843425273895,0.011361532,-0.04318372,0.32363796
923,416191847,-2.0466113090515137,-0.0985820963978767,-0.4402020275592804,0.077566445,0.043589205,0.31459713
924,416208514,-2.057086229324341,-0.0754464194178581,-0.4970061480998993,0.05306563,-0.026961097,0.35564518
925,416225181,-2.055824279785156,-0.0782902985811233,-0.586401641368866,-0.3137272,-0.19445466,0.40541172
926,416241848,-2.0294411182403564,-0.1151569634675979,-0.663320779800415,-0.2725383,0.07574774,0.35994053
927,416258515,-2.0083653926849365,-0.1403426975011825,-0.7884870767593384,-0.16605952,-0.066639215,0.29414272
928,416275182,-1.9847561120986936,-0.144282191991806,-0.9327265620231628,0.0063596955,0.04044027,0.33448887
929,416291849,-1.9841810464859009,-0.1290585547685623,-1.03217875957489,0.049362946,0.11057564,0.3111143
930,416308516,-1.989784598350525,-0.1212793588638305,-1.0973272323608398,-0.09698892,-0.08616525,0.3843956
931,416325183,-1.9827091693878172,-0.14459328353405,-1.149966835975647,-0.08775052,-0.07819908,0.39125347
932,416341850,-1.9760187864303589,-0.1712201982736587,-1.2152369022369385,-0.06296117,0.0018847171,0.38213825
933,416358517,-1.9584136009216309,-0.22639761865139,-1.299086332321167,-0.01806736,-0.09086545,0.39145088
934,416375184,-1.93346643447876,-0.2778755724430084,-1.3425853252410889,0.11392357,0.09250511,0.27107525
935,416391851,-1.9323952198028564,-0.2835066318511963,-1.373402714729309,-0.05712717,0.05345269,0.36071873
936,416408518,-1.9258856773376465,-0.3003744184970855,-1.4105290174484253,-0.17896153,-0.14513877,0.41937637
937,416425185,-1.8867000341415403,-0.3672401010990143,-1.4525113105773926,-0.066037074,-0.06961582,0.32176685
938,416441852,-1.8458874225616453,-0.4352889358997345,-1.4983842372894287,-0.015115565,0.0059505296,0.3483839
939,416458519,-1.7886594533920288,-0.5225017666816711,-1.5303523540496826,-0.039891217,-0.0843635,0.36093807
940,416475186,-1.7560707330703735,-0.5787086486816406,-1.5337809324264526,0.044404823,0.1972938,0.22166824
941,416491853,-1.7926021814346311,-0.5426570177078247,-1.4921599626541138,0.17231959,0.25598067,0.2604723
942,416508520,-1.8741512298583984,-0.4481946229934692,-1.4148619174957275,0.09189976,0.0630591,0.3265953
943,416525187,-1.947053074836731,-0.344897598028183,-1.3910847902297974,-0.19948535,-0.119922996,0.36233807
944,416541854,-1.995174050331116,-0.2775904536247253,-1.383202075958252,-0.23562664,-0.0748761,0.40241718
945,416558521,-2.022972583770752,-0.2410245239734649,-1.3976290225982666,-0.13999397,-0.107051164,0.37185574
946,416575188,-2.038517475128174,-0.2250306457281112,-1.387831449508667,0.06825944,0.04560589,0.34115314
947,416591855,-2.0480856895446777,-0.2196897119283676,-1.3688910007476809,0.090123,-0.062456325,0.3707657
948,416608522,-2.0410752296447754,-0.2460049837827682,-1.3723236322402954,-0.09198882,-0.121116966,0.39635754
949,416625189,-2.035292863845825,-0.2589673101902008,-1.4181681871414185,-0.030321816,0.038667,0.31822777
950,416641856,-2.0366644859313965,-0.2532814145088196,-1.503199338912964,-0.04975783,-0.045619052,0.32256985
951,416658523,-2.0367679595947266,-0.2402904033660888,-1.599874496459961,-0.15717609,-0.0286665,0.34637737
952,416675190,-2.0354247093200684,-0.2357683479785919,-1.7316157817840576,-0.27282852,0.006705361,0.3245449
953,416691857,-2.042919397354126,-0.2128500640392303,-1.925623059272766,-0.044246882,0.074034885,0.30564976
954,416708524,-2.08137583732605,-0.1357526630163192,-2.072822093963623,0.033889495,0.1139382,0.30475903
955,416725191,-2.10921573638916,-0.0824405029416084,-2.1857786178588867,-0.41407642,-0.23416665,0.41680145
956,416741858,-2.0816164016723637,-0.1358016580343246,-2.166580438613892,-0.10224015,0.060461342,0.36650467
957,416758525,-2.092132568359375,-0.1319909840822219,-2.129101037979126,0.13788769,0.03862755,0.32605553
958,416775192,-2.092066526412964,-0.1285227090120315,-2.1312105655670166,-0.047066726,-0.011994851,0.3660612
959,416791859,-2.089972496032715,-0.1311907321214676,-2.130787134170532,0.013921017,-0.007996609,0.34670925
960,416808526,-2.0920183658599854,-0.1280616819858551,-2.131636381149292,0.006941433,-0.00664518,0.34528255
961,416825193,-2.092012882232666,-0.1307601928710937,-2.132661819458008,-0.014587109,-0.011664429,0.3432045
962,416841860,-2.0927541255950928,-0.1296716928482055,-2.133350372314453,-0.009818379,0.0070179855,0.34152794
963,416858527,-2.091564416885376,-0.1305559128522873,-2.133655548095703,-0.011384578,-0.023518186,0.35081768
964,416875194,-2.0913562774658203,-0.1302514672279358,-2.133805274963379,-0.001443396,-0.0018736533,0.3297224
965,416891861,-2.092102289199829,-0.1296452432870865,-2.134629964828491,-0.018609874,-0.02210796,0.33647823
966,416908528,-2.092278957366944,-0.1283695548772812,-2.1348073482513428,0.0031667524,-0.013022088,0.32916737
967,416925195,-2.092047452926636,-0.1277342438697815,-2.1353371143341064,-0.02472323,-0.0057910252,0.34165764
968,416941862,-2.0914294719696045,-0.1280780583620071,-2.1359682083129883,-0.00087154994,-0.015820904,0.32260323
969,416958529,-2.090825080871582,-0.1292610168457031,-2.1362881660461426,-0.0137792155,-0.0074057663,0.35530376
970,416975196,-2.090928077697754,-0.1292504072189331,-2.13670015335083,-0.012668161,-0.0054622516,0.3173933
971,416991863,-2.0910849571228027,-0.128122940659523,-2.13751482963562,-0.0166238,-0.009628687,0.34338474
972,417008530,-2.09023118019104,-0.1275470852851867,-2.136505365371704,-0.0020306061,-0.02880614,0.34665203
973,417025197,-2.0901894569396973,-0.1284847110509872,-2.1365115642547607,-0.015030279,-0.012550155,0.31076622
974,417041864,-2.0897138118743896,-0.1278032660484314,-2.136720657348633,-0.0077825314,-0.013689568,0.37876892
975,417058531,-2.0889551639556885,-0.1270376443862915,-2.1382811069488525,-0.020915473,-0.019806726,0.34467316
976,417075198,-2.088022470474243,-0.1274503469467163,-2.13934326171875,-0.015639871,-0.010216889,0.34118366
977,417091865,-2.087205171585083,-0.1269858926534652,-2.1389851570129395,-0.012924545,-0.013326247,0.3382597
978,417108532,-2.087810039520264,-0.1275580376386642,-2.138885736465454,-0.003393437,-0.018868014,0.3623762
979,417125199,-2.0885331630706787,-0.1267460137605667,-2.139889717102051,-0.0073892614,-0.0064871004,0.34858704
980,417141866,-2.0888283252716064,-0.1266855299472808,-2.138425827026367,0.00586655,-0.005948099,0.31907272
981,417158533,-2.0880651473999023,-0.1265351772308349,-2.138978242874145,-0.02311079,-0.01382904,0.35457706
982,417175200,-2.088487148284912,-0.1251799613237381,-2.138937473297119,-0.01203206,-0.0283629,0.36430168
983,417191867,-2.0883469581604004,-0.1247726678848266,-2.139009952545166,-0.010921491,-0.006876404,0.3385563
984,417208534,-2.088125467300415,-0.1244473308324813,-2.1393187046051025,-0.009089621,-0.013046004,0.34653473
985,417225201,-2.0886435508728027,-0.1248310357332229,-2.139212131500244,-0.008702735,-0.00798352,0.33148384
986,417241868,-2.0891599655151367,-0.124547503888607,-2.1390540599823,-0.019632956,-0.003591909,0.33652592
987,417258535,-2.089146852493286,-0.1235151812434196,-2.138887882232666,0.0026669374,-0.01170582,0.34817982
988,417275202,-2.0871832370758057,-0.1248830631375312,-2.1363625526428223,0.082565874,-0.08559123,0.27514935
989,417291869,-2.097403287887573,-0.0924090147018432,-2.1077256202697754,0.6460164,0.14518015,0.44524574
990,417308536,-2.118952989578247,-0.1052797511219978,-2.069796085357666,0.7206714,-0.084427364,0.3851652
991,417325203,-2.1273417472839355,-0.134060338139534,-2.055365085601806,-0.1272022,-0.05576531,0.320302
992,417341870,-2.1095478534698486,-0.1840303689241409,-2.000358819961548,-0.42274117,-0.047865912,0.33876324
993,417358537,-2.074831247329712,-0.2299249321222305,-1.992751955986023,-0.5764882,-0.06066893,0.3370123
994,417375204,-2.050992965698242,-0.2751484513282776,-1.9850172996521,-0.6815033,0.09333506,0.45984936
995,417391871,-2.0170540809631348,-0.3450900614261627,-1.9893664121627808,-0.38881874,-0.077726185,0.29010677
996,417408538,-2.043050765991211,-0.2776498794555664,-2.069326400756836,-0.63216984,0.42206493,0.07067394
997,417425205,-2.139839172363281,-0.0833903476595878,-2.1135001182556152,-0.24984507,-0.28476816,0.49176311
998,417441872,-2.083470344543457,-0.1556714028120041,-1.997031688690185,0.41230813,-0.014303795,0.35616302
999,417458539,-2.0983235836029053,-0.1337910741567611,-1.9428322315216064,0.32693017,-0.044927794,0.36230755
1000,417475206,-2.077571153640747,-0.1527656763792038,-1.955519676208496,0.43133867,-0.009194289,0.37051105
1001,417491873,-2.082557439804077,-0.1478937119245529,-1.9422229528427124,0.54257387,-0.013367038,0.2677374
1002,417508540,-2.093114852905273,-0.1222753152251243,-1.950718641281128,-0.16983579,-0.018360611,0.41141605
1003,417525207,-2.0865039825439453,-0.1354002505540847,-1.9487234354019165,-0.007016663,0.0073751314,0.36371517
1004,417541874,-2.092360019683838,-0.1248068735003471,-1.9491533041000368,-0.0037697915,0.0061625177,0.33950996
1005,417558541,-2.0890488624572754,-0.1336219310760498,-1.9496452808380127,-0.0056351093,-0.021193763,0.33982563
1006,417575208,-2.0931496620178223,-0.1278177797794342,-1.9488463401794436,0.01876756,0.005145366,0.33231163
1007,417591875,-2.089824676513672,-0.1312828510999679,-1.9495056867599487,-0.02030883,-0.012305827,0.34142303
1008,417608542,-2.0784058570861816,-0.1809251457452774,-1.950396418571472,-0.30676046,-0.24530303,0.4376297
1009,417625209,-2.0654449462890625,-0.2100825905799865,-1.9434285163879397,0.044410083,0.3621867,0.19857693
1010,417641876,-2.0387110710144043,-0.2453556805849075,-1.9378657341003416,-0.2474289,-0.30891195,0.42607784
1011,417658543,-2.0148861408233643,-0.2717281281948089,-1.9314159154891968,0.17447901,0.20563592,0.2947321
1012,417675210,-2.011558532714844,-0.272648423910141,-1.9208955764770508,0.03574,-0.083923385,0.38455772
1013,417691877,-1.9812994003295896,-0.3085024058818817,-1.9012044668197632,-0.1286443,-0.053407136,0.38170815
1014,417708544,-1.9209764003753664,-0.389325201511383,-1.8734993934631348,-0.45865268,-0.15286072,0.4333763
1015,417725211,-1.8279101848602293,-0.5093502998352051,-1.8603984117507932,-0.4735732,-0.0535753,0.3106432
1016,417741878,-1.7490543127059937,-0.6042035818099976,-1.8478906154632568,-0.2707917,0.12118245,0.31639767
1017,417758545,-1.7193450927734375,-0.6299917697906494,-1.8347926139831543,0.027667345,0.25848055,0.22257614
1018,417775212,-1.784814953804016,-0.5328434705734253,-1.82076895236969,-0.08384071,0.30292448,0.20603752
1019,417791879,-1.887476682662964,-0.3858930766582489,-1.809801459312439,-0.36934614,-0.121376224,0.35683823
1020,417808546,-1.871239423751831,-0.3918160498142242,-1.7870941162109375,-0.50485253,-0.48462582,0.55231285
1021,417825213,-1.8073570728302,-0.4595635235309601,-1.7664310932159424,-0.47581595,0.05184904,0.35293388
1022,417841880,-1.7840932607650757,-0.4688050448894501,-1.740684151649475,-0.4460399,0.2051095,0.28173828
1023,417858547,-1.7774735689163208,-0.4477611184120178,-1.7464756965637207,-0.04320384,-0.1490996,0.30782604
1024,417875214,-1.7951805591583252,-0.4092153906822204,-1.7363463640213013,0.08015138,0.14168352,0.40530014
1025,417891881,-1.8240195512771609,-0.3904381394386291,-1.730520248413086,0.050303396,0.06351054,0.35057926
1026,417908548,-1.8682546615600584,-0.3343136608600616,-1.6883705854415894,-0.11746477,0.13486166,0.24547482
1027,417925215,-1.953471064567566,-0.2109905779361724,-1.6666423082351685,-0.33694443,0.012859608,0.3433857
1028,417941882,-1.9792386293411253,-0.1953401267528534,-1.6069492101669312,-0.34889367,-0.31883755,0.46542358
1029,417958549,-1.976080060005188,-0.2142008244991302,-1.5659838914871216,0.24880387,0.04426259,0.3198452
1030,417975216,-1.986749649047852,-0.1751881539821624,-1.537585735321045,0.14402556,0.03093218,0.22398663
1031,417991883,-2.0026051998138428,-0.1530283838510513,-1.4787222146987915,-0.18264686,-0.24716565,0.49311543
1032,418008550,-1.9446794986724851,-0.2209524661302566,-1.4666229486465454,-0.29915193,-0.09053679,0.40483952
1033,418025217,-1.874077320098877,-0.326560378074646,-1.4289417266845703,-0.11734975,-0.14546624,0.34170246
1034,418041884,-1.8315415382385252,-0.3747733533382416,-1.4326716661453247,-0.036573704,0.27697164,0.17628002
1035,418058551,-1.8471698760986328,-0.3212890923023224,-1.3701943159103394,-0.12540637,0.308831,0.20685863
1036,418075218,-1.8672089576721191,-0.2669701874256134,-1.3752340078353882,-0.4411609,-0.39844498,0.48356724
1037,418091885,-1.8761917352676392,-0.295182853937149,-1.3447269201278689,-0.082452774,0.20619969,0.3859415
1038,418108552,-1.8594820499420168,-0.3392790555953979,-1.3082270622253418,0.07340934,-0.25439218,0.34945774
1039,418125219,-1.841270446777344,-0.2988127768039703,-1.2571507692337036,0.16839334,0.35532928,0.32833672
1040,418141886,-1.869480848312378,-0.2867182195186615,-1.198213815689087,0.13203573,-0.0864204,0.48531246
1041,418158553,-1.870995283126831,-0.2524477839469909,-1.0922805070877075,-0.14789185,-0.11034636,0.08119106
1042,418175220,-1.8643170595169067,-0.2127402275800705,-1.0883368253707886,-0.71839076,-0.1016029,0.5707617
1043,418191887,-1.8065297603607176,-0.2966566383838653,-1.0053967237472534,-0.64357716,-0.17538427,0.38336658
1044,418208554,-1.6846466064453125,-0.4524602890014648,-0.947494089603424,-0.6295436,-0.23173288,0.4111128
1045,418225221,-1.6107401847839355,-0.5748344659805298,-0.8751590847969055,-0.13119364,0.4691751,0.42225075
1046,418241888,-1.6296885013580322,-0.639014482498169,-0.8056267499923706,0.12552373,0.16270503,0.21883297
1047,418258555,-1.7099183797836304,-0.5603179931640625,-0.758948802947998,0.032199,0.07144667,0.120565414
1048,418275222,-1.7829376459121704,-0.4958517849445343,-0.692545473575592,0.079398274,-0.039323404,0.42514038
1049,418291889,-1.797688364982605,-0.444792091846466,-0.6568141579627991,0.057482217,-0.37245065,0.2502098
1050,418308556,-1.7443517446517944,-0.5140908360481262,-0.586854100227356,-0.07970952,-0.36533925,0.6259861
1051,418325223,-1.6290353536605835,-0.6586117148399353,-0.5084370970726013,0.24240433,0.18069835,0.2761755
1052,418341890,-1.5743894577026367,-0.7388870716094971,-0.4097770750522613,0.09957811,0.20128839,0.11056614
1053,418358557,-1.5684397220611572,-0.6752488613128662,-0.3479250073432922,0.45132285,0.07759169,0.060980797
1054,418375224,-1.6382973194122314,-0.4612768292427063,-0.3042380511760711,-0.22866416,0.2854482,0.21610641
1055,418391891,-1.7593684196472168,-0.2452143877744674,-0.1712341904640197,-0.13080733,0.04398326,0.90275574
1056,418408558,-1.7071826457977295,-0.3043172359466553,0.0040727495215833,-0.0794912,-0.43049276,0.1956482
1057,418425225,-1.7199329137802124,-0.2411749213933944,0.0944593697786331,0.09412786,0.33833486,0.2686777
1058,418441892,-1.803040862083435,-0.0693431198596954,0.2561167180538177,0.22008069,0.30647543,0.087371826
1059,418458559,-1.861416697502136,0.0480765253305435,0.4915851950645447,-0.754947,-0.27171722,0.97189426
1060,418475226,-1.9160996675491333,0.0137954521924257,0.5779256224632263,0.15440245,-0.21357778,0.15651703
1061,418491893,-2.0222625732421875,0.0835320800542831,0.6605270504951477,-0.25964683,-0.04154332,0.40340805
1062,418508560,-2.067676782608032,0.096793420612812,0.7265663146972656,-0.34555104,-0.4003028,0.44592285
1063,418525227,-2.0185680389404297,0.046655286103487,0.662493109703064,-0.26206672,-0.39403424,0.32319832
1064,418541894,-1.9912834167480469,0.085796520113945,0.618497371673584,-0.15996313,0.48237902,-0.112381935
1065,418558561,-2.019857406616211,0.1625215262174606,0.5960277915000916,-0.15505114,-0.03333841,0.65776634
1066,418575228,-2.053774356842041,0.2069305330514907,0.6052952408790588,0.6796369,-0.016058428,0.27709103
1067,418591895,-2.0759987831115723,0.2780066728591919,0.5540214776992798,0.19466724,-0.11952702,0.41260147
1068,418608562,-2.098396778106689,0.2898074984550476,0.5163421034812927,-0.3567018,-0.10608463,0.39617348
1069,418625229,-2.0832793712615967,0.2652163803577423,0.4963441491127014,-0.2876975,0.17162497,0.33606625
1070,418641896,-2.095643281936645,0.3040709495544433,0.4554480612277984,-0.0071825436,0.019393088,0.17412567
1071,418658563,-2.12894058227539,0.374870240688324,0.3207645118236542,0.00531891,-0.0097328015,0.5697832
1072,418675230,-2.215761423110962,0.3498466610908508,0.3228960931301117,0.28144363,0.31673288,0.3871765
1073,418691897,-2.3088490962982178,0.3185124397277832,0.5086726546287537,0.21411976,0.12366155,0.24442482
1074,418708564,-2.278554201126098,0.2250270992517471,0.6694478988647461,-0.309813,-0.40497428,0.54833317
1075,418725231,-2.170761823654175,0.0353895835578441,0.7278941869735718,-0.082873836,-0.025950665,0.26671314
1076,418741898,-2.142221450805664,-0.0601929686963558,0.7662863731384277,-0.20927097,-0.58165914,0.122338295
1077,418758565,-2.0480198860168457,-0.146293506026268,0.6727847456932068,-0.37293988,-0.112142205,0.3853283
1078,418775232,-1.9052789211273196,-0.2765038609504699,0.5904204249382019,0.10097701,-0.022119597,0.29591084
1079,418791899,-1.7867597341537476,-0.29759281873703,0.5425028800964355,0.46628305,0.32176775,0.4588127
1080,418808566,-1.6172876358032229,-0.4456594288349151,0.7005664706230164,0.12417892,0.5212095,0.42756653
1081,418825233,-1.487739086151123,-0.59954833984375,1.0482170581817627,0.5889333,-0.007704003,0.0239954
1082,418841900,-1.4764782190322876,-0.6101465821266174,1.332320213317871,-0.05379108,-0.19496405,0.5229988
1083,418858567,-1.3814316987991333,-0.6767200231552124,1.5035386085510254,-0.5548008,-0.24406305,0.30125046
1084,418875234,-1.368833065032959,-0.7205850481987,1.5393388271331787,-0.16332418,0.04518068,0.6637535
1085,418891901,-1.4106067419052124,-0.8304194211959839,1.443832278251648,0.3147222,0.03976421,0.32612514
1086,418908568,-1.5149569511413574,-0.7987868189811707,1.3704171180725098,0.53372276,0.2847542,-0.0634737
1087,418925235,-1.680500626564026,-0.6429369449615479,1.3087780475616455,0.18462785,0.17207439,0.38104534
1088,418941902,-1.7577567100524902,-0.5962112545967102,1.4266095161437988,0.3309161,0.22729035,0.41679955
1089,418958569,-1.820917725563049,-0.5618911385536194,1.5505270957946775,0.061249297,-0.5825538,0.267416
1090,418975236,-1.79655921459198,-0.5511333346366882,1.5238066911697388,-0.7437274,-0.46737385,0.4219694
1091,418991903,-1.659174919128418,-0.7382124662399292,1.5702614784240725,-0.26922902,-0.14034763,0.40386963
1092,419008570,-1.4981871843338013,-0.8824227452278137,1.5642826557159424,0.38763663,-0.23081689,0.27725315
1093,419025237,-1.3943852186203003,-0.8947165608406067,1.53775954246521,0.06527489,0.57465434,0.17289829
1094,419041904,-1.4019089937210083,-0.7803516983985901,1.5996434688568115,0.1630366,0.4583021,0.36883163
1095,419058571,-1.4852919578552246,-0.6469431519508362,1.6052343845367432,0.123825476,-0.063260734,0.51689816
1096,419075238,-1.4622429609298706,-0.6972413659095764,1.742379903793335,-0.19386667,-0.21170938,0.55767727
1097,419091905,-1.3675334453582764,-0.8915995359420776,1.812252163887024,-0.2855654,-0.619226,0.34517956
1098,419108572,-1.2340222597122192,-1.0751805305480957,1.821271300315857,-0.11314307,-0.1643148,0.37846184
1099,419125239,-1.166572093963623,-1.2702350616455078,1.7680643796920776,0.3380019,0.35744002,0.4287758
1100,419141906,-1.2173688411712646,-1.2873470783233645,1.6851952075958252,0.35419238,0.3394483,0.09524155
1101,419158573,-1.376333475112915,-1.1712645292282104,1.5670477151870728,0.060673997,0.26220086,0.124884605
1102,419175240,-1.586943745613098,-0.9355688095092772,1.4490357637405396,0.17306735,0.17352682,0.19505024
1103,419191907,-1.7849112749099731,-0.6661919951438904,1.4033981561660769,-0.031359565,-0.07019667,0.45165634
1104,419208574,-1.805777192115784,-0.6124468445777893,1.5107933282852173,-0.15770881,-0.16669086,0.56096077
1105,419225241,-1.7826935052871704,-0.6531149744987488,1.6605089902877808,0.25672966,0.19032699,0.16609097
1106,419241908,-1.802269697189331,-0.5556139349937439,1.763344645500183,0.16589631,-0.15084007,0.43669128
1107,419258575,-1.792943835258484,-0.4258381128311157,1.815758466720581,-0.2204114,-0.42176017,0.13997841
1108,419275242,-1.7756456136703491,-0.3172499239444732,1.7661495208740234,-0.14648919,-0.16199927,0.40163612
1109,419291909,-1.7606797218322754,-0.200544536113739,1.723590850830078,0.33490905,0.33644593,0.33023453
1110,419308576,-1.6825392246246338,-0.1553085446357727,1.808550238609314,0.3682149,0.056476742,0.32564163
1111,419325243,-1.6625832319259644,-0.1203555911779403,1.887336492538452,0.5399524,-0.007374335,0.5399742
1112,419341910,-1.6796250343322754,-0.0942704752087593,1.9621943235397337,0.14445841,-0.14055304,0.57165337
1113,419358577,-1.6512203216552734,-0.1406638175249099,2.0742194652557373,0.15033847,0.08124365,0.20885563
1114,419375244,-1.6373257637023926,-0.1989276260137558,2.122117042541504,0.08947017,-0.2507041,0.55722046
1115,419391911,-1.5578070878982544,-0.3646308481693268,2.1457550525665283,0.19627005,-0.11566249,0.5007591
1116,419408578,-1.4510421752929688,-0.5762547850608826,2.192330837249756,-0.06379752,-0.09929027,0.28054523
1117,419425245,-1.3328107595443726,-0.7646457552909851,2.1433138847351074,-0.014869646,-0.07664808,0.4069109
1118,419441912,-1.1696269512176514,-0.9756377935409546,2.0997743606567383,-0.04007544,-0.12314706,0.35252
1119,419458579,-1.0613237619400024,-1.1240272521972656,2.096657514572144,0.25478956,0.3029582,0.113874435
1120,419475246,-1.0635480880737305,-1.142342209815979,2.1803157329559326,-0.0027136428,0.28673595,0.26858997
1121,419491913,-1.1043742895126345,-1.0999850034713743,2.326411485671997,-0.13469757,0.23555525,0.2358675
1122,419508580,-1.1725475788116455,-1.025097131729126,2.4614815711975098,-0.006171458,-0.017066332,0.29170895
1123,419525247,-1.201949954032898,-0.9810395240783693,2.512157917022705,-0.055251196,-0.17478538,0.41771698
