sep=,
DeviceTag:,Movella DOT,,,,,,,,,,,,,,,,,
FirmwareVersion:,3.0.0,,,,,,,,,,,,,,,,,
AppVersion:,2023.6.1,,,,,,,,,,,,,,,,,
SyncStatus:,Un-synced,,,,,,,,,,,,,,,,,
OutputRate:,60Hz,,,,,,,,,,,,,,,,,
FilterProfile:,General,,,,,,,,,,,,,,,,,
Measurement Mode:,Sensor fusion Mode - Extended (Euler),,,,,,,,,,,,,,,,,
StartTime:,2024-10-17 15:01:09.006 +0700,,,,,,,,,,,,,,,,,
 2024,,,,,,,,,,,,,,,,,,,

PacketCounter,SampleTimeFine,Euler_X,Euler_Y,Euler_Z,FreeAcc_X,FreeAcc_Y,FreeAcc_Z,Status
1, 386154680, -0.5542746186256409, -0.8342624306678772, -3.0501222610473633, 0.011154065, 0.025730448, 0.29862785, 0
2, 386171347, -0.5331844091415405, -0.8627277612686157, -3.1166141033172607, 0.0128890425, 0.017041137, 0.3264532, 0
3, 386188014, -0.5111138820648193, -0.9012380242347717, -3.030996084213257, 0.0017046845, -0.0022359467, 0.31403542, 0
4, 386204681, -0.5066009163856506, -0.9316578507423401, -2.981677293777466, -0.005472107, 0.012131082, 0.32200813, 0
5, 386221348, -0.500021755695343, -0.9529235363006592, -3.067282199859619, -0.013381106, 0.004436442, 0.29846478, 0
6, 386238015, -0.49651703238487244, -0.9689498543739319, -3.038756847381592, -0.013021516, -0.0032714962, 0.3074026, 0
7, 386254682, -0.4980548322200775, -0.9840136170387268, -2.9847962856292725, -0.0139454, 0.0036913792, 0.3100462, 0
8, 386271349, -0.4994773864746094, -0.9999855160713196, -3.074533462524414, -0.02776158, 0.0053746486, 0.33760357, 0
9, 386288016, -0.5023894906044006, -1.0111746788024902, -3.0560407638549805, -0.028827088, 0.0087415045, 0.32205868, 0
10, 386304683, -0.5048470497131348, -1.0229045152664185, -3.019495964050293, -0.037114155, 0.0051524485, 0.33089924, 0
11, 386321350, -0.5082123875617981, -1.033780813217163, -2.992745876312256, -0.03280415, 0.007786486, 0.32907486, 0
12, 386338017, -0.5112539529800415, -1.0446422100067139, -3.0010387897491455, -0.040809125, 0.010673959, 0.31840706, 0
13, 386354684, -0.5138023495674133, -1.0559260845184326, -3.034719228744507, -0.050468728, 0.0069570537, 0.33469868, 0
14, 386371351, -0.5159383416175842, -1.0660746097564697, -3.0323445796966553, -0.031300016, 0.0018263628, 0.32480526, 0
15, 386388018, -0.5183989405632019, -1.0780647993087769, -3.021146535873413, -0.043856356, 0.012113781, 0.33442593, 0
16, 386404685, -0.5216383337974548, -1.0892486572265625, -3.0126185417175293, -0.045306217, 0.006739925, 0.3364601, 0
17, 386421352, -0.5251317620277405, -1.1008812189102173, -3.0251924991607666, -0.035608143, 0.014189241, 0.29863834, 0
18, 386438019, -0.5272498726844788, -1.1139211654663086, -3.0166468620300293, -0.051290896, 0.018186394, 0.3137951, 0
19, 386454686, -0.5302258729934692, -1.1268428564071655, -3.011113166809082, -0.039625395, 0.019731825, 0.34620762, 0
20, 386471353, -0.5328509211540222, -1.1400219202041626, -3.037283182144165, -0.034445412, 0.005678633, 0.3269167, 0
21, 386488020, -0.535612940788269, -1.1544374227523804, -3.0356926918029785, -0.05714844, 0.0029049246, 0.34372902, 0
22, 386504687, -0.5395857095718384, -1.1683692932128906, -3.0470128059387207, -0.058088217, 0.012208253, 0.3387146, 0
23, 386521354, -0.5434456467628479, -1.1835384368896484, -3.048185348510742, -0.06122059, 0.025768828, 0.33029747, 0
24, 386538021, -0.5471282005310059, -1.1984546184539795, -3.04111909866333, -0.057251975, 0.0052862596, 0.33659744, 0
25, 386554688, -0.5507416129112244, -1.2107601165771484, -3.0210955142974854, -0.07370465, 0.013897383, 0.31143856, 0
26, 386571355, -0.553921639919281, -1.2236276865005493, -3.0207221508026123, -0.05731464, 0.019120615, 0.3223896, 0
27, 386588022, -0.5576616525650024, -1.236498475074768, -3.0062828063964844, -0.052330084, 0.012001259, 0.32897663, 0
28, 386604689, -0.5611354112625122, -1.2509334087371826, -2.9972403049468994, -0.07470866, 0.019998575, 0.31053448, 0
29, 386621356, -0.5633553862571716, -1.2656385898590088, -2.978458881378174, -0.07539428, 0.015942693, 0.34612846, 0
30, 386638023, -0.5667992830276489, -1.2793285846710205, -2.9730756282806396, -0.07075412, 0.026666867, 0.32074928, 0
31, 386654690, -0.5693842172622681, -1.2926913499832153, -2.9833192825317383, -0.071066685, 0.025747757, 0.34050846, 0
32, 386671357, -0.5724833607673645, -1.3061529397964478, -2.9882922172546387, -0.08313192, 0.014361022, 0.3371849, 0
33, 386688024, -0.5755717158317566, -1.3212814331054688, -3.0142822265625, -0.079844065, 0.017917706, 0.3218279, 0
34, 386704691, -0.5781019330024719, -1.3357257843017578, -3.015343189239502, -0.074965626, 0.019236747, 0.32735348, 0
35, 386721358, -0.5811740159988403, -1.3503868579864502, -3.017364501953125, -0.089794956, 0.01075287, 0.30214882, 0
36, 386738025, -0.5846262574195862, -1.3651978969573975, -3.0369606018066406, -0.08053307, 0.034467276, 0.30631638, 0
37, 386754692, -0.5869463682174683, -1.378970742225647, -3.0336973667144775, -0.1017175, 0.027052572, 0.34969997, 0
38, 386771359, -0.5896369814872742, -1.3931106328964233, -3.026751756668091, -0.08145306, 0.011917219, 0.3210745, 0
39, 386788026, -0.592976450920105, -1.4070841073989868, -3.028243064880371, -0.09922988, 0.040872715, 0.30613708, 0
40, 386804693, -0.5964670181274414, -1.4221502542495728, -3.0187394618988037, -0.09764906, 0.021514928, 0.34918785, 0
41, 386821360, -0.6004791855812073, -1.4355417490005493, -3.02264666557312, -0.11186162, 0.038397554, 0.327322, 0
42, 386838027, -0.6039050221443176, -1.4487804174423218, -3.0219650268554688, -0.10889437, 0.036401622, 0.32148838, 0
43, 386854694, -0.6067476868629456, -1.463294506072998, -3.015986442565918, -0.09775232, 0.029704494, 0.31505203, 0
44, 386871361, -0.6106244921684265, -1.4773892164230347, -3.013392210006714, -0.111979686, 0.019862395, 0.3290968, 0
45, 386888028, -0.6138532757759094, -1.4910986423492432, -2.9972169399261475, -0.11442736, 0.028022546, 0.32811165, 0
46, 386904695, -0.6165529489517212, -1.5042362213134766, -2.9932713508605957, -0.10155033, 0.029619602, 0.3347473, 0
47, 386921362, -0.6190596222877502, -1.5178252458572388, -2.995471239089966, -0.11736784, 0.027093543, 0.31628704, 0
48, 386938029, -0.6218463182449341, -1.5320236682891846, -3.0134525299072266, -0.105673045, 0.039762158, 0.3321762, 0
49, 386954696, -0.6253734230995178, -1.546992540359497, -3.0164217948913574, -0.1299746, 0.03366703, 0.32391357, 0
50, 386971363, -0.6281909942626953, -1.5621229410171509, -3.050159215927124, -0.12622994, 0.027174115, 0.31451988, 0
51, 386988030, -0.6310469508171082, -1.5768053531646729, -3.0323843955993652, -0.12693499, 0.02894526, 0.32485867, 0
52, 387004697, -0.6341972947120667, -1.5899596214294434, -3.0531792640686035, -0.11735735, 0.038575765, 0.32404327, 0
53, 387021364, -0.6380508542060852, -1.6026065349578857, -3.0372302532196045, -0.14145337, 0.02970172, 0.3221302, 0
54, 387038031, -0.6416528224945068, -1.6158586740493774, -3.049530029296875, -0.13882884, 0.045893315, 0.31560993, 0
55, 387054698, -0.6453377604484558, -1.6285978555679321, -3.0503807067871094, -0.13762699, 0.032179423, 0.33004284, 0
56, 387071365, -0.6482968926429749, -1.6415297985076904, -3.0344157218933105, -0.12568063, 0.042510875, 0.31376934, 0
57, 387088032, -0.6515765190124512, -1.655402421951294, -3.037169933319092, -0.14931725, 0.046006273, 0.3058157, 0
58, 387104699, -0.6545448899269104, -1.6684284210205078, -3.0474796295166016, -0.14474761, 0.043020554, 0.33205128, 0
59, 387121366, -0.6577091813087463, -1.6817206144332886, -3.0474472045898438, -0.14093347, 0.038712602, 0.3367424, 0
60, 387138033, -0.6612890958786011, -1.69766366481781, -3.047975778579712, -0.14963359, 0.050527096, 0.33196735, 0
61, 387154700, -0.6641248464584351, -1.7105944156646729, -3.072422504425049, -0.15402408, 0.05695445, 0.33371162, 0
62, 387171367, -0.6672952771186829, -1.724674940109253, -3.071882724761963, -0.15053323, 0.04949739, 0.3223524, 0
63, 387188034, -0.6698516607284546, -1.7386534214019775, -3.0654797554016113, -0.15628406, 0.052069325, 0.33920288, 0
64, 387204701, -0.6731473207473755, -1.752376914024353, -3.0817599296569824, -0.15364198, 0.027542744, 0.34513474, 0
65, 387221368, -0.6751824021339417, -1.7656036615371704, -3.0942790508270264, -0.14372243, 0.028326869, 0.32008362, 0
66, 387238035, -0.6781708002090454, -1.7772005796432495, -3.126211643218994, -0.15726545, 0.030991476, 0.31438923, 0
67, 387254702, -0.6810104846954346, -1.7914390563964844, -3.12876558303833, -0.15410286, 0.039062552, 0.31370354, 0
68, 387271369, -0.6841316819190979, -1.8043155670166016, -3.1400556564331055, -0.16461684, 0.041069247, 0.34521675, 0
69, 387288036, -0.6866629123687744, -1.8174773454666138, -3.1386349201202393, -0.16679001, 0.053749613, 0.31076527, 0
70, 387304703, -0.6904336810112, -1.8303940296173096, -3.141963243484497, -0.1642372, 0.050622605, 0.34156418, 0
71, 387321370, -0.6939007043838501, -1.8440104722976685, -3.1439414024353027, -0.16599399, 0.046699148, 0.33518124, 0
72, 387338037, -0.6970055103302002, -1.8564757108688354, -3.149254322052002, -0.17045197, 0.051447436, 0.34352016, 0
73, 387354704, -0.6991878747940063, -1.870698094367981, -3.1550614833831787, -0.18122168, 0.0496057, 0.33376503, 0
74, 387371371, -0.7016982436180115, -1.8840582370758057, -3.1614203453063965, -0.174665, 0.05138065, 0.31308842, 0
75, 387388038, -0.7040156126022339, -1.8961918354034424, -3.1700961589813232, -0.18793596, 0.039560728, 0.32874584, 0
76, 387404705, -0.706825852394104, -1.9095691442489624, -3.1559436321258545, -0.18442336, 0.052495915, 0.3305235, 0
77, 387421372, -0.7105106711387634, -1.9223439693450928, -3.1717193126678467, -0.20191462, 0.051591944, 0.32640743, 0
78, 387438039, -0.7127383351325989, -1.933992624282837, -3.1815433502197266, -0.19125481, 0.043302827, 0.3264866, 0
79, 387454706, -0.7154299020767212, -1.9453901052474976, -3.2031407356262207, -0.18043809, 0.051492274, 0.32495117, 0
80, 387471373, -0.7175143957138062, -1.957268476486206, -3.2091033458709717, -0.20497894, 0.06030314, 0.31731987, 0
81, 387488040, -0.7199425101280212, -1.9668093919754028, -3.2386529445648193, -0.20032431, 0.05673937, 0.31459236, 0
82, 387504707, -0.7235839366912842, -1.9806212186813354, -3.2497849464416504, -0.18648826, 0.059369203, 0.326231, 0
83, 387521374, -0.7261808514595032, -1.9915004968643188, -3.23366641998291, -0.19386593, 0.054964527, 0.3527813, 0
84, 387538041, -0.7300205826759338, -2.0025949478149414, -3.241964340209961, -0.19030684, 0.052592855, 0.3333969, 0
85, 387554708, -0.7325028777122498, -2.012810707092285, -3.2487454414367676, -0.21010788, 0.053424012, 0.3261795, 0
86, 387571375, -0.7351238131523132, -2.0232906341552734, -3.251194953918457, -0.20983292, 0.053804975, 0.29360676, 0
87, 387588042, -0.7375352382659912, -2.0338568687438965, -3.2440638542175293, -0.2034397, 0.046549074, 0.3183775, 0
88, 387604709, -0.7395632863044739, -2.0447640419006348, -3.239382028579712, -0.20464993, 0.05234884, 0.3243456, 0
89, 387621376, -0.7409259080886841, -2.055124521255493, -3.2426490783691406, -0.21463992, 0.04417358, 0.33360386, 0
90, 387638043, -0.7429959177970886, -2.0655171871185303, -3.245973825454712, -0.21212128, 0.049648415, 0.32182026, 0
91, 387654710, -0.7455103397369385, -2.0776307582855225, -3.2549147605895996, -0.21668002, 0.06251422, 0.3124962, 0
92, 387671377, -0.7471796870231628, -2.088223934173584, -3.2608518600463867, -0.20929198, 0.06619967, 0.3303938, 0
93, 387688044, -0.7509938478469849, -2.0992610454559326, -3.2767176628112793, -0.2229406, 0.055167966, 0.3572731, 0
94, 387704711, -0.7533641457557678, -2.1094512939453125, -3.288828134536743, -0.22321588, 0.063590966, 0.3455267, 0
95, 387721378, -0.7560626864433289, -2.1198363304138184, -3.2770509719848633, -0.20356901, 0.072925314, 0.33208942, 0
96, 387738045, -0.7579707503318787, -2.131155490875244, -3.2865054607391357, -0.23568004, 0.04676372, 0.30931187, 0
97, 387754712, -0.7608222961425781, -2.13918399810791, -3.293231964111328, -0.22856963, 0.066794984, 0.32493973, 0
98, 387771379, -0.7643085718154907, -2.149214506149292, -3.300550699234009, -0.22153431, 0.06141298, 0.31292725, 0
99, 387788046, -0.766096293926239, -2.1596267223358154, -3.2983126640319824, -0.24411792, 0.065567814, 0.3328781, 0
100, 387804713, -0.768267810344696, -2.1690478324890137, -3.3098607063293457, -0.23497981, 0.075049214, 0.32360554, 0
101, 387821380, -0.7709655165672302, -2.178395986557007, -3.3239243030548096, -0.22823699, 0.052234955, 0.35010815, 0
102, 387838047, -0.7730244994163513, -2.1884849071502686, -3.3302488327026367, -0.22492537, 0.05590595, 0.31164932, 0
103, 387854714, -0.7735955119132996, -2.1983513832092285, -3.3492119312286377, -0.22964412, 0.06734609, 0.3159685, 0
104, 387871381, -0.7771360278129578, -2.2072508335113525, -3.371103525161743, -0.24520707, 0.067669645, 0.31599426, 0
105, 387888048, -0.7795171141624451, -2.2161574363708496, -3.367499828338623, -0.22571672, 0.06668154, 0.29587936, 0
106, 387904715, -0.7814969420433044, -2.2256715297698975, -3.367976665496826, -0.23525652, 0.06725508, 0.31796837, 0
107, 387921382, -0.7838886976242065, -2.2334649562835693, -3.3740732669830322, -0.25048593, 0.06417913, 0.30818367, 0
108, 387938049, -0.7856100797653198, -2.242293357849121, -3.379446029663086, -0.2558682, 0.07254329, 0.3228159, 0
109, 387954716, -0.788092315196991, -2.2496533393859863, -3.377946615219116, -0.25317013, 0.068665855, 0.3303728, 0
110, 387971383, -0.7892339825630188, -2.257519006729126, -3.356379270553589, -0.23967166, 0.056673348, 0.31664371, 0
111, 387988050, -0.7901074290275574, -2.26503324508667, -3.350050687789917, -0.25622848, 0.06531666, 0.32721806, 0
112, 388004717, -0.7923554182052612, -2.272122621536255, -3.3674705028533936, -0.25571728, 0.07391687, 0.34200573, 0
113, 388021384, -0.7940794229507446, -2.278902769088745, -3.3719136714935303, -0.25533018, 0.07643193, 0.33069324, 0
114, 388038051, -0.7962072491645813, -2.285599708557129, -3.3697004318237305, -0.23985058, 0.06251141, 0.33240032, 0
115, 388054718, -0.7975633144378662, -2.2927935123443604, -3.3677451610565186, -0.25796038, 0.06086605, 0.34566593, 0
116, 388071385, -0.7990999817848206, -2.2980599403381348, -3.371399164199829, -0.24474733, 0.08634524, 0.35202026, 0
117, 388088052, -0.8012558221817017, -2.3036911487579346, -3.356945276260376, -0.2562331, 0.07300042, 0.3143177, 0
118, 388104719, -0.8020750880241394, -2.310495615005493, -3.345771074295044, -0.26561636, 0.08099736, 0.33416176, 0
119, 388121386, -0.8026502132415771, -2.3175160884857178, -3.3482823371887207, -0.26073763, 0.07501659, 0.33349514, 0
120, 388138053, -0.4795648753643036, -0.817891538143158, -3.4195499420166016, 0.028859328, -0.003886824, 0.31994438, 0
121, 388154720, -0.47881242632865906, -0.8181111812591553, -3.420976161956787, 0.005341394, -0.009615286, 0.3196869, 0
122, 388171387, -0.4789128005504608, -0.8187423348426819, -3.4153053760528564, 0.008165452, -0.01830436, 0.30496216, 0
123, 388188054, -0.4782240688800812, -0.8176205158233643, -3.4148318767547607, 0.009412347, -0.0036164117, 0.3319912, 0
124, 388204721, -0.47790583968162537, -0.8162332773208618, -3.4155778884887695, -0.0021998563, 0.0070615076, 0.32322502, 0
125, 388221388, -0.4784947335720062, -0.816377580165863, -3.4160549640655518, -0.0010226137, -0.020903395, 0.33352852, 0
126, 388238055, -0.47853320837020874, -0.8157089948654175, -3.417860507965088, -0.0072780917, -0.012606316, 0.33599758, 0
127, 388254722, -0.47954076528549194, -0.8155786395072937, -3.418760061264038, 0.0154305035, 0.008950342, 0.3308382, 0
128, 388271389, -0.47987398505210876, -0.8160913586616516, -3.4204068183898926, 8.3662994E-4, 0.0062025473, 0.34047794, 0
129, 388288056, -0.48000532388687134, -0.815460741519928, -3.4205546379089355, -0.0021079227, -0.008604082, 0.31342506, 0
130, 388304723, -0.480612576007843, -0.8173944354057312, -3.421837329864502, 0.007745094, -0.0054264613, 0.3287859, 0
131, 388321390, -0.4807276725769043, -0.8186653852462769, -3.423501491546631, -0.0012417122, -0.0037755494, 0.32596493, 0
132, 388338057, -0.4808202385902405, -0.8163642287254333, -3.4238858222961426, 0.0022086084, -0.0037962487, 0.31837654, 0
133, 388354724, -0.47921669483184814, -0.8165621757507324, -3.4248273372650146, 0.0125980005, -0.0071765995, 0.32678032, 0
134, 388371391, -0.47893595695495605, -0.815178394317627, -3.424670696258545, -0.004847556, -0.011026791, 0.3407135, 0
135, 388388058, -0.477744460105896, -0.8158265352249146, -3.424757242202759, 0.0043939855, -0.0028143844, 0.31016445, 0
136, 388404725, -0.4790908098220825, -0.8154791593551636, -3.424736499786377, 0.010095634, -0.010814154, 0.3292179, 0
137, 388421392, -0.4791261553764343, -0.8150799870491028, -3.426079511642456, 0.008095046, 0.0056991717, 0.33854675, 0
138, 388438059, -0.4792378842830658, -0.8159688711166382, -3.4266276359558105, 0.002820936, 0.006309582, 0.3302002, 0
139, 388454726, -0.4791190028190613, -0.8158461451530457, -3.4273428916931152, -0.01858887, 0.002793004, 0.3423853, 0
140, 388471393, -0.4782446622848511, -0.8166285157203674, -3.428042411804199, 0.008669572, 0.0024353063, 0.34480953, 0
141, 388488060, -0.4783320724964142, -0.8145122528076172, -3.428417921066284, -0.010162918, -0.0068811886, 0.34589195, 0
142, 388504727, -0.4765555262565613, -0.8160926699638367, -3.429206132888794, 0.0043272036, 0.0072194682, 0.34932613, 0
143, 388521394, -0.47650212049484253, -0.8156722187995911, -3.430891275405884, -0.0071063777, 0.008063754, 0.3266554, 0
144, 388538061, -0.47748124599456787, -0.8159620761871338, -3.430867910385132, 0.0011420953, 0.011601088, 0.32766056, 0
145, 388554728, -0.47721490263938904, -0.8146659135818481, -3.430903196334839, -0.0017579644, 0.0056401854, 0.31365585, 0
146, 388571395, -0.47774216532707214, -0.8150373697280884, -3.4318127632141113, -0.0061229207, -0.011385994, 0.3522234, 0
147, 388588062, -0.4774378538131714, -0.8147050738334656, -3.4321203231811523, 6.0834637E-4, 2.2190645E-5, 0.31950092, 0
148, 388604729, -0.477204829454422, -0.8144517540931702, -3.432133913040161, 0.0072968667, -0.0066429693, 0.31775093, 0
149, 388621396, -0.4781866669654846, -0.8121045231819153, -3.4330577850341797, 0.012058936, -0.02046862, 0.3265066, 0
150, 388638063, -0.4780430197715759, -0.811735212802887, -3.4339351654052734, 0.0021052684, -0.010562395, 0.34712124, 0
151, 388654730, -0.4785544276237488, -0.8103774189949036, -3.434135675430298, -0.001660373, -0.0050542043, 0.32576942, 0
152, 388671397, -0.4796425700187683, -0.8113141655921936, -3.434368848800659, 0.001561692, -0.008766705, 0.3178501, 0
153, 388688064, -0.478732168674469, -0.8120806217193604, -3.434739589691162, -2.9674836E-4, 0.012701787, 0.33323574, 0
154, 388704731, -0.4782272279262543, -0.8117984533309937, -3.4364142417907715, 0.0099388035, -0.0031528494, 0.3417492, 0
155, 388721398, -0.47767484188079834, -0.8118700385093689, -3.4371628761291504, -5.364311E-4, -0.001435966, 0.3354702, 0
156, 388738065, -0.4771464169025421, -0.8123789429664612, -3.4368793964385986, 0.009427134, -0.0019340471, 0.34563637, 0
157, 388754732, -0.4764276444911957, -0.8124755024909973, -3.421823740005493, -0.0070371586, -0.00600507, 0.34385872, 0
158, 388771399, -0.4757867753505707, -0.8118912577629089, -3.4224298000335693, 0.003999974, 0.009220007, 0.32995605, 0
159, 388788066, -0.47618618607521057, -0.8120260238647461, -3.4223670959472656, 0.0033007346, -5.444915E-4, 0.32769585, 0
160, 388804733, -0.47611236572265625, -0.8126943707466125, -3.421823740005493, 4.143651E-4, 0.010764356, 0.31497478, 0
161, 388821400, -0.47603365778923035, -0.8124806880950928, -3.4211316108703613, 0.008665793, -0.0050987005, 0.31074142, 0
162, 388838067, -0.4758262038230896, -0.8122205138206482, -3.421248435974121, -4.886901E-4, 0.0014074437, 0.32612324, 0
163, 388854734, -0.4743095934391022, -0.8125088214874268, -3.422640800476074, 0.004434958, -0.0029842262, 0.35145283, 0
164, 388871401, -0.4759178161621094, -0.8129093647003174, -3.4222986698150635, 0.0014301197, -0.0047831633, 0.33108425, 0
165, 388888068, -0.4757298231124878, -0.8118864297866821, -3.4220829010009766, 0.0036298714, -0.0034933886, 0.32899094, 0
166, 388904735, -0.47545507550239563, -0.8123748898506165, -3.4211795330047607, 0.012510593, 0.015770407, 0.33743572, 0
167, 388921402, -0.47542956471443176, -0.8122004866600037, -3.422075033187866, 0.007115493, -1.906775E-4, 0.3376894, 0
168, 388938069, -0.4763783812522888, -0.813389778137207, -3.4218850135803223, 0.0010115987, -0.0025154427, 0.34559536, 0
169, 388954736, -0.47723013162612915, -0.8135261535644531, -3.405320644378662, 0.0022558395, -7.9237786E-4, 0.32559013, 0
170, 388971403, -0.4773983061313629, -0.8140621781349182, -3.4051926136016846, 0.0046572555, -0.0021014514, 0.32236004, 0
171, 388988070, -0.47711437940597534, -0.8137919306755066, -3.3966081142425537, 0.008461628, 0.0011590613, 0.332098, 0
172, 389004737, -0.47714143991470337, -0.8126239776611328, -3.3953707218170166, 0.014642082, 3.8615704E-4, 0.3221388, 0
173, 389021404, -0.4776977300643921, -0.8123744130134583, -3.39494252204895, 0.0110064, -0.006644111, 0.31657124, 0
174, 389038071, -0.4779420793056488, -0.8125404715538025, -3.3951101303100586, 0.0068246187, -0.0055784574, 0.3352394, 0
175, 389054738, -0.4772360920906067, -0.8119557499885559, -3.3911023139953613, 2.8256228E-4, 0.010828476, 0.33603573, 0
176, 389071405, -0.47666049003601074, -0.8105054497718811, -3.3854990005493164, 0.0021955608, 4.7990328E-4, 0.3167944, 0
177, 389088072, -0.4769020080566406, -0.8091524243354797, -3.375370740890503, 0.0049216645, -0.012675014, 0.32643604, 0
178, 389104739, -0.4760613739490509, -0.8089655041694641, -3.369175910949707, -8.3112594E-4, -0.0068333815, 0.33098698, 0
179, 389121406, -0.4763258695602417, -0.8093774318695068, -3.36845326423645, 0.013063836, 0.013213408, 0.32321548, 0
180, 389138073, -0.47650906443595886, -0.8084781169891357, -3.3677477836608887, 0.0018728221, 0.01234147, 0.31782627, 0
181, 389154740, -0.4771001935005188, -0.8095349073410034, -3.367861747741699, -0.0047985646, -0.009806397, 0.34110546, 0
182, 389171407, -0.4769919812679291, -0.8091638684272766, -3.365327835083008, -0.0018823423, 0.0057212715, 0.32987976, 0
183, 389188074, -0.47847428917884827, -0.8091356754302979, -3.3645544052124023, 0.0068418435, -0.0021563552, 0.34963703, 0
184, 389204741, -0.4790745973587036, -0.8086129426956177, -3.354876756668091, 0.005234576, 0.0031305854, 0.33660507, 0
185, 389221408, -0.4797847270965576, -0.807338535785675, -3.3596248626708984, -0.0039835945, 0.0071002627, 0.32468128, 0
186, 389238075, -0.4793667495250702, -0.8080035448074341, -3.3601574897766113, 0.015785323, 0.0011584222, 0.32768154, 0
187, 389254742, -0.480390727519989, -0.8089813590049744, -3.352602958679199, 4.053128E-4, 0.015224099, 0.32911587, 0
188, 389271409, -0.48073282837867737, -0.8095930814743042, -3.351743221282959, -0.011862168, 0.016217, 0.33795547, 0
189, 389288076, -0.48184189200401306, -0.8101387619972229, -3.341731309890747, -0.0019737312, 0.011077327, 0.3122053, 0
190, 389304743, -0.48269134759902954, -0.8093618750572205, -3.3381364345550537, -0.008561957, 0.0058844956, 0.33149815, 0
191, 389321410, -0.4832315742969513, -0.8092793822288513, -3.3372743129730225, -0.007403713, -5.471143E-4, 0.32580757, 0
192, 389338077, -0.4836500883102417, -0.8086392283439636, -3.3381240367889404, 0.0083163865, -0.0066551403, 0.33461952, 0
193, 389354744, -0.4825863838195801, -0.8085217475891113, -3.333646297454834, -0.004170954, 0.011946614, 0.31935787, 0
194, 389371411, -0.4816405475139618, -0.8096233010292053, -3.3301775455474854, 0.0010539893, 0.009736954, 0.33592224, 0
195, 389388078, -0.48111623525619507, -0.8100804090499878, -3.327820301055908, 0.006400182, -0.012134522, 0.31746674, 0
196, 389404745, -0.4811643660068512, -0.8105266094207764, -3.324002504348755, 0.01818426, 0.01234241, 0.35012627, 0
197, 389421412, -0.4812922179698944, -0.8116647601127625, -3.323016405105591, 0.0055797636, -0.0040013185, 0.31423855, 0
198, 389438079, -0.4821758270263672, -0.8111310601234436, -3.3246710300445557, 0.007770372, 0.004287129, 0.32146454, 0
199, 389454746, -0.48225197196006775, -0.8111863732337952, -3.321274757385254, 0.004995773, 0.01091799, 0.32022476, 0
200, 389471413, -0.483494371175766, -0.8093892931938171, -3.3173828125, -0.008601917, -0.0066204676, 0.3257227, 0
201, 389488080, -0.48256397247314453, -0.8096649646759033, -3.3165886402130127, -0.00440792, 5.940066E-4, 0.32802105, 0
202, 389504747, -0.48287758231163025, -0.8084247708320618, -3.3155500888824463, 7.6915E-4, 0.0073071974, 0.31609058, 0
203, 389521414, -0.48305588960647583, -0.8083792924880981, -3.3137292861938477, -0.0044842917, -0.0125626605, 0.31773758, 0
204, 389538081, -0.4837927520275116, -0.8083075284957886, -3.3144402503967285, 2.1240716E-5, 0.0020802317, 0.3396101, 0
205, 389554748, -0.4842658042907715, -0.806901752948761, -3.3132550716400146, 0.008799363, 0.006939899, 0.32107544, 0
206, 389571415, -0.48505863547325134, -0.8061327934265137, -3.30562686920166, 0.009641099, 0.0033587466, 0.3339014, 0
207, 389588082, -0.48386073112487793, -0.8067766427993774, -3.3044328689575195, 0.012430373, 0.0073658903, 0.32600498, 0
208, 389604749, -0.48385336995124817, -0.8066956996917725, -3.3096182346343994, 0.008970204, 0.006087899, 0.3301983, 0
209, 389621416, -0.4838692247867584, -0.8063848614692688, -3.309244155883789, 0.01092604, 4.923222E-4, 0.34585667, 0
210, 389638083, -0.4828018546104431, -0.8054683208465576, -3.306396484375, 0.0123611605, 0.004094698, 0.3432703, 0
211, 389654750, -0.48383545875549316, -0.80464768409729, -3.301922559738159, 0.008534716, 0.005824409, 0.33467197, 0
212, 389671417, -0.48395785689353943, -0.8043633103370667, -3.3028159141540527, 0.016540734, -0.0059662173, 0.33031178, 0
213, 389688084, -0.4845437705516815, -0.8060218095779419, -3.302469491958618, 0.0013312781, -0.002977741, 0.3212881, 0
214, 389704751, -0.4848465919494629, -0.8048596382141113, -3.3010542392730713, 0.019447444, 7.099679E-5, 0.31805515, 0
215, 389721418, -0.4850071966648102, -0.8056609630584717, -3.2991976737976074, 0.014035112, -0.006595476, 0.3182726, 0
216, 389738085, -0.4842776656150818, -0.8047931790351868, -3.297198534011841, 0.00975194, -0.009057869, 0.32189465, 0
217, 389754752, -0.4846397638320923, -0.8038126230239868, -3.2947137355804443, 0.009765497, -0.0149431545, 0.32408905, 0
218, 389771419, -0.4856735169887543, -0.8031715750694275, -3.2902491092681885, 0.0060541276, -0.0019199414, 0.31713867, 0
219, 389788086, -0.48560330271720886, -0.8027781248092651, -3.287889242172241, 0.011751592, -0.0014703206, 0.33691692, 0
220, 389804753, -0.4854223430156708, -0.8030234575271606, -3.2833211421966553, 0.012515196, 0.008437973, 0.34890175, 0
221, 389821420, -0.48523709177970886, -0.8030070066452026, -3.279733896255493, 0.009900842, -0.0068616383, 0.35518932, 0
222, 389838087, -0.48533767461776733, -0.8028505444526672, -3.278836965560913, -0.008783445, -0.009203223, 0.32480907, 0
223, 389854754, -0.4855950176715851, -0.8025631904602051, -3.2768337726593018, 0.010949586, 0.012118419, 0.30880833, 0
224, 389871421, -0.486322820186615, -0.8034111857414246, -3.282130479812622, 0.008252629, 0.010714104, 0.31106472, 0
225, 389888088, -0.4863319993019104, -0.8040022253990173, -3.280489206314087, -0.0032650074, 0.009435169, 0.32725048, 0
226, 389904755, -0.4873519837856293, -0.8046329021453857, -3.2786295413970947, 9.3309674E-4, 0.005922147, 0.34630775, 0
227, 389921422, -0.4864160418510437, -0.8052574396133423, -3.2783703804016113, 0.008308885, 0.0038336487, 0.32553768, 0
228, 389938089, -0.48654699325561523, -0.8056585788726807, -3.2784979343414307, -0.003321605, -0.014188225, 0.32513905, 0
229, 389954756, -0.4866730272769928, -0.805465579032898, -3.2788679599761963, 0.009450442, 0.014016093, 0.31904697, 0
230, 389971423, -0.48707884550094604, -0.8056367635726929, -3.279099702835083, 0.004641931, 0.003088474, 0.3368454, 0
231, 389988090, -0.48755592107772827, -0.8064247965812683, -3.279750347137451, 0.018879015, 0.005562703, 0.33631516, 0
232, 390004757, -0.4877835214138031, -0.8067267537117004, -3.2803761959075928, 0.0070101134, -0.0045507587, 0.3434868, 0
233, 390021424, -0.48772627115249634, -0.8058935403823853, -3.27921724319458, -0.007050486, 0.019192409, 0.32765484, 0
234, 390038091, -0.48753443360328674, -0.8060252666473389, -3.277299404144287, 0.009066217, -0.0013549984, 0.3357544, 0
235, 390054758, -0.48736879229545593, -0.8057655096054077, -3.277538537979126, 0.01816531, -0.0037656415, 0.33372593, 0
236, 390071425, -0.48746469616889954, -0.8064156770706177, -3.277486562728882, 0.004036693, 0.0018298342, 0.34084988, 0
237, 390088092, -0.48728489875793457, -0.8062211871147156, -3.275946617126465, 0.009025523, 0.0059544514, 0.32259178, 0
238, 390104759, -0.4879520833492279, -0.8047359585762024, -3.2762985229492188, 0.015762357, 0.012384479, 0.30651855, 0
239, 390121426, -0.4889735281467438, -0.8050280809402466, -3.2768759727478027, 0.010098266, 0.0014127451, 0.34498405, 0
240, 390138093, -0.48645514249801636, -0.8134849071502686, -3.275904417037964, 0.0077591194, 0.006345847, 0.33816624, 0
241, 390154760, -0.4860112965106964, -0.8136487603187561, -3.276815891265869, 0.013460586, -0.0047981665, 0.3543272, 0
242, 390171427, -0.48541030287742615, -0.813484251499176, -3.275193452835083, 0.012649289, -0.0028256509, 0.32883644, 0
243, 390188094, -0.4855836033821106, -0.8134249448776245, -3.272976875305176, 0.0072272844, 0.004656075, 0.33113194, 0
244, 390204761, -0.4848976135253906, -0.8128617405891418, -3.2708852291107178, 0.0023614774, -0.0029209966, 0.34477997, 0
245, 390221428, -0.48375439643859863, -0.81217360496521, -3.2735490798950195, -0.005725557, 0.004021613, 0.32691574, 0
246, 390238095, -0.4839889109134674, -0.8120155334472656, -3.272146224975586, 0.005493487, -0.009405592, 0.33527374, 0
247, 390254762, -0.4842526316642761, -0.8106963038444519, -3.272879123687744, 0.006889361, -0.014182498, 0.337018, 0
248, 390271429, -0.48455479741096497, -0.8116528987884521, -3.2713723182678223, 0.008333799, -6.237583E-4, 0.3373947, 0
249, 390288096, -0.48373305797576904, -0.811274528503418, -3.2652931213378906, 0.011706904, -0.0055462015, 0.32745743, 0
250, 390304763, -0.48388752341270447, -0.8130121827125549, -3.2665786743164062, -0.0088899415, 0.0077753523, 0.3222475, 0
251, 390321430, -0.4840201437473297, -0.8127453327178955, -3.2648496627807617, 0.0051590423, -0.004034765, 0.33062553, 0
252, 390338097, -0.4839165508747101, -0.8134122490882874, -3.261937141418457, -0.0029746152, -0.007974006, 0.32509232, 0
253, 390354764, -0.48385995626449585, -0.8135052919387817, -3.2584714889526367, -4.2206928E-4, 0.005710711, 0.31706524, 0
254, 390371431, -0.48360946774482727, -0.8129658102989197, -3.256039619445801, -0.008348077, 0.0059978934, 0.3360672, 0
255, 390388098, -0.48448991775512695, -0.8135170936584473, -3.252368688583374, -0.0046591694, 2.142232E-5, 0.33130836, 0
256, 390404765, -0.4842885434627533, -0.8141199946403503, -3.248708963394165, 0.008539815, -0.003213264, 0.3250208, 0
257, 390421432, -0.4847296178340912, -0.8131769895553589, -3.24676251411438, 0.0031051957, 0.008628669, 0.33453083, 0
258, 390438099, -0.4825139045715332, -0.8129066228866577, -3.2469117641448975, 0.008316931, -0.00848342, 0.32515526, 0
259, 390454766, -0.483018696308136, -0.8131605386734009, -3.2444839477539062, -0.0137044275, 0.003909884, 0.32813835, 0
260, 390471433, -0.48374485969543457, -0.8130125999450684, -3.242302656173706, 0.006714888, -0.007563598, 0.3140316, 0
261, 390488100, -0.4840227961540222, -0.8134177923202515, -3.242666006088257, 0.0058877855, 0.009870908, 0.3356638, 0
262, 390504767, -0.48384538292884827, -0.8126929998397827, -3.2402565479278564, 0.005078829, -0.005538054, 0.32159328, 0
263, 390521434, -0.4844721555709839, -0.8130512833595276, -3.234410524368286, 0.013424872, -0.0028420405, 0.33438683, 0
264, 390538101, -0.4854593276977539, -0.8118625283241272, -3.231553316116333, 0.0060547143, 0.0044633234, 0.3275299, 0
265, 390554768, -0.4850417375564575, -0.8120930790901184, -3.229898691177368, 0.0036077506, 0.0045930515, 0.33203316, 0
266, 390571435, -0.48552438616752625, -0.812126100063324, -3.2312333583831787, 0.007120564, 0.0017189438, 0.33448124, 0
267, 390588102, -0.486611545085907, -0.8112608790397644, -3.227735757827759, 0.0039900625, 0.0035450237, 0.3279066, 0
268, 390604769, -0.4855688810348511, -0.8111386299133301, -3.2269153594970703, 0.010028873, 0.00929522, 0.32274246, 0
269, 390621436, -0.48589956760406494, -0.8118613958358765, -3.2259092330932617, 0.004631838, 0.0011868118, 0.3222332, 0
270, 390638103, -0.485989511013031, -0.8125157952308655, -3.22529673576355, 0.001474019, 0.0022971265, 0.3394642, 0
271, 390654770, -0.48644062876701355, -0.8131299018859863, -3.2213122844696045, 0.005528516, -0.006596353, 0.30640316, 0
272, 390671437, -0.4859137535095215, -0.8122327923774719, -3.220285415649414, -0.008720065, 3.67134E-4, 0.31791782, 0
273, 390688104, -0.48578745126724243, -0.8121815919876099, -3.217719554901123, 0.002215237, 0.001187203, 0.32639885, 0
274, 390704771, -0.48567304015159607, -0.8119545578956604, -3.2182462215423584, 0.0071479864, 9.032927E-4, 0.3291874, 0
275, 390721438, -0.4859817326068878, -0.8110347390174866, -3.219097137451172, -0.0071033672, -0.0013019665, 0.32615662, 0
276, 390738105, -0.48405855894088745, -0.8117705583572388, -3.2190825939178467, 0.015952658, 0.016952334, 0.31751728, 0
277, 390754772, -0.4834110736846924, -0.8133090138435364, -3.2178146839141846, 9.217744E-4, 0.014695945, 0.31149197, 0
278, 390771439, -0.4836600422859192, -0.8127571940422058, -3.218022584915161, 0.009520213, 6.064989E-4, 0.3199482, 0
279, 390788106, -0.4852246344089508, -0.8126431107521057, -3.2178924083709717, 0.008315506, -0.0044799084, 0.33677197, 0
280, 390804773, -0.48525646328926086, -0.8147435784339905, -3.2171154022216797, 0.0071951337, -0.007776564, 0.33695984, 0
281, 390821440, -0.4865577220916748, -0.8145320415496826, -3.215244770050049, -0.0049092877, 0.016469268, 0.3339815, 0
282, 390838107, -0.48668786883354187, -0.8141911625862122, -3.2141926288604736, 0.010684199, 0.009523943, 0.33387375, 0
283, 390854774, -0.48740124702453613, -0.8156964778900146, -3.2146427631378174, 0.0105283195, 0.012814675, 0.3539734, 0
284, 390871441, -0.4871790409088135, -0.8162195682525635, -3.2141737937927246, 0.0033151582, 0.0062745498, 0.32392883, 0
285, 390888108, -0.48702606558799744, -0.8143685460090637, -3.212146282196045, -3.3000292E-4, 0.0067416746, 0.36058807, 0
286, 390904775, -0.48664554953575134, -0.8149453401565552, -3.2128026485443115, 0.013522855, 0.00654594, 0.3506918, 0
287, 390921442, -0.4875110983848572, -0.8147404193878174, -3.2122550010681152, 0.007100986, -0.003324392, 0.31132317, 0
288, 390938109, -0.4881523549556732, -0.8141107559204102, -3.2121622562408447, 0.008177236, -0.013832763, 0.34051132, 0
289, 390954776, -0.4861772060394287, -0.8131687641143799, -3.213207960128784, -0.0027133005, -0.0065577165, 0.33303833, 0
290, 390971443, -0.48712894320487976, -0.8154765367507935, -3.2112483978271484, 0.007622581, -0.002092752, 0.33664227, 0
291, 390988110, -0.48705562949180603, -0.8144770264625549, -3.21010422706604, 0.0067202244, -0.011800304, 0.32423782, 0
292, 391004777, -0.48776116967201233, -0.8145309090614319, -3.2112019062042236, 0.008285395, 0.008638283, 0.32384396, 0
293, 391021444, -0.4886935353279114, -0.8145256638526917, -3.210927963256836, 0.017127624, -0.006015418, 0.344841, 0
294, 391038111, -0.48779743909835815, -0.814918041229248, -3.210797071456909, 0.004977927, 0.003944913, 0.30783367, 0
295, 391054778, -0.48949533700942993, -0.8147634267807007, -3.2115375995635986, 0.0010255403, -0.004275859, 0.32852077, 0
296, 391071445, -0.49052518606185913, -0.8157970309257507, -3.2126047611236572, 0.010125856, 0.008683398, 0.34263897, 0
297, 391088112, -0.4913545846939087, -0.8152453303337097, -3.2115750312805176, -0.0030356972, -0.0066350764, 0.3434019, 0
298, 391104779, -0.49235081672668457, -0.8156242370605469, -3.212618589401245, -0.0016384897, 8.1243814E-4, 0.3237877, 0
299, 391121446, -0.492390900850296, -0.8164932131767273, -3.2104663848876953, 0.006469366, -0.006175223, 0.32844448, 0
300, 391138113, -0.49280455708503723, -0.8161036372184753, -3.208509683609009, 0.005527224, 0.002172298, 0.32910728, 0
301, 391154780, -0.49214375019073486, -0.8169163465499878, -3.2089221477508545, -0.0075942227, -0.010355726, 0.3366785, 0
302, 391171447, -0.4918568730354309, -0.818360447883606, -3.2102041244506836, 0.017213194, 0.007533651, 0.31175137, 0
303, 391188114, -0.49206194281578064, -0.8182826042175293, -3.2114169597625732, 0.009698388, -0.008764998, 0.34559727, 0
304, 391204781, -0.49222666025161743, -0.81971275806427, -3.211886167526245, -0.0053247213, -0.0045140535, 0.3383932, 0
305, 391221448, -0.4926963448524475, -0.8178481459617615, -3.2110302448272705, 0.002634149, -0.0012947267, 0.33859158, 0
306, 391238115, -0.49193254113197327, -0.8188205361366272, -3.2119858264923096, 0.008768441, -0.007663662, 0.3248701, 0
307, 391254782, -0.4911307394504547, -0.8185076713562012, -3.2105138301849365, 0.011881054, 0.013629589, 0.34576607, 0
308, 391271449, -0.4914042055606842, -0.8180034756660461, -3.210334062576294, -0.0035187225, 0.008594862, 0.34013653, 0
309, 391288116, -0.49163419008255005, -0.8193790912628174, -3.2105062007904053, 0.010069196, 0.006853295, 0.33201313, 0
310, 391304783, -0.4918099641799927, -0.8192504048347473, -3.2101409435272217, 0.014061221, 0.006230308, 0.3416958, 0
311, 391321450, -0.49072355031967163, -0.8200886845588684, -3.2087290287017822, -0.005344034, 0.005651717, 0.33727837, 0
312, 391338117, -0.49042609333992004, -0.82148677110672, -3.207500696182251, -0.0020952523, -0.0010978922, 0.32453632, 0
313, 391354784, -0.49064382910728455, -0.821477472782135, -3.207148551940918, 0.001772311, 0.01739339, 0.3423586, 0
314, 391371451, -0.4910452961921692, -0.8234466314315796, -3.208889961242676, 0.013228929, 0.01190714, 0.32078743, 0
315, 391388118, -0.49107688665390015, -0.8225064873695374, -3.2087278366088867, -0.0026349523, -0.004453349, 0.30114555, 0
316, 391404785, -0.4914877712726593, -0.8233934640884399, -3.2073373794555664, 0.005084731, 0.0076811276, 0.32414246, 0
317, 391421452, -0.4909377694129944, -0.8243294358253479, -3.2062368392944336, 0.007519863, 4.3053486E-4, 0.33358192, 0
318, 391438119, -0.49176791310310364, -0.8251355290412903, -3.2061076164245605, -0.010027483, 0.014145716, 0.3270054, 0
319, 391454786, -0.4925726652145386, -0.8250711560249329, -3.2079155445098877, -0.0038888322, 0.019809324, 0.33251858, 0
320, 391471453, -0.49214068055152893, -0.8259137272834778, -3.2073311805725098, -0.014580134, -0.014853193, 0.32322407, 0
321, 391488120, -0.49240559339523315, -0.8257745504379272, -3.205735206604004, 0.0033066366, 0.023015317, 0.3322525, 0
322, 391504787, -0.4929858148097992, -0.8245633840560913, -3.2057294845581055, -0.0037170064, 0.007147948, 0.32813835, 0
323, 391521454, -0.4921722710132599, -0.8255773782730103, -3.206097364425659, 0.0044587064, 0.016615536, 0.31838608, 0
324, 391538121, -0.4931434988975525, -0.8259749412536621, -3.207947254180908, -0.0055213706, 0.0030032457, 0.29033947, 0
325, 391554788, -0.49226242303848267, -0.8250939846038818, -3.208611488342285, -0.003027448, 0.021000627, 0.32676125, 0
326, 391571455, -0.4918418228626251, -0.8266470432281494, -3.2088980674743652, -0.0041202377, -0.009015591, 0.35284233, 0
327, 391588122, -0.49289029836654663, -0.8274868130683899, -3.2078471183776855, 0.0048804614, -0.009403064, 0.3207016, 0
328, 391604789, -0.4930906295776367, -0.8266345262527466, -3.2081573009490967, -0.010900063, 0.011368176, 0.33127785, 0
329, 391621456, -0.4928123354911804, -0.8279154896736145, -3.2124054431915283, 0.009453704, 0.002140992, 0.31691265, 0
330, 391638123, -0.492514967918396, -0.8278775811195374, -3.2126221656799316, 0.0037706427, 0.01543688, 0.32541847, 0
331, 391654790, -0.4915226101875305, -0.8279526829719543, -3.212738513946533, 0.002297825, 0.0048037334, 0.35251617, 0
332, 391671457, -0.4916074573993683, -0.8269394636154175, -3.211719036102295, -0.0026010552, 0.0028270793, 0.32352924, 0
333, 391688124, -0.49072882533073425, -0.82713782787323, -3.2134664058685303, -0.011907855, 0.002446199, 0.34662342, 0
334, 391704791, -0.48971623182296753, -0.826848030090332, -3.21317982673645, 0.0018020453, -1.365315E-4, 0.32396793, 0
335, 391721458, -0.48972755670547485, -0.827628493309021, -3.212242364883423, 0.0031227833, 0.007848675, 0.34323502, 0
336, 391738125, -0.4898975193500519, -0.8280250430107117, -3.212503671646118, -7.9210196E-4, 5.568127E-4, 0.33876514, 0
337, 391754792, -0.4899483621120453, -0.8275824785232544, -3.2109181880950928, 0.00424998, -3.2924156E-4, 0.30585098, 0
338, 391771459, -0.4903670847415924, -0.8289989829063416, -3.2108914852142334, 0.0012598238, -0.005178568, 0.31913662, 0
339, 391788126, -0.49015241861343384, -0.8284673094749451, -3.20892071723938, 0.0011236275, 0.006438151, 0.32007313, 0
340, 391804793, -0.49041512608528137, -0.8304092288017273, -3.2084810733795166, -0.0072182044, 0.006755096, 0.31140232, 0
341, 391821460, -0.49000728130340576, -0.8310402035713196, -3.2094523906707764, 0.0075621908, 0.014131265, 0.33026886, 0
342, 391838127, -0.4896896183490753, -0.8306244611740112, -3.209028959274292, 0.0060197697, 0.013046333, 0.32865906, 0
343, 391854794, -0.48965999484062195, -0.8317544460296631, -3.2101526260375977, 0.006798601, 0.0062768687, 0.3274517, 0
344, 391871461, -0.4899616539478302, -0.8322942852973938, -3.209993600845337, 0.0041259443, 0.011211445, 0.33001804, 0
345, 391888128, -0.4894886016845703, -0.8326088190078735, -3.2090189456939697, -4.3675827E-5, -0.0031393408, 0.33558655, 0
346, 391904795, -0.48930227756500244, -0.8329020738601685, -3.2080366611480713, -0.008254543, 0.012532253, 0.32250214, 0
347, 391921462, -0.4898529648780823, -0.8337353467941284, -3.208064079284668, 0.005722393, 0.004940513, 0.33381462, 0
348, 391938129, -0.4897361099720001, -0.8337368965148926, -3.205594539642334, 0.0037376466, 0.007029053, 0.33365822, 0
349, 391954796, -0.490014910697937, -0.8348469138145447, -3.2043094635009766, 0.00321749, 0.0163324, 0.32149696, 0
350, 391971463, -0.4901435673236847, -0.8356879353523254, -3.202991247177124, 4.275244E-4, -0.0014977044, 0.32768726, 0
351, 391988130, -0.49058160185813904, -0.8346999883651733, -3.20105242729187, 0.0074741337, 0.002865656, 0.32435608, 0
352, 392004797, -0.4907459020614624, -0.8354026675224304, -3.2003180980682373, 0.0042625526, 0.0015803763, 0.3232193, 0
353, 392021464, -0.4901003837585449, -0.835705578327179, -3.2009620666503906, 0.0066387816, -0.010542401, 0.35059738, 0
354, 392038131, -0.48942190408706665, -0.835861325263977, -3.196972131729126, -2.3433937E-4, -0.0070318747, 0.33994484, 0
355, 392054798, -0.48998454213142395, -0.8357051610946655, -3.196643829345703, -0.008741613, -0.0019610084, 0.3375721, 0
356, 392071465, -0.48973342776298523, -0.8357712030410767, -3.1958463191986084, 0.002258738, -0.006332143, 0.3328457, 0
357, 392088132, -0.490223228931427, -0.8381102681159973, -3.196108818054199, -9.540022E-4, -0.010458615, 0.3530321, 0
358, 392104799, -0.4892731308937073, -0.8386484980583191, -3.1942338943481445, -0.009169584, -0.008691619, 0.31441593, 0
359, 392121466, -0.4894006550312042, -0.8377851843833923, -3.193979501724243, -0.0019263534, 1.6876275E-4, 0.31890965, 0
360, 392138133, -0.4881516098976135, -0.8156014084815979, -3.1849312782287598, -0.0010253936, -0.003979082, 0.33226204, 0
361, 392154800, -0.4875560998916626, -0.8167944550514221, -3.1858081817626953, -0.0064861225, -0.007513821, 0.32118893, 0
362, 392171467, -0.48731234669685364, -0.8191289901733398, -3.189316749572754, -0.0023843944, 0.0010142669, 0.3170414, 0
363, 392188134, -0.487854540348053, -0.8200511336326599, -3.190927505493164, -0.0069902698, 0.007643256, 0.29893112, 0
364, 392204801, -0.48886215686798096, -0.8211427330970764, -3.1901543140411377, -0.012809618, 0.0156503, 0.313591, 0
365, 392221468, -0.48975515365600586, -0.8222299218177795, -3.1883301734924316, -0.0018002432, 0.0025391176, 0.32848167, 0
366, 392238135, -0.490495890378952, -0.8218474388122559, -3.188276529312134, 0.008283585, 0.0033669223, 0.34317493, 0
367, 392254802, -0.48975926637649536, -0.8231034874916077, -3.1885058879852295, -0.0017027217, 0.006539619, 0.3195362, 0
368, 392271469, -0.48919564485549927, -0.8239035606384277, -3.18839693069458, 0.0039109876, 0.009440384, 0.3282261, 0
369, 392288136, -0.4888213872909546, -0.8237512111663818, -3.1882426738739014, 9.3809783E-4, -0.0071088155, 0.3426237, 0
370, 392304803, -0.48876044154167175, -0.823175847530365, -3.1877377033233643, -0.011968288, 0.0038352134, 0.32116318, 0
371, 392321470, -0.48994266986846924, -0.822960615158081, -3.186591148376465, 0.008646787, 0.016150348, 0.3099413, 0
372, 392338137, -0.48988813161849976, -0.8229553699493408, -3.1862075328826904, -0.002613572, -0.0019535136, 0.32083225, 0
373, 392354804, -0.49007412791252136, -0.8222350478172302, -3.186741828918457, 1.493765E-4, -0.0034432206, 0.3165598, 0
374, 392371471, -0.49000295996665955, -0.8229144215583801, -3.186537504196167, 1.5031246E-5, -0.01109286, 0.3283167, 0
375, 392388138, -0.4900400936603546, -0.8224484920501709, -3.185495138168335, -0.0010779541, -0.009185059, 0.34382057, 0
376, 392404805, -0.4897794723510742, -0.8225818276405334, -3.184272289276123, 0.006110432, -0.014516674, 0.33947277, 0
377, 392421472, -0.4887140095233917, -0.8222097754478455, -3.1850693225860596, -0.0019479014, 0.012123929, 0.31852055, 0
378, 392438139, -0.4876454770565033, -0.8219069838523865, -3.185222864151001, -0.0014280522, 0.0029004018, 0.32051754, 0
379, 392454806, -0.48844122886657715, -0.8212716579437256, -3.1850650310516357, 0.012377721, 0.0076306346, 0.33579922, 0
380, 392471473, -0.4892030656337738, -0.8202120661735535, -3.1836447715759277, 0.0049786954, 0.01806658, 0.32485485, 0
381, 392488140, -0.48999831080436707, -0.8206555843353271, -3.1832077503204346, -5.225314E-4, 0.011499469, 0.3513708, 0
382, 392504807, -0.4904294013977051, -0.8212575912475586, -3.1809370517730713, -0.011777505, 0.0025470315, 0.31464195, 0
383, 392521474, -0.4905596077442169, -0.8210704922676086, -3.180067300796509, 0.007983722, 0.00829714, 0.31562233, 0
384, 392538141, -0.4909389019012451, -0.8195903301239014, -3.1802477836608887, -0.012955974, 0.013423245, 0.34116173, 0
385, 392554808, -0.4900209903717041, -0.818439245223999, -3.1803014278411865, -1.3123703E-4, -0.0035077704, 0.32979774, 0
386, 392571475, -0.4899405241012573, -0.8189886808395386, -3.177960157394409, 0.0052053304, 0.00163191, 0.3495407, 0
387, 392588142, -0.49051329493522644, -0.8197819590568542, -3.177501916885376, -0.004391499, 0.0029539298, 0.32736588, 0
388, 392604809, -0.49091431498527527, -0.8210492730140686, -3.179319381713867, 0.002133459, 0.0058725583, 0.33274746, 0
389, 392621476, -0.4902072846889496, -0.8201484680175781, -3.179537773132324, 0.013370209, 5.251018E-4, 0.32559872, 0
390, 392638143, -0.49012279510498047, -0.8195047378540039, -3.1779630184173584, -0.001664543, 0.0020565218, 0.33098412, 0
391, 392654810, -0.4896532893180847, -0.82012939453125, -3.176302909851074, 0.0057899146, -7.779054E-4, 0.3149395, 0
392, 392671477, -0.48967137932777405, -0.8217056393623352, -3.1763288974761963, 0.008738902, 0.0073864395, 0.307539, 0
393, 392688144, -0.49016767740249634, -0.8219011425971985, -3.1774404048919678, 0.006622682, 0.009244384, 0.32219696, 0
394, 392704811, -0.4903378486633301, -0.8213751912117004, -3.1757185459136963, -0.0028009387, 0.008006918, 0.32914066, 0
395, 392721478, -0.49056413769721985, -0.8222611546516418, -3.1752352714538574, 0.0053686695, -0.009744041, 0.33274078, 0
396, 392738145, -0.49020397663116455, -0.82240891456604, -3.1747329235076904, 0.002085292, 0.004210816, 0.34268188, 0
397, 392754812, -0.4898797571659088, -0.8220517039299011, -3.1754534244537354, -0.012341728, -0.017713042, 0.34857082, 0
398, 392771479, -0.48868685960769653, -0.8231247663497925, -3.174497604370117, -5.7678914E-4, 0.0018327574, 0.34336948, 0
399, 392788146, -0.4888404905796051, -0.8232612609863281, -3.1757638454437256, -0.002050885, 0.004433596, 0.31416607, 0
400, 392804813, -0.4877280294895172, -0.8219566345214844, -3.1754369735717773, 0.0054397117, 1.8028765E-4, 0.32390404, 0
401, 392821480, -0.4885675013065338, -0.8219183683395386, -3.1745100021362305, -0.0042102505, 0.010742539, 0.33065224, 0
402, 392838147, -0.48962894082069397, -0.8208540678024292, -3.174177646636963, 0.0035825355, 0.0018395571, 0.34400177, 0
403, 392854814, -0.4896705150604248, -0.8211017847061157, -3.1735939979553223, 0.005510628, 0.015629146, 0.3210411, 0
404, 392871481, -0.48873770236968994, -0.8212845325469971, -3.1734304428100586, -0.0039315927, 0.0014360289, 0.3377695, 0
405, 392888148, -0.48882895708084106, -0.8208461403846741, -3.1699817180633545, -0.00344189, 0.014380069, 0.3333912, 0
406, 392904815, -0.48840996623039246, -0.8194783329963684, -3.169822931289673, -9.0339745E-4, -0.002963195, 0.3166027, 0
407, 392921482, -0.48766979575157166, -0.8194969892501831, -3.169862747192383, -0.0017510704, -0.005384235, 0.3248186, 0
408, 392938149, -0.4867953658103943, -0.8191218376159668, -3.1691811084747314, 0.010302173, -7.59724E-4, 0.3397293, 0
409, 392954816, -0.48597344756126404, -0.8193251490592957, -3.1677396297454834, 0.0046783565, 0.0023277127, 0.32505608, 0
410, 392971483, -0.48610565066337585, -0.8188071846961975, -3.1669652462005615, 0.0031553742, -0.009322631, 0.33660412, 0
411, 392988150, -0.48589378595352173, -0.8184253573417664, -3.1660149097442627, 0.009349324, -0.0014618341, 0.32732296, 0
412, 393004817, -0.4860498607158661, -0.8179844617843628, -3.1646013259887695, -0.001097281, -0.012293799, 0.32082462, 0
413, 393021484, -0.48646506667137146, -0.8163155913352966, -3.1657347679138184, 0.005781491, -0.008673263, 0.32440758, 0
414, 393038151, -0.48615607619285583, -0.8160967826843262, -3.1648874282836914, 0.005614401, -0.011029285, 0.32487106, 0
415, 393054818, -0.48624011874198914, -0.815740168094635, -3.164485454559326, 0.0029493582, 0.015534053, 0.34644318, 0
416, 393071485, -0.48605889081954956, -0.8160091638565063, -3.1647567749023438, -0.0023414379, -5.7053077E-4, 0.34171677, 0
417, 393088152, -0.48665910959243774, -0.8154736757278442, -3.164484739303589, 0.008266501, -0.0014026276, 0.32473373, 0
418, 393104819, -0.487332820892334, -0.8148487210273743, -3.16444993019104, 0.017535437, 0.0039614565, 0.31809902, 0
419, 393121486, -0.4872516095638275, -0.8144886493682861, -3.16459584236145, 0.022458533, 0.003710357, 0.32555676, 0
420, 393138153, -0.48781371116638184, -0.814440131187439, -3.162641763687134, -0.01279847, 0.009285, 0.3407793, 0
421, 393154820, -0.48760727047920227, -0.8149086236953735, -3.162560224533081, -0.0056518256, 7.161739E-4, 0.33880424, 0
422, 393171487, -0.4880567789077759, -0.8152518272399902, -3.163766622543335, -0.004243547, -0.0018403707, 0.31620693, 0
423, 393188154, -0.48902881145477295, -0.8161531090736389, -3.162590503692627, -0.00431753, -0.00820134, 0.35052776, 0
424, 393204821, -0.4886898994445801, -0.8175659775733948, -3.163487434387207, -0.0043089036, 0.002722615, 0.32529163, 0
425, 393221488, -0.48973774909973145, -0.816073477268219, -3.1601274013519287, 0.00503699, -0.006565861, 0.33451366, 0
426, 393238155, -0.4891285300254822, -0.8152391314506531, -3.1587955951690674, -0.0028835337, 2.2906586E-5, 0.3379593, 0
427, 393254822, -0.4883296489715576, -0.8143855929374695, -3.1613922119140625, -0.0023961498, 0.0062282095, 0.32838058, 0
428, 393271489, -0.4888818860054016, -0.8148313760757446, -3.1616556644439697, 0.0018880907, -0.0036349946, 0.32715034, 0
429, 393288156, -0.4891640245914459, -0.8146282434463501, -3.16095232963562, -5.434578E-4, 0.017045608, 0.30821037, 0
430, 393304823, -0.48983529210090637, -0.8148781061172485, -3.1612462997436523, 0.0064364676, -0.0018321951, 0.34275627, 0
431, 393321490, -0.4897550344467163, -0.8138911724090576, -3.1628434658050537, 0.0076815747, -0.0022082382, 0.3214426, 0
432, 393338157, -0.4895039200782776, -0.8138207197189331, -3.1638975143432617, 0.014913406, 0.0024156861, 0.3280344, 0
433, 393354824, -0.4893478453159332, -0.8145440816879272, -3.1645631790161133, 0.009201141, -7.4593956E-4, 0.3298874, 0
434, 393371491, -0.4905267357826233, -0.8138338923454285, -3.162905216217041, -0.0059464294, -0.002108195, 0.3316431, 0
435, 393388158, -0.49113184213638306, -0.8136756420135498, -3.164296865463257, 0.0051203812, 0.0072890753, 0.33180046, 0
436, 393404825, -0.4910539388656616, -0.8127298355102539, -3.163332223892212, 0.006825373, -0.01339401, 0.34635544, 0
437, 393421492, -0.49045684933662415, -0.8116704225540161, -3.162522315979004, -0.009491554, -0.009127787, 0.3395157, 0
438, 393438159, -0.4910511076450348, -0.8111086487770081, -3.1605441570281982, 0.021016637, 0.012167853, 0.3314104, 0
439, 393454826, -0.4907933473587036, -0.8111572861671448, -3.156994581222534, 0.003951367, -0.009077459, 0.3353176, 0
440, 393471493, -0.4899069666862488, -0.8120520114898682, -3.156264305114746, -0.0016315328, -0.002217011, 0.32066345, 0
441, 393488160, -0.4898371994495392, -0.8112384676933289, -3.156500816345215, -0.0047905254, 0.001602773, 0.3154707, 0
442, 393504827, -0.4909549653530121, -0.8121527433395386, -3.1555936336517334, -0.00614625, -0.0076766536, 0.3346281, 0
443, 393521494, -0.4914207458496094, -0.8124548196792603, -3.1552677154541016, 0.01985078, 0.0058545135, 0.3301735, 0
444, 393538161, -0.4909260869026184, -0.8133596777915955, -3.1559431552886963, 0.014468391, 0.0049502915, 0.31876945, 0
445, 393554828, -0.49102306365966797, -0.8125911951065063, -3.1557648181915283, -0.008964071, -0.01276026, 0.34983158, 0
446, 393571495, -0.4915982782840729, -0.8139162063598633, -3.1558563709259033, 0.014265889, -0.0022325208, 0.32384872, 0
447, 393588162, -0.4913148283958435, -0.8154932856559753, -3.156477689743042, 0.014623629, -0.007748876, 0.34341145, 0
448, 393604829, -0.4912811517715454, -0.8159177899360657, -3.155599594116211, 0.009697536, 0.0045645013, 0.32873917, 0
449, 393621496, -0.4914862811565399, -0.8156949281692505, -3.1548092365264893, 0.0139687145, -0.004041324, 0.3270054, 0
450, 393638163, -0.49143415689468384, -0.8156464695930481, -3.1543290615081787, 0.006802065, 0.008501958, 0.32669544, 0
451, 393654830, -0.49195578694343567, -0.81485915184021, -3.1556313037872314, 0.010330636, 0.00680276, 0.30816078, 0
452, 393671497, -0.49198073148727417, -0.8157605528831482, -3.1557812690734863, 0.010247112, 2.4691547E-4, 0.3167858, 0
453, 393688164, -0.49228721857070923, -0.8147186636924744, -3.1540582180023193, -0.011439449, 0.0067487536, 0.34160328, 0
454, 393704831, -0.4914371967315674, -0.8148399591445923, -3.154529333114624, -0.0064167986, -0.010773527, 0.3508501, 0
455, 393721498, -0.4917556941509247, -0.8137890100479126, -3.154214859008789, 0.0046692695, 0.006046696, 0.33169937, 0
456, 393738165, -0.49087968468666077, -0.8136125802993774, -3.1532959938049316, 0.0135767, 0.0075408453, 0.36451054, 0
457, 393754832, -0.4910110533237457, -0.8142961859703064, -3.1562342643737793, -0.0045752684, 0.0108525455, 0.33161926, 0
458, 393771499, -0.4906766414642334, -0.8141036033630371, -3.156043767929077, 0.008002029, -0.0037270226, 0.32873535, 0
459, 393788166, -0.489432692527771, -0.8138307332992554, -3.1536366939544678, 0.0023733512, 0.0117113, 0.34873104, 0
460, 393804833, -0.48845425248146057, -0.813847541809082, -3.152050733566284, 0.0026569753, 0.0076298486, 0.32843208, 0
461, 393821500, -0.48831477761268616, -0.8142164945602417, -3.1518311500549316, -0.0030291104, -0.0014144668, 0.34092617, 0
462, 393838167, -0.4871574342250824, -0.813974916934967, -3.152125120162964, 0.01128913, -0.0048608272, 0.33475685, 0
463, 393854834, -0.4880787134170532, -0.813145101070404, -3.1522021293640137, 0.0049896543, 0.0012583116, 0.3102293, 0
464, 393871501, -0.4877229630947113, -0.8126968741416931, -3.1524322032928467, 0.0018025342, -0.0024831765, 0.32565212, 0
465, 393888168, -0.4870964288711548, -0.8125845789909363, -3.152174949645996, 0.00179988, -0.0017913551, 0.3545437, 0
466, 393904835, -0.48717620968818665, -0.8143690228462219, -3.1510396003723145, -0.0019396803, 0.015817491, 0.349329, 0
467, 393921502, -0.48675477504730225, -0.8148970603942871, -3.150406837463379, -0.013463023, 0.0029503885, 0.34523487, 0
468, 393938169, -0.4864466190338135, -0.8150526285171509, -3.149275064468384, 0.0066907275, 0.004539838, 0.33262062, 0
469, 393954836, -0.485458105802536, -0.814301609992981, -3.1485321521759033, 0.0057389536, -0.0030333607, 0.34786415, 0
470, 393971503, -0.48586300015449524, -0.8139243721961975, -3.148603916168213, 0.010704601, -6.297617E-4, 0.33200455, 0
471, 393988170, -0.4861259162425995, -0.8151256442070007, -3.14998722076416, 0.0026510942, 5.160006E-4, 0.34170437, 0
472, 394004837, -0.4851861298084259, -0.8154674172401428, -3.1521806716918945, 0.007560144, -0.014460789, 0.33337307, 0
473, 394021504, -0.4844478666782379, -0.8154574632644653, -3.152956962585449, 0.0020557675, -0.007383859, 0.3382511, 0
474, 394038171, -0.4846309423446655, -0.8140990734100342, -3.153496026992798, 0.005273069, 0.007504224, 0.32374573, 0
475, 394054838, -0.48587697744369507, -0.8128328919410706, -3.1516969203948975, 0.013886706, 0.011831829, 0.33003712, 0
476, 394071505, -0.48526519536972046, -0.8126675486564636, -3.1511919498443604, 0.0031651112, 0.0093302755, 0.32360172, 0
477, 394088172, -0.48557063937187195, -0.8141835927963257, -3.1521685123443604, 9.846444E-4, -0.012774733, 0.3291502, 0
478, 394104839, -0.48507437109947205, -0.8147002458572388, -3.1518633365631104, -0.0028211665, -0.0055407253, 0.31899643, 0
479, 394121506, -0.4854528307914734, -0.8152382373809814, -3.1529617309570312, 0.0034449773, -0.007938241, 0.33617973, 0
480, 394138173, -0.4853742718696594, -0.8161418437957764, -3.155085802078247, 0.005000935, 0.0025963369, 0.32941437, 0
481, 394154840, -0.4849368631839752, -0.816168487071991, -3.1539154052734375, 0.017034076, 0.0029167952, 0.31227112, 0
482, 394171507, -0.484496533870697, -0.8157262802124023, -3.152808427810669, 0.0077563673, -0.004649803, 0.3287096, 0
483, 394188174, -0.48354533314704895, -0.8174479603767395, -3.1533002853393555, 0.00352774, 0.006839332, 0.33222866, 0
484, 394204841, -0.4856582581996918, -0.8186514377593994, -3.1535911560058594, 0.00829905, 0.0036431355, 0.32261467, 0
485, 394221508, -0.48486441373825073, -0.818519115447998, -3.1559484004974365, -0.009678754, -0.0024278013, 0.3211193, 0
486, 394238175, -0.4844280779361725, -0.8184130191802979, -3.155996084213257, 0.0019487396, -0.011671781, 0.3214121, 0
487, 394254842, -0.4851562976837158, -0.8164806365966797, -3.1546082496643066, -0.00872223, -0.012371704, 0.34958458, 0
488, 394271509, -0.48518383502960205, -0.8162757754325867, -3.1528375148773193, -0.0047271173, 0.017187776, 0.3230629, 0
489, 394288176, -0.48461297154426575, -0.8163003325462341, -3.153240442276001, 0.0038171124, 0.011600755, 0.32454586, 0
490, 394304843, -0.48356422781944275, -0.8151987791061401, -3.1520280838012695, 0.010948153, -0.0019103792, 0.33637714, 0
491, 394321510, -0.4830775558948517, -0.8146824836730957, -3.15194034576416, -0.0051479433, -0.0018978975, 0.35431767, 0
492, 394338177, -0.483320027589798, -0.8157608509063721, -3.1506752967834473, -0.001535576, -0.011914393, 0.32218933, 0
493, 394354844, -0.48433956503868103, -0.8152574300765991, -3.150338649749756, -2.7591278E-4, 0.009584057, 0.32328606, 0
494, 394371511, -0.48425304889678955, -0.8152605295181274, -3.1510090827941895, 6.9087854E-4, -0.0017172222, 0.32338142, 0
495, 394388178, -0.48441606760025024, -0.8159587979316711, -3.1507930755615234, 0.012418694, -0.0026649658, 0.33069515, 0
496, 394404845, -0.4839710295200348, -0.8163186311721802, -3.1506824493408203, 0.013566622, 0.0075993356, 0.31604004, 0
497, 394421512, -0.4838126003742218, -0.8176889419555664, -3.149393081665039, 0.0024692244, -0.016244067, 0.34997654, 0
498, 394438179, -0.48338598012924194, -0.8177938461303711, -3.1495726108551025, 4.2516356E-5, 0.010239048, 0.34251595, 0
499, 394454846, -0.4828464686870575, -0.8174257278442383, -3.1512255668640137, 0.003600654, 0.014526906, 0.3463745, 0
500, 394471513, -0.4846453070640564, -0.8172453045845032, -3.1499342918395996, 8.1194576E-4, -0.0046474244, 0.32961655, 0
501, 394488180, -0.4845789968967438, -0.816486120223999, -3.149327278137207, 0.0074117943, -0.008668768, 0.34308243, 0
502, 394504847, -0.4844263195991516, -0.815659761428833, -3.1489338874816895, 0.015576534, -0.004334433, 0.32621002, 0
503, 394521514, -0.48483115434646606, -0.815700352191925, -3.146292209625244, 0.023624014, -0.009164998, 0.32724285, 0
504, 394538181, -0.48339810967445374, -0.8160602450370789, -3.1468937397003174, -0.008210609, -0.010911022, 0.3271513, 0
505, 394554848, -0.4830249547958374, -0.8163060545921326, -3.1462128162384033, -0.0017969604, -0.010112763, 0.3336792, 0
506, 394571515, -0.4833158254623413, -0.8173747658729553, -3.1457459926605225, 0.0077227917, 0.003164238, 0.32636166, 0
507, 394588182, -0.48217839002609253, -0.8177528977394104, -3.1451032161712646, -0.010646124, -0.006745764, 0.3336916, 0
508, 394604849, -0.4828643798828125, -0.8164421916007996, -3.144057273864746, -0.0033953504, -2.4314018E-4, 0.33212566, 0
509, 394621516, -0.48341095447540283, -0.8167128562927246, -3.1440041065216064, 0.0014168347, 0.018026963, 0.3172226, 0
510, 394638183, -0.48335617780685425, -0.8177183270454407, -3.145004987716675, 0.010983727, 0.005297917, 0.34699345, 0
511, 394654850, -0.48322612047195435, -0.8172774314880371, -3.1430931091308594, 0.0012843125, 0.012153377, 0.337492, 0
512, 394671517, -0.48234304785728455, -0.8178412318229675, -3.141916275024414, 0.001555713, 0.011099856, 0.3377056, 0
513, 394688184, -0.4829878807067871, -0.8174821138381958, -3.1420228481292725, 0.004946789, 0.007963906, 0.3340149, 0
514, 394704851, -0.4821183383464813, -0.8181565403938293, -3.141690731048584, 8.4269274E-4, 0.0017955774, 0.33778095, 0
515, 394721518, -0.48217394948005676, -0.8183863759040833, -3.1427884101867676, -0.0077654896, 0.014207203, 0.3225155, 0
516, 394738185, -0.4827117323875427, -0.8201134204864502, -3.1432297229766846, 0.0014396888, 0.0061906874, 0.32825756, 0
517, 394754852, -0.48157572746276855, -0.81969153881073, -3.1435394287109375, -0.007920412, 0.0039536753, 0.32784843, 0
518, 394771519, -0.48175352811813354, -0.8203089237213135, -3.141979694366455, -0.0047600716, -0.003593802, 0.32934952, 0
519, 394788186, -0.4822494685649872, -0.8212019801139832, -3.141472578048706, 0.0076158335, -0.004362634, 0.34196377, 0
520, 394804853, -0.48234039545059204, -0.82198166847229, -3.1421236991882324, 0.012957598, -0.0036125944, 0.32448292, 0
521, 394821520, -0.4814162850379944, -0.8226942420005798, -3.141436815261841, 0.010857826, 0.025865206, 0.3377781, 0
522, 394838187, -0.4813912510871887, -0.8223143219947815, -3.1395835876464844, -0.0031048604, 0.001121389, 0.32672215, 0
523, 394854854, -0.4816966950893402, -0.8220593929290771, -3.1403119564056396, -0.0076218126, 0.0055420804, 0.32933712, 0
524, 394871521, -0.4825676381587982, -0.8221991062164307, -3.139622211456299, -0.0041231154, 0.0057156803, 0.33021927, 0
525, 394888188, -0.4822148382663727, -0.8226412534713745, -3.1387970447540283, -0.004480422, -0.0011314959, 0.34242153, 0
526, 394904855, -0.4818611443042755, -0.8235036730766296, -3.1387693881988525, -0.009160148, 0.011526821, 0.33981323, 0
527, 394921522, -0.48200884461402893, -0.8231428861618042, -3.138556480407715, -0.002088512, 0.0058405227, 0.33830547, 0
528, 394938189, -0.480923056602478, -0.8227851390838623, -3.1382596492767334, 0.006414249, -0.003435125, 0.31890965, 0
529, 394954856, -0.4817107319831848, -0.8238767981529236, -3.1377267837524414, 0.0056239422, 1.8715019E-4, 0.33803463, 0
530, 394971523, -0.4806447923183441, -0.8257219195365906, -3.138042688369751, 0.011135317, 0.005370863, 0.33070946, 0
531, 394988190, -0.48117315769195557, -0.8268699049949646, -3.1377413272857666, -0.012319727, 0.0030292815, 0.3418932, 0
532, 395004857, -0.48099109530448914, -0.8260287642478943, -3.1379895210266113, -0.0040061832, -0.0067890766, 0.35472202, 0
533, 395021524, -0.48133358359336853, -0.8247460722923279, -3.1376264095306396, 0.013755029, 0.009051485, 0.32067108, 0
534, 395038191, -0.48229917883872986, -0.8242698907852173, -3.136676073074341, 0.003466232, 0.008655696, 0.34395885, 0
535, 395054858, -0.48263296484947205, -0.8240054845809937, -3.135680675506592, 0.0014692415, -0.0045236265, 0.3184433, 0
536, 395071525, -0.48282527923583984, -0.8247197866439819, -3.1353111267089844, 0.0022556928, -0.0011304307, 0.32477188, 0
537, 395088192, -0.4824655055999756, -0.8253382444381714, -3.136326551437378, 0.015251456, -2.4083172E-4, 0.31463623, 0
538, 395104859, -0.4813210368156433, -0.8245673775672913, -3.1355457305908203, 0.01192983, 0.005644303, 0.32522964, 0
539, 395121526, -0.48092055320739746, -0.8238987922668457, -3.1350951194763184, 0.0012378078, -0.0030275283, 0.3395214, 0
540, 395138193, -0.48172178864479065, -0.8232336640357971, -3.1345374584198, -6.6247844E-4, -0.012531104, 0.32218933, 0
541, 395154860, -0.4822559058666229, -0.8231830596923828, -3.1344985961914062, 3.7657743E-4, -0.0064612287, 0.3442917, 0
542, 395171527, -0.4813341498374939, -0.8229596614837646, -3.1348984241485596, 0.003320655, -0.01108342, 0.30443096, 0
543, 395188194, -0.48133614659309387, -0.8239599466323853, -3.134918451309204, 0.003989455, -0.0060634525, 0.350502, 0
544, 395204861, -0.4819056987762451, -0.8244170546531677, -3.134485960006714, -0.0016006252, -0.012606103, 0.3447895, 0
545, 395221528, -0.4820358157157898, -0.8245621919631958, -3.135780096054077, -0.009582273, -0.0027029177, 0.338562, 0
546, 395238195, -0.48144766688346863, -0.8251023292541504, -3.1360135078430176, -0.0044889576, -0.010040136, 0.31139946, 0
547, 395254862, -0.4813847541809082, -0.8253374695777893, -3.1348071098327637, 0.014535815, 0.012821551, 0.32397938, 0
548, 395271529, -0.480562299489975, -0.8257110118865967, -3.133890151977539, 0.015378173, 0.0042681405, 0.34517956, 0
549, 395288196, -0.480709046125412, -0.8264551162719727, -3.132333517074585, -0.013068851, -0.0058407113, 0.33394814, 0
550, 395304863, -0.4800319969654083, -0.8265672326087952, -3.131988525390625, 0.004333972, -0.0017905204, 0.33311176, 0
551, 395321530, -0.4806796908378601, -0.8270123600959778, -3.13161301612854, 0.002505671, -0.008114586, 0.31556416, 0
552, 395338197, -0.48152849078178406, -0.8261749148368835, -3.1323535442352295, -0.0018654531, -0.0035762805, 0.31475735, 0
553, 395354864, -0.48090359568595886, -0.8250716924667358, -3.132222890853882, -0.004185504, -0.00466738, 0.3138609, 0
554, 395371531, -0.4805321991443634, -0.8248918652534485, -3.1312220096588135, 0.0062404675, 0.0058005, 0.32967758, 0
555, 395388198, -0.48086971044540405, -0.8255125284194946, -3.1317312717437744, -0.012698162, 0.010260827, 0.34066486, 0
556, 395404865, -0.48146456480026245, -0.8254168033599854, -3.131561040878296, 0.0139409015, -0.0015237891, 0.32657337, 0
557, 395421532, -0.48175790905952454, -0.8248897790908813, -3.1298224925994873, -0.004079328, -0.0035781036, 0.32490158, 0
558, 395438199, -0.481541246175766, -0.8243221044540405, -3.129584312438965, 0.0014074611, -0.0035703192, 0.32474613, 0
559, 395454866, -0.4816775918006897, -0.8242732882499695, -3.1303822994232178, -0.0076958863, 0.010792889, 0.3428583, 0
560, 395471533, -0.481981486082077, -0.8242605924606323, -3.1292762756347656, -0.006312711, -0.0025169444, 0.30982494, 0
561, 395488200, -0.4816892743110657, -0.8248214721679688, -3.127361297607422, -0.002076142, 0.00479722, 0.3412609, 0
562, 395504867, -0.48165640234947205, -0.8256884813308716, -3.126272678375244, -2.0593924E-4, -0.0043490767, 0.3078394, 0
563, 395521534, -0.4817996919155121, -0.8256901502609253, -3.125657320022583, -0.0010297591, -8.7939424E-4, 0.32774067, 0
564, 395538201, -0.48213693499565125, -0.8259313702583313, -3.1267194747924805, 0.013659177, 0.011860342, 0.31169605, 0
565, 395554868, -0.4824365973472595, -0.8259350061416626, -3.1271755695343018, 0.0040720357, -0.003590994, 0.33501148, 0
566, 395571535, -0.4824974834918976, -0.8261346817016602, -3.1276443004608154, 0.0017549958, -0.00734304, 0.32915974, 0
567, 395588202, -0.483208566904068, -0.8249325156211853, -3.1277050971984863, -0.005223288, 0.0026200118, 0.35504723, 0
568, 395604869, -0.48250094056129456, -0.825865626335144, -3.128941297531128, 0.020968316, -0.007510629, 0.3167677, 0
569, 395621536, -0.48328641057014465, -0.8271054625511169, -3.1306774616241455, -0.006766701, 0.0058084903, 0.3386383, 0
570, 395638203, -0.4840232729911804, -0.8272265195846558, -3.1305441856384277, 0.002984813, 3.6825155E-4, 0.33371544, 0
571, 395654870, -0.4850933849811554, -0.8278903961181641, -3.1319048404693604, -5.5650534E-4, -0.0024743688, 0.3238573, 0
572, 395671537, -0.4845113754272461, -0.8279613852500916, -3.132704973220825, 0.009814845, 0.0018424802, 0.3260126, 0
573, 395688204, -0.48437589406967163, -0.827403724193573, -3.1337571144104004, 0.0062263585, 0.008842371, 0.32485962, 0
574, 395704871, -0.4836727976799011, -0.8272525072097778, -3.133612632751465, -0.008442811, 5.226117E-4, 0.31812096, 0
575, 395721538, -0.48399418592453003, -0.8275507092475891, -3.134232997894287, 0.008005018, 0.0035430714, 0.32447815, 0
576, 395738205, -0.4842011332511902, -0.8266058564186096, -3.133640766143799, -6.2698877E-4, 0.011514515, 0.3462715, 0
577, 395754872, -0.4839068055152893, -0.8273847103118896, -3.1335418224334717, 0.014825482, 0.009650717, 0.33148098, 0
578, 395771539, -0.48329073190689087, -0.8266633152961731, -3.1337673664093018, 0.0108661875, 0.005183101, 0.29916668, 0
579, 395788206, -0.4845105707645416, -0.8258734345436096, -3.132941961288452, 0.008427835, 0.0019256864, 0.3116951, 0
580, 395804873, -0.48419255018234253, -0.8252923488616943, -3.13260555267334, -7.0799823E-4, -0.005885299, 0.31295395, 0
581, 395821540, -0.48309043049812317, -0.8247272372245789, -3.1315207481384277, 0.00813898, -0.009834364, 0.3153286, 0
582, 395838207, -0.48358434438705444, -0.8241719603538513, -3.1312992572784424, 0.0014391091, 0.013124027, 0.33050156, 0
583, 395854874, -0.4848003685474396, -0.825493335723877, -3.129972219467163, 0.009608396, -7.642292E-4, 0.34109974, 0
584, 395871541, -0.483420729637146, -0.8263855576515198, -3.130121946334839, 0.011033878, -8.8894943E-4, 0.33759975, 0
585, 395888208, -0.48390302062034607, -0.8267665505409241, -3.130061388015747, -0.0022582281, -0.010914788, 0.3158903, 0
586, 395904875, -0.4831816256046295, -0.8272019028663635, -3.129124879837036, 0.005864023, -0.0026870135, 0.34620667, 0
587, 395921542, -0.48323342204093933, -0.8277947902679443, -3.1277949810028076, 0.010361949, -0.011959815, 0.33756256, 0
588, 395938209, -0.48290082812309265, -0.8276676535606384, -3.1264023780822754, 0.002182646, 0.0060419706, 0.3491459, 0
589, 395954876, -0.4829786419868469, -0.828660249710083, -3.1269595623016357, 0.0032514709, 0.010749793, 0.31615353, 0
590, 395971543, -0.48337826132774353, -0.8272777199745178, -3.1258907318115234, 0.0027038502, -0.0026846665, 0.33690548, 0
591, 395988210, -0.4848344624042511, -0.8261309266090393, -3.1259605884552, -0.0058019143, -0.008351037, 0.34377575, 0
592, 396004877, -0.48373469710350037, -0.8257445693016052, -3.1259360313415527, 0.00583665, -7.939425E-4, 0.33556557, 0
593, 396021544, -0.4840165674686432, -0.8256166577339172, -3.1258206367492676, -0.0012153308, -0.0047877696, 0.3201599, 0
594, 396038211, -0.4837551414966583, -0.827293872833252, -3.12491512298584, 0.016097117, 0.015651599, 0.33124447, 0
595, 396054878, -0.4834859371185303, -0.8271529674530029, -3.1245646476745605, -0.0013446679, 0.011685781, 0.33516026, 0
596, 396071545, -0.48321524262428284, -0.8271852731704712, -3.123542547225952, 3.4856846E-4, -1.8897672E-4, 0.33547974, 0
597, 396088212, -0.48342862725257874, -0.827873170375824, -3.122443437576294, -0.008763007, 0.010300102, 0.32013988, 0
598, 396104879, -0.4838135838508606, -0.8277909755706787, -3.1218974590301514, -0.0053172265, 0.005966895, 0.3389082, 0
599, 396121546, -0.48470330238342285, -0.8278800249099731, -3.1226460933685303, -0.0077072997, 0.0041139307, 0.31693935, 0
600, 396138213, -0.48502203822135925, -0.8223704695701599, -3.127084493637085, 0.0024523353, 0.01065429, 0.34465694, 0
601, 396154880, -0.48532021045684814, -0.8245932459831238, -3.12544322013855, 0.004434965, -0.0055013313, 0.3389368, 0
602, 396171547, -0.48529213666915894, -0.8233522772789001, -3.124849319458008, 0.021391384, 0.011850943, 0.31447315, 0
603, 396188214, -0.48498356342315674, -0.8240100145339966, -3.124546766281128, -0.0013158137, 0.005856654, 0.34016705, 0
604, 396204881, -0.4858006238937378, -0.823201060295105, -3.1223578453063965, 0.011251531, 0.008232164, 0.31033134, 0
605, 396221548, -0.4851652681827545, -0.823455274105072, -3.123626470565796, -0.018822659, 0.004871751, 0.33746338, 0
606, 396238215, -0.485091894865036, -0.8234456181526184, -3.124547243118286, 0.012077774, -0.009769891, 0.3156767, 0
607, 396254882, -0.4838550388813019, -0.823486328125, -3.1256346702575684, 0.012626436, 0.0014062667, 0.32429123, 0
608, 396271549, -0.48350590467453003, -0.8236318230628967, -3.125251293182373, 0.0010971762, -0.0017845309, 0.30741024, 0
609, 396288216, -0.4837456941604614, -0.8228777050971985, -3.1245851516723633, 0.0014938698, 0.0046877093, 0.3346777, 0
610, 396304883, -0.4837739169597626, -0.8226619362831116, -3.12542986869812, 0.010507379, 9.5588807E-4, 0.32151794, 0
611, 396321550, -0.4833712577819824, -0.8233401775360107, -3.1265296936035156, 0.010230035, 0.014684288, 0.33605194, 0
612, 396338217, -0.4839371144771576, -0.8233513236045837, -3.127168655395508, 0.0012410766, -0.0065605487, 0.3335657, 0
613, 396354884, -0.48403945565223694, -0.8232178688049316, -3.1274092197418213, 0.008624177, 0.0016467352, 0.34512615, 0
614, 396371551, -0.4839755892753601, -0.8207079768180847, -3.1271331310272217, -0.0040747668, -0.0026287185, 0.32863045, 0
615, 396388218, -0.48425015807151794, -0.8194018006324768, -3.1289939880371094, -0.0032006218, -0.014786647, 0.32357597, 0
616, 396404885, -0.48582378029823303, -0.8190173506736755, -3.1282033920288086, -0.003597909, -0.009368759, 0.30283356, 0
617, 396421552, -0.48479482531547546, -0.8195719122886658, -3.127048969268799, 0.0069304663, -0.008826139, 0.32257843, 0
618, 396438219, -0.4845256805419922, -0.8203708529472351, -3.127525806427002, -0.001925145, 0.012267907, 0.3377533, 0
619, 396454886, -0.48407483100891113, -0.820447564125061, -3.126073122024536, 0.014828897, 3.86171E-4, 0.33269405, 0
620, 396471553, -0.48339635133743286, -0.8197923302650452, -3.1238749027252197, 0.012282093, 0.0110911215, 0.33355713, 0
621, 396488220, -0.4834681749343872, -0.8202998042106628, -3.1242711544036865, 0.013918669, -0.0076901587, 0.32037354, 0
622, 396504887, -0.4840644299983978, -0.8197537064552307, -3.1243250370025635, 0.002422154, 0.01412978, 0.32715225, 0
623, 396521554, -0.48312923312187195, -0.8195344805717468, -3.125382423400879, -0.009505852, -0.002698018, 0.32080173, 0
624, 396538221, -0.48376160860061646, -0.8197962641716003, -3.1237809658050537, -0.0055353334, -2.5973952E-4, 0.33040047, 0
625, 396554888, -0.48397520184516907, -0.8199214935302734, -3.122523784637451, 0.0084932055, 0.01556061, 0.33333206, 0
626, 396571555, -0.48522618412971497, -0.8207022547721863, -3.121924877166748, 0.014853093, -0.012758671, 0.3180151, 0
627, 396588222, -0.48473304510116577, -0.8200531601905823, -3.1229407787323, 0.0075329035, -0.0121820355, 0.32072926, 0
628, 396604889, -0.48552218079566956, -0.8201512694358826, -3.1223652362823486, 0.0066077416, 0.008758596, 0.31306076, 0
629, 396621556, -0.48558345437049866, -0.8198246955871582, -3.1219980716705322, 9.971402E-4, -0.0038507092, 0.330698, 0
630, 396638223, -0.4855327010154724, -0.8193573355674744, -3.121643304824829, 0.0052025854, -0.008498298, 0.34402657, 0
631, 396654890, -0.4853220283985138, -0.8185203075408936, -3.120723247528076, 0.015800495, 0.007871403, 0.34093857, 0
632, 396671557, -0.4847363829612732, -0.8179550766944885, -3.12131929397583, -0.0034456549, 0.0015276971, 0.31541252, 0
633, 396688224, -0.484377920627594, -0.8178783059120178, -3.1220359802246094, 0.0143677555, -0.01524072, 0.34332657, 0
634, 396704891, -0.48416122794151306, -0.8177295327186584, -3.1229288578033447, -0.014434582, -0.011942838, 0.3373623, 0
635, 396721558, -0.4838198721408844, -0.8164539933204651, -3.122197151184082, 0.006649685, 0.0013803252, 0.3099966, 0
636, 396738225, -0.48303014039993286, -0.8164786100387573, -3.1222143173217773, 0.005083767, 0.0085812565, 0.32249165, 0
637, 396754892, -0.48296406865119934, -0.8169006705284119, -3.1225154399871826, -0.0033241196, 0.006049109, 0.33045387, 0
638, 396771559, -0.4832953214645386, -0.8156955242156982, -3.1207399368286133, 0.011436082, -0.010921168, 0.34043217, 0
639, 396788226, -0.4832271337509155, -0.8167064189910889, -3.1196603775024414, 0.0042818026, -0.0024151518, 0.33457375, 0
640, 396804893, -0.48318225145339966, -0.8179222345352173, -3.119281530380249, 0.0033629132, -0.001996533, 0.30115318, 0
641, 396821560, -0.4836123585700989, -0.8180720210075378, -3.119272470474243, 0.0029699213, -4.311984E-4, 0.32884216, 0
642, 396838227, -0.4831421971321106, -0.8173288106918335, -3.1195952892303467, -0.0011923788, 0.0015076891, 0.32187462, 0
643, 396854894, -0.4839746057987213, -0.8175146579742432, -3.1213326454162598, 0.005585505, 0.0043875384, 0.33446503, 0
644, 396871561, -0.4853418171405792, -0.8183114528656006, -3.121150255203247, -0.0031014378, -0.0035829057, 0.33739853, 0
645, 396888228, -0.48577529191970825, -0.8188123106956482, -3.1202280521392822, -0.008092371, -0.009078244, 0.35126877, 0
646, 396904895, -0.4870460629463196, -0.81951504945755, -3.1209473609924316, 0.0071654483, 1.06926505E-4, 0.30602837, 0
647, 396921562, -0.48636394739151, -0.8191837072372437, -3.1215429306030273, 0.007713809, 0.0065571717, 0.308362, 0
648, 396938229, -0.4858376979827881, -0.8210495710372925, -3.1215908527374268, 0.01266599, 0.021019947, 0.3316517, 0
649, 396954896, -0.48611849546432495, -0.8208470344543457, -3.1231000423431396, -9.978527E-4, -0.0045061153, 0.3218336, 0
650, 396971563, -0.48594582080841064, -0.8198936581611633, -3.122173309326172, 0.0047013434, 0.008327481, 0.3543625, 0
651, 396988230, -0.48703503608703613, -0.821008563041687, -3.1202552318573, -7.604749E-4, 8.8464335E-4, 0.3485527, 0
652, 397004897, -0.48654234409332275, -0.8200320601463318, -3.119457244873047, 0.005610224, -0.003728919, 0.33132172, 0
653, 397021564, -0.48663565516471863, -0.8188331127166748, -3.1198010444641113, 0.0013511148, 0.0028389988, 0.3124323, 0
654, 397038231, -0.48629993200302124, -0.8180255889892578, -3.1194887161254883, 0.008175608, 0.007582607, 0.337245, 0
655, 397054898, -0.48584941029548645, -0.8193368315696716, -3.1182730197906494, 0.0010812649, -0.013350016, 0.3305149, 0
656, 397071565, -0.4866923987865448, -0.8182993531227112, -3.118595600128174, 1.2196822E-4, -0.0049297214, 0.34552097, 0
657, 397088232, -0.4871692359447479, -0.818254292011261, -3.118119478225708, 0.009275823, 0.0068378584, 0.32794952, 0
658, 397104899, -0.4870358109474182, -0.8162863850593567, -3.1180312633514404, -0.01575129, 0.009009227, 0.31329823, 0
659, 397121566, -0.48652026057243347, -0.8182824850082397, -3.118337869644165, -0.003172997, 0.007621743, 0.32169533, 0
660, 397138233, -0.487587034702301, -0.8177096843719482, -3.118150234222412, -2.2213695E-4, 0.0043173656, 0.35027122, 0
661, 397154900, -0.48669639229774475, -0.818397045135498, -3.1187338829040527, 0.004372102, -0.0115908235, 0.33119583, 0
662, 397171567, -0.4875677227973938, -0.8188967704772949, -3.117979049682617, 0.006618435, -0.0018008543, 0.31212425, 0
663, 397188234, -0.48727157711982727, -0.8185794353485107, -3.117332935333252, 0.01008262, 6.3687575E-4, 0.3194275, 0
664, 397204901, -0.48637762665748596, -0.81987065076828, -3.1176319122314453, -0.0058200397, -6.132637E-6, 0.34536743, 0
665, 397221568, -0.4863989055156708, -0.820037305355072, -3.1175129413604736, -0.002449241, -0.0037362531, 0.32566166, 0
666, 397238235, -0.48510774970054626, -0.8195255398750305, -3.117975950241089, 0.005997146, -0.008723072, 0.3481388, 0
667, 397254902, -0.4842261075973511, -0.8196512460708618, -3.117467164993286, 0.0027220806, 2.2926492E-4, 0.33233738, 0
668, 397271569, -0.485813170671463, -0.8209307193756104, -3.1160683631896973, -0.0034110034, -0.008045635, 0.3424034, 0
669, 397288236, -0.48632654547691345, -0.8197462558746338, -3.1156508922576904, 0.0065236934, 0.0038202554, 0.3317461, 0
670, 397304903, -0.48556774854660034, -0.8184224367141724, -3.11570405960083, 0.0013618784, 1.1018141E-4, 0.34862328, 0
671, 397321570, -0.48515868186950684, -0.8178390860557556, -3.115325450897217, -0.0020594483, 0.004073178, 0.3258381, 0
672, 397338237, -0.4851931631565094, -0.8178809881210327, -3.1155407428741455, 0.0024483888, 5.148586E-4, 0.33866692, 0
673, 397354904, -0.4840671420097351, -0.8179271221160889, -3.1145997047424316, -0.0025016896, 0.00417811, 0.33052063, 0
674, 397371571, -0.4836502969264984, -0.8166864514350891, -3.1148078441619873, -0.0023057736, 0.004331695, 0.3438959, 0
675, 397388238, -0.4831586182117462, -0.8166760802268982, -3.114255666732788, -0.0043989513, 0.0020730582, 0.34355068, 0
676, 397404905, -0.48361697793006897, -0.8171127438545227, -3.1129539012908936, 0.0013460718, 0.010750638, 0.3433838, 0
677, 397421572, -0.4835474491119385, -0.817735493183136, -3.1121113300323486, 0.024134, -0.006806022, 0.32401657, 0
678, 397438239, -0.4839820861816406, -0.8182951211929321, -3.110823631286621, 0.013690001, -2.0569129E-4, 0.3160391, 0
679, 397454906, -0.4853372871875763, -0.8177875280380249, -3.1105875968933105, -0.0030796872, 6.084127E-4, 0.3379526, 0
680, 397471573, -0.48434701561927795, -0.8186708688735962, -3.1106836795806885, 0.0022989844, -0.0020216818, 0.309803, 0
681, 397488240, -0.48540958762168884, -0.8191913962364197, -3.110501527786255, 0.0031921212, 0.012651141, 0.3204584, 0
682, 397504907, -0.48514166474342346, -0.8181400299072266, -3.1099629402160645, 0.008290808, 0.0042071706, 0.33413124, 0
683, 397521574, -0.485805481672287, -0.8181357383728027, -3.1106655597686768, 3.8602782E-4, 8.673246E-4, 0.33270454, 0
684, 397538241, -0.48617681860923767, -0.8182424306869507, -3.1107499599456787, 0.0037942932, 0.004111161, 0.33592892, 0
685, 397554908, -0.4861733615398407, -0.8188060522079468, -3.1102795600891113, -0.0012775023, 0.0049694544, 0.3338642, 0
686, 397571575, -0.48558419942855835, -0.8196237087249756, -3.111851930618286, 0.016176764, 0.0078831725, 0.31794167, 0
687, 397588242, -0.4863428771495819, -0.821021556854248, -3.1118669509887695, 0.004884317, 0.006218165, 0.33671284, 0
688, 397604909, -0.48567014932632446, -0.8189026117324829, -3.112185478210449, -0.007290168, 0.01507159, 0.32749557, 0
689, 397621576, -0.485014408826828, -0.8194162249565125, -3.1118571758270264, 0.0037625611, 0.0046562846, 0.33823872, 0
690, 397638243, -0.4849090576171875, -0.8192121982574463, -3.110015869140625, -0.0049978686, -0.008870569, 0.32322788, 0
691, 397654910, -0.4850977063179016, -0.8206844329833984, -3.109722375869751, -0.010290781, -0.006692299, 0.32997513, 0
692, 397671577, -0.48409467935562134, -0.8198028802871704, -3.1103343963623047, 0.007702927, 0.0022009145, 0.34233093, 0
693, 397688244, -0.4839460253715515, -0.819974958896637, -3.109807252883911, -0.014895351, 0.0024191542, 0.32710457, 0
694, 397704911, -0.4840242564678192, -0.8204065561294556, -3.1086201667785645, -0.0057040504, -0.009179356, 0.32024097, 0
695, 397721578, -0.4838908016681671, -0.8209880590438843, -3.1098506450653076, 0.0035156214, 0.0022063453, 0.32455826, 0
696, 397738245, -0.48439979553222656, -0.8209607601165771, -3.10906720161438, -0.0028446913, 0.009338794, 0.34926796, 0
697, 397754912, -0.48366278409957886, -0.8216806650161743, -3.1092827320098877, -4.7059954E-4, -0.0030960038, 0.3310709, 0
698, 397771579, -0.48418405652046204, -0.8220995664596558, -3.1096761226654053, 0.0041164453, -0.004274444, 0.33328152, 0
699, 397788246, -0.48451584577560425, -0.8217169642448425, -3.1100592613220215, 0.0022640256, 0.007379123, 0.33484077, 0
700, 397804913, -0.4845705032348633, -0.8220500349998474, -3.110978126525879, 0.0013038488, 0.0059595676, 0.32243443, 0
701, 397821580, -0.4845620095729828, -0.8201987147331238, -3.110520362854004, -8.3629467E-4, 0.009412518, 0.3266077, 0
702, 397838247, -0.4835875332355499, -0.819146454334259, -3.111433744430542, -0.0045087384, 2.663995E-4, 0.3375845, 0
703, 397854914, -0.4838627874851227, -0.8197454810142517, -3.1121010780334473, 0.007863081, -0.0035150207, 0.3217306, 0
704, 397871581, -0.48336848616600037, -0.8201747536659241, -3.112089157104492, 0.003024249, 0.005509961, 0.31733227, 0
705, 397888248, -0.4831845462322235, -0.817635178565979, -3.1124448776245117, 0.005730942, 0.001010792, 0.3255558, 0
706, 397904915, -0.48277270793914795, -0.8171774744987488, -3.11167311668396, -0.0044465526, 0.006351096, 0.33459187, 0
707, 397921582, -0.4832184314727783, -0.817143976688385, -3.11120867729187, 3.0916033E-4, 0.012840027, 0.34922886, 0
708, 397938249, -0.4835064709186554, -0.8170005083084106, -3.111557960510254, 0.0038169937, -0.006266385, 0.32875633, 0
709, 397954916, -0.4836164116859436, -0.8176282644271851, -3.1110358238220215, 0.008341273, 0.008293969, 0.34181595, 0
710, 397971583, -0.48355942964553833, -0.8175491690635681, -3.112168788909912, 0.0014683055, -0.015160042, 0.32342434, 0
711, 397988250, -0.483574241399765, -0.8163689374923706, -3.1121811866760254, -0.0043260516, -0.0010262982, 0.3157196, 0
712, 398004917, -0.4831477403640747, -0.8167038559913635, -3.111164093017578, 0.0030318485, -0.013754502, 0.34050846, 0
713, 398021584, -0.48142290115356445, -0.8184460997581482, -3.1109490394592285, 5.525799E-4, -0.0020821558, 0.3389578, 0
714, 398038251, -0.480470210313797, -0.8171674609184265, -3.1112194061279297, 0.0038936445, 0.011974634, 0.31850338, 0
715, 398054918, -0.47927337884902954, -0.8175960183143616, -3.1106812953948975, 0.002791635, 0.0018845705, 0.33648396, 0
716, 398071585, -0.47954827547073364, -0.8170811533927917, -3.1105549335479736, -2.3286558E-4, -0.0045008073, 0.34307957, 0
717, 398088252, -0.4807974100112915, -0.8169565200805664, -3.111234664916992, 0.0071832384, -0.0018528071, 0.32406616, 0
718, 398104919, -0.4813854992389679, -0.8167198300361633, -3.110153913497925, 0.00627989, -0.002417586, 0.34485912, 0
719, 398121586, -0.48092737793922424, -0.8165212869644165, -3.1098122596740723, -0.001279032, -0.009673973, 0.346097, 0
720, 398138253, -0.4815022349357605, -0.8235458135604858, -3.1165411472320557, 0.00560106, -0.008427947, 0.3288555, 0
721, 398154920, -0.4814910292625427, -0.8232401013374329, -3.1168954372406006, 0.0037413135, -0.0023871637, 0.32661152, 0
722, 398171587, -0.4813890755176544, -0.8234593272209167, -3.1170897483825684, 0.005949831, -0.0073263356, 0.3369093, 0
723, 398188254, -0.48246967792510986, -0.8238067626953125, -3.118481397628784, -0.0013157229, 0.014832697, 0.3335657, 0
724, 398204921, -0.4819365441799164, -0.8230077028274536, -3.118595838546753, 0.0033508434, 0.0041989284, 0.3308878, 0
725, 398221588, -0.48244962096214294, -0.8231633901596069, -3.117938280105591, 0.008858475, -0.00917909, 0.33222866, 0
726, 398238255, -0.4816017150878906, -0.8231201767921448, -3.1182541847229004, 0.0035489528, 0.0023738786, 0.33532715, 0
727, 398254922, -0.4807150065898895, -0.8228127956390381, -3.1170692443847656, 0.0073381606, 0.0027889283, 0.3160267, 0
728, 398271589, -0.47994133830070496, -0.8234318494796753, -3.116661548614502, 0.011967785, -1.4835323E-4, 0.3310089, 0
729, 398288256, -0.48045840859413147, -0.822974681854248, -3.115821361541748, 0.0024306616, -0.018365983, 0.3359785, 0
730, 398304923, -0.4803573489189148, -0.8234907984733582, -3.1144726276397705, 0.00427683, -0.012406691, 0.32501316, 0
731, 398321590, -0.48055317997932434, -0.8229295611381531, -3.113718032836914, 0.00468458, 0.011278076, 0.33356094, 0
732, 398338257, -0.4798029065132141, -0.8222780823707581, -3.113676071166992, 0.005742034, 8.66207E-4, 0.33413982, 0
733, 398354924, -0.4793475270271301, -0.8230628371238708, -3.1144368648529053, 0.0048552323, 0.011161224, 0.34016705, 0
734, 398371591, -0.4783249795436859, -0.8228329420089722, -3.115935802459717, 0.009271925, 0.0024769532, 0.32353687, 0
735, 398388258, -0.4782816469669342, -0.8233252763748169, -3.117307662963867, -0.0075332527, 0.006005154, 0.34613705, 0
736, 398404925, -0.47779926657676697, -0.8225651383399963, -3.1179165840148926, 0.012979628, -0.0015213025, 0.34798336, 0
737, 398421592, -0.4784356951713562, -0.8227062225341797, -3.118607521057129, 4.4458124E-5, -0.0020501795, 0.3377447, 0
738, 398438259, -0.4785081148147583, -0.8238862156867981, -3.118428945541382, 3.4260345E-4, 0.0034879127, 0.341712, 0
739, 398454926, -0.47754958271980286, -0.8250240087509155, -3.119358777999878, -0.0023740428, 0.002439864, 0.329031, 0
740, 398471593, -0.4778255820274353, -0.825904905796051, -3.118440866470337, -2.935284E-4, -0.020317905, 0.3252344, 0
741, 398488260, -0.4781363606452942, -0.8261247873306274, -3.119018077850342, -0.014284406, -0.014484562, 0.3366871, 0
742, 398504927, -0.4779243469238281, -0.8278394341468811, -3.1187522411346436, 0.0014332209, -0.0061190757, 0.33278847, 0
743, 398521594, -0.47887709736824036, -0.8265334367752075, -3.1189115047454834, 0.0024136954, -0.0163336, 0.33602428, 0
744, 398538261, -0.47856441140174866, -0.8267120718955994, -3.1187644004821777, -0.008476044, -0.0029603208, 0.33756256, 0
745, 398554928, -0.47871965169906616, -0.8258387446403503, -3.1170334815979004, -0.0064716083, -0.0047774008, 0.33358192, 0
746, 398571595, -0.4792589545249939, -0.8252249956130981, -3.1161906719207764, 0.014297013, 0.0051234374, 0.33620834, 0
747, 398588262, -0.479133665561676, -0.826466977596283, -3.1158692836761475, 0.008997221, 0.009769367, 0.32494926, 0
748, 398604929, -0.478624552488327, -0.8261484503746033, -3.1152803897857666, -0.0059905103, -0.008027108, 0.32328796, 0
749, 398621596, -0.47767189145088196, -0.82630854845047, -3.117027759552002, 0.006776368, -0.0037303264, 0.33069324, 0
750, 398638263, -0.47663745284080505, -0.824652373790741, -3.1164193153381348, -0.0049432893, 0.011271039, 0.35299873, 0
751, 398654930, -0.4774323105812073, -0.8250019550323486, -3.1158363819122314, 0.0067196446, 0.0032900793, 0.34426975, 0
752, 398671597, -0.4763551652431488, -0.8252336978912354, -3.1164543628692627, -0.010853803, 0.0060985964, 0.3421383, 0
753, 398688264, -0.4765836000442505, -0.8250701427459717, -3.1146669387817383, 0.010408831, -0.005078197, 0.3338194, 0
754, 398704931, -0.4764665365219116, -0.8260625600814819, -3.1156222820281982, -0.0031646641, 0.0014762402, 0.30630112, 0
755, 398721598, -0.4770573377609253, -0.8262905478477478, -3.115354537963867, 0.0020346036, 0.009109578, 0.3369217, 0
756, 398738265, -0.4763805568218231, -0.826556384563446, -3.11492657661438, 0.007067703, -0.0034878743, 0.33398628, 0
757, 398754932, -0.47759467363357544, -0.8265829682350159, -3.115290403366089, 0.003345947, 0.0044925683, 0.35463428, 0
758, 398771599, -0.4778556823730469, -0.827096164226532, -3.11521577835083, 0.009289512, -0.0017541611, 0.3418417, 0
759, 398788266, -0.4771561026573181, -0.8260334134101868, -3.115320920944214, -0.003498292, -0.008687362, 0.32109642, 0
760, 398804933, -0.4774506092071533, -0.8265866637229919, -3.1159212589263916, 0.01753096, -0.0019360343, 0.31841373, 0
761, 398821600, -0.4770405888557434, -0.8265512585639954, -3.115826368331909, 0.016467666, 0.0051293815, 0.30124092, 0
762, 398838267, -0.4770451784133911, -0.8265814781188965, -3.115656852722168, -0.005135245, 0.013420402, 0.34938145, 0
763, 398854934, -0.4780671298503876, -0.8286831378936768, -3.115194082260132, 0.0028577878, 0.0032541216, 0.32018375, 0
764, 398871601, -0.4768449068069458, -0.8286350965499878, -3.1144163608551025, -0.0059794956, -0.0124605885, 0.31390476, 0
765, 398888268, -0.4767243564128876, -0.8295419812202454, -3.115152359008789, 0.0013249709, -0.0010443748, 0.32467747, 0
766, 398904935, -0.4762045443058014, -0.8287882804870605, -3.114487648010254, 0.014685172, -0.0029919338, 0.34903622, 0
767, 398921602, -0.477875679731369, -0.8285970687866211, -3.1142961978912354, -0.0057407347, 0.0065499144, 0.33515644, 0
768, 398938269, -0.4785154163837433, -0.8281333446502686, -3.114314079284668, 0.0023525436, 0.005902198, 0.3371668, 0
769, 398954936, -0.4779452085494995, -0.828245222568512, -3.1154115200042725, 6.827832E-4, 0.019604376, 0.3416853, 0
770, 398971603, -0.4777449071407318, -0.8291497826576233, -3.115616798400879, 0.001060548, -0.005622709, 0.3282385, 0
771, 398988270, -0.47830790281295776, -0.8300344347953796, -3.117610216140747, -0.0013842717, 0.008868875, 0.30923843, 0
772, 399004937, -0.4784797728061676, -0.8293313384056091, -3.116229295730591, 0.011298287, -0.0015692391, 0.31271935, 0
773, 399021604, -0.4786429703235626, -0.8305261731147766, -3.1163840293884277, -0.0029354375, -0.009981789, 0.33361912, 0
774, 399038271, -0.4789361357688904, -0.8300594687461853, -3.116638660430908, -0.009784056, 0.012611869, 0.33095074, 0
775, 399054938, -0.47876670956611633, -0.8290825486183167, -3.116056442260742, -0.0074485415, -0.008346155, 0.33676624, 0
776, 399071605, -0.4779691696166992, -0.827150821685791, -3.118579864501953, 3.0982387E-4, 0.008169559, 0.3353901, 0
777, 399088272, -0.4777246117591858, -0.8278501629829407, -3.1176466941833496, -0.007498881, 0.014853466, 0.3270626, 0
778, 399104939, -0.47673866152763367, -0.828116238117218, -3.1166086196899414, 0.0054613505, 6.561537E-4, 0.34840393, 0
779, 399121606, -0.4770091474056244, -0.8273688554763794, -3.116142749786377, 0.0014720634, -0.0036023932, 0.32954597, 0
780, 399138273, -0.47669127583503723, -0.827397882938385, -3.115635395050049, 0.0073883883, 0.0063877106, 0.31748486, 0
781, 399154940, -0.4761122167110443, -0.8274327516555786, -3.116966962814331, -0.0010183809, 0.0031484524, 0.3507185, 0
782, 399171607, -0.4756890535354614, -0.8270743489265442, -3.1180858612060547, 0.0017713401, -0.013361661, 0.35353947, 0
783, 399188274, -0.47592833638191223, -0.8274982571601868, -3.1178953647613525, -0.0049946695, -0.003954248, 0.34554195, 0
784, 399204941, -0.4766644537448883, -0.8264734148979187, -3.1190061569213867, 0.008159955, -0.012362502, 0.34642887, 0
785, 399221608, -0.47816357016563416, -0.8253622055053711, -3.1175994873046875, -0.006668558, 0.0070769126, 0.30510235, 0
786, 399238275, -0.4774043560028076, -0.8269169330596924, -3.11906361579895, -0.0020069508, -0.0050091487, 0.32040596, 0
787, 399254942, -0.4779719412326813, -0.82656329870224, -3.1198861598968506, 0.010330552, 6.547323E-4, 0.32730293, 0
788, 399271609, -0.4774377644062042, -0.8273743391036987, -3.120258092880249, 0.008685113, 0.004234582, 0.32441425, 0
789, 399288276, -0.47863900661468506, -0.8267979025840759, -3.1206064224243164, -0.0027827502, 0.0033287716, 0.3315544, 0
790, 399304943, -0.4783309996128082, -0.8257356882095337, -3.120347499847412, 0.0071411342, 0.012676981, 0.33238602, 0
791, 399321610, -0.4784465432167053, -0.8266687989234924, -3.120227813720703, 0.0077237976, 0.0068540494, 0.32696533, 0
792, 399338277, -0.47875624895095825, -0.8261629939079285, -3.12080979347229, -0.004514249, -0.0023074464, 0.3495493, 0
793, 399354944, -0.4784688353538513, -0.8269357681274414, -3.120502471923828, 9.7118475E-4, -0.00898015, 0.3346777, 0
794, 399371611, -0.4788663387298584, -0.8295109868049622, -3.1202895641326904, 0.009687079, -2.672342E-4, 0.33418083, 0
795, 399388278, -0.47935691475868225, -0.8295642733573914, -3.12113618850708, 0.0023090285, 0.0047342805, 0.3214531, 0
796, 399404945, -0.48089125752449036, -0.8297328948974609, -3.1204230785369873, 0.008131771, -0.0014266308, 0.32292557, 0
797, 399421612, -0.48057660460472107, -0.8296936750411987, -3.121429920196533, 0.009328676, 0.011017212, 0.33003902, 0
798, 399438279, -0.4802880883216858, -0.8284065127372742, -3.122088670730591, -1.6894785E-4, -0.0031491683, 0.32977486, 0
799, 399454946, -0.4809954762458801, -0.8290498852729797, -3.1216959953308105, 0.0023389512, -0.0020149553, 0.33542538, 0
800, 399471613, -0.48118117451667786, -0.8284802436828613, -3.1209466457366943, 0.022782369, -0.01458275, 0.34392834, 0
801, 399488280, -0.48209914565086365, -0.8288523554801941, -3.1206302642822266, -0.01639259, -0.005997251, 0.35379696, 0
802, 399504947, -0.4823921024799347, -0.8297293186187744, -3.1218929290771484, -0.008675949, 0.012985652, 0.33132648, 0
803, 399521614, -0.4830114543437958, -0.8303514719009399, -3.120945692062378, -7.8939187E-4, 0.006246576, 0.32593918, 0
804, 399538281, -0.48374709486961365, -0.8307436108589172, -3.1224379539489746, -0.0024044407, -0.01834733, 0.32217503, 0
805, 399554948, -0.4842337965965271, -0.8305249810218811, -3.1221652030944824, 0.00929684, 0.0072201598, 0.3330412, 0
806, 399571615, -0.4840458631515503, -0.8321729302406311, -3.1204113960266113, 0.01033908, 0.0015608817, 0.3430748, 0
807, 399588282, -0.48472267389297485, -0.8320256471633911, -3.119356632232666, 0.0061768014, 0.012039358, 0.3457384, 0
808, 399604949, -0.4842054545879364, -0.8316836953163147, -3.120060443878174, -0.012296369, 0.0077262563, 0.3265171, 0
809, 399621616, -0.4852829575538635, -0.8321660161018372, -3.1188910007476807, 0.013853913, 3.356152E-4, 0.350626, 0
810, 399638283, -0.48579534888267517, -0.8331345915794373, -3.1196954250335693, 0.005666647, -0.011585169, 0.34360123, 0
811, 399654950, -0.48534753918647766, -0.8317911028862, -3.120702028274536, 0.0027521779, 0.009111107, 0.348917, 0
812, 399671617, -0.48599523305892944, -0.8313761353492737, -3.1212449073791504, 0.011460068, 0.007914605, 0.31893635, 0
813, 399688284, -0.48581555485725403, -0.8320807218551636, -3.1217527389526367, 0.003333088, 0.010367683, 0.3218441, 0
814, 399704951, -0.4855303466320038, -0.8330585956573486, -3.1220850944519043, -0.0037675903, 0.0037177852, 0.3374014, 0
815, 399721618, -0.4851837158203125, -0.8335249423980713, -3.1219117641448975, 0.0042704176, 0.006833675, 0.3440647, 0
816, 399738285, -0.48364415764808655, -0.8324059247970581, -3.1210989952087402, 0.0034962874, 0.0010614316, 0.32663155, 0
817, 399754952, -0.4839780926704407, -0.8323920965194702, -3.1205782890319824, -0.005458864, -0.0066113668, 0.31913567, 0
818, 399771619, -0.48505938053131104, -0.8327578902244568, -3.120513916015625, -0.007741902, 0.006977963, 0.34107113, 0
819, 399788286, -0.4851706326007843, -0.8337666988372803, -3.1198811531066895, 0.008077074, 0.009096135, 0.33730602, 0
820, 399804953, -0.48563894629478455, -0.834321916103363, -3.120248317718506, -0.004479577, -0.0013304504, 0.3326273, 0
821, 399821620, -0.48473623394966125, -0.834870457649231, -3.1202216148376465, -0.0017958987, -0.010763797, 0.34358692, 0
822, 399838287, -0.4849974811077118, -0.8360295295715332, -3.121234178543091, -0.006661957, 0.0069847484, 0.3498726, 0
823, 399854954, -0.48434314131736755, -0.8358321189880371, -3.1215462684631348, 0.0015902877, 0.008002843, 0.32712746, 0
824, 399871621, -0.48434168100357056, -0.836254358291626, -3.120387315750122, -0.0028501675, 0.004146092, 0.34567642, 0
825, 399888288, -0.48393166065216064, -0.8360069394111633, -3.1198086738586426, -0.013718722, 0.011151784, 0.33607674, 0
826, 399904955, -0.48439154028892517, -0.8363040685653687, -3.121526002883911, 0.0023429117, 0.012587946, 0.32263756, 0
827, 399921622, -0.4859488010406494, -0.8366047143936157, -3.1212692260742188, -0.007539225, -0.012794471, 0.3203907, 0
828, 399938289, -0.48604875802993774, -0.8361407518386841, -3.1219482421875, 0.007166398, -0.00839726, 0.31834793, 0
829, 399954956, -0.48559069633483887, -0.8374435305595398, -3.121952772140503, -0.0045662927, -0.0077038524, 0.31564522, 0
830, 399971623, -0.4851260781288147, -0.8385511636734009, -3.1225483417510986, 0.0012969619, 0.01294198, 0.32299042, 0
831, 399988290, -0.4841457009315491, -0.8391972780227661, -3.122710704803467, -0.0012947896, -0.00384824, 0.3232422, 0
832, 400004957, -0.4851226806640625, -0.8374200463294983, -3.123880624771118, -0.012180339, -0.009080441, 0.3196535, 0
833, 400021624, -0.4838632047176361, -0.8372637629508972, -3.124962568283081, 7.8034657E-4, -0.003821174, 0.32763386, 0
834, 400038291, -0.48400700092315674, -0.837298572063446, -3.1252472400665283, 0.015757008, 0.004390727, 0.3229084, 0
835, 400054958, -0.48452258110046387, -0.8376524448394775, -3.125107526779175, 0.008011584, 0.003715627, 0.35557556, 0
836, 400071625, -0.485130250453949, -0.8372762799263, -3.125044345855713, -0.0073611056, 1.2928479E-4, 0.36158848, 0
837, 400088292, -0.48484328389167786, -0.8382278680801392, -3.1244328022003174, -0.0033520588, -0.00866917, 0.36141586, 0
838, 400104959, -0.4846116304397583, -0.8391250371932983, -3.12443470954895, 0.0066592055, -0.003540749, 0.33648968, 0
839, 400121626, -0.48486676812171936, -0.838600754737854, -3.1250321865081787, 0.0052474975, -0.0045906766, 0.31858444, 0
840, 400138293, -0.4829925000667572, -0.8231603503227234, -3.122622013092041, -0.008528695, -0.01093336, 0.32555103, 0
841, 400154960, -0.4830753803253174, -0.8231821060180664, -3.123999834060669, 0.0016139451, -1.2265274E-5, 0.3524456, 0
842, 400171627, -0.4831075966358185, -0.8230797052383423, -3.127261161804199, -0.0064392965, 4.1696342E-4, 0.33321, 0
843, 400188294, -0.48397013545036316, -0.8226927518844604, -3.1283795833587646, -0.0023146165, -0.0059085754, 0.3295269, 0
844, 400204961, -0.4840560853481293, -0.8238534331321716, -3.1300363540649414, -0.0030943693, 0.0016466863, 0.34300137, 0
845, 400221628, -0.48441430926322937, -0.8241411447525024, -3.1309173107147217, -0.002058268, 0.006671432, 0.33726406, 0
846, 400238295, -0.4852280616760254, -0.82354736328125, -3.1309022903442383, 0.0032037369, -0.0074374354, 0.311718, 0
847, 400254962, -0.48549753427505493, -0.8239235877990723, -3.131110906600952, -0.0017156925, -0.0017373592, 0.3551941, 0
848, 400271629, -0.48478245735168457, -0.8238826990127563, -3.130983591079712, -0.010910918, 0.0057281516, 0.3202629, 0
849, 400288296, -0.4848194122314453, -0.8230900168418884, -3.1309356689453125, -0.008062447, 9.187186E-4, 0.33977795, 0
850, 400304963, -0.48586294054985046, -0.822930097579956, -3.1305525302886963, -0.0037020382, 0.011817434, 0.31517506, 0
851, 400321630, -0.4857794940471649, -0.8229745626449585, -3.129990816116333, -0.0067344103, 0.009535066, 0.33027267, 0
852, 400338297, -0.48539504408836365, -0.8220361471176147, -3.128638505935669, 0.00503048, -0.003972992, 0.35295486, 0
853, 400354964, -0.4864286184310913, -0.8220052719116211, -3.1290080547332764, -0.0053776656, -0.002324699, 0.32766628, 0
854, 400371631, -0.4861159324645996, -0.8218022584915161, -3.129485845565796, 0.00745401, 0.0011304761, 0.32210636, 0
855, 400388298, -0.4853527545928955, -0.8207388520240784, -3.1289889812469482, 0.017060576, 0.004257356, 0.33154678, 0
856, 400404965, -0.4846881628036499, -0.8215673565864563, -3.128911018371582, 2.99221E-4, -0.0025361178, 0.3081684, 0
857, 400421632, -0.4850991368293762, -0.8221082091331482, -3.1301119327545166, -0.0058031995, 0.0033498027, 0.3360014, 0
858, 400438299, -0.48566189408302307, -0.8224812746047974, -3.1286981105804443, 0.010618898, -0.0060637076, 0.3130312, 0
859, 400454966, -0.48652195930480957, -0.8233857154846191, -3.1288492679595947, 0.0033348552, 1.6686988E-4, 0.32032585, 0
860, 400471633, -0.48601219058036804, -0.8233010768890381, -3.128265619277954, 0.0121426135, 0.0014051037, 0.33085823, 0
861, 400488300, -0.4861643314361572, -0.8237901329994202, -3.127562999725342, 0.0013560111, 0.0020019112, 0.32404423, 0
862, 400504967, -0.4864546060562134, -0.8242549896240234, -3.128075122833252, -0.012392494, 0.008424454, 0.32083607, 0
863, 400521634, -0.4866982698440552, -0.8238309621810913, -3.1277849674224854, 0.01621349, 0.017964842, 0.35570145, 0
864, 400538301, -0.48711928725242615, -0.8237888813018799, -3.1281380653381348, -0.016705187, 0.0042273146, 0.3123474, 0
865, 400554968, -0.4876817464828491, -0.8228502869606018, -3.1286487579345703, -4.266024E-4, 0.0023952208, 0.34038448, 0
866, 400571635, -0.4867102801799774, -0.8221591114997864, -3.1270058155059814, 0.015868623, -2.3623923E-4, 0.31668186, 0
867, 400588302, -0.48717743158340454, -0.8211742639541626, -3.1270108222961426, 0.0013436063, 0.0018927181, 0.34205627, 0
868, 400604969, -0.4866568446159363, -0.8211449384689331, -3.1275463104248047, 0.009623784, -0.013114902, 0.34135532, 0
869, 400621636, -0.48639976978302, -0.8201416730880737, -3.128030776977539, -8.3997566E-4, -0.008388525, 0.33732414, 0
870, 400638303, -0.4860130548477173, -0.8200632929801941, -3.128307580947876, 0.01378285, 0.0026092448, 0.3355465, 0
871, 400654970, -0.4852995276451111, -0.820256769657135, -3.129173517227173, 0.0103035495, -0.0017038113, 0.32918835, 0
872, 400671637, -0.4844992160797119, -0.8198413252830505, -3.1289284229278564, -0.007093135, -0.006262791, 0.3563509, 0
873, 400688304, -0.4839717447757721, -0.8200266361236572, -3.129883289337158, 0.003196871, -0.0043115616, 0.32628155, 0
874, 400704971, -0.48364847898483276, -0.8199360370635986, -3.1298913955688477, -0.001675523, -0.019738568, 0.34589386, 0
875, 400721638, -0.4840359389781952, -0.8202725052833557, -3.1307740211486816, 0.010848292, -0.022881685, 0.30868244, 0
876, 400738305, -0.4835120439529419, -0.8215319514274597, -3.132629871368408, 0.004801051, 0.0019817671, 0.32270622, 0
877, 400754972, -0.4839761555194855, -0.8212249875068665, -3.1333518028259277, 0.0065200124, -0.013047698, 0.30579758, 0
878, 400771639, -0.48469871282577515, -0.8224433064460754, -3.133729934692383, 0.007934465, 0.004369605, 0.3318777, 0
879, 400788306, -0.4841167628765106, -0.8233665823936462, -3.134664535522461, -0.0051763854, 0.00465567, 0.31973362, 0
880, 400804973, -0.4830588400363922, -0.8243752717971802, -3.134770393371582, 0.01147072, 0.025812477, 0.32978344, 0
881, 400821640, -0.48403245210647583, -0.8242525458335876, -3.1347153186798096, 0.001456599, -0.0042516217, 0.33578873, 0
882, 400838307, -0.4831533432006836, -0.8242930173873901, -3.135680913925171, 0.01286141, 0.00641426, 0.3126974, 0
883, 400854974, -0.48543015122413635, -0.823646068572998, -3.135113477706909, -0.0046701846, 0.00419303, 0.33245182, 0
884, 400871641, -0.4849749207496643, -0.8250178098678589, -3.1341395378112793, 3.4165353E-4, 0.0023243916, 0.331769, 0
885, 400888308, -0.4846947193145752, -0.8256617188453674, -3.134286880493164, -0.012555568, 0.0074718497, 0.31575394, 0
886, 400904975, -0.48416784405708313, -0.8244730234146118, -3.133742332458496, 3.1488785E-4, -0.0071911276, 0.32809734, 0
887, 400921642, -0.4847915768623352, -0.8244961500167847, -3.1341729164123535, -0.0037454485, 0.009691717, 0.31729126, 0
888, 400938309, -0.4842051863670349, -0.8238469958305359, -3.1347715854644775, -0.0057303063, -0.004356774, 0.33650303, 0
889, 400954976, -0.48396211862564087, -0.8233286142349243, -3.1344521045684814, 0.0128297, -9.984673E-4, 0.36361027, 0
890, 400971643, -0.48468777537345886, -0.8240674138069153, -3.133842706680298, -0.001341406, 4.6417354E-5, 0.33722305, 0
891, 400988310, -0.48490142822265625, -0.8239448070526123, -3.132652759552002, 0.010201208, 0.012681001, 0.31709576, 0
892, 401004977, -0.48491227626800537, -0.822640597820282, -3.133023977279663, 0.003668078, -0.0028753963, 0.3352747, 0
893, 401021644, -0.4860461950302124, -0.8229770660400391, -3.1327030658721924, 0.0018766357, -0.008894304, 0.31652355, 0
894, 401038311, -0.48628103733062744, -0.823992908000946, -3.133131980895996, -0.0076034847, 0.0011307241, 0.31135178, 0
895, 401054978, -0.4855215549468994, -0.8232717514038086, -3.134549379348755, -0.013078987, 0.012961213, 0.3300953, 0
896, 401071645, -0.48547106981277466, -0.8240532875061035, -3.1335647106170654, 0.0052640093, -0.011898164, 0.32629395, 0
897, 401088312, -0.4848825931549072, -0.8246573209762573, -3.13316011428833, 0.0069611575, -0.00700454, 0.31690693, 0
898, 401104979, -0.4838438928127289, -0.8258063197135925, -3.1331772804260254, -0.0014399752, 0.008345541, 0.28691483, 0
899, 401121646, -0.4830872714519501, -0.8246238231658936, -3.1333370208740234, 0.0079940315, -0.0021485288, 0.42913342, 0
900, 401138313, -0.48279640078544617, -0.8223764896392822, -3.1335058212280273, 0.0032016484, 0.0032101665, 0.25840282, 0
901, 401154980, -0.4832935631275177, -0.8210503458976746, -3.1352546215057373, 0.006725868, -0.004114311, 0.34852886, 0
902, 401171647, -0.4842674732208252, -0.8203772306442261, -3.137070894241333, -3.7972757E-4, 0.005769107, 0.33321476, 0
903, 401188314, -0.4847486615180969, -0.8221072554588318, -3.1382627487182617, 0.014149173, 0.014643654, 0.3012104, 0
904, 401204981, -0.48507454991340637, -0.8232942819595337, -3.1376304626464844, 0.0031502056, 0.009463183, 0.3321581, 0
905, 401221648, -0.48514413833618164, -0.8230451941490173, -3.137446165084839, 0.0028449637, 9.8023E-4, 0.34769917, 0
906, 401238315, -0.48445427417755127, -0.8222402334213257, -3.137279510498047, -0.0023080995, -7.5871823E-4, 0.32066822, 0
907, 401254982, -0.48457038402557373, -0.8240777254104614, -3.1380152702331543, -0.010850597, 0.0010179862, 0.3169222, 0
908, 401271649, -0.4849955141544342, -0.8245139718055725, -3.1368324756622314, 0.0046155844, 0.0038509083, 0.3170805, 0
909, 401288316, -0.4851950407028198, -0.8247698545455933, -3.1354799270629883, 0.0078220945, -0.012488674, 0.35394955, 0
910, 401304983, -0.4848032593727112, -0.8252027630805969, -3.1358747482299805, 0.014896147, -0.007763286, 0.32428455, 0
911, 401321650, -0.4838019907474518, -0.8262690901756287, -3.136107921600342, 0.001052334, -0.0048304955, 0.3365469, 0
912, 401338317, -0.48306000232696533, -0.8257715106010437, -3.1365227699279785, 0.008081754, 0.0065363045, 0.33692455, 0
913, 401354984, -0.4825659990310669, -0.8267403244972229, -3.1376070976257324, 0.0029858677, 0.007001938, 0.32067204, 0
914, 401371651, -0.4838816523551941, -0.8266307711601257, -3.138441801071167, 0.002624566, 0.016167942, 0.32023144, 0
915, 401388318, -0.48454204201698303, -0.8281087279319763, -3.138526201248169, -0.0012888386, 0.0054239957, 0.31441593, 0
916, 401404985, -0.4855763018131256, -0.8276100754737854, -3.138868808746338, -0.0024319745, -0.009295667, 0.32972622, 0
917, 401421652, -0.4851325452327728, -0.8267671465873718, -3.1403186321258545, 0.0100734355, -0.004443521, 0.3328514, 0
918, 401438319, -0.4853484034538269, -0.8262342214584351, -3.1421947479248047, 0.012727827, 0.010692643, 0.32006454, 0
919, 401454986, -0.486157089471817, -0.8276148438453674, -3.142695426940918, 4.7074622E-4, -0.007261077, 0.3355055, 0
920, 401471653, -0.48571306467056274, -0.8276333212852478, -3.1425490379333496, 0.00879038, -0.0021209598, 0.33713627, 0
921, 401488320, -0.4850500524044037, -0.8274056315422058, -3.142648935317993, -0.0061397194, -0.0061905407, 0.32971478, 0
922, 401504987, -0.48597410321235657, -0.8269997239112854, -3.1404640674591064, 0.017808486, -0.005360567, 0.32857227, 0
923, 401521654, -0.4856097996234894, -0.8276241421699524, -3.1407690048217773, 0.012608205, 0.0054468885, 0.3420086, 0
924, 401538321, -0.48623034358024597, -0.8274626135826111, -3.1402852535247803, 1.9913607E-5, -2.8655757E-4, 0.3297825, 0
925, 401554988, -0.478984534740448, -0.8220763206481934, -3.141589403152466, 0.0013840481, 0.00581953, 0.32301807, 0
926, 401571655, -0.4750007688999176, -0.8183989524841309, -3.142686128616333, 0.008284864, -0.0049048206, 0.33591652, 0
927, 401588322, -0.4675264060497284, -0.8122398853302002, -3.1431853771209717, 0.008359489, -0.005822167, 0.32615662, 0
928, 401604989, -0.46094679832458496, -0.8051348328590393, -3.142002582550049, 0.009020997, 0.0133460285, 0.34608173, 0
929, 401621656, -0.4614833891391754, -0.8034752607345581, -3.142611503601074, -0.0033040734, 0.008421654, 0.3558855, 0
930, 401638323, -0.467317134141922, -0.8124760389328003, -3.1438145637512207, 0.021597415, 0.004752378, 0.33651733, 0
931, 401654990, -0.47513341903686523, -0.8204435110092163, -3.144256591796875, 0.02400069, 0.009012364, 0.3253584, 0
932, 401671657, -0.4779525697231293, -0.8231835961341858, -3.144620180130005, 0.019439857, -0.004972112, 0.33351803, 0
933, 401688324, -0.47767776250839233, -0.8236842751502991, -3.1447865962982178, -0.0033612298, 0.021376498, 0.34870434, 0
934, 401704991, -0.479636549949646, -0.8262840509414673, -3.144887685775757, 0.00923705, 0.005956257, 0.32942677, 0
935, 401721658, -0.4799553155899048, -0.8263292908668518, -3.1447365283966064, 0.007321111, -0.009569969, 0.33788204, 0
936, 401738325, -0.4803853929042816, -0.8270178437232971, -3.144310474395752, 0.0042751185, -0.006599154, 0.3224287, 0
937, 401754992, -0.4797690212726593, -0.8262834548950195, -3.1443214416503906, 0.01203523, 0.005351138, 0.3332796, 0
938, 401771659, -0.4800359308719635, -0.8259140849113464, -3.1451518535614014, -0.011005534, 0.0031790317, 0.33068752, 0
939, 401788326, -0.4807039797306061, -0.8255810141563416, -3.1454267501831055, 0.0143374065, -0.0025492106, 0.33372116, 0
940, 401804993, -0.482043594121933, -0.8252215385437012, -3.1463356018066406, 0.007433105, 0.009907386, 0.32632256, 0
941, 401821660, -0.48181653022766113, -0.8247770071029663, -3.146630048751831, 0.0056074443, -0.0039334614, 0.33453178, 0
942, 401838327, -0.4811517894268036, -0.8243579864501953, -3.148017168045044, 0.0015464792, -0.0077748285, 0.30912876, 0
943, 401854994, -0.48173004388809204, -0.8260017037391663, -3.148068904876709, -9.10494E-4, -3.4554055E-4, 0.32842922, 0
944, 401871661, -0.4801008403301239, -0.8264827132225037, -3.147141218185425, -0.005682733, 0.008862153, 0.32995796, 0
945, 401888328, -0.4796440005302429, -0.8257188200950623, -3.146515130996704, 9.5911504E-4, -0.0075698844, 0.3291874, 0
946, 401904995, -0.4797576069831848, -0.8262001872062683, -3.1463398933410645, 0.0142081035, 0.015068856, 0.34667492, 0
947, 401921662, -0.47945883870124817, -0.824594259262085, -3.147183895111084, -0.0054926146, -0.0033954622, 0.312603, 0
948, 401938329, -0.48065733909606934, -0.8256511092185974, -3.1470799446105957, 0.003110462, 0.013812021, 0.33539295, 0
949, 401954996, -0.4806651771068573, -0.8255763053894043, -3.1460816860198975, 0.0031014238, 0.0055737216, 0.3249054, 0
950, 401971663, -0.4801071882247925, -0.8269094824790955, -3.14461612701416, -0.0012524967, 0.008467177, 0.3392067, 0
951, 401988330, -0.4795041084289551, -0.8267056941986084, -3.1429989337921143, 0.0050583007, 0.011688679, 0.30807686, 0
952, 402004997, -0.4791221022605896, -0.827350378036499, -3.1414895057678223, 0.014941073, 0.0043721334, 0.32936096, 0
953, 402021664, -0.479320764541626, -0.8249058723449707, -3.1416969299316406, 0.005308251, 0.0033683926, 0.3365059, 0
954, 402038331, -0.47945261001586914, -0.8234221339225769, -3.1408207416534424, 6.012708E-4, 0.0035289272, 0.3252535, 0
955, 402054998, -0.48045647144317627, -0.8242142200469971, -3.141496419906616, 0.0074870973, -0.0012996615, 0.33298492, 0
956, 402071665, -0.4801323115825653, -0.8250831365585327, -3.1409459114074707, 0.011723492, -0.004689714, 0.34272766, 0
957, 402088332, -0.4795726239681244, -0.8254226446151733, -3.139899969100952, -0.0060840994, 0.0016980908, 0.3291111, 0
958, 402104999, -0.4795161187648773, -0.8266939520835876, -3.1386361122131348, 0.0010696073, -0.0068414034, 0.34209824, 0
959, 402121666, -0.48032909631729126, -0.8255811929702759, -3.1387722492218018, -0.014022955, 0.008833668, 0.3479128, 0
960, 402138333, -0.47950223088264465, -0.8251826167106628, -3.139608860015869, -0.013110159, -0.008378512, 0.32703972, 0
961, 402155000, -0.47989293932914734, -0.8267748951911926, -3.1391959190368652, 0.010620092, -0.0072205686, 0.32765102, 0
962, 402171667, -0.4781590402126312, -0.8261626958847046, -3.1384050846099854, -0.0062952074, -0.015416212, 0.3254509, 0
963, 402188334, -0.47486838698387146, -0.8244982957839966, -3.1382546424865723, 0.0053761364, -0.002030671, 0.33359623, 0
964, 402205001, -0.47482407093048096, -0.8232686519622803, -3.1374661922454834, -0.012060745, -0.0025622617, 0.33145523, 0
965, 402221668, -0.4737512171268463, -0.8239590525627136, -3.1376612186431885, 0.0045260815, 0.010942569, 0.33883476, 0
966, 402238335, -0.4727936089038849, -0.8226979970932007, -3.1356701850891113, -0.0062331688, -0.012312658, 0.34201527, 0
967, 402255002, -0.4694594442844391, -0.8196709752082825, -3.1343305110931396, 0.0027412956, 0.011163882, 0.34056473, 0
968, 402271669, -0.46756577491760254, -0.8158182501792908, -3.1322548389434814, 0.01007764, 0.008023564, 0.3334856, 0
969, 402288336, -0.46609553694725037, -0.8129134178161621, -3.129878044128418, 0.0064263395, -0.008573324, 0.34091568, 0
970, 402305003, -0.46535131335258484, -0.8109986782073975, -3.128840208053589, -0.0019176992, 0.014167657, 0.32872963, 0
971, 402321670, -0.46920278668403625, -0.8130120635032654, -3.1292991638183594, -0.005091206, 0.0028020947, 0.33710575, 0
972, 402338337, -0.4760173261165619, -0.81740403175354, -3.13045072555542, 0.0063415095, -0.007862221, 0.33479023, 0
973, 402355004, -0.48165276646614075, -0.8226823210716248, -3.129645824432373, 0.002383186, -0.01537869, 0.31390953, 0
974, 402371671, -0.4782011806964874, -0.81935715675354, -3.1278066635131836, 0.0035778487, -0.0027625922, 0.30676174, 0
975, 402388338, -0.47396519780158997, -0.8166114687919617, -3.1276440620422363, 0.013317873, -0.0014295016, 0.32410717, 0
976, 402405005, -0.47094249725341797, -0.8151769638061523, -3.127631902694702, 0.0024007945, 0.0032847777, 0.32922745, 0
977, 402421672, -0.46842217445373535, -0.8141618967056274, -3.127931594848633, -0.006219716, 0.015694026, 0.33506298, 0
978, 402438339, -0.46757185459136963, -0.8129885196685791, -3.127986431121826, -0.0016270486, -0.0057823886, 0.31881046, 0
979, 402455006, -0.46773430705070496, -0.8128235340118408, -3.1278154850006104, 0.010106788, -0.019438405, 0.3651228, 0
980, 402471673, -0.463824599981308, -0.8116262555122375, -3.12593674659729, 0.007829121, -0.0027604338, 0.33603573, 0
981, 402488340, -0.45277905464172363, -0.8098335862159729, -3.101924180984497, 0.02236166, 0.02583878, 0.32695484, 0
982, 402505007, -0.44736751914024353, -0.8108529448509216, -2.8199682235717773, 0.021950718, 0.009112221, 0.34040928, 0
983, 402521674, -0.44226977229118347, -0.8042038679122925, -2.611727237701416, -0.013033868, -0.042420737, 0.32584095, 0
984, 402538341, -0.4374055564403534, -0.7981835007667542, -2.514125347137451, -0.0012405318, -0.002983161, 0.33737564, 0
985, 402555008, -0.4373464286327362, -0.7926775217056274, -2.488790988922119, -0.016776973, 0.007730978, 0.3529911, 0
986, 402571675, -0.4436424970626831, -0.789825439453125, -2.488753318786621, -0.0075989724, 0.005455466, 0.34646034, 0
987, 402588342, -0.45649024844169617, -0.7926666140556335, -2.4927053451538086, 6.5489294E-4, 0.007868086, 0.33275318, 0
988, 402605009, -0.46733078360557556, -0.7988772392272949, -2.498591184616089, -0.0029482266, -0.010330458, 0.31536102, 0
989, 402621676, -0.47079741954803467, -0.8007734417915344, -2.502040386199951, 8.093963E-5, -0.0023864093, 0.32166004, 0
990, 402638343, -0.46970367431640625, -0.8008291125297546, -2.502922534942627, -0.0045767003, 0.0077947243, 0.3406725, 0
991, 402655010, -0.46849408745765686, -0.7998419404029846, -2.5036356449127197, 0.0076504224, 0.0010776642, 0.34089088, 0
992, 402671677, -0.4663376808166504, -0.798848032951355, -2.5028412342071533, 0.0065876045, -0.015368077, 0.35523224, 0
993, 402688344, -0.4643395245075226, -0.7973662614822388, -2.503337860107422, 2.86823E-4, -9.1556496E-5, 0.33033848, 0
994, 402705011, -0.4619519114494324, -0.7945554256439209, -2.5038087368011475, -0.0067408993, 0.009328034, 0.3255453, 0
995, 402721678, -0.46165698766708374, -0.7908198237419128, -2.502201557159424, 0.008608944, 0.0072887787, 0.34654617, 0
996, 402738345, -0.46346190571784973, -0.7873003482818604, -2.5025110244750977, 0.019794216, 0.0032052002, 0.33798695, 0
997, 402755012, -0.4660995900630951, -0.7876325249671936, -2.501962661743164, 0.009344965, 0.002082788, 0.33054733, 0
998, 402771679, -0.46681639552116394, -0.7895886898040771, -2.500505208969116, 0.010961711, -0.009430409, 0.34681988, 0
999, 402788346, -0.4641629457473755, -0.7955568432807922, -2.496453285217285, -0.005299681, -2.7253214E-4, 0.3190527, 0
