PacketCounter,SampleTimeFine,Euler_X,Euler_Y,Euler_Z,FreeAcc_X,FreeAcc_Y,FreeAcc_Z
1,38412666,-0.5822710394859314,-0.982886016368866,19.385068893432617,-0.019991899,-0.004116229,0.32355213
2,38462667,-0.5797767639160156,-0.9910799860954284,19.15241050720215,0.0025420547,0.0013077464,0.34413815
3,38512668,-0.5939385294914246,-1.0303272008895874,19.064653396606445,-0.033006005,-0.004827887,0.3465891
4,38562669,-0.6061829924583435,-1.05754554271698,18.973316192626957,-0.034679573,-0.0024173276,0.3368187
5,38612670,-0.6161118745803833,-1.0892879962921145,18.95195198059082,-0.027469652,0.011346202,0.3167324
6,38662671,-0.6223047375679016,-1.1241471767425537,19.04779624938965,-0.04427253,-0.012622475,0.331913
7,38712672,-0.6297897100448608,-1.1604043245315552,18.964672088623047,-0.0541129,-0.018652176,0.34379673
8,38762673,-0.6411336064338684,-1.1947755813598633,18.908870697021484,-0.045226246,-0.008228249,0.3315735
9,38812674,-0.6541931629180908,-1.2293789386749268,18.93306541442871,-0.046905313,-0.0028109269,0.3408184
10,38862675,-0.666339635848999,-1.2651938199996948,18.94955062866211,-0.055944797,-0.0076162177,0.3326025
11,38912676,-0.6768798828125,-1.3044984340667725,18.96451759338379,-0.08730198,-0.0005248259,0.34114933
12,38962677,-0.6881596446037292,-1.342000961303711,18.944454193115234,-0.0871762,-0.005510848,0.32347202
13,39012678,-0.700839638710022,-1.3810452222824097,18.928890228271484,-0.08481543,-0.005078235,0.31616497
14,39062679,-0.711051881313324,-1.4169522523880005,18.945192337036133,-0.09471089,-0.007424982,0.3422165
15,39112680,-0.7227540016174316,-1.4558820724487305,18.9875545501709,-0.10100421,-0.00868872,0.35122776
16,39162681,-0.7361971139907837,-1.496163249015808,18.993616104125977,-0.09535213,-0.000654638,0.3302679
17,39212682,-0.747300386428833,-1.5342639684677124,18.993423461914062,-0.112159334,0.0049536373,0.33072662
18,39262683,-0.7586548328399658,-1.5737285614013672,19.00271415710449,-0.11359008,0.0022842465,0.32257366
19,39312684,-0.7701073884963989,-1.6122708320617676,18.994796752929688,-0.120275155,-0.003021092,0.34694862
20,39362685,-0.780825674533844,-1.6491057872772217,19.004615783691406,-0.1482583,-0.009014145,0.32295513
21,39412686,-0.7922945618629456,-1.6849658489227295,19.02211570739746,-0.14991716,-0.0046613626,0.32567787
22,39462687,-0.8021467924118042,-1.7222659587860107,19.020776748657227,-0.1418122,-0.005266297,0.32553577
23,39512688,-0.8119047284126282,-1.7561397552490234,18.94908332824707,-0.16442154,-0.0045559625,0.32878208
24,39562689,-0.8220030069351196,-1.7926691770553589,18.964338302612305,-0.15911974,-0.0024591174,0.3147955
25,39612690,-0.832697868347168,-1.827840566635132,18.963592529296875,-0.18270344,-0.0038302857,0.3356285
26,39662691,-0.8442696332931519,-1.861684203147888,18.950420379638672,-0.17314215,-0.009703797,0.34528732
27,39712692,-0.8529441356658936,-1.8956624269485476,18.978008270263672,-0.17506178,0.0005147189,0.34749317
28,39762693,-0.8618510961532593,-1.9278676509857176,18.977462768554688,-0.18400128,-0.008568558,0.3521843
29,39812694,-0.8724384307861328,-1.955011487007141,18.973621368408203,-0.18164067,-0.015645124,0.34419823
30,39862695,-0.8833621144294739,-1.983945608139038,18.97173118591309,-0.19220187,-0.013732164,0.3025074
31,39912696,-0.8922023177146912,-2.013028383255005,18.95380210876465,-0.20009026,0.0013989222,0.3432932
32,39962697,-0.9011513590812684,-2.0413389205932617,18.88902473449707,-0.20440406,-0.00842919,0.34675217
33,40012698,-0.9085361957550048,-2.068154811859131,18.898195266723636,-0.20779105,-0.0060790214,0.31900024
34,40062699,-0.914730668067932,-2.0943384170532227,18.892963409423828,-0.20931621,-0.015467051,0.33539486
35,40112700,-0.9199860692024232,-2.1194095611572266,18.891796112060547,-0.21713066,-0.010779433,0.33431625
36,40162701,-0.9278790950775146,-2.14115047454834,18.875459671020508,-0.22038995,-0.0063050524,0.32386875
37,40212702,-0.9349037408828736,-2.163894891738892,18.86561393737793,-0.22774059,-0.021647688,0.34041405
38,40262703,-0.9423559904098512,-2.1852030754089355,18.79370880126953,-0.22198424,-0.018285627,0.32554245
39,40312704,-0.9484902620315552,-2.20459508895874,18.79802703857422,-0.23402849,-0.009359088,0.31405354
40,40362705,-0.9518443942070008,-2.222938776016236,18.8142032623291,-0.23609394,-0.01016759,0.35143185
41,40412706,-0.5590692162513733,-0.8821741938591003,18.5101261138916,0.010299652,-0.0039342367,0.3347025
42,40462707,-0.5598732233047485,-0.8808794021606445,18.510290145874023,0.0024737227,-0.011048053,0.3381176
43,40512708,-0.559653103351593,-0.8802651762962341,18.51000022888184,-0.001797114,-0.0077018724,0.3394642
44,40562709,-0.5588371157646179,-0.879309356212616,18.51207733154297,-0.0067124013,-0.00422356,0.325675
45,40612710,-0.5580575466156006,-0.8772026300430298,18.51469039916992,0.006339009,0.0032552811,0.3447914
46,40662711,-0.5561846494674683,-0.8774365186691284,18.51760673522949,0.009321398,0.0032068172,0.3553486
47,40712712,-0.5575754642486572,-0.8773375153541565,18.52084350585937,0.014699777,0.008150138,0.34903526
48,40762713,-0.5578900575637817,-0.8770334124565125,18.538055419921875,0.0110233165,0.0010426006,0.30434036
49,40812714,-0.5595681667327881,-0.877438485622406,18.53861618041992,0.0017917847,-0.010033591,0.3363886
50,40862715,-0.5585413575172424,-0.8764170408248901,18.560522079467773,0.0043255906,-0.0045897723,0.33406353
51,40912716,-0.5580459237098694,-0.8747319579124451,18.559993743896484,0.014286773,0.005285271,0.33207035
52,40962717,-0.5587908625602722,-0.8738288283348083,18.562156677246094,0.014464124,-0.008426973,0.34850883
53,41012718,-0.5596950650215149,-0.8750895261764526,18.56522750854492,0.003127575,-8.813395e-05,0.37622356
54,41062719,-0.5600425601005554,-0.874405026435852,18.5669059753418,0.013933875,0.0037712364,0.34287167
55,41112720,-0.5585715174674988,-0.8717607855796814,18.582439422607425,0.0053553144,0.0016117031,0.3473444
56,41162721,-0.5569301843643188,-0.8707006573677063,18.597631454467773,-0.0031404898,-0.007433084,0.35254478
57,41212722,-0.5576767921447754,-0.8738885521888733,18.63765335083008,0.02183223,-0.0085409535,0.33270264
58,41262723,-0.5583449006080627,-0.8705815672874451,18.64095687866211,0.012870833,-0.0127708735,0.32841587
59,41312724,-0.5583353042602539,-0.8730030059814453,18.644615173339844,0.02211799,-0.004367698,0.3459463
60,41362725,-0.5582687258720398,-0.8732447028160095,18.6514892578125,0.012944418,0.0019138018,0.35379982
61,41412726,-0.5598450899124146,-0.8719751238822937,18.655134201049805,-0.0044723544,-0.005805302,0.34178638
62,41462727,-0.5609872341156006,-0.8725314736366272,18.659683227539062,0.0020240634,0.0034060301,0.3364668
63,41512728,-0.5615621209144592,-0.8733955025672913,18.6718864440918,-0.0027271793,0.0060700113,0.34409142
64,41562729,-0.5624947547912598,-0.872932493686676,18.67401695251465,0.0054439097,-0.00685026,0.33929634
65,41612730,-0.5635997653007507,-0.8723152279853821,18.678361892700195,0.0072276057,0.0027379813,0.34422016
66,41662731,-0.5653308033943176,-0.8730230331420898,18.68979263305664,0.0029563082,0.0008607589,0.33625507
67,41712732,-0.5669874548912048,-0.8722572326660156,18.692516326904297,0.0034357992,0.0061713043,0.31913662
68,41762733,-0.5673919916152954,-0.8715139031410217,18.69547843933105,0.0080176545,0.010888797,0.31857395
69,41812734,-0.5654669404029846,-0.8744844794273376,18.697763442993164,0.0036629164,0.011144731,0.34258747
70,41862735,-0.5649914145469666,-0.8749133348464966,18.67962455749512,-0.007172789,-0.0041647446,0.3459158
71,41912736,-0.567223846912384,-0.875548243522644,18.694095611572266,0.0136760315,-0.009661589,0.35219097
72,41962737,-0.5683858394622803,-0.8765805959701538,18.696826934814453,0.008540786,0.0046787895,0.34263897
73,42012738,-0.5711342692375183,-0.8780139088630676,18.699148178100582,0.0059881704,0.0016309216,0.34481812
74,42062739,-0.5703316926956177,-0.8775229454040527,18.69988250732422,0.010314816,-0.005513988,0.36567688
75,42112740,-0.5705679655075073,-0.8769485950469971,18.70165634155273,0.015218508,0.003999632,0.33721638
76,42162741,-0.5713772177696228,-0.8770075440406799,18.708227157592773,-0.003575858,0.008416227,0.3402729
77,42212742,-0.5722874402999878,-0.877552330493927,18.710559844970703,0.0031684358,0.0072239283,0.3462391
78,42262743,-0.5728129148483276,-0.8776421546936035,18.710729598999023,-0.003154662,0.0057140877,0.3567133
79,42312744,-0.5740934610366821,-0.8787431716918945,18.714994430541992,-0.00020428386,0.002466078,0.35616875
80,42362745,-0.5755633115768433,-0.8782090544700623,18.720783233642575,0.0024437788,-0.00790571,0.33017063
81,42412746,-0.5654048323631287,-0.887593686580658,18.717193603515625,-0.012980096,0.0055521177,0.34696484
82,42462747,-0.5644855499267578,-0.8868585228919983,18.71317481994629,0.015245609,-0.0080546355,0.34588718
83,42512748,-0.5636179447174072,-0.8844001293182373,18.720272064208984,0.0053690816,-0.0072970763,0.3239193
84,42562749,-0.5638726949691772,-0.8835434913635254,18.73481559753418,-0.00034604696,-0.0029114902,0.34304428
85,42612750,-0.5638534426689148,-0.8814453482627869,18.73785972595215,0.0027793976,0.008109329,0.33782005
86,42662751,-0.5646597146987915,-0.8806291818618774,18.74099349975586,-0.0024499744,0.012422965,0.32897568
87,42712752,-0.5650405883789062,-0.8822212219238281,18.741840362548828,0.012964667,0.004335739,0.33467197
88,42762753,-0.563511848449707,-0.8829383254051208,18.74280166625977,-0.008245456,-0.00057954114,0.3371334
89,42812754,-0.5634433627128601,-0.8831614255905151,18.756711959838867,0.01492725,-0.007090369,0.31815815
90,42862755,-0.5644398331642151,-0.8833093047142029,18.7479305267334,-0.0022131763,-0.010914389,0.32860088
91,42912756,-0.5675315856933594,-0.882075309753418,18.750316619873047,0.009070212,-0.0031329496,0.35340595
92,42962757,-0.5663484334945679,-0.8815464377403259,18.753158569335938,-0.012626763,0.0031175273,0.3463335
93,43012758,-0.5664230585098267,-0.8823334574699402,18.751819610595703,0.0033375723,-0.0004657102,0.34126282
94,43062759,-0.5675691962242126,-0.8820473551750183,18.75473976135254,0.010973822,-0.004709785,0.36567307
95,43112760,-0.5686715841293335,-0.8798224925994873,18.75915908813477,0.006187104,-0.0064849732,0.33574963
96,43162761,-0.5689468383789062,-0.882301926612854,18.76471328735352,0.0015851189,0.008154916,0.31718826
97,43212762,-0.5689129829406738,-0.8835281729698181,18.75663185119629,0.018310977,-0.008715842,0.3212347
98,43262763,-0.5686021447181702,-0.8829835653305054,18.75543975830078,-0.0012340499,-0.012481442,0.3216238
99,43312764,-0.5672760605812073,-0.8809804320335388,18.74985885620117,-0.0082508065,0.00030483326,0.3541603
100,43362765,-0.5671737194061279,-0.8806462287902832,18.75239372253418,0.0059698564,-0.00021747462,0.33360004
101,43412766,-0.5675613284111023,-0.8791486620903015,18.75320243835449,-0.0032479716,0.0032177728,0.33367062
102,43462767,-0.5674946904182434,-0.8794859051704407,18.754011154174805,0.0010027769,-0.0070398515,0.33253765
103,43512768,-0.5664645433425903,-0.8809230327606201,18.75528907775879,0.007462902,-0.010084189,0.34943962
104,43562769,-0.5650080442428589,-0.8790509104728699,18.755922317504883,0.006287468,0.0077266265,0.3513403
105,43612770,-0.5636723041534424,-0.878094494342804,18.74838638305664,0.00583841,0.002619694,0.33434582
106,43662771,-0.563668966293335,-0.8790379166603088,18.74829864501953,0.004462066,-0.009392584,0.36619473
107,43712772,-0.5645754933357239,-0.8793690800666809,18.745763778686523,0.008741138,-0.003007461,0.33843994
108,43762773,-0.5645106434822083,-0.8784207105636597,18.74677276611328,0.007244404,-0.00014566758,0.3252964
109,43812774,-0.565560519695282,-0.8795953392982483,18.74532699584961,0.0042759567,0.010167028,0.3467226
110,43862775,-0.5652599930763245,-0.8765771389007568,18.742042541503903,-0.00021643737,-0.0022492982,0.3393879
111,43912776,-0.5650633573532104,-0.8774539232254028,18.744836807250977,-0.01291439,0.0105538,0.35294056
112,43962777,-0.5649904012680054,-0.8776019811630249,18.74862098693848,0.0050652577,-0.007754045,0.34796333
113,44012778,-0.5660472512245178,-0.8786093592643738,18.748449325561523,-0.0024821323,-0.008974523,0.3542614
114,44062779,-0.5659871101379395,-0.8794568181037903,18.75449562072754,0.006609495,-0.0066311928,0.34055996
115,44112780,-0.5662692785263062,-0.8808879852294922,18.75518798828125,0.0042792885,-0.0019591888,0.3407774
116,44162781,-0.5647830963134766,-0.8813315033912659,18.754114151000977,0.009953745,0.0074811988,0.33641052
117,44212782,-0.5646786093711853,-0.8793358206748962,18.75370407104492,0.0027275006,0.00044538447,0.34479046
118,44262783,-0.5652645230293274,-0.8791950941085815,18.750246047973636,-0.0024514622,-0.007701125,0.33069992
119,44312784,-0.565355658531189,-0.8791682720184326,18.75257873535156,-0.0048115496,0.001006629,0.3565855
120,44362785,-0.5650441646575928,-0.8781243562698364,18.751728057861328,-0.013892874,0.00742059,0.3253441
121,44412786,-0.5692737698554993,-0.8885912299156189,18.77536392211914,-0.007958381,-0.0023662723,0.3267765
122,44462787,-0.5669719576835632,-0.8897890448570251,18.77431869506836,0.00829773,-0.014579586,0.33253193
123,44512788,-0.5680412650108337,-0.8922271728515625,18.778322219848636,-0.0012628761,0.0016134562,0.32029533
124,44562789,-0.5685316920280457,-0.8914006948471069,18.78007125854492,-0.0031726477,-0.0012711356,0.33533
125,44612790,-0.5691953897476196,-0.8923855423927307,18.784841537475582,0.0015950303,0.0058052638,0.34926128
126,44662791,-0.5689432621002197,-0.8945591449737549,18.785707473754883,-0.0018196609,0.008676326,0.3177824
127,44712792,-0.5682705044746399,-0.8948080539703369,18.78622436523437,-0.00959326,0.006768723,0.32446957
128,44762793,-0.5690054893493652,-0.895377516746521,18.79116439819336,0.002689182,-0.012643565,0.33784866
129,44812794,-0.5687440633773804,-0.8936820030212402,18.78618621826172,-0.008561817,-0.014608765,0.31012344
130,44862795,-0.5694543719291687,-0.8959028124809265,18.790367126464844,0.00709822,0.013277689,0.32147408
131,44912796,-0.5695347189903259,-0.8949783444404602,18.7862606048584,0.0032235319,-0.004177111,0.35320187
132,44962797,-0.5715708136558533,-0.8924316167831421,18.79150009155273,-0.0022604982,-0.008049375,0.3577938
133,45012798,-0.5722991824150085,-0.8926668763160706,18.792688369750977,0.004296485,-0.008212956,0.32247066
134,45062799,-0.5714301466941833,-0.8901339769363403,18.79369735717773,-6.189213e-05,-0.00918596,0.33988857
135,45112800,-0.5725525617599487,-0.892167866230011,18.79665756225586,-0.007822143,-0.004598503,0.34161758
136,45162801,-0.573207437992096,-0.8938913345336914,18.79665756225586,-0.0003311624,0.003935529,0.36658478
137,45212802,-0.5747054219245911,-0.8938076496124268,18.797626495361328,0.010071703,-0.00686468,0.32764053
138,45262803,-0.5748329162597656,-0.8928309082984924,18.79506492614746,-0.00010825012,-0.012204862,0.34378147
139,45312804,-0.5748192667961121,-0.8925831913948059,18.80017471313477,0.008815442,0.00646572,0.33263493
140,45362805,-0.5746291279792786,-0.8918468356132507,18.79905128479004,0.01109563,-0.0011092704,0.35608482
141,45412806,-0.5735713243484497,-0.8912744522094727,18.79768943786621,0.009632473,0.0031207157,0.33169556
142,45462807,-0.5749370455741882,-0.8917267918586731,18.7933349609375,0.009244035,0.00072337873,0.32809544
143,45512808,-0.5756943225860596,-0.8939847946166992,18.795045852661133,-0.0010030144,0.007911501,0.32001495
144,45562809,-0.5776860117912292,-0.8939496874809265,18.78721618652344,-0.00035317143,-0.016423896,0.34326744
145,45612810,-0.5787519812583923,-0.8941836953163147,18.78940963745117,0.0035436652,-0.0012870819,0.33545494
146,45662811,-0.5771505832672119,-0.8949430584907532,18.79393196105957,-0.014824015,-0.00072429376,0.3433113
147,45712812,-0.5759261250495911,-0.898168683052063,18.795564651489254,0.0017968137,0.008249773,0.35348034
148,45762813,-0.5764842629432678,-0.9001595973968506,18.79108619689941,0.01586284,0.0022178947,0.3222723
149,45812814,-0.5756043195724487,-0.9002422094345093,18.787538528442383,-0.0017263233,0.009898132,0.33491993
150,45862815,-0.5763580203056335,-0.9011566042900084,18.78148651123047,0.0071083894,0.009218869,0.35151958
151,45912816,-0.5753357410430908,-0.9028428196907043,18.78282928466797,0.011711478,-0.0024068435,0.32547092
152,45962817,-0.5748981833457947,-0.9011589288711548,18.7844181060791,0.010480404,-0.0031157462,0.3303442
153,46012818,-0.5775001645088196,-0.8995216488838196,18.78890419006348,0.0025201715,0.016518652,0.32159138
154,46062819,-0.5754765272140503,-0.8976679444313049,18.789871215820312,-0.0027308185,-0.00061282713,0.3413973
155,46112820,-0.5749313235282898,-0.8977780938148499,18.789905548095703,0.00095301034,0.0041217674,0.3339405
156,46162821,-0.5768356919288635,-0.8978289365768433,18.790546417236328,0.0057530208,0.0027538193,0.34883308
157,46212822,-0.5772051811218262,-0.8984298706054688,18.790855407714844,0.005498202,0.0035833598,0.35933876
158,46262823,-0.5759185552597046,-0.8975295424461365,18.79707336425781,0.0058721183,-0.0077444864,0.33592987
159,46312824,-0.5762245655059814,-0.8986856937408447,18.80026054382324,0.0028271875,0.008553359,0.3478632
160,46362825,-0.5778284668922424,-0.9012982249259948,18.801239013671875,0.0072676144,0.012769344,0.34753418
161,46412826,-0.5701899528503418,-0.8932431936264038,18.80397224426269,0.014551497,-0.010936248,0.3295679
162,46462827,-0.5689525008201599,-0.8940833806991577,18.802366256713867,-0.002823255,-0.010485499,0.32989025
163,46512828,-0.5701709389686584,-0.8932067155838013,18.802343368530277,0.0070286305,-0.0056677824,0.35408592
164,46562829,-0.5706527829170227,-0.8945720195770264,18.801177978515625,-0.0062328824,0.0065362207,0.32818604
165,46612830,-0.5706379413604736,-0.8951373100280762,18.80201530456543,-0.0056164404,0.0017715532,0.34070015
166,46662831,-0.5695151090621948,-0.8948554396629333,18.80240249633789,0.00038187887,0.0053065782,0.32617474
167,46712832,-0.5689502954483032,-0.893534243106842,18.796607971191406,-0.008832562,-0.0047075357,0.31325054
168,46762833,-0.5675147771835327,-0.8905272483825684,18.8000545501709,-0.0028029783,-0.014180594,0.34059906
169,46812834,-0.5672600269317627,-0.8924790620803833,18.80293846130371,0.0035518233,0.0049684066,0.31934643
170,46862835,-0.5673482418060303,-0.892007052898407,18.80068588256836,0.0024651943,-0.0006459245,0.34489346
171,46912836,-0.5659956932067871,-0.8939045071601868,18.80228805541992,0.0024742465,-0.009936768,0.33666897
172,46962837,-0.5662572383880615,-0.8927286863327026,18.80237579345703,-0.0016225155,-0.015050326,0.33850002
173,47012838,-0.5656136274337769,-0.8908736705780029,18.801847457885746,0.012847637,-0.017190749,0.3418646
174,47062839,-0.5649832487106323,-0.8926673531532288,18.80287170410156,0.011086899,-0.0012781449,0.33889008
175,47112840,-0.5642665028572083,-0.8925796151161194,18.805177688598636,0.012394695,0.006773934,0.33968067
176,47162841,-0.564170241355896,-0.8940671682357788,18.80287170410156,0.018013146,0.014050691,0.35107803
177,47212842,-0.5627162456512451,-0.8952875733375549,18.79924964904785,-0.0013637084,-0.005839695,0.34679985
178,47262843,-0.5620231628417969,-0.8930938243865967,18.80052947998047,0.0036547163,-0.00895124,0.3591709
179,47312844,-0.5613527297973633,-0.8919076919555664,18.798582077026367,0.0042579984,-0.014290092,0.33018017
180,47362845,-0.5605474710464478,-0.8930163979530334,18.79903793334961,0.005878677,-0.00020184966,0.33988285
181,47412846,-0.5614543557167053,-0.8939868807792664,18.79829216003418,0.01057196,-0.004817577,0.33346558
182,47462847,-0.5619086027145386,-0.8957676887512207,18.7958984375,-0.0014866615,0.0047865123,0.33883762
183,47512848,-0.5626806020736694,-0.8967422842979431,18.794279098510746,0.0010589764,-0.0056005116,0.35114384
184,47562849,-0.5620469450950623,-0.8941026329994202,18.79674530029297,0.0030814824,-0.0069073257,0.34490013
185,47612850,-0.5629558563232422,-0.8928183913230896,18.796018600463867,0.007906973,0.0021659522,0.34374142
186,47662851,-0.5638467669487,-0.8942364454269409,18.799055099487305,0.011889528,-0.008801074,0.33849144
187,47712852,-0.5657121539115906,-0.891501784324646,18.79946517944336,0.000112643545,0.009961696,0.3198433
188,47762853,-0.565204918384552,-0.8929528594017029,18.801069259643555,-0.01036234,0.0019233779,0.3468933
189,47812854,-0.5648609399795532,-0.8928214907646179,18.80199432373047,0.0107445335,9.773453e-05,0.33934212
190,47862855,-0.5655824542045593,-0.8927198648452759,18.805118560791016,-0.009333608,0.0073071346,0.33689594
191,47912856,-0.5664001107215881,-0.8929547071456909,18.808677673339844,0.002783812,-0.008840122,0.35709286
192,47962857,-0.5682974457740784,-0.8938247561454773,18.809009552001957,0.0013592871,-0.013799676,0.348032
193,48012858,-0.566824197769165,-0.89335036277771,18.809009552001957,-0.013742121,-0.0018277074,0.3606577
194,48062859,-0.5649294853210449,-0.8924400210380554,18.802888870239254,0.0022107316,-0.005415726,0.34165096
195,48112860,-0.5663543343544006,-0.8939743638038635,18.80498313903809,-0.0068120463,-0.007634651,0.32248688
196,48162861,-0.5666428208351135,-0.8926477432250977,18.79746627807617,0.0064984714,-0.0007397615,0.34020424
197,48212862,-0.566332221031189,-0.890036940574646,18.79735946655273,0.004377585,0.012568893,0.3446293
198,48262863,-0.568141520023346,-0.8910162448883057,18.792762756347656,0.0074054524,0.0026319697,0.34177017
199,48312864,-0.5686272382736206,-0.8903820514678955,18.79171562194824,-0.0046871435,-0.0016108823,0.34129143
200,48362865,-0.5679625272750854,-0.8910008668899536,18.791996002197266,0.00072351145,0.0047569145,0.36132336
201,48412866,-0.5695964694023132,-0.8959693908691406,18.796123504638672,0.011955443,-0.008686304,0.31876087
202,48462867,-0.5672765970230103,-0.8960031270980835,18.796506881713867,0.0013580717,0.008518092,0.34521484
203,48512868,-0.568055272102356,-0.8969383239746094,18.795297622680664,-0.007857619,0.0019816763,0.34003544
204,48562869,-0.5684443712234497,-0.8981238603591919,18.79371833801269,-0.00020127342,-0.006762046,0.33440018
205,48612870,-0.567211925983429,-0.8991424441337585,18.79499053955078,-0.0034612238,-0.004514333,0.3336296
206,48662871,-0.5671375393867493,-0.898556113243103,18.792591094970703,0.018596515,-0.011826042,0.35394764
207,48712872,-0.5690237879753113,-0.8971012830734253,18.79159545898437,-0.0076233004,-0.0077766827,0.32660675
208,48762873,-0.5680002570152283,-0.8975511193275452,18.793569564819336,0.007990134,0.007314503,0.36673546
209,48812874,-0.5669602155685425,-0.8970094919204712,18.794647216796875,0.017700193,-0.00045705255,0.32448292
210,48862875,-0.5672647953033447,-0.8964409828186035,18.793806076049805,0.0051020533,0.01009738,0.3486843
211,48912876,-0.5684452056884766,-0.8952819108963013,18.79706382751465,-0.0063979607,0.009331463,0.3444271
212,48962877,-0.5692324638366699,-0.8941755294799805,18.796146392822266,-0.0071607963,0.009666576,0.34968948
213,49012878,-0.5679576396942139,-0.8958122730255127,18.79632568359375,0.01135976,0.011736044,0.3333254
214,49062879,-0.5670554041862488,-0.895649254322052,18.79604148864746,0.011554523,-0.0021261775,0.35442734
215,49112880,-0.5662369728088379,-0.8959090709686279,18.79358291625977,0.011659337,-0.001388218,0.3464241
216,49162881,-0.5677144527435303,-0.896541953086853,18.79326629638672,0.009137112,0.0014524081,0.34318352
217,49212882,-0.5679009556770325,-0.8945215940475464,18.795639038085938,-0.00046599656,0.008396514,0.32318974
218,49262883,-0.5681231617927551,-0.8972648978233337,18.79595947265625,-0.009385589,0.004380889,0.3403473
219,49312884,-0.5684104561805725,-0.8984326124191284,18.799060821533203,0.00028262514,0.000654425,0.35900784
220,49362885,-0.5683965086936951,-0.8993881940841675,18.79452896118164,0.004143874,-0.00068887044,0.35490227
221,49412886,-0.5677148699760437,-0.901406228542328,18.79230690002441,0.0038057482,-0.010184385,0.3227129
222,49462887,-0.5690783262252808,-0.901120126247406,18.79247283935547,-0.009439763,-0.012334325,0.3374052
223,49512888,-0.5684354305267334,-0.8996128439903259,18.789871215820312,9.5691485e-06,-0.0036551843,0.3571682
224,49562889,-0.5706091523170471,-0.9003680348396301,18.79134559631348,0.009849601,0.012452418,0.34081745
225,49612890,-0.5699610710144043,-0.9002737998962402,18.79394149780273,-0.0032851934,0.002051304,0.3306837
226,49662891,-0.5716776847839355,-0.8986663818359375,18.796594619750977,0.0050620725,-0.004005237,0.338274
227,49712892,-0.5707740783691406,-0.8993158936500549,18.795869827270508,-0.008618925,-0.006199055,0.35952663
228,49762893,-0.5723021030426025,-0.8989927172660828,18.795698165893555,-0.010679044,-0.003466672,0.3326416
229,49812894,-0.5726745128631592,-0.897391676902771,18.79832649230957,0.014147092,-0.01160188,0.32698917
230,49862895,-0.5729391574859619,-0.8998104333877563,18.801973342895508,-6.0837433e-06,0.010078387,0.31900597
231,49912896,-0.571878969669342,-0.9002334475517273,18.80518913269043,0.00079984113,0.008003957,0.34589386
232,49962897,-0.5707336664199829,-0.9005864858627319,18.801666259765625,0.0038353705,-0.008394829,0.35202026
233,50012898,-0.5721543431282043,-0.9035115242004396,18.804685592651367,0.0026995547,-0.0076990505,0.33085728
234,50062899,-0.5740416049957275,-0.9044612646102904,18.80685806274414,-0.0018166923,0.016483787,0.3334236
235,50112900,-0.5738361477851868,-0.8998295068740845,18.80248641967773,0.004901297,-0.008433056,0.35458755
236,50162901,-0.5751329064369202,-0.8991991281509399,18.804555892944336,0.008824669,0.00131873,0.33575344
237,50212902,-0.5769560933113098,-0.9003595113754272,18.803749084472656,0.007760607,-0.0010076558,0.33546162
238,50262903,-0.5765669345855713,-0.8991679549217224,18.804183959960938,0.0009135324,-0.0041562584,0.3469429
239,50312904,-0.5761618614196777,-0.8996924757957458,18.80657196044922,0.016005035,0.0013128278,0.33704472
240,50362905,-0.576147735118866,-0.9006828665733337,18.806272506713867,-0.0054408433,-0.00038634913,0.3371153
241,50412906,-0.5735306143760681,-0.8966160416603088,18.803075790405277,-0.0007132368,-0.007941171,0.37474442
242,50462907,-0.5729418396949768,-0.895359992980957,18.804128646850582,0.0035457956,-0.0032114587,0.33663273
243,50512908,-0.5742937922477722,-0.893595278263092,18.80436515808105,-0.0066054366,0.0021607522,0.33445644
244,50562909,-0.5774574875831604,-0.8928275108337402,18.806283950805664,-0.012632715,-0.0011297811,0.34351158
245,50612910,-0.5771127343177795,-0.8923746347427368,18.80778312683105,-0.00876513,0.009057454,0.33842182
246,50662911,-0.5769942998886108,-0.8904021382331848,18.80827140808105,0.0048731132,-0.011297207,0.32535362
247,50712912,-0.5761293172836304,-0.8892293572425842,18.8095703125,0.0023376173,-0.0027174356,0.3260746
248,50762913,-0.5735430121421814,-0.8895958065986633,18.806211471557617,0.0027118127,0.00686636,0.31733704
249,50812914,-0.5745484232902527,-0.890830934047699,18.80473518371582,-0.0023713468,-0.007595354,0.33156013
250,50862915,-0.5747340321540833,-0.8925893306732178,18.803903579711918,0.0048134844,-0.0033450879,0.3418007
251,50912916,-0.5752151012420654,-0.8936417102813721,18.804929733276367,-0.0005396301,0.011679379,0.33810234
252,50962917,-0.5741016268730164,-0.897800087928772,18.803333282470703,-0.00048319311,-0.00094837946,0.33333492
253,51012918,-0.5732013583183289,-0.899737536907196,18.80205535888672,-0.0049432754,0.0053907554,0.35145283
254,51062919,-0.5728895664215088,-0.8978227376937866,18.79936790466309,0.011436222,-0.0019687824,0.32433224
255,51112920,-0.5719481110572815,-0.9009659886360168,18.80078887939453,0.006511966,0.0072891484,0.33618546
256,51162921,-0.5714938044548035,-0.9020105004310608,18.802326202392575,-0.016591422,0.0010710042,0.34209824
257,51212922,-0.5713499784469604,-0.9011023044586182,18.799055099487305,0.019429088,-0.003717202,0.33303642
258,51262923,-0.5721331238746643,-0.9020286202430724,18.803890228271484,-0.01332462,-0.0024958993,0.33331585
259,51312924,-0.5715997815132141,-0.9029136896133424,18.80297470092773,-0.008238988,0.0022940252,0.34285164
260,51362925,-0.5701448321342468,-0.9039899706840516,18.801780700683597,-0.0038371307,0.013885558,0.317482
261,51412926,-0.5699493288993835,-0.904558539390564,18.80127716064453,-0.018994724,0.013827426,0.33485985
262,51462927,-0.5691880583763123,-0.9057128429412842,18.80241203308105,-0.0105450265,0.0151812285,0.3237524
263,51512928,-0.5679988861083984,-0.9057167172431946,18.804468154907227,-0.0042190445,-0.0015412511,0.3178177
264,51562929,-0.56782466173172,-0.9076658487319946,18.807126998901367,0.0057393797,-0.001619299,0.33915997
265,51612930,-0.5664753317832947,-0.9102765321731568,18.805747985839844,0.002579123,-0.005525719,0.3190117
266,51662931,-0.5662025809288025,-0.9091782569885254,18.805805206298828,-0.002477788,-0.013091053,0.33339977
267,51712932,-0.567308783531189,-0.9087655544281006,18.804386138916016,0.006988859,0.0056779417,0.35036278
268,51762933,-0.5676477551460266,-0.9090813398361206,18.80308723449707,-0.0087833395,-0.0024839903,0.3125763
269,51812934,-0.5665491819381714,-0.9115187525749208,18.802433013916016,-0.0018913387,0.01900978,0.31402493
270,51862935,-0.5657955408096313,-0.9113603830337524,18.79958724975586,-0.004418614,0.010691302,0.34069252
271,51912936,-0.5647509098052979,-0.9094431400299072,18.804473876953125,0.0074678753,-0.005943894,0.32454967
272,51962937,-0.5643225908279419,-0.9117212891578674,18.804946899414062,0.0034837497,-0.0013401068,0.34078884
273,52012938,-0.5648057460784912,-0.9147403240203856,18.806276321411133,-0.0015586606,0.0026840658,0.3502903
274,52062939,-0.5649846792221069,-0.9154327511787416,18.80642890930176,-0.008506896,0.0030113377,0.3469801
275,52112940,-0.5649227499961853,-0.9168021082878112,18.80575561523437,-0.009649892,0.01336428,0.32311916
276,52162941,-0.5647981762886047,-0.9161241054534912,18.808469772338867,-0.0041768565,0.004187592,0.34314537
277,52212942,-0.5649219751358032,-0.9167282581329346,18.8037052154541,0.015314276,0.001132638,0.34800816
278,52262943,-0.5659839510917664,-0.9164974093437196,18.80481338500977,-0.0036062838,0.005278049,0.32462025
279,52312944,-0.5657994747161865,-0.9199413061141968,18.8056755065918,-0.003300581,-0.0060913567,0.3362894
280,52362945,-0.566709041595459,-0.9202229380607604,18.804990768432617,0.0034246864,0.0012553256,0.33343792
281,52412946,-0.571586012840271,-0.9114720821380616,18.807371139526367,0.007951041,-0.003185388,0.33362198
282,52462947,-0.5721109509468079,-0.9124458432197572,18.804405212402344,-0.0017696918,0.009049051,0.33769417
283,52512948,-0.5723958015441895,-0.9121917486190796,18.804759979248047,-0.0010230258,-0.0009459313,0.35630035
284,52562949,-0.5752207636833191,-0.910677134990692,18.805362701416016,0.0019019276,0.0028206147,0.33138275
285,52612950,-0.575721800327301,-0.9116874933242798,18.80354881286621,-0.00029231302,0.0043361234,0.3421812
286,52662951,-0.5748654007911682,-0.9116091132164,18.80106544494629,-0.0014520589,0.0154338805,0.3540926
287,52712952,-0.5773730874061584,-0.9112438559532166,18.79990768432617,-0.007299018,0.000861398,0.3188343
288,52762953,-0.5767809748649597,-0.9124398827552797,18.799638748168945,-0.0029946754,0.0008499988,0.32587528
289,52812954,-0.5762255787849426,-0.912516176700592,18.797794342041016,0.0062061376,-0.004534226,0.3279581
290,52862955,-0.5767614841461182,-0.915153443813324,18.79972648620605,-0.0037566521,-0.0005363822,0.32807255
291,52912956,-0.5761896967887878,-0.9173694252967834,18.80464172363281,-0.0037947472,0.014448115,0.32811356
292,52962957,-0.5756088495254517,-0.9175336956977844,18.80366897583008,-0.011630531,0.0024301726,0.34126282
293,53012958,-0.5730648040771484,-0.918246567249298,18.80213737487793,-0.0037849543,0.021074185,0.32394314
294,53062959,-0.5722326636314392,-0.9173718690872192,18.801176071166992,-0.0064016557,0.005682139,0.34348297
295,53112960,-0.5734580755233765,-0.9165924191474916,18.80392074584961,0.0048578237,-0.0018414778,0.33251667
296,53162961,-0.5760754346847534,-0.9161176085472108,18.80026626586914,-0.00873988,0.017436352,0.34571648
297,53212962,-0.5764736533164978,-0.9140089750289916,18.800243377685547,0.0017423114,-0.0027070737,0.3277607
298,53262963,-0.5749560594558716,-0.9135324954986572,18.800392150878903,0.0072135944,-0.0026102262,0.33848858
299,53312964,-0.5751100778579712,-0.9165680408477784,18.79951286315918,-0.01600329,0.007858691,0.33632088
300,53362965,-0.5756102204322815,-0.9176746606826782,18.800874710083008,-0.009037439,0.010553765,0.31462574
301,53412966,-0.5744426250457764,-0.91774982213974,18.80145835876465,-0.009569309,0.0036242031,0.3085785
302,53462967,-0.5752140283584595,-0.9175511598587036,18.79911231994629,-0.0009231015,0.0064666034,0.34938812
303,53512968,-0.5756090879440308,-0.9179455041885376,18.79697036743164,-0.0059169745,-0.0036057215,0.3295517
304,53562969,-0.5776586532592773,-0.9176480770111084,18.798582077026367,-0.009220685,-0.0070267725,0.35533428
305,53612970,-0.5784669518470764,-0.9204692840576172,18.79988670349121,-0.0032603275,0.0054561365,0.34638596
306,53662971,-0.5790812373161316,-0.9213746190071106,18.805105209350582,0.00056581607,0.0004528582,0.34571362
307,53712972,-0.5780003070831299,-0.921328902244568,18.80308151245117,-0.006702651,0.0031004634,0.32373142
308,53762973,-0.5793938636779785,-0.9214059710502625,18.80257225036621,0.0029000316,0.0026347323,0.3412571
309,53812974,-0.5775103569030762,-0.9228298664093018,18.80524635314941,-1.2949782e-05,-0.00068551424,0.33603287
310,53862975,-0.5779392719268799,-0.925359070301056,18.80453872680664,0.005525855,0.0057312073,0.32822418
311,53912976,-0.5785682797431946,-0.9260236024856568,18.80325508117676,-0.0052189156,0.0061159814,0.34804726
312,53962977,-0.5780567526817322,-0.9255359172821044,18.805315017700195,0.0008152146,0.006745778,0.3215685
313,54012978,-0.5778877139091492,-0.9251037836074828,18.805391311645508,-0.0030207846,0.00442878,0.33912468
314,54062979,-0.5775379538536072,-0.9250388741493224,18.807825088500977,-0.007198053,0.016467921,0.34532547
315,54112980,-0.5753963589668274,-0.9275819659233092,18.807268142700195,-0.013176291,-4.075968e-05,0.34013653
316,54162981,-0.5736777186393738,-0.9276231527328492,18.806962966918945,-0.025606405,0.011759963,0.33628654
317,54212982,-0.5736838579177856,-0.9273658394813538,18.8072566986084,-0.005922835,-0.0034818568,0.3183365
318,54262983,-0.5732080936431885,-0.9303619265556335,18.8051872253418,-0.017308298,-0.0075267185,0.3493395
319,54312984,-0.5726338624954224,-0.9316101670265198,18.805252075195312,-0.014609701,0.0031151315,0.33884525
320,54362985,-0.5711010098457336,-0.931342601776123,18.80516815185547,0.0002470936,-0.00014485385,0.34218502
321,54412986,-0.5710473656654358,-0.9154369235038756,18.81021499633789,-0.015958594,-0.003032299,0.32073116
322,54462987,-0.5716347098350525,-0.9158202409744264,18.808639526367188,-0.018221105,0.0009242575,0.3461113
323,54512988,-0.5719956755638123,-0.9178400039672852,18.80921745300293,-0.003914522,0.0050527095,0.3239832
324,54562989,-0.5722607970237732,-0.9194960594177246,18.80881118774414,-0.0066348286,0.0036227573,0.3211403
325,54612990,-0.5734540820121765,-0.919331431388855,18.80767822265625,-0.0032208008,-0.0057126037,0.3357706
326,54662991,-0.5726153254508972,-0.9208242297172546,18.80742073059082,0.0011852194,0.00040584715,0.34153652
327,54712992,-0.5732139348983765,-0.923194944858551,18.808670043945312,0.000651219,0.009991506,0.33350086
328,54762993,-0.5750479698181152,-0.9220721125602722,18.807239532470703,0.0065764007,0.008224084,0.3062973
329,54812994,-0.5718551874160767,-0.9246819019317628,18.810932159423828,-0.0038777264,-0.0005424834,0.33929825
330,54862995,-0.5721030831336975,-0.9235462546348572,18.81207656860352,-0.0005842908,0.0075467946,0.32631397
331,54912996,-0.5724810361862183,-0.9223703145980836,18.809734344482425,-0.007588768,-0.004080966,0.33676338
332,54962997,-0.5746586918830872,-0.9219585657119752,18.809572219848636,2.8749353e-05,-0.006567799,0.32071877
333,55012998,-0.57410728931427,-0.9220274090766908,18.807891845703125,0.00021291705,0.0039057457,0.35007954
334,55062999,-0.5733019113540649,-0.9194647073745728,18.80853843688965,0.0024820275,-0.012421013,0.3541031
335,55113000,-0.5709388256072998,-0.9187182784080504,18.81052589416504,-0.004687276,0.0044306275,0.34229088
336,55163001,-0.5718498826026917,-0.9194712042808532,18.812257766723636,0.0056959344,0.008227764,0.32543087
337,55213002,-0.5720893144607544,-0.918413519859314,18.814476013183597,0.0048583336,0.005516949,0.3384142
338,55263003,-0.5707594156265259,-0.9164427518844604,18.81589126586914,-0.011658394,-0.009054975,0.35462475
339,55313004,-0.571079671382904,-0.9195092916488647,18.81542587280273,0.00031603334,0.0051806043,0.34178543
340,55363005,-0.5701003670692444,-0.9191144704818726,18.81647491455078,-0.003248635,0.008972274,0.35294724
341,55413006,-0.5684201121330261,-0.9207607507705688,18.816469192504883,-0.000865044,-0.010323389,0.3395195
342,55463007,-0.5693055391311646,-0.9225379824638368,18.817113876342773,0.013567509,-0.008047346,0.3414402
343,55513008,-0.5677946209907532,-0.9239431619644164,18.818824768066406,0.013857125,0.008894538,0.34789276
344,55563009,-0.5672851800918579,-0.92290061712265,18.82011604309082,0.0060357996,-0.0043603084,0.32858658
345,55613010,-0.5672168731689453,-0.920535683631897,18.81880187988281,-0.0061812857,-0.0007687588,0.31762314
346,55663011,-0.5652738809585571,-0.9213806986808776,18.82158088684082,-0.010579287,0.0055025434,0.34557438
347,55713012,-0.5663595199584961,-0.9201077222824096,18.824079513549805,-0.0033249927,-0.0014164086,0.33814144
348,55763013,-0.5667849183082581,-0.92021507024765,18.82467460632324,-0.009698912,-0.005960116,0.3357811
349,55813014,-0.5667160749435425,-0.9206209182739258,18.821861267089844,0.012535919,-0.014164016,0.34556866
350,55863015,-0.5650079250335693,-0.92172509431839,18.82364273071289,0.008257679,-0.01983463,0.3345337
351,55913016,-0.564410924911499,-0.9240356087684632,18.8221378326416,-0.01342307,-0.011164266,0.33939075
352,55963017,-0.5639858841896057,-0.9216219782829284,18.82323265075684,0.0048523196,-0.009919183,0.33310604
353,56013018,-0.5633470416069031,-0.9216079711914062,18.825347900390625,0.001613994,-0.005471667,0.3362875
354,56063019,-0.5643419623374939,-0.9222293496131896,18.825292587280277,0.0030687351,-0.016079575,0.34923935
355,56113020,-0.5635510683059692,-0.9203635454177856,18.82845115661621,0.008138854,-0.00628004,0.34920406
356,56163021,-0.563485860824585,-0.920896589756012,18.82662010192871,0.0031836906,-0.012740103,0.3513012
357,56213022,-0.5647841095924377,-0.9208840131759644,18.83032989501953,-0.0050124177,0.006908616,0.32260704
358,56263023,-0.5643836259841919,-0.9229688048362732,18.830116271972656,-0.0012852484,-0.004642926,0.33383656
359,56313024,-0.5649787187576294,-0.923523247241974,18.83094596862793,-0.00085467164,0.00928285,0.33683968
360,56363025,-0.5642598867416382,-0.923387050628662,18.83170318603516,0.008865362,-0.010526042,0.31708145
361,56413026,-0.5681688189506531,-0.9201016426086426,18.82992553710937,-0.0030226496,-0.014916088,0.33823776
362,56463027,-0.5682958364486694,-0.9209354519844056,18.830774307250977,-0.0017843947,0.0054847007,0.34471226
363,56513028,-0.5707811117172241,-0.9215088486671448,18.83027648925781,-0.0010448602,-0.0010752196,0.33359718
364,56563029,-0.5724148154258728,-0.9225004315376282,18.83163452148437,-0.0027356169,0.0025987327,0.32857895
365,56613030,-0.5732995271682739,-0.9219675660133362,18.83078384399414,0.001746614,-0.00044268835,0.3319292
366,56663031,-0.5734506845474243,-0.9225759506225586,18.82991981506348,0.0015858314,2.0140613e-05,0.33283234
367,56713032,-0.5738088488578796,-0.9218486547470092,18.83064842224121,-0.008957596,-0.0057970705,0.3331461
368,56763033,-0.5706408619880676,-0.9218231439590454,18.83124542236328,-0.0025030796,-0.0051074107,0.35674763
369,56813034,-0.5699934959411621,-0.9197191596031188,18.831233978271484,0.005654012,0.0025733535,0.3243742
370,56863035,-0.5688278079032898,-0.9223718047142028,18.830753326416016,-0.014325734,-0.0025151004,0.35686302
371,56913036,-0.5681028962135315,-0.9233119487762452,18.831018447875977,0.0057618357,-0.013209357,0.32817364
372,56963037,-0.5672317147254944,-0.9233443737030028,18.83265686035156,0.011940964,-0.0034625055,0.33092594
373,57013038,-0.5666502118110657,-0.9229379892349244,18.831371307373047,-7.901183e-05,-0.0007355532,0.32836723
374,57063039,-0.5656322836875916,-0.9235740303993224,18.82904624938965,0.0050130743,-0.0030312722,0.33008575
375,57113040,-0.5638039112091064,-0.9234607815742492,18.82572555541992,-0.009275075,0.0013439206,0.34245682
376,57163041,-0.5650736093521118,-0.9236010313034058,18.82808303833008,0.008070682,-0.0070529375,0.33266258
377,57213042,-0.564977765083313,-0.922223687171936,18.830888748168945,0.001290047,-0.0019497909,0.34345436
378,57263043,-0.5657039284706116,-0.9219804406166076,18.82860946655273,-0.0034769746,-0.007875612,0.33209133
379,57313044,-0.5638178586959839,-0.9208186864852904,18.828611373901367,-0.018886063,-0.001986213,0.33417797
380,57363045,-0.5626673102378845,-0.9203145503997804,18.829044342041016,-0.0059955046,-0.0022872465,0.34663582
381,57413046,-0.5625682473182678,-0.9204536080360411,18.83090591430664,0.015611248,-0.014286787,0.3366785
382,57463047,-0.5624814629554749,-0.9241957068443298,18.829612731933597,0.0068770396,-0.009878193,0.32560635
383,57513048,-0.563031017780304,-0.922934353351593,18.82890892028809,-0.0014868012,-0.015844764,0.3512869
384,57563049,-0.5638800859451294,-0.9224217534065248,18.82682228088379,0.006654847,-0.0024615342,0.34102058
385,57613050,-0.5650762319564819,-0.9233272671699524,18.82865333557129,-0.00056224683,0.0015295306,0.32823086
386,57663051,-0.5649939775466919,-0.9243268370628356,18.82954406738281,-0.009675401,-0.0047404026,0.3563242
387,57713052,-0.5637664198875427,-0.9269797205924988,18.830717086791992,-0.011491506,-0.0009923382,0.33791065
388,57763053,-0.5630394220352173,-0.9270980954170228,18.831655502319336,-0.0016733367,-0.010084587,0.32660484
389,57813054,-0.5635601282119751,-0.9268363118171692,18.83293342590332,-0.012152923,-0.008079218,0.33249283
390,57863055,-0.5635778307914734,-0.9262069463729858,18.83503150939941,0.005046699,0.002931788,0.34987354
391,57913056,-0.5638226270675659,-0.926386058330536,18.834171295166016,0.01020894,-0.0021883734,0.33409786
392,57963057,-0.5638954639434814,-0.926785171031952,18.83418273925781,0.008860347,-0.01614462,0.32022572
393,58013058,-0.5640973448753357,-0.9262186884880066,18.836448669433597,-0.011106128,-0.0022500944,0.33617592
394,58063059,-0.5632028579711914,-0.9278064966201782,18.838552474975582,-0.017131228,-0.006103915,0.32542133
395,58113060,-0.5626381635665894,-0.9276089668273926,18.841136932373047,-0.0036802595,0.0012064775,0.34629917
396,58163061,-0.5630265474319458,-0.9300395250320436,18.839570999145508,-0.0135974735,-0.012874018,0.35312557
397,58213062,-0.5602781176567078,-0.9309271574020386,18.838340759277344,-0.008493471,-0.0038344695,0.3266163
398,58263063,-0.5597831010818481,-0.9308325052261353,18.84128189086914,-0.014051931,-0.0099305445,0.32287502
399,58313064,-0.559238076210022,-0.9314716458320618,18.84135627746582,-0.0044365227,-0.00084217236,0.3250723
400,58363065,-0.5606153011322021,-0.9295483231544496,18.84010505676269,-0.009090363,0.005667695,0.33350945
401,58413066,-0.5653167366981506,-0.9203430414199828,18.84682273864746,-0.0002423998,-0.008106364,0.338336
402,58463067,-0.5647442936897278,-0.9212661981582642,18.84781265258789,-0.007933453,-6.312495e-05,0.34963894
403,58513068,-0.563981294631958,-0.9216543436050416,18.84928321838379,-0.008247747,0.0019182126,0.3410635
404,58563069,-0.5637379288673401,-0.92354416847229,18.85037040710449,-0.0010367928,0.0045852843,0.32539654
405,58613070,-0.563944935798645,-0.9238470196723938,18.85103416442871,-0.0018225036,-0.017205462,0.33159447
406,58663071,-0.5647640824317932,-0.9229682683944702,18.852766036987305,-0.007978581,0.0067095654,0.3158598
407,58713072,-0.5632425546646118,-0.9225919842720032,18.849409103393555,-0.0035913293,-0.0016809537,0.347929
408,58763073,-0.5630890727043152,-0.9235445857048036,18.848133087158203,-0.010501721,0.0024170238,0.32606697
409,58813074,-0.5639112591743469,-0.9264448285102844,18.85075569152832,0.0062786117,-0.00047636198,0.33566666
410,58863075,-0.5642876625061035,-0.9280230402946472,18.854198455810547,-0.008734907,-0.00927774,0.3356428
411,58913076,-0.5666704177856445,-0.927693247795105,18.8551025390625,-0.0036362554,0.005265515,0.3380232
412,58963077,-0.5682342648506165,-0.9294297695159912,18.853988647460938,-0.0023028052,-0.0001218914,0.32461262
413,59013078,-0.5673781037330627,-0.9313789010047911,18.84990119934082,-0.0055802874,-0.012706167,0.33868885
414,59063079,-0.5675807595252991,-0.9302398562431335,18.849395751953125,-0.007860259,-0.0062495307,0.33430576
415,59113080,-0.566463053226471,-0.9322258234024048,18.849702835083008,0.018707022,-0.013622133,0.3108101
416,59163081,-0.5679555535316467,-0.9339580535888672,18.845844268798828,-0.002905466,-0.001685396,0.32825375
417,59213082,-0.5676254034042358,-0.9360262155532836,18.84730339050293,-0.0006722152,-0.012061443,0.3179741
418,59263083,-0.5669362545013428,-0.9341409802436828,18.847719192504883,-0.0010492885,0.009311475,0.3480444
419,59313084,-0.5656305551528931,-0.934715986251831,18.84715461730957,-0.006811292,0.010544021,0.350708
420,59363085,-0.5655736327171326,-0.9367769956588744,18.84699821472168,-0.013515668,0.0008713757,0.33272076
421,59413086,-0.5649674534797668,-0.9371795654296876,18.84757232666016,-0.00487509,0.0008178095,0.31873703
422,59463087,-0.5655248165130615,-0.9377425909042358,18.84979820251465,-0.0028427425,-0.006508973,0.34025288
423,59513088,-0.5642443895339966,-0.939031720161438,18.8508415222168,-0.02274025,-0.0047572395,0.32525444
424,59563089,-0.5630216002464294,-0.9363331198692322,18.853368759155277,0.0018593204,-0.005026831,0.34366035
425,59613090,-0.5613211393356323,-0.9358623027801514,18.854963302612305,-0.0024093858,-0.009887022,0.3446169
426,59663091,-0.5615941882133484,-0.9379187226295472,18.854135513305664,-0.025797509,-0.008642754,0.3287382
427,59713092,-0.5616510510444641,-0.9377193450927734,18.851266860961918,-0.0068807625,-0.020505777,0.3356428
428,59763093,-0.5603527426719666,-0.9362483024597168,18.85076141357422,0.00194531,-0.001154888,0.32889557
429,59813094,-0.5613941550254822,-0.9361878037452698,18.853063583374023,-0.0034091943,0.0010969597,0.3344164
430,59863095,-0.5605173110961914,-0.9367490410804749,18.852903366088867,-0.0017600388,-0.013695205,0.33111763
431,59913096,-0.561172604560852,-0.9349183440208436,18.85550308227539,0.013920359,-0.021335509,0.3402443
432,59963097,-0.5604678392410278,-0.9345368146896362,18.85651397705078,0.004343702,0.008074785,0.3382473
433,60013098,-0.5619683861732483,-0.936251938343048,18.85713577270508,-0.01869097,0.0050201463,0.3324957
434,60063099,-0.5612381100654602,-0.9376153945922852,18.85849380493164,-0.023343896,-0.0046904157,0.3357067
435,60113100,-0.5600065588951111,-0.9389121532440186,18.858783721923828,0.0011947606,-0.012525533,0.33442116
436,60163101,-0.560713529586792,-0.9374358057975768,18.86048126220703,-0.0065943515,0.0006668579,0.34401226
437,60213102,-0.5610237121582031,-0.9357717633247375,18.86174774169922,-0.018732445,0.0023412702,0.347826
438,60263103,-0.5604142546653748,-0.9335632920265198,18.86205673217773,0.007120166,-0.00680554,0.3597412
439,60313104,-0.5590878129005432,-0.9330996870994568,18.86248588562012,-0.0015164376,-0.0074770637,0.3487463
440,60363105,-0.5573404431343079,-0.93242210149765,18.86288452148437,-0.007786018,-0.01754534,0.32053185
441,60413106,-0.5629968047142029,-0.9254069924354552,18.86502456665039,-0.009845361,-0.008294939,0.35827637
442,60463107,-0.5623980760574341,-0.9251956939697266,18.866849899291992,0.008415612,-0.01923189,0.32255554
443,60513108,-0.5630598068237305,-0.9275912642478944,18.86766624450684,0.022459302,-0.0046860888,0.3622961
444,60563109,-0.56265789270401,-0.9297688007354736,18.86941909790039,-0.0015680691,-0.021855501,0.33452034
445,60613110,-0.562359631061554,-0.9284210205078124,18.866840362548828,-0.010381569,-0.01596941,0.35080814
446,60663111,-0.5603788495063782,-0.9273020029067992,18.86804580688477,-0.006503633,-0.003826266,0.33975887
447,60713112,-0.5611772537231445,-0.9264731407165528,18.865413665771484,0.004242646,-0.012982669,0.35078907
448,60763113,-0.5629044771194458,-0.9274829030036926,18.86627769470215,0.0065559354,-0.018248858,0.3320799
449,60813114,-0.5639729499816895,-0.9303120970726012,18.86406517028809,-0.0112956185,0.0015028138,0.33231544
450,60863115,-0.562938392162323,-0.9285461902618408,18.8653621673584,-0.006146571,-0.0063673602,0.3453598
451,60913116,-0.5632773041725159,-0.9290149211883544,18.868070602416992,0.005955356,-0.0012296216,0.3245554
452,60963117,-0.5630075931549072,-0.930650532245636,18.868953704833984,-0.022165095,-0.010892628,0.3346033
453,61013118,-0.5635485053062439,-0.928491234779358,18.871095657348636,-0.002090447,-0.0031082479,0.3213415
454,61063119,-0.5653569102287292,-0.9275352358818054,18.873157501220703,-0.012963919,-0.0104089705,0.33113098
455,61113120,-0.5657289028167725,-0.9266721606254578,18.873329162597656,0.003982421,-0.0068367966,0.35177994
456,61163121,-0.5655564069747925,-0.926904797554016,18.87471580505371,-0.0007170924,-0.0031232198,0.337286
457,61213122,-0.5665838122367859,-0.9253129363059998,18.87691879272461,0.0048256167,-0.00033176306,0.3504343
458,61263123,-0.5658959150314331,-0.925463318824768,18.87796211242676,-0.0058322563,-0.0088445125,0.34577084
459,61313124,-0.5669984817504883,-0.925548791885376,18.879657745361328,-0.010507686,-0.003243138,0.35855007
460,61363125,-0.5665347576141357,-0.9244993329048156,18.87809944152832,-0.008657907,0.0061751357,0.3753538
461,61413126,-0.5674557089805603,-0.9257192611694336,18.876585006713867,7.918645e-05,0.0032315364,0.32606888
462,61463127,-0.567053496837616,-0.9292218685150146,18.874942779541016,0.00050400075,-0.013582655,0.32626343
463,61513128,-0.5657064914703369,-0.929973602294922,18.87664794921875,0.003619569,-0.00011580066,0.31998158
464,61563129,-0.5659556984901428,-0.9295978546142578,18.87796974182129,-0.0006742967,0.0028523954,0.35706806
465,61613130,-0.5655794739723206,-0.9300768971443176,18.878002166748047,-0.0043646214,-0.0035115562,0.34806156
466,61663131,-0.5673581957817078,-0.930496335029602,18.88095474243164,-0.004336277,-0.0020448747,0.3522234
467,61713132,-0.56838059425354,-0.9313967227935792,18.87939453125,-0.005717105,-0.0027302317,0.3452711
468,61763133,-0.569271981716156,-0.9326348900794984,18.879762649536133,0.0029055707,-0.00722031,0.3629961
469,61813134,-0.5711885094642639,-0.9353640079498292,18.88065719604492,-0.019192562,-0.0028379231,0.3271637
470,61863135,-0.5695133805274963,-0.9366888403892516,18.883468627929688,-0.017491572,-0.0052087912,0.33253288
471,61913136,-0.5698394179344177,-0.9373575448989868,18.88479423522949,-0.0015628235,-0.0034817276,0.35458946
472,61963137,-0.5712183713912964,-0.937715709209442,18.883962631225582,7.0860595e-05,0.015937634,0.33063507
473,62013138,-0.5718531012535095,-0.937009871006012,18.883939743041992,-0.0077089756,0.00906729,0.3407812
474,62063139,-0.5744436383247375,-0.9362639784812928,18.884519577026367,-0.0041594924,0.0029365027,0.33242607
475,62113140,-0.5746641755104065,-0.9372527599334716,18.886293411254883,-0.006076081,0.0030845662,0.33855057
476,62163141,-0.575005829334259,-0.936183214187622,18.8856201171875,-0.0065867105,-0.0014521776,0.341156
477,62213142,-0.5751020312309265,-0.9361826777458192,18.88578224182129,-0.011819428,-0.0019488933,0.3348713
478,62263143,-0.5750618577003479,-0.9331134557724,18.88541603088379,-0.013848102,0.0011273819,0.35493374
479,62313144,-0.575238823890686,-0.9319211840629578,18.88750457763672,-0.017540814,-0.008144446,0.34773445
480,62363145,-0.5743141770362854,-0.9326937198638916,18.889066696166992,-0.01066747,0.0054582665,0.35211754
481,62413146,-0.5634510517120361,-0.9294877052307128,18.87931251525879,-0.011426562,0.007513133,0.3546629
482,62463147,-0.5623104572296143,-0.931640923023224,18.87781524658203,-0.010560896,0.0014629447,0.35237217
483,62513148,-0.5608929991722107,-0.9325662851333618,18.88002586364746,-0.0033480355,-0.0031313223,0.34323597
484,62563149,-0.560392439365387,-0.9329684972763062,18.87944984436035,-0.009114879,-0.012782039,0.35440063
485,62613150,-0.5613805055618286,-0.93184494972229,18.88114356994629,-0.0009940879,-0.006529561,0.338315
486,62663151,-0.5622237920761108,-0.9319450855255128,18.88190650939941,-0.003544154,0.003909507,0.32912636
487,62713152,-0.5625209212303162,-0.9318158030509948,18.88243103027344,0.0048036566,-0.014242364,0.3360777
488,62763153,-0.5630360245704651,-0.9316733479499816,18.88348197937012,-0.014984651,0.0062487694,0.3401041
489,62813154,-0.5623733401298523,-0.9316239356994628,18.88399124145508,0.0011656899,0.0059136287,0.33767605
490,62863155,-0.5613057613372803,-0.9314608573913574,18.88308525085449,-0.024312468,-0.0102257775,0.32800484
491,62913156,-0.5611317753791809,-0.9315184950828552,18.88485336303711,-0.0054159984,0.00031986102,0.331563
492,62963157,-0.5594167709350586,-0.9319462180137634,18.885438919067383,-0.011371277,0.0039381413,0.3137474
493,63013158,-0.5597016215324402,-0.9331182837486268,18.882566452026367,0.009459124,-0.004164668,0.35852146
494,63063159,-0.5609243512153625,-0.933320939540863,18.883251190185547,-0.0014513395,-0.0073163053,0.33165073
495,63113160,-0.5605419278144836,-0.9346561431884766,18.882678985595703,-0.0051861294,0.0027210119,0.33635044
496,63163161,-0.559846818447113,-0.9338037371635436,18.883899688720703,-0.0024606541,-0.017316652,0.34842587
497,63213162,-0.55967777967453,-0.9366904497146606,18.884536743164062,-0.017979968,-0.013496138,0.30592632
498,63263163,-0.5601622462272644,-0.9376472234725952,18.88424301147461,-0.01189376,0.0054024896,0.34122562
499,63313164,-0.5614150762557983,-0.9370063543319702,18.882343292236328,0.00240245,-0.0058362097,0.35145378
500,63363165,-0.5621164441108704,-0.9371521472930908,18.88089370727539,-0.009222675,0.00036908625,0.32944298
501,63413166,-0.563691258430481,-0.939716637134552,18.88045310974121,-0.017205112,0.012126915,0.32317638
502,63463167,-0.5663909316062927,-0.9375207424163818,18.879852294921875,0.0067955833,-0.0054767695,0.34356022
503,63513168,-0.5663886666297913,-0.9391196370124816,18.88273811340332,-0.007258297,0.0020370167,0.32901192
504,63563169,-0.5671433806419373,-0.938652515411377,18.882911682128903,-0.0047129383,-0.017780034,0.34847927
505,63613170,-0.5676242709159851,-0.9390946626663208,18.88202667236328,-0.016896455,-0.014217879,0.34749508
506,63663171,-0.5688789486885071,-0.9381782412528992,18.881105422973636,-0.011421813,-0.006138165,0.32745647
507,63713172,-0.5696844458580017,-0.9404239058494568,18.88348197937012,-0.0207121,-0.0052732504,0.33022308
508,63763173,-0.5688760280609131,-0.9395074844360352,18.883440017700195,0.0040138527,0.00164428,0.3636837
509,63813174,-0.5692840218544006,-0.9429031610488892,18.884559631347656,-0.010949753,0.0008570849,0.36608315
510,63863175,-0.5712521076202393,-0.9428983330726624,18.884695053100582,-0.031144878,-0.017264316,0.3496914
511,63913176,-0.5722452402114868,-0.9437761306762696,18.88688850402832,-0.0070142765,-0.0012539845,0.3538952
512,63963177,-0.5710695385932922,-0.942627251148224,18.88470458984375,-0.004537159,0.0034939265,0.36832047
513,64013178,-0.5708321332931519,-0.9427789449691772,18.883861541748047,-0.015736653,0.0015430321,0.33406353
514,64063179,-0.5709904432296753,-0.943659782409668,18.88500595092773,-0.010273969,-0.008608175,0.33781528
515,64113180,-0.5712660551071167,-0.9412271976470948,18.8852653503418,-0.016833061,-0.011415257,0.35614967
516,64163181,-0.572967529296875,-0.9428525567054749,18.885498046875,-0.012157288,-0.005902331,0.35944176
517,64213182,-0.5726459622383118,-0.9413368701934814,18.884279251098636,-0.015763083,-0.0053065713,0.34090614
518,64263183,-0.5722675323486328,-0.9404830932617188,18.881330490112305,-0.014422907,-0.011186879,0.36473274
519,64313184,-0.5732112526893616,-0.941510021686554,18.88106155395508,-0.0021298479,-0.0049759224,0.34200191
520,64363185,-0.5740691423416138,-0.9425288438796996,18.88153648376465,-0.009520695,-0.008950123,0.36330986
521,64413186,-0.5668648481369019,-0.928013563156128,18.88149070739746,-0.011211885,0.0071729845,0.32231236
522,64463187,-0.566468358039856,-0.9277026653289796,18.881580352783203,0.004786188,0.007409556,0.3392353
523,64513188,-0.5680696368217468,-0.929770529270172,18.8796329498291,0.0020281565,-0.011720457,0.35498905
524,64563189,-0.5664164423942566,-0.9274879693984984,18.879005432128903,0.0022580605,-0.0048345225,0.3252554
525,64613190,-0.5668825507164001,-0.9282799363136292,18.87926483154297,0.003963548,-0.003702115,0.32948875
526,64663191,-0.5676150321960449,-0.9290314316749572,18.87770271301269,-0.007409049,-0.0035162047,0.31761742
527,64713192,-0.5677053332328796,-0.9308645129203796,18.87848663330078,0.00087531866,0.0060952157,0.36026955
528,64763193,-0.5670484900474548,-0.9311770796775818,18.876710891723636,-0.008981155,0.010949945,0.3252182
529,64813194,-0.5675348043441772,-0.9319384694099426,18.878522872924805,-0.0073195323,-0.0012354609,0.3382349
530,64863195,-0.5660329461097717,-0.9322754740715028,18.87818145751953,-0.005187177,0.0015855904,0.31419468
531,64913196,-0.5664165019989014,-0.9304189682006836,18.87822723388672,-0.00047360998,0.007839108,0.34143162
532,64963197,-0.5681542158126831,-0.9286636114120485,18.876819610595703,-0.012486237,0.004619112,0.3160076
533,65013198,-0.5679765939712524,-0.9284933805465698,18.87747573852539,-0.0068807905,-0.0026856933,0.3402071
534,65063199,-0.5713213086128235,-0.9280820488929749,18.87699317932129,0.0050504496,-0.009016296,0.33649826
535,65113200,-0.5710763931274414,-0.9262255430221558,18.874942779541016,-0.0070997425,0.0039633773,0.3348446
536,65163201,-0.571252703666687,-0.9273973107337952,18.8737735748291,0.0037354464,-0.021709478,0.35648727
537,65213202,-0.5690937042236328,-0.9282312393188475,18.872386932373047,-0.0028068966,0.0017576012,0.3499546
538,65263203,-0.570587158203125,-0.926327109336853,18.871885299682617,-0.00975275,0.0046308986,0.35214996
539,65313204,-0.569999098777771,-0.9262850880622864,18.870235443115234,-0.0014359241,-0.0064915637,0.34235668
540,65363205,-0.5681098699569702,-0.9278229475021362,18.869997024536133,0.0039410363,0.010990436,0.33463955
541,65413206,-0.5659841895103455,-0.9310383796691896,18.87169075012207,-0.0149663715,-0.008010631,0.35165405
542,65463207,-0.5680549144744873,-0.9294816255569458,18.871835708618164,-0.0019265979,-0.001207864,0.34003353
543,65513208,-0.5690019726753235,-0.9307625889778136,18.87358283996582,-0.01324711,-0.016125573,0.35731602
544,65563209,-0.5698764324188232,-0.9302757382392884,18.87351417541504,-0.013123186,-0.00089257804,0.34249973
545,65613210,-0.5693469643592834,-0.9278886914253236,18.87470817565918,-0.009871513,-0.0016012014,0.3335476
546,65663211,-0.5699097514152527,-0.9266089797019958,18.87327766418457,-0.010483212,-0.0032428168,0.32083702
547,65713212,-0.571466326713562,-0.9288473725318908,18.875301361083984,-0.0045159883,0.00070961524,0.3353157
548,65763213,-0.5734388828277588,-0.9295364618301392,18.876983642578125,-0.014502464,0.0049668876,0.35129642
549,65813214,-0.5731214880943298,-0.9314265251159668,18.875244140625,-0.0024453853,-0.010766106,0.32915783
550,65863215,-0.5719014406204224,-0.9327945709228516,18.875537872314453,-0.002090817,0.004687877,0.32454586
551,65913216,-0.5720975399017334,-0.9320767521858216,18.87554931640625,-0.013889975,-0.00827754,0.3425846
552,65963217,-0.570570707321167,-0.9334713220596312,18.877429962158203,-0.013465671,0.00080841145,0.33836365
553,66013218,-0.5732010006904602,-0.9314430356025696,18.879114151000977,0.0009872288,-0.0032367748,0.34756756
554,66063219,-0.5767625570297241,-0.931066632270813,18.878786087036133,-0.0046206485,-0.009722646,0.33040905
555,66113220,-0.5774165987968445,-0.931384265422821,18.879131317138672,-0.010431084,0.0012913217,0.32748508
556,66163221,-0.5748351216316223,-0.9343963861465454,18.8807430267334,-0.008136864,-6.75079e-05,0.34265327
557,66213222,-0.5754629969596863,-0.9361553192138672,18.88237953186035,-0.013276942,0.004214487,0.35620403
558,66263223,-0.5762280225753784,-0.9367488026618958,18.882488250732425,0.00085113035,0.0016519494,0.33179474
559,66313224,-0.5674985647201538,-0.934760808944702,18.884601593017575,-0.010348482,-0.013423092,0.3373785
560,66363225,-0.5739556550979614,-0.935780107975006,18.884809494018555,-0.005143976,-0.00046853555,0.32492924
561,66413226,-0.5727576613426208,-0.9316800832748412,18.88654518127441,-0.013341893,0.0015792168,0.3387308
562,66463227,-0.5744580030441284,-0.9300165176391602,18.88545036315918,-0.0014369509,-0.0038369317,0.34330368
563,66513228,-0.5740243196487427,-0.927812397480011,18.8836669921875,-0.011216314,-0.007952542,0.34522247
564,66563229,-0.575564444065094,-0.9264573454856871,18.88528633117676,-0.003915842,-0.002297308,0.3583479
565,66613230,-0.5732924938201904,-0.9281904697418212,18.885009765625,0.0026737738,-0.018418927,0.33229542
566,66663231,-0.5731672048568726,-0.9277087450027466,18.887283325195312,0.009500286,-0.0021320027,0.3240366
567,66713232,-0.5744664072990417,-0.93041330575943,18.88821601867676,-0.0037823003,-0.0013216146,0.33599854
568,66763233,-0.5759423971176147,-0.9288955926895142,18.890493392944336,-0.00031774462,-0.012402308,0.34568214
569,66813234,-0.5745043158531189,-0.9291755557060242,18.89484405517578,0.0055356547,-0.015254403,0.3152218
570,66863235,-0.574739933013916,-0.9289709329605104,18.89521026611328,-0.016182423,-0.0078079887,0.32375908
571,66913236,-0.6975042223930359,-0.7930629253387451,18.92020034790039,0.1772156,0.17698377,0.41513824
572,66963237,-0.7170732617378235,-0.6080636978149414,19.04096794128418,0.0037151205,0.000150068,0.33186817
573,67013238,-0.7573586702346802,-0.4295267164707184,19.033784866333008,-0.0440553,-0.016246215,0.31236744
574,67063239,-0.7143988013267517,-0.4633751511573791,18.953826904296875,-0.034234773,-0.011791234,0.3289585
575,67113240,-0.6899096965789795,-0.5288621187210083,18.67500877380371,-0.06615872,-0.0019556126,0.36066437
576,67163241,-0.6584112048149109,-0.5568850040435791,18.473018646240234,0.01006936,0.013580849,0.3452568
577,67213242,-0.6591049432754517,-0.5217009782791138,18.43882369995117,-0.008346662,-0.02329972,0.32286358
578,67263243,-0.6653235554695129,-0.5540212392807007,18.43825340270996,-0.011130188,-0.0030222724,0.35364246
579,67313244,-0.6674425601959229,-0.5363094210624695,18.43394660949707,-0.023338605,0.0080533605,0.34024906
580,67363245,-0.664873480796814,-0.5654661655426025,18.432580947875977,-0.0055054664,0.0062891375,0.3374405
581,67413246,-0.6527764201164246,-0.5722067952156067,18.43033599853516,-0.0027676458,0.015632294,0.33230305
582,67463247,-0.6277416944503784,-0.5968512296676636,18.44972801208496,-0.013630819,-0.013386117,0.35947514
583,67513248,-0.6176041960716248,-0.6419868469238281,18.469942092895508,-0.015742444,0.00037179983,0.33964252
584,67563249,-0.5909165740013123,-0.6901436448097229,18.4693603515625,-0.020078724,-0.004456513,0.3213501
585,67613250,-0.5884964466094971,-0.8314183354377747,18.30014419555664,-0.135663,-0.047964245,0.3473444
586,67663251,-0.7247059941291809,-0.5906113982200623,17.26542854309082,0.53310543,-0.43034974,0.9705744
587,67713252,-0.1089290305972099,-1.4142029285430908,17.210630416870117,0.54984,-0.5276272,0.41529942
588,67763253,0.9423986673355104,-2.926764965057373,18.1075496673584,0.9133232,-0.16721763,-0.07503128
589,67813254,1.5457757711410522,-3.754237413406372,18.486671447753903,0.33988127,0.30142224,0.42500114
590,67863255,0.8423078060150146,-4.114538669586182,19.013208389282227,0.35499734,0.24246432,0.2544117
591,67913256,0.2965611517429352,-4.218952178955078,19.88176918029785,-0.09485152,0.043567836,0.8126278
592,67963257,0.7584620118141174,-4.559086799621582,20.216835021972656,-0.41813067,0.46734512,0.27665043
593,68013258,0.7660560607910156,-4.519356727600098,20.40919303894043,0.010347532,0.38205305,-0.104296684
594,68063259,1.0118895769119265,-4.219594478607178,20.15995979309082,0.017697085,0.28751606,-0.048220634
595,68113260,1.239498496055603,-3.921344041824341,20.033485412597656,0.0007484331,-0.027608223,-0.15515614
596,68163261,1.6452326774597168,-3.5447092056274414,19.733007431030277,0.16742495,-0.33342803,-0.24940681
597,68213262,1.68092143535614,-3.0953052043914795,19.43143844604492,-0.09934726,-0.111471206,-0.06850147
598,68263263,2.043160915374756,-2.5488946437835693,19.11997604370117,-0.08643402,-0.002990771,0.18890953
599,68313264,2.015268325805664,-1.9515000581741333,18.854307174682617,-0.24643342,-0.19072397,0.40227032
600,68363265,2.115870237350464,-1.5459781885147097,18.73904800415039,-0.13331491,-0.14073737,-0.16054249
601,68413266,2.421616554260254,-0.941382884979248,18.571327209472656,-0.19908687,-0.103887394,0.5739603
602,68463267,2.528587818145752,-0.4909927546977997,18.58013343811035,-0.2691241,0.29980752,0.31583023
603,68513268,3.610674142837525,0.0722446963191032,18.70082664489746,-0.30938983,0.018638913,0.284647
604,68563269,3.516902446746826,0.693732738494873,18.915149688720703,-0.059566498,-0.39385688,0.318964
605,68613270,4.015336990356445,1.1862061023712158,18.772581100463867,-0.014828115,0.061223384,0.06776905
606,68663271,4.069537162780762,1.783768653869629,18.99663543701172,0.048810843,-0.62500465,0.7814884
607,68713272,4.669886112213135,2.0946829319000244,19.48751640319824,-0.15596993,-0.1659416,0.71887875
608,68763273,4.719122409820557,2.203859567642212,19.98593521118164,0.06668641,0.03501853,0.10968876
609,68813274,4.362321376800537,2.549881935119629,20.177947998046875,-0.30257088,0.34959227,0.08411884
610,68863275,4.711663722991943,3.0108604431152344,20.01443862915039,-0.1296931,-0.13964866,0.65220356
611,68913276,3.572547674179077,3.3290975093841557,19.92125129699707,-0.014458662,-0.111212,0.59770393
612,68963277,3.574420213699341,3.367340087890625,20.222217559814453,0.41674924,-0.491882,0.6895304
613,69013278,3.666228771209717,3.297949314117432,20.283435821533203,0.057238065,-0.15932149,-0.21856117
614,69063279,2.515023708343506,3.2138543128967285,20.57719993591309,0.002857697,-0.16718644,0.87454414
615,69113280,2.6086366176605225,2.699202299118042,20.43996238708496,0.01236158,-0.19053751,0.2967062
616,69163281,2.0915069580078125,1.9771714210510252,20.342294692993164,-0.38720542,-0.10511748,0.3508129
617,69213282,2.345470905303955,1.3526486158370972,19.840023040771484,-0.07124702,-0.09946952,0.1876936
618,69263283,1.345966339111328,0.4602546989917755,20.042627334594727,0.0074270284,0.021261139,0.45023632
619,69313284,0.6361653208732605,0.8715547323226929,20.076963424682617,-0.0464349,0.42528895,0.25475693
620,69363285,-0.0494808219373226,0.0870893523097038,20.766172409057617,0.2445505,-0.050460447,0.3944502
621,69413286,0.2463010996580124,-0.4767060279846191,21.35075187683105,-0.25651622,-0.3087274,0.30473614
622,69463287,0.2509715557098388,-0.7842797636985779,20.64127922058105,-0.23786992,-0.20581554,0.3435917
623,69513288,0.2045893371105194,-0.9487820267677308,19.30443572998047,-0.16615205,-0.12503402,0.3224697
624,69563289,-0.2168266922235489,-0.846089243888855,19.16661071777344,-0.025452178,0.002792472,0.35432816
625,69613290,-0.449004590511322,-0.8454861640930176,19.373897552490234,0.109963425,-0.006734,0.3355732
626,69663291,-0.5816583037376404,-0.8984687328338623,19.46640396118164,-0.012303606,0.29692012,0.34004116
627,69713292,-0.6101174354553223,-0.8694838285446167,19.97071647644043,-0.122597836,-0.09817366,0.33350182
628,69763293,-0.6050277948379517,-0.8727273941040039,19.950681686401367,-0.0016381753,0.0037256433,0.33717918
629,69813294,-0.6044178009033203,-0.8731040358543396,19.950326919555664,-0.011418578,-0.0064285155,0.34473133
630,69863295,-0.6024904847145081,-0.8722756505012512,19.94915199279785,0.0005176071,0.01440436,0.33307457
631,69913296,-0.6020912528038025,-0.872923731803894,19.948511123657227,-0.009155901,-0.00013302514,0.33215618
632,69963297,-0.5994278788566589,-0.8718111515045166,19.948287963867188,-0.020819534,0.011607506,0.3554058
633,70013298,-0.5991873741149902,-0.8692664504051208,19.947742462158203,-0.0061909948,0.009305239,0.3032465
634,70063299,-0.6014665961265564,-0.867603063583374,19.947872161865234,-0.009193877,0.0062516783,0.34545612
635,70113300,-0.603297770023346,-0.8692335486412048,19.949846267700195,-0.00994032,-0.008221009,0.33215714
636,70163301,-0.6032030582427979,-0.8695746660232544,19.949342727661133,-0.018798439,-0.004602509,0.3551073
637,70213302,-0.6026490330696106,-0.8694408535957336,19.94933319091797,-0.009463644,0.0050864634,0.35001945
638,70263303,-0.6027613878250122,-0.8682803511619568,19.948745727539062,-0.009461953,-0.0033311672,0.33256435
639,70313304,-0.6026290655136108,-0.8737249970436096,19.9461669921875,-0.010843584,0.00038871347,0.33691978
640,70363305,-0.6020333766937256,-0.8737640380859375,19.945091247558597,-0.019612612,0.005946461,0.31444454
641,70413306,-0.5998075604438782,-0.8738380074501038,19.945528030395508,-0.0066352827,-0.008212138,0.34453487
642,70463307,-0.599132776260376,-0.8739797472953796,19.944873809814453,-0.0106500015,-0.0036182278,0.3127098
643,70513308,-0.5991822481155396,-0.874798595905304,19.945695877075195,-0.018139865,-0.020375235,0.34139824
644,70563309,-0.5965845584869385,-0.8769340515136719,19.945484161376957,-0.013778421,-0.008445968,0.32526016
645,70613310,-0.596516489982605,-0.878144383430481,19.94364356994629,-0.025415301,-0.008336307,0.31197357
646,70663311,-0.5965102314949036,-0.8786535263061523,19.942153930664062,-0.0203037,-0.0015675033,0.33831787
647,70713312,-0.5965625643730164,-0.8808368444442749,19.94300842285156,0.01491284,-0.0041792314,0.3365612
648,70763313,-0.5963532328605652,-0.8832667469978333,19.945465087890625,-0.0027953787,-0.008192208,0.35607433
649,70813314,-0.5954405069351196,-0.8835148811340332,19.943782806396484,-0.009762801,-0.0027767923,0.3457489
650,70863315,-0.5959668159484863,-0.882596492767334,19.94267463684082,-0.004170081,0.003698158,0.33335876
651,70913316,-0.5962351560592651,-0.8833697438240051,19.943790435791016,-0.012855571,0.0007869891,0.32425976
652,70963317,-0.5973055362701416,-0.8844552040100098,19.940937042236328,-0.016853904,0.0041116397,0.3472128
653,71013318,-0.5957840085029602,-0.8834471702575684,19.940593719482425,-0.003979124,-0.0068653473,0.34512806
654,71063319,-0.5979653000831604,-0.8836517333984375,19.9400577545166,7.069296e-05,-0.0006005304,0.32032394
655,71113320,-0.5968844294548035,-0.8850544095039368,19.94000244140625,-0.01882088,-0.0048607923,0.32997608
656,71163321,-0.5982946753501892,-0.885595977306366,19.93850326538086,-0.017588863,0.013068069,0.34731007
657,71213322,-0.5984546542167664,-0.8852742314338684,19.936752319335938,-0.0044118036,0.0070506358,0.33294868
658,71263323,-0.5984445214271545,-0.8855441808700562,19.9358024597168,-0.011586709,0.0014130943,0.34306145
659,71313324,-0.6000693440437317,-0.8848424553871155,19.933794021606445,-0.0028431197,-0.0026015337,0.3310299
660,71363325,-0.5989072918891907,-0.8837009072303772,19.93361473083496,-0.021498147,-0.012895779,0.34352112
661,71413326,-0.5975439548492432,-0.8844727873802185,19.93564224243164,-0.0010817957,-0.0022681048,0.33659172
662,71463327,-0.5970746874809265,-0.8859483599662781,19.93435859680176,-0.00894188,-0.0023530012,0.3153429
663,71513328,-0.5974107980728149,-0.888631284236908,19.93324851989746,-0.015164271,0.0037097912,0.33670425
664,71563329,-0.5988677740097046,-0.8892669677734375,19.93480491638184,-0.01788198,0.008673358,0.34047985
665,71613330,-0.6003862023353577,-0.889603316783905,19.93654441833496,-0.018607914,-0.0008160947,0.3169241
666,71663331,-0.5992302298545837,-0.8877325654029846,19.934083938598636,-0.018763116,-0.0006169691,0.34611797
667,71713332,-0.5978996157646179,-0.8873567581176758,19.932781219482425,-0.009616302,0.013932677,0.3186655
668,71763333,-0.5961911678314209,-0.8870931267738342,19.932104110717773,-0.011295395,0.0014356342,0.3600855
669,71813334,-0.5984694361686707,-0.8873099684715271,19.931167602539062,0.005702172,0.0030133354,0.34245396
670,71863335,-0.597048282623291,-0.8874990344047546,19.93268394470215,-0.010534201,0.001231518,0.34525108
671,71913336,-0.5973023176193237,-0.8875982761383057,19.932212829589844,-0.0026981996,-0.010654109,0.33082104
672,71963337,-0.5995573997497559,-0.8857204914093018,19.931373596191406,-0.017004348,0.0051569887,0.34325314
673,72013338,-0.5992531776428223,-0.8858872056007385,19.930419921875,-0.014188784,0.0030607167,0.33565807
674,72063339,-0.6001186370849609,-0.8841673135757446,19.929399490356445,-0.0038927225,0.0010171446,0.33048534
675,72113340,-0.600399911403656,-0.8829678297042847,19.92776107788086,-0.01282743,0.0016056787,0.32568836
676,72163341,-0.6007707715034485,-0.8837599754333496,19.92424964904785,-0.016637431,-0.0075673,0.3344059
677,72213342,-0.6000043749809265,-0.8849438428878784,19.9234561920166,-0.0013426493,-0.012830919,0.3064804
678,72263343,-0.5987477898597717,-0.8840781450271606,19.92005729675293,-0.011315944,0.0028038165,0.31118965
679,72313344,-0.5967689752578735,-0.8805845975875854,19.920360565185547,-0.023778865,-0.0038869393,0.32834244
680,72363345,-0.5958107709884644,-0.8803715705871582,19.920385360717773,-0.009206645,0.0069790245,0.3222084
681,72413346,-0.6006276607513428,-0.8699218034744263,19.935840606689453,-0.014849712,0.0026423212,0.3204794
682,72463347,-0.6026337146759033,-0.8713215589523315,19.93546485900879,-0.010784772,0.001838223,0.33124638
683,72513348,-0.6025283336639404,-0.872414231300354,19.934497833251957,-0.0042558545,0.0020769488,0.32038212
684,72563349,-0.6016048789024353,-0.8720582723617554,19.93509101867676,-0.003601604,0.0048999,0.3504753
685,72613350,-0.6030932068824768,-0.8722250461578369,19.93381118774414,-0.014401715,-0.0030665314,0.35147
686,72663351,-0.6024185419082642,-0.8704342246055603,19.933408737182617,-0.009784105,-0.003434961,0.3412571
687,72713352,-0.60092693567276,-0.8711236715316772,19.933237075805664,-0.015992904,-0.0036644076,0.33595276
688,72763353,-0.6019413471221924,-0.8702212572097778,19.93299102783203,-0.0048963167,0.010103615,0.35759163
689,72813354,-0.602281391620636,-0.8730001449584961,19.93334007263184,-0.0074565248,-0.0030066369,0.34799576
690,72863355,-0.5994846820831299,-0.8748731017112732,19.93376922607422,-0.015638055,0.0008560651,0.32776356
691,72913356,-0.5998719334602356,-0.8754041194915771,19.93387985229492,-0.017425992,0.0026368138,0.3647766
692,72963357,-0.5988961458206177,-0.8749032020568848,19.933269500732425,-0.0058816667,0.0003128902,0.34916306
693,73013358,-0.5980738401412964,-0.8760839104652405,19.93469619750977,-0.0029873624,0.001937117,0.32121658
694,73063359,-0.5970500707626343,-0.875022828578949,19.934574127197266,-0.013657557,0.008251019,0.33005142
695,73113360,-0.5965161323547363,-0.8749250173568726,19.935503005981445,-0.012306316,0.00088982953,0.34301758
696,73163361,-0.5976800322532654,-0.8757802844047546,19.935834884643555,-0.0107098045,0.004820822,0.33884716
697,73213362,-0.5987569093704224,-0.8768668174743652,19.93696975708008,-0.0114265485,-0.0030563546,0.34994793
698,73263363,-0.5991092324256897,-0.8765988349914551,19.9373836517334,-0.011186334,0.011576564,0.33347797
699,73313364,-0.5986998677253723,-0.8772420883178711,19.936922073364254,-0.013485962,-0.004557555,0.32062054
700,73363365,-0.5984041690826416,-0.8773773312568665,19.935991287231445,-0.0042708926,-0.008069045,0.33847713
701,73413366,-0.5968045592308044,-0.8758072853088379,19.935771942138672,-0.0039125383,-0.010960768,0.35694027
702,73463367,-0.599027156829834,-0.8774041533470154,19.93575096130371,-0.034504306,0.0022253613,0.33180046
703,73513368,-0.5966439247131348,-0.8769329786300659,19.937408447265625,-0.0012585036,-0.0033611704,0.34119225
704,73563369,-0.5976186394691467,-0.8751464486122131,19.937185287475582,-0.0037542284,0.013821974,0.3199625
705,73613370,-0.5967962741851807,-0.8764087557792664,19.93767738342285,-0.0017595568,0.0018057891,0.34582233
706,73663371,-0.5966168642044067,-0.8781135082244873,19.939838409423828,-0.012329673,0.00389552,0.35202122
707,73713372,-0.5973117351531982,-0.8793970942497253,19.940393447875977,-0.015472153,0.004661583,0.35012436
708,73763373,-0.5961453914642334,-0.8801934123039246,19.93936538696289,-0.008453378,0.006113638,0.34983158
709,73813374,-0.5968866348266602,-0.8804712891578674,19.93995475769043,-0.021406898,0.014543995,0.3551855
710,73863375,-0.5963335633277893,-0.8817018866539001,19.939350128173828,-0.0025961797,-0.0067954995,0.31156063
711,73913376,-0.5969762802124023,-0.8818230032920837,19.939414978027344,-0.010925376,-0.0018243407,0.34304428
712,73963377,-0.5982128381729126,-0.8800389170646667,19.93836784362793,-0.0116522685,-0.0038150554,0.33280945
713,74013378,-0.5979725122451782,-0.8813191652297974,19.940265655517575,-0.013133489,0.020374928,0.3136959
714,74063379,-0.5972243547439575,-0.8812606930732727,19.939796447753903,-0.004342836,-0.0022389013,0.3413124
715,74113380,-0.5962401628494263,-0.8836448788642883,19.937801361083984,-0.01371611,0.0076106056,0.34537506
716,74163381,-0.5980085730552673,-0.88335120677948,19.93595314025879,-0.011085761,-0.01354025,0.34072113
717,74213382,-0.5999045968055725,-0.8824363350868225,19.933835983276367,0.014345711,-0.0007536333,0.33096027
718,74263383,-0.5996237397193909,-0.8826063871383667,19.93523979187012,-0.030299814,0.005804918,0.35761356
719,74313384,-0.5997058153152466,-0.8837641477584839,19.935142517089844,-0.013984556,0.0033787824,0.34122562
720,74363385,-0.5989283323287964,-0.8852871656417847,19.93507957458496,-0.007060474,0.0053521995,0.358819
721,74413386,-0.6014649271965027,-0.8748995065689087,19.936887741088867,-0.01916813,-0.0039353683,0.35545158
722,74463387,-0.6034388542175293,-0.8766106367111206,19.93629264831543,-0.014091143,-0.013783003,0.33106995
723,74513388,-0.6046072840690613,-0.8763037919998169,19.93616104125977,-0.022534234,0.0048279706,0.35224628
724,74563389,-0.6045297384262085,-0.876862108707428,19.93863296508789,-0.039918065,-0.010710018,0.33890247
725,74613390,-0.6039915680885315,-0.8777148127555847,19.938587188720703,-0.02781519,0.004677438,0.33368683
726,74663391,-0.6041091680526733,-0.8773518204689026,19.937753677368164,-0.0052103526,-0.007718559,0.32774734
727,74713392,-0.6041670441627502,-0.8790027499198914,19.93680000305176,0.009792591,0.010566959,0.3515873
728,74763393,-0.6033061742782593,-0.8773049116134644,19.936264038085938,-0.0031825241,0.0134590715,0.33992958
729,74813394,-0.6013872027397156,-0.8781479597091675,19.936939239501957,-0.028363906,0.0027332318,0.35489082
730,74863395,-0.6040845513343811,-0.8801761269569397,19.937461853027344,-0.016338196,0.005050544,0.3550787
731,74913396,-0.6033207774162292,-0.8787842988967896,19.93813133239746,-0.00672693,0.0061580404,0.3502779
732,74963397,-0.6030175089836121,-0.8779559135437012,19.93988037109375,-0.011589608,0.008587284,0.34041595
733,75013398,-0.6041147112846375,-0.8770476579666138,19.938608169555664,-0.009561158,0.0065546394,0.31880188
734,75063399,-0.6038805842399597,-0.8739755153656006,19.93806266784668,-0.00923339,0.0002139927,0.3571167
735,75113400,-0.6033874750137329,-0.8717659115791321,19.93651580810547,-0.0017812796,-0.0076163714,0.3447466
736,75163401,-0.6025819182395935,-0.8720238208770752,19.935874938964844,-0.018926071,-0.0004076457,0.34402275
737,75213402,-0.6008637547492981,-0.8722959756851196,19.9346923828125,-0.023634098,-0.0016767732,0.3522749
738,75263403,-0.6011255979537964,-0.8742995262145996,19.938018798828125,-0.017407965,-0.0035170147,0.34199905
739,75313404,-0.6010481715202332,-0.8736604452133179,19.937992095947266,0.0009298977,0.012951233,0.34481144
740,75363405,-0.5998793840408325,-0.8731780648231506,19.93726348876953,-0.008827986,0.0024317824,0.32188797
741,75413406,-0.6003154516220093,-0.8729556202888489,19.939115524291992,0.00031312768,0.00480117,0.3362379
742,75463407,-0.6013407111167908,-0.875029981136322,19.937658309936523,0.0016775555,0.009339733,0.35206604
743,75513408,-0.6010835766792297,-0.8752354383468628,19.93834114074707,-0.0034799012,0.0037756716,0.34368515
744,75563409,-0.6007093787193298,-0.8757945895195007,19.93797492980957,-0.03145615,0.008929122,0.33136845
745,75613410,-0.5997574329376221,-0.8772609233856201,19.9371280670166,-0.016394647,-0.004546079,0.3330593
746,75663411,-0.6002933382987976,-0.8796517252922058,19.939010620117188,-0.0144572025,-0.0018906193,0.31758785
747,75713412,-0.5997801423072815,-0.8784266114234924,19.93831825256348,-0.009247206,0.009880638,0.32090187
748,75763413,-0.6000183820724487,-0.8799996972084045,19.93758773803711,-0.011971242,0.01603654,0.33961105
749,75813414,-0.6006879210472107,-0.8818898797035217,19.93679618835449,-0.016062431,0.0056893444,0.31361008
750,75863415,-0.6011362671852112,-0.8837329745292664,19.93649673461914,-0.014942211,0.017432513,0.3515625
751,75913416,-0.6029221415519714,-0.8805224895477295,19.934125900268555,-0.01593558,-0.0052380995,0.31903744
752,75963417,-0.6026372313499451,-0.8820486068725586,19.93338394165039,-0.007913511,0.008342495,0.32000732
753,76013418,-0.6009271144866943,-0.8835901021957397,19.93390464782715,-0.0015536037,0.020323278,0.35384655
754,76063419,-0.5988703370094299,-0.8851390480995178,19.934904098510746,0.0030957174,-0.0030753461,0.3165121
755,76113420,-0.5980039834976196,-0.8875751495361328,19.93271827697754,-0.0011774383,0.0068101534,0.32424927
756,76163421,-0.597488522529602,-0.8869823813438416,19.931665420532227,-0.011912409,-0.0039671874,0.32789516
757,76213422,-0.5996387004852295,-0.8852667808532715,19.93238067626953,-0.009349358,0.009752198,0.33494282
758,76263423,-0.6013054251670837,-0.8855993747711182,19.933422088623047,-0.0195052,0.01611256,0.35181332
759,76313424,-0.6011902093887329,-0.8883169293403625,19.93376922607422,-0.01313492,-0.0037582412,0.32614517
760,76363425,-0.6023000478744507,-0.8895145058631897,19.93484115600586,-0.024689967,0.0066485605,0.3279791
761,76413426,-0.6008167862892151,-0.8788053393363953,19.93467140197754,-0.012132046,0.013479885,0.35066414
762,76463427,-0.6007378697395325,-0.8791761994361877,19.93402671813965,-0.0067726383,0.0010789739,0.33752918
763,76513428,-0.6006747484207153,-0.8808495402336121,19.934303283691406,-0.02551126,0.003248883,0.3593731
764,76563429,-0.6024637222290039,-0.8804290890693665,19.936243057250977,-0.0050689876,0.007542455,0.33120632
765,76613430,-0.6050695776939392,-0.879378616809845,19.935592651367188,-0.010549637,0.011473738,0.33079815
766,76663431,-0.6043654084205627,-0.8795526027679443,19.93552589416504,-0.010862967,0.006274522,0.3469267
767,76713432,-0.6037657260894775,-0.8822351694107056,19.936220169067383,-0.02470321,-0.00022394252,0.34696674
768,76763433,-0.6033338904380798,-0.8812234401702881,19.93492889404297,-0.02830959,-0.0035314662,0.3460245
769,76813434,-0.6022028923034668,-0.8819877505302429,19.93415069580078,-0.014609582,0.0015885415,0.33218575
770,76863435,-0.6034488677978516,-0.8802356123924255,19.93477439880371,-0.01108136,0.005014461,0.3496046
771,76913436,-0.6033676862716675,-0.8796783685684204,19.935222625732425,-0.017150644,-0.013398425,0.34925365
772,76963437,-0.6026841998100281,-0.8788092732429504,19.93475151062012,-0.007906366,0.016403375,0.3389845
773,77013438,-0.6035302877426147,-0.880609929561615,19.93442153930664,-0.0015112549,0.007803749,0.33389091
774,77063439,-0.603191077709198,-0.8816627860069275,19.93180274963379,-0.021741461,0.0011545387,0.34561348
775,77113440,-0.6031984090805054,-0.8810018301010132,19.933115005493164,-0.011275942,0.006936225,0.33111095
776,77163441,-0.6032320857048035,-0.8805823922157288,19.931676864624023,-0.019924566,-0.004512154,0.3285246
777,77213442,-0.6024060845375061,-0.8795570135116577,19.931468963623047,-0.019861655,0.017408818,0.32170868
778,77263443,-0.6013373732566833,-0.8781494498252869,19.92945671081543,-0.020067887,0.00031765032,0.33852577
779,77313444,-0.6017932891845703,-0.87623530626297,19.93058013916016,-0.0056051672,0.01052155,0.33431435
780,77363445,-0.6041457653045654,-0.8774256706237793,19.93302154541016,0.007917904,0.009346325,0.34594822
781,77413446,-0.603744626045227,-0.8789533376693726,19.935382843017575,-0.0074036224,0.008547048,0.33616543
782,77463447,-0.6034561395645142,-0.8801612257957458,19.936908721923828,0.00039695902,0.0002918241,0.33415413
783,77513448,-0.6018344163894653,-0.8783721923828125,19.93662643432617,0.002295527,0.0018970697,0.34117317
784,77563449,-0.6012513041496277,-0.8796995878219604,19.935741424560547,-0.0041255183,-0.006041873,0.3259163
785,77613450,-0.5994409918785095,-0.8787953853607178,19.936742782592773,-0.0075594946,0.014274213,0.3534794
786,77663451,-0.6001141667366028,-0.8782732486724854,19.938121795654297,-0.010125654,-9.136092e-05,0.31850815
787,77713452,-0.6001901030540466,-0.8774888515472412,19.93882942199707,0.004452769,0.00024326591,0.32408047
788,77763453,-0.6001613736152649,-0.8779898285865784,19.93838119506836,-0.00030056207,0.024508828,0.3462801
789,77813454,-0.6015564799308777,-0.8775050640106201,19.938623428344727,0.0052647498,0.008837681,0.342062
790,77863455,-0.6014425754547119,-0.876156210899353,19.938270568847656,-0.015112263,0.018752102,0.33520126
791,77913456,-0.6005899310112,-0.8764227628707886,19.93853187561035,-0.01446214,0.003128207,0.33961582
792,77963457,-0.5994638800621033,-0.8783350586891174,19.93741798400879,-0.017801793,-0.000801266,0.31753063
793,78013458,-0.5990968346595764,-0.8768291473388672,19.93803596496582,-0.00014395632,0.00041716598,0.35390568
794,78063459,-0.5973346829414368,-0.8766045570373535,19.938983917236328,-0.023361176,0.0015309624,0.3278227
795,78113460,-0.5978532433509827,-0.8771525621414185,19.93818664550781,0.0064076902,0.006930529,0.34307098
796,78163461,-0.59949791431427,-0.8767482042312622,19.93798065185547,-0.00788238,-0.00062928325,0.3352461
797,78213462,-0.5999426245689392,-0.8780145049095154,19.94010162353516,-0.009210606,-0.01435542,0.35758305
798,78263463,-0.59675532579422,-0.8810518383979797,19.939659118652344,-0.008652962,0.010504263,0.3299141
799,78313464,-0.5971102714538574,-0.8803951144218445,19.94087600708008,-0.007704925,-0.0017149311,0.33284378
800,78363465,-0.5969008803367615,-0.8788697719573975,19.93968963623047,-0.009406047,0.006232624,0.32620335
801,78413466,-0.5996167659759521,-0.8790995478630066,19.93573760986328,0.004704745,-0.001545634,0.32896805
802,78463467,-0.5994565486907959,-0.8793212175369263,19.934505462646484,-0.009047351,0.014915861,0.3333683
803,78513468,-0.600187361240387,-0.8791272044181824,19.934839248657227,-0.0030850165,0.012784337,0.34736443
804,78563469,-0.6007277369499207,-0.876737117767334,19.93557357788086,-0.0044381223,5.0059916e-05,0.35012054
805,78613470,-0.6011229753494263,-0.8783629536628723,19.933853149414062,-0.013125889,-0.01044695,0.33639622
806,78663471,-0.5991788506507874,-0.8773595094680786,19.93463897705078,-0.02075021,0.0020509933,0.3405943
807,78713472,-0.5985096096992493,-0.8790963292121887,19.933284759521484,-0.0057269535,0.005605331,0.3639326
808,78763473,-0.5960915088653564,-0.8801137208938599,19.93290328979492,-0.0017970162,0.0009883185,0.32053185
809,78813474,-0.595552384853363,-0.8787352442741394,19.93390464782715,-0.002698451,-0.0035230147,0.3336668
810,78863475,-0.5955275297164917,-0.8796224594116211,19.934534072875977,-0.0052985074,0.013249784,0.3370514
811,78913476,-0.595492959022522,-0.8806967735290527,19.932544708251957,0.0022446779,0.010909641,0.33332157
812,78963477,-0.5952338576316833,-0.8803449869155884,19.934236526489254,-0.0006365789,0.00423226,0.3173704
813,79013478,-0.5950965881347656,-0.8805415034294128,19.93513298034668,-0.0062736175,0.00528239,0.3123045
814,79063479,-0.5962592959403992,-0.8806025385856628,19.93683433532715,-0.0074768993,0.004401382,0.32705402
815,79113480,-0.5970970392227173,-0.8794801235198975,19.9370231628418,-0.012370576,0.019352803,0.32284927
816,79163481,-0.5985314846038818,-0.8816977143287659,19.93525695800781,-0.010340122,-0.003780072,0.33604336
817,79213482,-0.5999990701675415,-0.8837434649467468,19.934444427490234,-0.010311435,0.008395464,0.32926655
818,79263483,-0.6000482439994812,-0.884800374507904,19.932933807373047,-0.018836932,0.0028098687,0.3529749
819,79313484,-0.601832389831543,-0.8855339288711548,19.931758880615234,0.00028511172,0.0035207202,0.3541727
820,79363485,-0.6005519032478333,-0.8855295777320862,19.93050575256348,-0.007144431,0.01053477,0.3337431
821,79413486,-0.5995984077453613,-0.8864051103591919,19.932748794555664,-0.0050620236,0.0107021425,0.3405714
822,79463487,-0.5987246036529541,-0.8866293430328369,19.94254493713379,-0.0072829113,-0.023953587,0.31525898
823,79513488,-0.5982528924942017,-0.8881914019584656,19.944896697998047,-0.0021317478,0.0059917714,0.35132313
824,79563489,-0.5972351431846619,-0.8886023163795471,19.94582939147949,-0.02537755,-0.0045681614,0.33971882
825,79613490,-0.5959855318069458,-0.8880853652954102,19.944734573364254,-0.027528515,0.007009834,0.32108688
826,79663491,-0.5951104760169983,-0.8899849653244019,19.94342994689941,0.003829196,0.00815157,0.33475018
827,79713492,-0.5958930850028992,-0.8885998129844666,19.94331359863281,0.0018069276,-0.0043303156,0.31683445
828,79763493,-0.5942978262901306,-0.8886659741401672,19.942663192749023,0.0014959512,-0.0070117097,0.3312912
829,79813494,-0.5945436358451843,-0.8881692886352539,19.94346618652344,-0.010534249,-0.000452715,0.33532333
830,79863495,-0.59542316198349,-0.8884716629981995,19.945518493652344,-0.010681293,0.00785464,0.34735775
831,79913496,-0.5940631628036499,-0.8888262510299683,19.9479923248291,-0.024342872,0.007478412,0.34472942
832,79963497,-0.5936083793640137,-0.8902590274810791,19.947525024414062,-0.016010247,0.001437349,0.34286785
833,80013498,-0.5924808979034424,-0.8908867835998535,19.94729804992676,0.0022995642,-0.000118500284,0.32993507
834,80063499,-0.5907920598983765,-0.8891201615333557,19.9477596282959,-0.0074759424,0.014852744,0.35225582
835,80113500,-0.5895611643791199,-0.8883237242698669,19.94737243652344,-0.01005948,-0.0031438214,0.31350136
836,80163501,-0.5875992178916931,-0.890975296497345,19.94689178466797,0.0023344741,-0.0020046667,0.33152103
837,80213502,-0.586936354637146,-0.8887163996696472,19.948287963867188,-0.007209061,0.011733074,0.32818127
838,80263503,-0.5882948040962219,-0.8883465528488159,19.94554328918457,-0.01640861,-0.00628099,0.30433273
839,80313504,-0.5887657403945923,-0.8871203660964966,19.948314666748047,-0.005814955,-0.002702729,0.3289709
840,80363505,-0.5894408226013184,-0.885972261428833,19.948925018310547,-0.008772297,0.011518359,0.33031178
841,80413506,-0.5894016027450562,-0.8873633742332458,19.95022201538086,-0.020038838,0.0047812075,0.35329437
842,80463507,-0.5891984701156616,-0.8875096440315247,19.948881149291992,-0.019739881,0.004862465,0.34142876
843,80513508,-0.5887705683708191,-0.8865521550178528,19.947458267211918,-0.011414059,0.0056022755,0.32892418
844,80563509,-0.588456928730011,-0.8887649178504944,19.94547843933105,-0.008646809,-0.004196861,0.32711506
845,80613510,-0.5876621603965759,-0.8884398937225342,19.94533920288086,-0.0021905946,0.0073811174,0.33648872
846,80663511,-0.5882822275161743,-0.8882085084915161,19.94699478149414,-0.0031914995,-0.0068238154,0.34751987
847,80713512,-0.587303876876831,-0.887442946434021,19.94812774658203,-0.0034071337,0.014772038,0.3561859
848,80763513,-0.5866894125938416,-0.8887887001037598,19.949604034423828,-0.012848028,0.0050640493,0.3431759
849,80813514,-0.5862932801246643,-0.8896823525428772,19.953304290771484,-0.004354095,0.016308762,0.3307953
850,80863515,-0.588830292224884,-0.8898777365684509,19.954317092895508,-0.018999824,0.012679033,0.34065437
851,80913516,-0.5876796245574951,-0.8919249176979065,19.9521598815918,-0.017155478,0.0069943457,0.34422207
852,80963517,-0.5869848728179932,-0.892274022102356,19.95211410522461,0.004138126,0.010238542,0.32372665
853,81013518,-0.5871177315711975,-0.8921225666999817,19.95396041870117,-0.013826532,-0.003976142,0.34625053
854,81063519,-0.5856938362121582,-0.8941255807876587,19.95625877380371,-0.015240035,-0.002669988,0.32581902
855,81113520,-0.5847120881080627,-0.8935621380805969,19.955398559570312,-0.005817358,0.01093852,0.3355608
856,81163521,-0.5828771591186523,-0.8917408585548401,19.953310012817383,-0.0036535359,-0.0063441847,0.33472443
857,81213522,-0.5829567313194275,-0.8928488492965698,19.9509334564209,-0.013674809,-0.0056112683,0.3439808
858,81263523,-0.58238285779953,-0.8933449387550354,19.95003890991211,-0.009851494,0.014967421,0.33438206
859,81313524,-0.5820299983024597,-0.8927212357521057,19.95067977905273,-0.0031423757,-0.0035412833,0.3520937
860,81363525,-0.5812739729881287,-0.8914514183998108,19.949886322021484,0.0028822834,-0.000117236035,0.3396654
861,81413526,-0.5802187323570251,-0.891525149345398,19.949234008789062,-0.0150722535,0.015485692,0.34266758
862,81463527,-0.580103874206543,-0.8916218876838684,19.95039176940918,-0.0070693097,0.011560174,0.32767868
863,81513528,-0.5794644951820374,-0.8910136818885803,19.95233726501465,-0.01645056,0.0058898036,0.318367
864,81563529,-0.5798636078834534,-0.890807032585144,19.95260238647461,-0.015046068,-0.0012118139,0.32997227
865,81613530,-0.579801082611084,-0.8901967406272888,19.952634811401367,0.004344247,0.0021056246,0.3285761
866,81663531,-0.579138994216919,-0.890713632106781,19.9531307220459,-0.0004022884,-0.0019072081,0.34239578
867,81713532,-0.5784716010093689,-0.8914282321929932,19.95228385925293,-0.010970337,0.0046253633,0.34886742
868,81763533,-0.5781947374343872,-0.8936244249343872,19.95325088500977,0.0018446245,0.009414294,0.33160114
869,81813534,-0.5776172280311584,-0.8926422595977783,19.953744888305664,0.008426522,-0.0026368278,0.34842968
870,81863535,-0.5788372159004211,-0.893534243106842,19.95301818847656,0.00046122598,-0.017609587,0.3547125
871,81913536,-0.5775943398475647,-0.895348072052002,19.95444869995117,-0.020272918,-0.0055910437,0.32942295
872,81963537,-0.5772609710693359,-0.8971948623657227,19.95559310913086,-0.008144246,0.00092736573,0.34588718
873,82013538,-0.5784123539924622,-0.8972626328468323,19.956378936767575,-0.008578902,-0.0020797288,0.3391323
874,82063539,-0.5771651268005371,-0.899445116519928,19.956090927124023,-0.017127477,0.00015792587,0.34841824
875,82113540,-0.5777913928031921,-0.9000874757766724,19.955568313598636,-0.012290286,-0.0009717156,0.32204533
876,82163541,-0.5769067406654358,-0.9003692865371704,19.955753326416016,-0.005969542,0.0006920485,0.333498
877,82213542,-0.578217625617981,-0.8988437056541443,19.95607185363769,-0.025994424,0.0067898887,0.32526398
878,82263543,-0.5793165564537048,-0.8986230492591858,19.95660400390625,-0.010224558,0.011397722,0.31981564
879,82313544,-0.5783727765083313,-0.9012120962142944,19.9550838470459,-0.021364836,-0.0037226921,0.34818268
880,82363545,-0.578787088394165,-0.901533842086792,19.95389747619629,-0.027734539,0.008857379,0.33419418
881,82413546,-0.592485785484314,-0.8838812112808228,19.953516006469727,-0.011020963,-0.005721118,0.3517475
882,82463547,-0.5922952890396118,-0.8855046629905701,19.953432083129883,-0.0012525945,-0.005824004,0.32661533
883,82513548,-0.5916635990142822,-0.8858408331871033,19.952253341674805,-0.017812522,0.0044316193,0.32772255
884,82563549,-0.5919538736343384,-0.8874894976615906,19.95266342163086,-0.017633287,0.013609747,0.31915665
885,82613550,-0.5923622250556946,-0.8871601223945618,19.951234817504883,-0.01764815,0.0032334083,0.32275486
886,82663551,-0.5934730768203735,-0.8859148621559143,19.950075149536133,-0.00031538378,0.0005878495,0.32353973
887,82713552,-0.5927172899246216,-0.8859491348266602,19.949708938598636,-0.013285009,0.005664754,0.3292532
888,82763553,-0.5930472016334534,-0.8867660164833069,19.947664260864254,-0.024745252,0.006695732,0.3298416
889,82813554,-0.5933198928833008,-0.8872675895690918,19.946823120117188,-0.010039482,0.0120592695,0.33444977
890,82863555,-0.5917723774909973,-0.8891018033027649,19.94697570800781,-0.0142495865,0.013488937,0.36224174
891,82913556,-0.5910804271697998,-0.8881858587265015,19.9468936920166,-0.006361891,0.008676703,0.33052444
892,82963557,-0.590350329875946,-0.8888753652572632,19.945507049560547,-0.0062414454,-0.002314826,0.32806396
893,83013558,-0.590851902961731,-0.8876181244850159,19.9438591003418,-0.010757308,0.0010595177,0.32670116
894,83063559,-0.5925440192222595,-0.8862187266349792,19.94432640075684,0.0015292058,-0.00018777532,0.34694386
895,83113560,-0.5922264456748962,-0.8856944441795349,19.942110061645508,-0.014943343,-0.00025013892,0.34673405
896,83163561,-0.5917760729789734,-0.8849784135818481,19.94200134277344,-0.012802068,-0.004241183,0.34837627
897,83213562,-0.5933437347412109,-0.8838753700256348,19.942642211914062,-0.010620044,4.075619e-05,0.3433733
898,83263563,-0.5922673940658569,-0.8868023157119751,19.942338943481445,-0.009559998,0.0046787583,0.3258667
899,83313564,-0.5930837988853455,-0.8860478401184082,19.94178581237793,-0.006255066,0.008426813,0.33441257
900,83363565,-0.5936720371246338,-0.8855577707290649,19.942405700683597,-0.006052207,-0.0089381365,0.31908798
901,83413566,-0.5924549102783203,-0.8872948288917542,19.94560432434082,-0.011359131,-0.006408651,0.34058857
902,83463567,-0.5908492207527161,-0.888147234916687,19.948413848876957,-0.0022760883,-0.0016121571,0.3377676
903,83513568,-0.591071367263794,-0.8874984383583069,19.95010757446289,-0.006669836,0.016523918,0.3462658
904,83563569,-0.5907168984413147,-0.8885960578918457,19.95161819458008,-0.0028948141,0.0141536,0.3149538
905,83613570,-0.5904157757759094,-0.8887007832527161,19.94982147216797,-0.013543551,0.0038149366,0.33968258
906,83663571,-0.5894776582717896,-0.8894347548484802,19.95013236999512,-0.014036432,-0.0044578193,0.33267117
907,83713572,-0.5899366140365601,-0.8863078951835632,19.95176887512207,-0.011333937,-0.010285173,0.3459854
908,83763573,-0.5900048613548279,-0.8844946622848511,19.952211380004883,-0.018659217,0.004557611,0.33264637
909,83813574,-0.5890892744064331,-0.884170413017273,19.951839447021484,-0.0005844305,0.003014268,0.32352352
910,83863575,-0.5879262685775757,-0.8839657306671143,19.951717376708984,-0.022665199,0.008285806,0.3386774
911,83913576,-0.5874737501144409,-0.8828158378601074,19.954469680786133,-0.0034417852,-0.0048687547,0.34261036
912,83963577,-0.586152195930481,-0.883234977722168,19.952926635742188,-0.011052087,0.010493326,0.34318447
913,84013578,-0.5873703956604004,-0.8836032152175903,19.9526424407959,0.0012713766,0.0122416355,0.3486967
914,84063579,-0.5876618027687073,-0.8845270872116089,19.953502655029297,0.0023759357,-0.004269457,0.32879925
915,84113580,-0.5869776606559753,-0.8837312459945679,19.955760955810547,0.0017800083,0.007199258,0.3284359
916,84163581,-0.5873046517372131,-0.8819840550422668,19.95661735534668,-0.016568163,0.000618394,0.3566742
917,84213582,-0.5863842368125916,-0.8827416896820068,19.95824241638184,-0.00859313,-0.007245686,0.32852173
918,84263583,-0.5837300419807434,-0.8811948895454407,19.95842933654785,-0.008783389,0.0033364198,0.34115505
919,84313584,-0.5823281407356262,-0.8795891404151917,19.956262588500977,-0.009915531,0.004818485,0.33653355
920,84363585,-0.5826342701911926,-0.8793419599533081,19.955625534057617,-0.00091066165,0.0060929176,0.32294464
921,84413586,-0.5871033072471619,-0.8808732032775879,19.951690673828125,-0.004768279,0.01207121,0.3476143
922,84463587,-0.5876150727272034,-0.8814111351966858,19.952749252319336,-0.008579251,0.010130992,0.31171513
923,84513588,-0.5871503353118896,-0.8807176351547241,19.95058250427246,0.0037050624,-0.007643249,0.34243584
924,84563589,-0.5875881314277649,-0.8806206583976746,19.94814109802246,-0.03515413,0.008809994,0.361516
925,84613590,-0.5873379111289978,-0.8805983662605286,19.94866752624512,-0.0050297678,0.007893325,0.32255173
926,84663591,-0.5888505578041077,-0.8810983896255493,19.948434829711918,-0.016820222,-0.0055776504,0.3479948
927,84713592,-0.5890653729438782,-0.8800696730613708,19.947490692138672,-0.010287798,-0.0003546592,0.3304987
928,84763593,-0.589489758014679,-0.8798872828483582,19.94832801818848,-0.013492045,-0.009708443,0.33770657
929,84813594,-0.5893664956092834,-0.8792054653167725,19.947967529296875,0.009568366,0.012262152,0.33826828
930,84863595,-0.5884045362472534,-0.8804303407669067,19.946758270263672,-0.003876958,0.004107361,0.3394909
931,84913596,-0.5893847942352295,-0.8804473876953125,19.946348190307617,0.0032217577,0.0051289066,0.3355589
932,84963597,-0.5900191068649292,-0.8829461336135864,19.949462890625,-0.010407113,0.0071168863,0.3553381
933,85013598,-0.5901214480400085,-0.8830682039260864,19.949874877929688,-0.010240882,-0.006186744,0.33847618
934,85063599,-0.5882273316383362,-0.8829459547996521,19.949663162231445,-0.013321645,0.00025326113,0.34948826
935,85113600,-0.5886378288269043,-0.882366418838501,19.950176239013672,-0.015080398,0.0014455875,0.3329811
936,85163601,-0.5865817666053772,-0.8814370036125183,19.951190948486328,-0.0150904,-0.0019392193,0.32792377
937,85213602,-0.5868151783943176,-0.8814528584480286,19.951215744018555,-0.010204575,0.006288317,0.338624
938,85263603,-0.5838078260421753,-0.8779151439666748,19.95228385925293,-0.0015416248,0.002521523,0.3446102
939,85313604,-0.5758311748504639,-0.8678162097930908,19.963165283203125,-0.017895998,-0.0028079513,0.35703564
940,85363605,-0.5844033360481262,-0.8746612071990967,20.00408744812012,-0.021647258,-0.03687597,0.3340521
941,85413606,-0.5863646268844604,-0.8773180842399597,19.999595642089844,-0.011197594,-0.0046640728,0.33700943
942,85463607,-0.5886878967285156,-0.8802970051765442,19.997486114501957,-0.006961884,0.0077208183,0.31495476
943,85513608,-0.5880642533302307,-0.879776656627655,19.997314453125,-0.010910086,-0.00039855155,0.32664013
944,85563609,-0.5879098176956177,-0.8836494088172913,19.99566650390625,-0.006919905,0.008119843,0.32137394
945,85613610,-0.589480996131897,-0.8829604983329773,19.99728202819824,-0.007604665,0.005149826,0.3412304
946,85663611,-0.5892552137374878,-0.8838842511177063,19.998016357421875,-0.0033805636,-0.0028859435,0.3405943
947,85713612,-0.5886459350585938,-0.8842281103134155,19.998046875,-0.021733386,-0.0032945077,0.33951473
948,85763613,-0.5843755602836609,-0.8795025944709778,20.00111389160156,-0.011578299,0.0026899993,0.35117054
949,85813614,-0.5848210453987122,-0.8783542513847351,20.00727081298828,0.00065021316,0.01590549,0.3514185
950,85863615,-0.5955367088317871,-0.8679804801940918,20.12544822692871,-0.029059932,0.0042081554,0.33236217
951,85913616,-0.6171743273735046,-0.8217242956161499,20.28356170654297,-0.011561215,0.037846692,0.36160183
952,85963617,-0.6589481830596924,-0.8053582906723022,21.011741638183597,-0.036430497,-0.095709406,0.34115696
953,86013618,-0.6776309013366699,-0.7935782670974731,21.68038749694824,0.092807256,0.06524416,0.33194256
954,86063619,-0.6550948023796082,-0.8051415085792542,21.487987518310547,-0.12634721,-0.015311811,0.32950592
955,86113620,-0.2653230428695678,-0.6300721764564514,21.321901321411133,-0.06062754,-0.2349458,0.2724657
956,86163621,1.977574586868286,-1.7909367084503174,20.822397232055664,-0.1924917,0.36138457,0.92572784
957,86213622,4.055282115936279,-3.013129711151123,20.08810234069824,-0.586567,-0.0546043,0.6286974
958,86263623,5.706694602966309,-3.906671047210693,19.476560592651367,-0.44728294,0.21408892,1.449152
959,86313624,4.987922668457031,-3.662156581878662,20.07529830932617,-0.004897113,0.011918382,0.6141901
960,86363625,5.622243404388428,-3.380155563354492,19.11363220214844,-0.5994213,0.60974026,0.12478447
961,86413626,6.103962421417236,-3.7465338706970215,19.25037002563477,-0.21691038,-0.48544556,0.5710945
962,86463627,5.867609024047852,-4.204505920410156,19.66384506225586,-0.60094154,-0.23730038,0.05811596
963,86513628,5.696384429931641,-4.123162746429443,19.988508224487305,0.15165888,-0.6466864,-0.085990906
964,86563629,4.923921585083008,-4.371185302734375,20.64110565185547,-0.63020957,-0.8091933,-0.55298996
965,86613630,4.667013168334961,-4.18549919128418,19.991676330566406,0.770795,-0.17722158,0.67753124
966,86663631,4.534053325653076,-3.814705848693848,20.081247329711918,0.058794886,-0.17411156,0.18901825
967,86713632,4.18305778503418,-3.63447904586792,19.9491024017334,0.38998124,0.28253296,0.3107481
968,86763633,2.074930429458618,-2.9014017581939697,21.45366477966309,-0.05680621,-0.007366121,0.45745754
969,86813634,0.863292932510376,-2.9877915382385254,22.373685836791992,-0.25983417,0.15169176,0.32059288
970,86863635,0.0954198911786079,-2.6150081157684326,23.49793815612793,0.07495542,0.21739525,0.77221775
971,86913636,-0.5481406450271606,-2.499159336090088,24.30400848388672,-0.15258078,-0.19118911,0.30259037
972,86963637,-0.3892545104026794,-2.630619525909424,24.527324676513672,-0.06866835,-0.14514853,0.23073864
973,87013638,-0.6919799447059631,-2.824151992797852,24.824447631835938,0.034436166,0.10103845,0.51519966
974,87063639,-0.9314592480659484,-3.2380495071411133,24.894603729248047,-0.39611694,-0.0889179,0.16917324
975,87113640,-0.9642057418823242,-3.386060953140259,25.07727432250977,-0.031362332,-0.08935429,0.33965015
976,87163641,-1.122238039970398,-3.4100658893585205,25.39093589782715,-0.08026025,-0.014264981,0.2568531
977,87213642,-1.192275881767273,-3.356515884399414,25.47515869140625,0.3433779,-0.31562987,0.31645584
978,87263643,-1.0677317380905151,-3.128297805786133,25.4252872467041,0.35348833,-0.4146122,0.20406342
979,87313644,-1.2146387100219729,-2.995265007019043,25.32794189453125,0.38134605,0.110557154,0.3285246
980,87363645,-1.176681399345398,-2.929896593093872,24.95895004272461,0.1532033,-0.030567475,0.0069713593
981,87413646,-1.1797680854797363,-2.679438352584839,24.509424209594727,0.3599587,0.2239502,0.20831776
982,87463647,-1.1999388933181765,-2.5026984214782715,24.00125503540039,0.1780602,0.306827,0.34052277
983,87513648,-1.1182630062103271,-2.279946565628052,23.606616973876957,0.15546246,-0.09262246,0.034379005
984,87563649,-1.1278741359710691,-2.088379383087158,23.07237243652344,0.13393535,0.38269287,0.22400665
985,87613650,-1.0535093545913696,-1.7954062223434448,22.68347549438477,0.35304448,-0.12542978,0.49139786
986,87663651,-1.0796606540679932,-1.574392318725586,22.21116065979004,0.28730568,0.1505784,0.46744823
987,87713652,-1.1322146654129028,-1.5263988971710205,21.61844062805176,0.21149325,0.02059004,0.5718708
988,87763653,-1.2172932624816897,-1.6264392137527466,21.183422088623047,-0.020504184,0.012534229,0.39821625
989,87813654,-1.2244325876235962,-1.5815770626068115,20.787303924560547,0.29550627,0.28016698,0.44250393
990,87863655,-1.4041777849197388,-1.6482107639312744,20.699005126953125,0.059429303,0.21678516,0.38850975
991,87913656,-1.4319971799850464,-1.6045161485671997,20.77933120727539,0.037657045,-0.17819132,0.41895485
992,87963657,-1.5067991018295288,-1.5533367395401,20.54560089111328,0.048356175,0.3734887,0.6712065
993,88013658,-1.4994899034500122,-1.5645527839660645,20.534223556518555,-0.37344366,-0.012025074,0.027855873
994,88063659,-1.458000898361206,-1.4653524160385132,20.50550842285156,0.28348306,-0.1733557,0.17300415
995,88113660,-1.5934139490127563,-1.3808540105819702,20.531848907470703,0.38433656,-0.067517824,0.27708244
996,88163661,-1.567930817604065,-1.0118147134780884,20.57927894592285,0.13569954,0.43415666,0.78641987
997,88213662,-1.193791151046753,-0.6837456822395325,20.59415435791016,-0.034560077,0.10931605,0.41992855
998,88263663,-0.8710599541664124,-0.528556764125824,20.798168182373047,0.041525327,-0.08936518,0.5635996
999,88313664,-0.8273515105247498,-0.598973274230957,21.22828483581543,-0.016009888,0.009330429,0.3506298
1000,88363665,-0.8143681287765503,-0.656663179397583,21.5103759765625,-0.0064998963,0.017031362,0.36829376
1001,88413666,-0.8118320107460022,-0.6838997602462769,21.531118392944336,-0.0050377655,0.0069386736,0.35132027
1002,88463667,-0.8181545734405518,-0.686649739742279,21.51898956298828,0.2890202,0.11752979,0.47673893
1003,88513668,-0.8159425854682922,-0.8448800444602966,21.42740631103516,0.40677106,0.30417284,0.5862942
1004,88563669,-0.8153722286224365,-0.8635724782943726,21.427976608276367,-0.0037894037,0.005674659,0.3242197
1005,88613670,-0.8184016346931458,-0.8678520321846008,21.428102493286133,0.00056940626,0.0053078146,0.35444164
1006,88663671,-0.8194677233695984,-0.872067391872406,21.42757225036621,0.0009414715,0.01195955,0.32759476
1007,88713672,-0.8219752311706543,-0.8756544589996338,21.428953170776367,-0.01677105,0.00528576,0.33401394
1008,88763673,-0.8236616849899292,-0.8779827952384949,21.42842102050781,-0.01110777,0.014429787,0.34619713
1009,88813674,-0.825764536857605,-0.8825257420539856,21.42812728881836,-0.011014956,-0.0005555135,0.31433678
1010,88863675,-0.825772225856781,-0.8820521831512451,21.429737091064453,0.0003734273,0.006079231,0.34204102
1011,88913676,-0.8263114094734192,-0.8803818225860596,21.43320846557617,-0.008583959,0.017821195,0.34674454
1012,88963677,-0.8251855969429016,-0.8814002871513367,21.430116653442383,-0.009942911,0.01934138,0.3361311
1013,89013678,-0.8253878355026245,-0.8801068663597107,21.42924118041992,-0.0103955455,0.0075849784,0.34289837
1014,89063679,-0.8268564939498901,-0.8816158771514893,21.427719116210938,-0.013191141,0.0062940517,0.33284855
1015,89113680,-0.8265635371208191,-0.8802720904350281,21.425580978393555,0.002362462,0.0011380651,0.33844566
1016,89163681,-0.8263944983482361,-0.8786494135856628,21.424354553222656,-0.011938016,0.015698869,0.32219982
1017,89213682,-0.8284132480621338,-0.8795461058616638,21.42507743835449,0.003533663,0.013105357,0.3258791
1018,89263683,-0.8288093209266663,-0.8799909353256226,21.42546844482422,-0.008668329,0.0024727448,0.31984806
1019,89313684,-0.8273893594741821,-0.8807021379470825,21.425540924072266,-0.013486695,0.0070095477,0.32640648
1020,89363685,-0.8272128105163574,-0.8801450133323669,21.42652702331543,-0.007868613,0.0058892453,0.32422066
1021,89413686,-0.8284032344818115,-0.8812377452850342,21.42550468444824,-0.004121893,0.017705481,0.3245411
1022,89463687,-0.8287312388420105,-0.880134105682373,21.42434883117676,-0.015283955,-0.0018490948,0.31471062
1023,89513688,-0.8285070061683655,-0.8807755708694458,21.426403045654297,-0.003759928,-0.0019750095,0.32607937
1024,89563689,-0.8288925290107727,-0.8807802796363831,21.424955368041992,-0.0019821129,0.0032818094,0.3327427
1025,89613690,-0.8296090960502625,-0.8802478313446045,21.424087524414062,-0.01319573,0.00554317,0.34004498
1026,89663691,-0.8283119797706604,-0.8820216655731201,21.423295974731445,-0.025594726,0.016818298,0.3531952
1027,89713692,-0.8276821970939636,-0.8813496828079224,21.42318153381348,-0.008817229,0.0010794838,0.3267851
1028,89763693,-0.83102947473526,-0.8823032975196838,21.423484802246094,-0.018309727,0.0051117763,0.34015656
1029,89813694,-0.832965612411499,-0.8857239484786987,21.42247200012207,-0.012593789,0.011164011,0.3263607
1030,89863695,-0.8333771824836731,-0.8869962096214294,21.422704696655277,-0.0119067235,-0.0017000115,0.3228941
1031,89913696,-0.8331143856048584,-0.885895848274231,21.42329788208008,-0.0013233783,0.011049894,0.326375
1032,89963697,-0.8320838809013367,-0.8863033652305603,21.42249298095703,0.004371201,0.022554524,0.3505249
1033,90013698,-0.8332878351211548,-0.8850181102752686,21.42352294921875,-0.007689034,0.0066361763,0.34544182
1034,90063699,-0.834740936756134,-0.8831965327262878,21.42377281188965,-0.008795521,0.0078043984,0.34529972
1035,90113700,-0.8358297944068909,-0.8820157051086426,21.42323303222656,-0.018641483,0.0086458195,0.34467602
1036,90163701,-0.834635853767395,-0.8827530145645142,21.42343139648437,-0.026598943,0.012610967,0.33523846
1037,90213702,-0.8357141613960266,-0.8821017742156982,21.42341423034668,-0.003956165,0.0095374305,0.34417152
1038,90263703,-0.8382517099380493,-0.880925178527832,21.42430305480957,-0.007583117,0.015290657,0.34309196
1039,90313704,-0.8373433351516724,-0.8789359927177429,21.42582130432129,0.0005559675,0.01347094,0.33134842
1040,90363705,-0.838641881942749,-0.8798351287841797,21.42520523071289,-0.015695192,0.017577628,0.3369217
1041,90413706,-0.8390662670135498,-0.8782631158828735,21.426776885986328,-0.0143863065,0.018175043,0.31530094
1042,90463707,-0.8423059582710266,-0.8778818845748901,21.42582321166992,-0.009942471,0.005620649,0.32542133
1043,90513708,-0.8426384925842285,-0.8766504526138306,21.42656707763672,-0.02128921,0.0047976915,0.3600502
1044,90563709,-0.8433430790901184,-0.8776845932006836,21.42795753479004,-0.012624738,0.010398364,0.33735752
1045,90613710,-0.8421883583068848,-0.8756738305091858,21.427824020385746,0.0047989557,0.00600705,0.3167553
1046,90663711,-0.8422234058380127,-0.8766925930976868,21.42895126342773,-0.010925327,0.018300954,0.33977985
1047,90713712,-0.8415655493736267,-0.8774991631507874,21.429428100585938,-0.017849758,0.013798558,0.33060932
1048,90763713,-0.8421928286552429,-0.8766814470291138,21.4317684173584,-0.016025215,0.0013824451,0.33692837
1049,90813714,-0.8419352173805237,-0.8787257075309753,21.43385124206543,0.0010505598,0.012207073,0.3214531
1050,90863715,-0.8400607705116272,-0.8763904571533203,21.43484878540039,-0.0073916293,0.01869534,0.34164047
1051,90913716,-0.8404622673988342,-0.8775331377983093,21.433034896850582,-0.014499167,0.0042340863,0.35461235
1052,90963717,-0.8405016660690308,-0.8769916296005249,21.432706832885746,-0.0013273526,0.01865992,0.34257698
1053,91013718,-0.8406769633293152,-0.8777546882629395,21.43327522277832,-0.01055102,0.010278691,0.355402
1054,91063719,-0.8399175405502319,-0.8784236311912537,21.43193626403809,9.0823094e-05,0.020107083,0.33887386
1055,91113720,-0.8412557244300842,-0.8773432374000549,21.43238639831543,-0.00015794682,0.015250429,0.31548214
1056,91163721,-0.842276930809021,-0.876051127910614,21.43216133117676,-0.018268727,0.019226102,0.3221531
1057,91213722,-0.8435309529304504,-0.8763172626495361,21.433008193969727,-0.012449288,0.02464523,0.34184265
1058,91263723,-0.8452231287956238,-0.8749676942825317,21.433597564697266,-0.017935902,0.008458345,0.33076
1059,91313724,-0.8433824181556702,-0.8741151094436646,21.43332862854004,-0.0077519813,0.025710318,0.32745934
1060,91363725,-0.8435462117195129,-0.8725795745849609,21.43365478515625,0.0028873403,0.015854185,0.32944393
1061,91413726,-0.8449854850769043,-0.8740957379341125,21.43334579467773,0.0019124048,0.010891968,0.30578804
1062,91463727,-0.8445107340812683,-0.8742212057113647,21.431934356689453,-0.019930748,-0.0054425197,0.3323431
1063,91513728,-0.8461921811103821,-0.8746532797813416,21.43173599243164,-0.01403076,0.0020536964,0.3488636
1064,91563729,-0.8469811081886292,-0.8721223473548889,21.430274963378903,-0.004551583,0.018903695,0.3536644
1065,91613730,-0.848281741142273,-0.8722975850105286,21.431303024291992,-0.0071110297,0.025693076,0.3341341
1066,91663731,-0.8478713035583496,-0.8705427646636963,21.43203353881836,-0.003475368,0.0149254445,0.33979034
1067,91713732,-0.8484885692596436,-0.8694118857383728,21.429656982421875,-0.0153306695,0.006208935,0.3578415
1068,91763733,-0.8488792777061462,-0.869159996509552,21.428991317749023,-0.000737481,-0.006276139,0.32046604
1069,91813734,-0.8512636423110962,-0.871133029460907,21.430051803588867,-0.0070151915,0.014027156,0.35279083
1070,91863735,-0.8524657487869263,-0.8689221143722534,21.42856788635254,0.002358362,0.032035474,0.32725143
1071,91913736,-0.8539837002754211,-0.8714857697486877,21.427526473999023,-0.0066762273,0.01508221,0.3286848
1072,91963737,-0.8542491793632507,-0.8728698492050171,21.425249099731445,-0.004145886,0.0052893083,0.32602978
1073,92013738,-0.8557321429252625,-0.8710365295410156,21.423072814941406,-0.0032644067,0.012701564,0.33785343
1074,92063739,-0.8566522002220154,-0.8715446591377258,21.42284774780273,-0.011601252,0.004108168,0.34191132
1075,92113740,-0.857398271560669,-0.8726337552070618,21.424278259277344,-0.001596581,0.009291354,0.3269663
1076,92163741,-0.8565929532051086,-0.8710723519325256,21.4259033203125,-0.010940799,0.010977468,0.32777786
1077,92213742,-0.8575027585029602,-0.873140275478363,21.425540924072266,-0.032312863,0.012018235,0.34010792
1078,92263743,-0.8599053621292114,-0.8739897608757019,21.42489242553711,-0.015319914,0.0054735984,0.32272148
1079,92313744,-0.8584787249565125,-0.8714850544929504,21.42541885375977,-0.020604925,0.019654311,0.32507324
1080,92363745,-0.8593435287475586,-0.8724133372306824,21.42353820800781,-0.008208828,0.0033828267,0.36062622
1081,92413746,-0.8400838375091553,-0.8793721199035645,21.425559997558597,-0.009673005,0.016981823,0.32148075
1082,92463747,-0.8391801118850708,-0.8819409012794495,21.42583656311035,-0.011480903,0.013643441,0.34893703
1083,92513748,-0.8409926891326904,-0.8814520835876465,21.42523765563965,-0.0101165455,0.005085234,0.32443333
1084,92563749,-0.8415349125862122,-0.881028413772583,21.42807006835937,-0.008281665,0.002804075,0.3209076
1085,92613750,-0.8412390947341919,-0.8799688220024109,21.426631927490234,-0.01193891,0.010731199,0.34987736
1086,92663751,-0.8425309658050537,-0.8815762400627136,21.42433357238769,-0.014001752,0.02288152,0.31003094
1087,92713752,-0.8407523036003113,-0.879368007183075,21.428102493286133,-0.023647169,0.0067248973,0.3644867
1088,92763753,-0.8412852883338928,-0.8797317743301392,21.429981231689453,-0.013293399,0.021011053,0.32913113
1089,92813754,-0.8406544923782349,-0.8793390393257141,21.430400848388672,-0.023906995,0.006677991,0.341465
1090,92863755,-0.84175705909729,-0.8796576261520386,21.430084228515625,0.009539484,0.0027845732,0.32627487
1091,92913756,-0.8408015370368958,-0.8782501816749573,21.42842674255371,-0.0021134687,0.024504874,0.3346386
1092,92963757,-0.8411852717399597,-0.8795661926269531,21.428787231445312,-0.009535964,0.009185562,0.32308483
1093,93013758,-0.841454267501831,-0.8826316595077515,21.42840385437012,-0.0066857054,0.0051524485,0.3312683
1094,93063759,-0.843532145023346,-0.8848404288291931,21.426733016967773,-0.027774062,0.020705493,0.34075165
1095,93113760,-0.8439466953277588,-0.8851915597915649,21.427854537963867,-0.019256843,0.0015402103,0.32516766
1096,93163761,-0.8432565927505493,-0.8857908844947815,21.428607940673828,-2.8805232e-05,0.020308705,0.35585403
1097,93213762,-0.8438554406166077,-0.8855239748954773,21.43054580688477,-0.00838133,0.00096695893,0.30912876
1098,93263763,-0.8453578948974609,-0.8853520750999451,21.430435180664062,-0.0014767711,0.009660156,0.3313961
1099,93313764,-0.8444793224334717,-0.8854369521141052,21.428874969482425,-0.015129613,0.013446446,0.35619068
1100,93363765,-0.8454346060752869,-0.8859030604362488,21.42734909057617,-0.015820058,0.013303366,0.34469223
1101,93413766,-0.8451016545295715,-0.8866670727729797,21.42806625366211,-0.015319956,0.02947401,0.34049416
1102,93463767,-0.846717357635498,-0.8881202340126038,21.42710304260254,-0.018567165,0.011150478,0.32934666
1103,93513768,-0.8466724753379822,-0.8860897421836853,21.42781639099121,0.0042498475,0.0014384735,0.35528183
1104,93563769,-0.845119059085846,-0.8857801556587219,21.426204681396484,-0.0030661856,0.015593703,0.3253193
1105,93613770,-0.844821035861969,-0.8864930868148804,21.425621032714844,-0.011132154,0.014970748,0.34135818
1106,93663771,-0.8454970121383667,-0.8858194351196289,21.423587799072266,-0.021431854,0.012216342,0.3631487
1107,93713772,-0.8471739292144775,-0.885773241519928,21.424341201782227,-0.01628887,0.012665672,0.34414864
1108,93763773,-0.8479630947113037,-0.8854888677597046,21.426071166992188,-0.021734344,0.009306503,0.34916496
1109,93813774,-0.8472104072570801,-0.8867970108985901,21.42682456970215,-0.012082063,-0.0076502515,0.34935665
1110,93863775,-0.8481506109237671,-0.8856725096702576,21.42704200744629,-0.013432793,0.016516175,0.3498354
1111,93913776,-0.8482173085212708,-0.8862609267234802,21.426403045654297,-0.011455353,0.011420967,0.34817314
1112,93963777,-0.847848653793335,-0.8865257501602173,21.427059173583984,-0.019222282,0.002687499,0.36323357
1113,94013778,-0.8466154336929321,-0.8860622048377991,21.425540924072266,-0.013148199,0.013102896,0.35576248
1114,94063779,-0.8464096188545227,-0.8882870674133301,21.42548370361328,-0.006846914,-0.0013894264,0.33958817
1115,94113780,-0.847977340221405,-0.8866742253303528,21.42696952819824,-0.019421412,0.025563065,0.32878685
1116,94163781,-0.8495429158210754,-0.8856803774833679,21.42659568786621,-0.018367464,0.0058834897,0.34615135
