PacketCounter,SampleTimeFine,Euler_X,Euler_Y,Euler_Z,FreeAcc_X,FreeAcc_Y,FreeAcc_Z
1,35102327,-1.0583339929580688,-0.6825903654098511,40.88475799560547,-0.0194822,0.0056768414,0.30938816
2,35152328,-1.0368361473083496,-0.7252292633056641,40.81600189208984,-0.01010662,-0.011215524,0.30255508
3,35202329,-1.0436383485794067,-0.7630897164344788,40.805572509765625,-0.01615345,-0.007215103,0.31542492
4,35252330,-1.0540679693222046,-0.801381528377533,40.811336517333984,-0.01999871,-0.011551876,0.31704903
5,35302331,-1.0634822845458984,-0.840052604675293,40.84038162231445,-0.02481832,-0.009453382,0.33448792
6,35352332,-1.0714507102966309,-0.8820206522941589,40.86740493774414,-0.051216193,-0.025181182,0.3297758
7,35402333,-1.0813578367233276,-0.9235691428184508,40.88653564453125,-0.049019564,-0.014567359,0.3293028
8,35452334,-1.0892897844314575,-0.9604343175888062,40.91036605834961,-0.05334181,-0.023830386,0.30814648
9,35502335,-1.1002273559570312,-0.9995102286338806,40.92509841918945,-0.06153064,-0.026828263,0.32468987
10,35552336,-1.1122324466705322,-1.0399550199508667,40.95429611206055,-0.062849246,-0.03026511,0.32050037
11,35602337,-1.124217510223389,-1.0796053409576416,40.97641754150391,-0.08049843,-0.018567089,0.32253265
12,35652338,-1.1348259449005127,-1.1202305555343628,40.95088195800781,-0.06403233,-0.035499547,0.34077644
13,35702339,-1.146845817565918,-1.1588921546936035,40.964393615722656,-0.086905435,-0.037314605,0.33205986
14,35752340,-1.158544898033142,-1.2009899616241455,40.945838928222656,-0.089242876,-0.036214493,0.3182392
15,35802341,-1.1696324348449707,-1.2394416332244873,40.9511947631836,-0.08731962,-0.05119705,0.31635475
16,35852342,-1.1807230710983276,-1.2803364992141724,40.953399658203125,-0.112809904,-0.040483918,0.33045387
17,35902343,-1.1935654878616333,-1.3215752840042114,40.96223449707031,-0.13583116,-0.042051163,0.32994843
18,35952344,-1.208236813545227,-1.3602794408798218,40.95866775512695,-0.11502211,-0.052710462,0.33093262
19,36002345,-1.2227004766464231,-1.3968212604522705,40.96742630004883,-0.121873,-0.058428563,0.3227787
20,36052346,-1.2330272197723389,-1.435705304145813,40.97471618652344,-0.14469574,-0.061492402,0.31803703
21,36102347,-1.2453337907791138,-1.4732693433761597,40.964141845703125,-0.14404668,-0.04880252,0.335351
22,36152348,-1.255843162536621,-1.508838772773743,40.964012145996094,-0.14753877,-0.060733598,0.3517809
23,36202349,-1.2673659324645996,-1.5434826612472534,40.96637725830078,-0.13896483,-0.056311022,0.32191658
24,36252350,-1.2783315181732178,-1.5780391693115234,40.94940948486328,-0.16449434,-0.057021696,0.33546352
25,36302351,-1.2880429029464722,-1.610217809677124,40.95624542236328,-0.17724472,-0.0718296,0.3288555
26,36352352,-1.3000805377960205,-1.6423897743225098,40.95595169067383,-0.1665872,-0.07681354,0.32849312
27,36402353,-1.3114235401153564,-1.6738988161087036,40.9666862487793,-0.17854376,-0.08129275,0.34097195
28,36452354,-1.3222086429595947,-1.7070519924163818,40.954837799072266,-0.17287692,-0.06521188,0.3178463
29,36502355,-1.3300265073776243,-1.7374267578125,40.94498062133789,-0.18547425,-0.0864306,0.3222618
30,36552356,-1.3380143642425537,-1.7680704593658447,40.93010711669922,-0.18045971,-0.0721289,0.33205795
31,36602357,-1.3446346521377563,-1.797611951828003,40.92940902709961,-0.19610125,-0.07724057,0.3416109
32,36652358,-1.3527952432632446,-1.8225109577178955,40.92515563964844,-0.19828841,-0.072470956,0.33882427
33,36702359,-1.360417366027832,-1.850219488143921,40.927024841308594,-0.21536666,-0.076685846,0.30575848
34,36752360,-1.3671772480010986,-1.8769336938858032,40.92596435546875,-0.20414184,-0.08984127,0.32344913
35,36802361,-1.374320387840271,-1.90192186832428,40.93092346191406,-0.19969958,-0.08197706,0.32143688
36,36852362,-1.3842792510986328,-1.9253129959106443,40.91852951049805,-0.21436493,-0.091252,0.3255396
37,36902363,-1.3906567096710205,-1.9451935291290283,40.92257308959961,-0.22664645,-0.09373254,0.34025097
38,36952364,-1.3973097801208496,-1.9653722047805784,40.89938354492188,-0.22507277,-0.098337844,0.31978607
39,37002365,-1.4000381231307983,-1.9848030805587769,40.92327880859375,-0.22113626,-0.095124304,0.3051777
40,37052366,-0.9843305945396424,-0.6219072937965393,40.62492752075195,0.0034035994,0.0026864267,0.31300354
41,37102367,-0.9822392463684082,-0.6210561990737915,40.63588333129883,0.006079552,-0.006969347,0.310462
42,37152368,-0.9819477200508118,-0.6212908029556274,40.63124084472656,0.004856755,-0.008967053,0.31720257
43,37202369,-0.9827799201011658,-0.6216821670532227,40.63512420654297,0.011371033,-0.0051875506,0.31663418
44,37252370,-0.9842671751976012,-0.6181476712226868,40.639102935791016,0.0042199944,2.0241892e-05,0.3256216
45,37302371,-0.9833202362060548,-0.6190801858901978,40.64054870605469,0.012273725,-0.0045622275,0.33717728
46,37352372,-0.9848024845123292,-0.6183815002441406,40.645729064941406,0.0012165041,-0.002518069,0.3111
47,37402373,-0.9827612638473512,-0.6163157820701599,40.6441650390625,0.0035123106,0.0033402336,0.32644176
48,37452374,-0.9842141270637512,-0.6161454916000366,40.63969421386719,-0.002032536,-0.0020585472,0.31714725
49,37502375,-0.9839892983436584,-0.6161249876022339,40.64436340332031,-0.0010671486,-0.009952138,0.3363161
50,37552376,-0.9841831922531128,-0.6167209148406982,40.64780044555664,-0.009736196,-0.005138954,0.31766033
51,37602377,-0.9832555651664734,-0.6160110831260681,40.649147033691406,0.0019665926,-0.0056683095,0.32846165
52,37652378,-0.9845941662788392,-0.615992546081543,40.6527099609375,0.011589147,0.0059206416,0.33160877
53,37702379,-0.9852938652038574,-0.6164436936378479,40.65145111083984,-0.00496504,0.013486744,0.32078362
54,37752380,-0.9854650497436525,-0.6152985692024231,40.6556282043457,0.013828781,0.0035826229,0.3501215
55,37802381,-0.9844990968704224,-0.6163289546966553,40.6572380065918,0.014507535,0.004139488,0.3141241
56,37852382,-0.9853797554969788,-0.6153608560562134,40.65707015991211,-0.00046262293,0.0066920584,0.32933998
57,37902383,-0.9854665398597716,-0.6161034107208252,40.66051864624024,0.001875134,-0.0026542442,0.32101345
58,37952384,-0.986184537410736,-0.617874801158905,40.66302108764648,-0.013293035,0.00635432,0.3155918
59,38002385,-0.9865965843200684,-0.6174215078353882,40.66437149047852,0.0042661987,1.3934636e-05,0.3242092
60,38052386,-0.9883231520652772,-0.6216064691543579,40.6661376953125,-0.0036231868,0.00023257222,0.33608913
61,38102387,-0.9874751567840576,-0.6222541332244873,40.66642379760742,-0.0027208233,-0.0034820524,0.33337688
62,38152388,-0.9875583052635192,-0.6238844990730286,40.665164947509766,-0.006103028,0.01342402,0.34128094
63,38202389,-0.986890196800232,-0.6242383718490601,40.66902542114258,0.0014257124,-0.0054246592,0.3367586
64,38252390,-0.986705482006073,-0.624534547328949,40.67005920410156,0.0063635674,-0.013607957,0.335145
65,38302391,-0.986459493637085,-0.6252571940422058,40.67179489135742,-0.010135006,-0.0048238495,0.31886196
66,38352392,-0.9873356819152832,-0.6279505491256714,40.66944885253906,0.0062887324,-0.008095765,0.30956745
67,38402393,-0.9872034192085266,-0.6278672814369202,40.66838073730469,0.0013397855,-0.0060909935,0.34323978
68,38452394,-0.9861627817153932,-0.6276673674583435,40.668338775634766,-0.0010221737,0.006351016,0.32778072
69,38502395,-0.9854958653450012,-0.6280580759048462,40.67100143432617,0.0010928527,0.0007681861,0.3330927
70,38552396,-0.9834237694740297,-0.6289820671081543,40.67400741577149,0.0068739313,0.011278062,0.32716084
71,38602397,-0.9848207831382751,-0.6279826164245605,40.6750602722168,0.014042571,-0.008858251,0.32137203
72,38652398,-0.982976734638214,-0.6298729181289673,40.67223358154297,-0.0048679304,0.013817857,0.33502483
73,38702399,-0.9829431176185608,-0.6291530728340149,40.6699104309082,0.003944501,0.004783666,0.3159399
74,38752400,-0.9839305877685548,-0.6302490234375,40.670291900634766,0.013146327,-0.0020001614,0.33794212
75,38802401,-0.9828563332557678,-0.6329905390739441,40.67030715942383,0.0007285754,-0.012280654,0.3221035
76,38852402,-0.9821322560310364,-0.6345052123069763,40.66771697998047,0.0002717359,0.0060584443,0.32841492
77,38902403,-0.984044909477234,-0.6339918375015259,40.66703414916992,0.0046094586,-0.007159808,0.32279587
78,38952404,-0.984164834022522,-0.6341104507446289,40.667259216308594,0.0038895793,-0.0051281173,0.32263947
79,39002405,-0.9833118319511414,-0.635426938533783,40.66794967651367,-0.012836887,-0.005862001,0.35279465
80,39052406,-0.9816316962242126,-0.6237919330596924,40.665645599365234,-0.009546755,-0.003589398,0.3173313
81,39102407,-0.9825515151023864,-0.6236787438392639,40.66923522949219,-0.0028680903,-0.0036744133,0.3226061
82,39152408,-0.9815691709518432,-0.6257889270782471,40.66990661621094,-0.0033203617,-0.018482646,0.3293209
83,39202409,-0.9838031530380248,-0.6252241134643555,40.67074966430664,0.004657842,-0.005338045,0.33300018
84,39252410,-0.9835532307624816,-0.6236811876296997,40.67148971557617,0.0049427235,0.0024952637,0.3237896
85,39302411,-0.9843185544013976,-0.6210977435112,40.67089080810547,0.004523944,-0.006332744,0.33218193
86,39352412,-0.9841888546943665,-0.6224371790885925,40.67006301879883,0.021475013,0.0012443106,0.3315792
87,39402413,-0.9860527515411376,-0.6248205900192261,40.66846084594727,0.0015411708,0.01898475,0.32360458
88,39452414,-0.9887438416481018,-0.6256893277168274,40.66969299316406,-0.00040606016,0.003584617,0.31947327
89,39502415,-0.9900603890419006,-0.6251984238624573,40.66778564453125,0.014934256,0.004400984,0.32708454
90,39552416,-0.9905371069908142,-0.6257773637771606,40.67036437988281,0.0023516845,-0.012199085,0.3108921
91,39602417,-0.9904587864875792,-0.6247332096099854,40.67389678955078,-0.010625359,-0.0024869659,0.3378353
92,39652418,-0.9906333684921264,-0.6252316832542419,40.67645263671875,-0.008882433,-0.005600096,0.31027603
93,39702419,-0.9887394905090332,-0.6246945261955261,40.67582321166992,-0.0026696597,-0.002581435,0.32479
94,39752420,-0.988114058971405,-0.6246991157531738,40.67569351196289,-0.012677145,0.008086322,0.32495975
95,39802421,-0.9906418919563292,-0.6220051646232605,40.67613220214844,-0.0034609933,0.010147222,0.3475542
96,39852422,-0.9891043305397034,-0.6212013959884644,40.679500579833984,-0.008384705,0.0054295417,0.33484173
97,39902423,-0.9903427362442015,-0.6203455924987793,40.67565155029297,0.0078716865,0.0047614337,0.3239956
98,39952424,-0.9916142225265504,-0.6187067031860352,40.67302322387695,0.012497629,-0.00901902,0.3301525
99,40002425,-0.9908397793769836,-0.617274284362793,40.67535400390625,0.0044039316,0.0042999145,0.33949566
100,40052426,-0.9891934990882874,-0.616722047328949,40.67330932617188,0.0054534716,-0.006708427,0.3241377
101,40102427,-0.9902029633522034,-0.6165010333061218,40.67433547973633,0.0073230667,0.012335966,0.33684635
102,40152428,-0.988741934299469,-0.6168915629386902,40.67756271362305,-0.0044208905,0.006392715,0.33612347
103,40202429,-0.9899120330810548,-0.616265058517456,40.67498016357422,0.008178486,-0.0025032752,0.32856274
104,40252430,-0.9896501302719116,-0.6153499484062195,40.6746826171875,0.0023897167,0.0040930007,0.3403473
105,40302431,-0.9898728728294371,-0.6164348721504211,40.6758041381836,0.023368636,-0.0072065815,0.31088638
106,40352432,-0.991389274597168,-0.6170395016670227,40.67626190185547,-0.0034449564,0.008435784,0.31192112
107,40402433,-0.9902400970458984,-0.6163216233253479,40.67697525024414,0.005409789,0.005570093,0.31557655
108,40452434,-0.9912055730819702,-0.6150770783424377,40.67585372924805,0.011209287,0.0073218793,0.31188107
109,40502435,-0.9918286204338074,-0.6156824827194214,40.67648315429688,0.0051932326,0.0053701503,0.34612656
110,40552436,-0.9925352334976196,-0.615809440612793,40.676876068115234,-0.0057291747,0.0025489347,0.31999683
111,40602437,-0.9931820034980774,-0.6156189441680908,40.67770385742188,0.0027491674,-0.009700099,0.3243246
112,40652438,-0.994088053703308,-0.6158291101455688,40.67688751220703,-0.0017809373,0.009046202,0.32763577
113,40702439,-0.993598699569702,-0.6176899075508118,40.67428970336914,0.00089028006,0.00692177,0.33576012
114,40752440,-0.9926612973213196,-0.6166911125183105,40.6738395690918,-0.0025293005,0.0025895862,0.31475258
115,40802441,-0.9936516880989076,-0.6179062724113464,40.67850875854492,-0.0008401433,-0.001325383,0.32819557
116,40852442,-0.9944301843643188,-0.6183344125747681,40.67924499511719,-0.0062370244,0.0017523939,0.30440807
117,40902443,-0.99388986825943,-0.6185879111289978,40.68003463745117,-0.0043636435,-0.004844245,0.35832882
118,40952444,-0.9943139553070068,-0.6205711364746094,40.68185806274414,-0.003623145,0.010275819,0.32765675
119,41002445,-0.9941557049751282,-0.620533287525177,40.68033218383789,0.008073609,-0.006124136,0.33294868
120,41052446,-0.982123076915741,-0.623932957649231,40.67790985107422,0.012406206,0.006489503,0.34598255
121,41102447,-0.9810606241226196,-0.6239659190177917,40.67642211914063,0.005357745,0.003422385,0.33077717
122,41152448,-0.9809314012527466,-0.6270878911018372,40.67851638793945,0.005581908,0.00072034384,0.31293106
123,41202449,-0.9811573028564452,-0.625974714756012,40.67830657958984,0.0070755333,-0.00086636416,0.32519913
124,41252450,-0.9807711839675904,-0.6261305809020996,40.67756652832031,0.014918407,-0.016452128,0.29900742
125,41302451,-0.9813843369483948,-0.625767707824707,40.67757415771485,-0.006178771,8.0258615e-05,0.3385458
126,41352452,-0.9802919030189514,-0.6262862086296082,40.677024841308594,0.010606919,0.00675131,0.3444004
127,41402453,-0.9812586903572084,-0.6279294490814209,40.67770385742188,7.6762735e-06,0.00032492497,0.33266068
128,41452454,-0.9817827939987184,-0.6273176074028015,40.67829132080078,-0.010662043,-0.007654879,0.34063244
129,41502455,-0.982692301273346,-0.6285156607627869,40.67706298828125,1.4612159e-05,-0.013233587,0.30619144
130,41552456,-0.9832404255867004,-0.6300645470619202,40.67896270751953,-0.013638753,-0.0037944154,0.33277512
131,41602457,-0.9832355380058287,-0.6275080442428589,40.68200302124024,0.012856968,0.009239411,0.3094244
132,41652458,-0.9814082384109496,-0.6283506751060486,40.68049621582031,0.008727685,0.0051646964,0.33768559
133,41702459,-0.9819415211677552,-0.6277233958244324,40.682159423828125,0.00581462,-0.0060036452,0.33876324
134,41752460,-0.983485758304596,-0.6287263631820679,40.683631896972656,0.004944812,0.0028050106,0.31632614
135,41802461,-0.983108401298523,-0.6288120150566101,40.68228530883789,-0.010166836,-0.016049938,0.3019457
136,41852462,-0.9837470054626464,-0.6281946897506714,40.681888580322266,0.004657486,-0.0018772713,0.33654118
137,41902463,-0.9834294319152832,-0.628167450428009,40.68354797363281,-0.002586918,0.0025418068,0.3093338
138,41952464,-0.98201322555542,-0.6296476125717163,40.6836051940918,-0.0018897811,0.0035210135,0.3378954
139,42002465,-0.9811754822731018,-0.6324206590652466,40.68313980102539,-0.0034300927,-0.0110141495,0.34696007
140,42052466,-0.9816225171089172,-0.6315627098083496,40.68153381347656,0.01474538,0.007623601,0.3322029
141,42102467,-0.983681321144104,-0.6326090097427368,40.67930221557617,0.0014425527,-0.004289259,0.34001446
142,42152468,-0.9822463393211364,-0.6334930062294006,40.67959213256836,-0.0014029838,0.0012383142,0.32757378
143,42202469,-0.9807044863700868,-0.6346830129623413,40.67780685424805,0.0057385345,0.011793601,0.33327198
144,42252470,-0.9802716374397278,-0.6329389810562134,40.677734375,-0.004157362,-0.0014035007,0.3295021
145,42302471,-0.9799308776855468,-0.630669891834259,40.67788314819336,0.00981495,-0.014181761,0.31832695
146,42352472,-0.9800106883049012,-0.6325907707214355,40.67686462402344,0.009127215,0.007428551,0.34049892
147,42402473,-0.9778517484664916,-0.6319506764411926,40.6758041381836,0.012441834,-0.015446376,0.32938194
148,42452474,-0.9801803827285768,-0.6327369213104248,40.675540924072266,-0.0058868006,-0.012781833,0.31779766
149,42502475,-0.9774972796440125,-0.6314498782157898,40.67530059814453,-0.0042686085,-0.008514164,0.33493233
150,42552476,-0.977940320968628,-0.630683422088623,40.677547454833984,0.0049235993,0.0031438493,0.3205061
151,42602477,-0.979973554611206,-0.6306507587432861,40.678016662597656,-0.004011862,0.0075353095,0.31343937
152,42652478,-0.9814246892929076,-0.6316222548484802,40.680206298828125,0.001515313,-3.9460512e-05,0.33130836
153,42702479,-0.982290267944336,-0.6292576193809509,40.680694580078125,0.009758219,0.012922687,0.3065462
154,42752480,-0.982283651828766,-0.6292687654495239,40.68159866333008,-0.0027353654,0.012387616,0.33222103
155,42802481,-0.9814208149909972,-0.6300067901611328,40.681583404541016,0.0030997894,-0.0011976593,0.34283924
156,42852482,-0.981312930583954,-0.6300933957099915,40.6833610534668,-0.0009831217,0.0018442369,0.320652
157,42902483,-0.9811236262321472,-0.6287661790847778,40.68359375,0.0016600377,0.011702691,0.335474
158,42952484,-0.98095041513443,-0.6293677687644958,40.68694686889648,0.0048298496,0.007883386,0.32469463
159,43002485,-0.9811493158340454,-0.6326776146888733,40.689151763916016,-0.0047689076,0.0069098924,0.34395027
160,43052486,-0.983848750591278,-0.6262951493263245,40.68577575683594,0.003559842,-0.007515305,0.33440685
161,43102487,-0.9859325885772704,-0.6249789595603943,40.6866455078125,0.024649624,-0.013717936,0.32067585
162,43152488,-0.9863907694816588,-0.6231585741043091,40.6866569519043,0.003993066,0.009598526,0.3295126
163,43202489,-0.988180696964264,-0.623319149017334,40.6858024597168,0.0042705503,0.0024132694,0.33225632
164,43252490,-0.9910233020782472,-0.6250454187393188,40.68646240234375,0.006597781,0.008914689,0.3205576
165,43302491,-0.9928122162818908,-0.6238758563995361,40.68815612792969,0.006473766,0.0010396391,0.32461834
166,43352492,-0.99188232421875,-0.6242620348930359,40.68727493286133,-0.009292803,0.0048063667,0.32998276
167,43402493,-0.9918529987335204,-0.6234545111656189,40.68736267089844,0.017679568,-0.0038790742,0.3469591
168,43452494,-0.992754340171814,-0.6243242621421814,40.68681716918945,-0.005504244,-0.013222161,0.3233261
169,43502495,-0.9926237463951112,-0.6260015964508057,40.68536758422852,0.0066723856,0.01529643,0.32270813
170,43552496,-0.9921983480453492,-0.6264922022819519,40.687042236328125,-0.004665456,0.00021325231,0.349761
171,43602497,-0.9920330047607422,-0.6256871819496155,40.68756866455078,0.0071298815,-0.003674532,0.3313732
172,43652498,-0.9918274879455566,-0.6264321208000183,40.68760681152344,-0.0023274962,0.00427822,0.3178053
173,43702499,-0.9924397468566896,-0.6290339231491089,40.68992233276367,0.01276567,-0.00019135502,0.33129883
174,43752500,-0.9924746155738832,-0.6281471848487854,40.68968200683594,0.035722952,0.009536879,0.32250595
175,43802501,-0.9918991923332214,-0.6298865079879761,40.68880462646485,0.011053819,0.012814794,0.34096336
176,43852502,-0.992854654788971,-0.6320767402648926,40.691349029541016,0.0030888582,-0.0013715943,0.3248062
177,43902503,-0.9929751753807068,-0.6334808468818665,40.68973922729492,-0.001601617,0.0064960825,0.31306553
178,43952504,-0.9932982921600342,-0.6351361870765686,40.6889877319336,-0.0035472205,0.0022753514,0.3298235
179,44002505,-0.9936690330505372,-0.6343666315078735,40.68906784057617,0.0041547567,0.0028650414,0.32000637
180,44052506,-0.9950324296951294,-0.6345512866973877,40.69060516357422,0.014620297,0.002089965,0.33487606
181,44102507,-0.9960494041442872,-0.6353461146354675,40.69120407104492,-0.005641027,-0.0032721388,0.3092661
182,44152508,-0.9938833713531494,-0.6347432732582092,40.68910598754883,0.001905413,-0.002194087,0.337286
183,44202509,-0.9944928288459778,-0.6377468109130859,40.69115829467773,-0.0064062933,-0.0017231173,0.34419346
184,44252510,-0.9947051405906676,-0.6362470388412476,40.69186019897461,0.0020053932,0.011683263,0.33971214
185,44302511,-0.994318664073944,-0.6359420418739319,40.69108963012695,0.0012855139,0.009999292,0.3108778
186,44352512,-0.994844377040863,-0.6376664638519287,40.69044494628906,-0.007661186,-0.0025531605,0.30483627
187,44402513,-0.9948339462280272,-0.6367920637130737,40.68907165527344,0.009046156,-0.0011598925,0.30578995
188,44452514,-0.9941916465759276,-0.6361237168312073,40.68780899047852,0.0037422285,-0.0053148796,0.3357687
189,44502515,-0.9948402047157288,-0.6356679797172546,40.69047164916992,-0.003907013,-0.004996185,0.32325172
190,44552516,-0.9930073022842408,-0.6326493620872498,40.69026947021485,0.0038142696,0.0029239685,0.32404137
191,44602517,-0.9919918179512024,-0.6317750811576843,40.69274139404297,-0.003605278,-0.0028357578,0.33930874
192,44652518,-0.9922342896461488,-0.6319826245307922,40.69388961791992,-0.0026732709,0.012519785,0.32256508
193,44702519,-0.9931533932685852,-0.6312033534049988,40.69281768798828,0.004424404,-0.013722976,0.31520557
194,44752520,-0.9932696223258972,-0.6303616762161255,40.692718505859375,0.0064090383,-0.002028457,0.33223343
195,44802521,-0.9923341870307922,-0.6329563856124878,40.69098281860352,0.0021071963,0.005506308,0.3270607
196,44852522,-0.9918116927146912,-0.6338955163955688,40.69215393066406,-0.0036279156,-0.007666138,0.327713
197,44902523,-0.9924129247665404,-0.635635256767273,40.69376754760742,-0.00039653294,0.006263133,0.32215786
198,44952524,-0.9914519190788268,-0.6367574334144592,40.695404052734375,-0.0069660814,0.0008308326,0.32292652
199,45002525,-0.990293025970459,-0.6395211219787598,40.69634246826172,0.003915807,0.00566436,0.33730412
200,45052526,-0.985526204109192,-0.6327649354934692,40.69176864624024,0.0063769226,0.004954123,0.32703304
201,45102527,-0.9852567315101624,-0.6305919289588928,40.69379806518555,-0.007171127,-0.001298261,0.32501888
202,45152528,-0.9833487272262572,-0.6321637630462646,40.69548416137695,0.005968676,-0.0024220736,0.311306
203,45202529,-0.9841291904449464,-0.6295163035392761,40.69536972045898,0.009082233,0.0074481573,0.329978
204,45252530,-0.98641836643219,-0.6291276216506958,40.695308685302734,0.009436654,0.0033341637,0.3380556
205,45302531,-0.9876213669776917,-0.6313928961753845,40.6970329284668,0.009328034,0.00463854,0.30741787
206,45352532,-0.9880982041358948,-0.6317701935768127,40.696563720703125,0.014150654,0.006091336,0.35355568
207,45402533,-0.9882007241249084,-0.6335791349411011,40.69513320922852,0.010258127,0.0020616555,0.29965496
208,45452534,-0.9872860312461852,-0.634615957736969,40.69615936279297,0.0052239657,0.008276003,0.3132372
209,45502535,-0.9883586764335632,-0.6336508393287659,40.69465637207031,0.0021333264,0.0032478739,0.32126427
210,45552536,-0.9881461262702942,-0.6344443559646606,40.692962646484375,-0.004448292,-0.0056816433,0.3273611
211,45602537,-0.986271321773529,-0.6364299058914185,40.69260025024414,0.0016114586,0.0022765005,0.30667305
212,45652538,-0.9871319532394408,-0.6379221677780151,40.693058013916016,0.0051961383,0.0122159785,0.32117367
213,45702539,-0.9867047071456908,-0.6395276188850403,40.692630767822266,0.012236447,-0.0045995056,0.32164478
214,45752540,-0.9859368801116944,-0.6395108103752136,40.691776275634766,0.0060845534,0.006839853,0.31949806
215,45802541,-0.9853806495666504,-0.640239953994751,40.6915168762207,0.0008415612,-0.012460289,0.34674072
216,45852542,-0.9862432479858398,-0.6393234729766846,40.69081115722656,0.00096419995,0.0016051863,0.33468246
217,45902543,-0.9866325855255128,-0.6368438005447388,40.693397521972656,0.006757418,-0.0061534513,0.331295
218,45952544,-0.9872413277626038,-0.6373081803321838,40.69435119628906,0.007161816,-0.003636245,0.31674576
219,46002545,-0.988284945487976,-0.6394301652908325,40.69254684448242,0.0039003291,-0.0052829874,0.3459282
220,46052546,-0.9888880252838136,-0.6399374604225159,40.69411849975586,-0.0028176252,0.0016003773,0.3478155
221,46102547,-0.9889782071113586,-0.6407805681228638,40.69414520263672,0.010596386,0.010529737,0.34233856
222,46152548,-0.9903969764709472,-0.640388548374176,40.69516372680664,0.007935814,0.0011527471,0.3036499
223,46202549,-0.9917206168174744,-0.6386294960975647,40.69516372680664,-0.012046133,-0.0049517443,0.31113243
224,46252550,-0.9937078952789308,-0.6389592885971069,40.695945739746094,0.009637292,0.0006490467,0.32158375
225,46302551,-0.9964931011199952,-0.6398142576217651,40.69601440429688,0.009243511,-0.0009214252,0.3368683
226,46352552,-0.9966018795967102,-0.6377030611038208,40.69336700439453,-0.005491497,0.0016657233,0.31258965
227,46402553,-0.9969473481178284,-0.6401652693748474,40.69375228881836,0.0071973754,0.0011202085,0.34069824
228,46452554,-0.9973340034484864,-0.6419582366943359,40.69296646118164,-0.0052786428,0.005144821,0.34341145
229,46502555,-0.9961783289909364,-0.6444722414016724,40.69258117675781,0.0047586397,-0.004324878,0.33899784
230,46552556,-0.9973272681236268,-0.6446661949157715,40.69479370117188,0.009105708,0.0136738205,0.30360317
231,46602557,-0.997456192970276,-0.6447009444236755,40.69457626342773,0.0055564274,0.00858646,0.35207462
232,46652558,-0.9979212880134584,-0.64411860704422,40.69349670410156,0.0083214715,0.00082078495,0.3047285
233,46702559,-0.9981293678283693,-0.645959198474884,40.69401168823242,0.0010970645,-0.002429041,0.3145151
234,46752560,-0.9990516901016236,-0.6445307731628418,40.69347381591797,0.0035997739,0.0021452005,0.32387066
235,46802561,-0.999005913734436,-0.6442194581031799,40.693843841552734,0.008859572,0.016478542,0.33046436
236,46852562,-0.9982445240020752,-0.6420435309410095,40.694435119628906,-0.0005094349,-0.0057048188,0.3436594
237,46902563,-0.9984362125396729,-0.6428861021995544,40.69364547729492,-0.003368424,-0.006675466,0.3234825
238,46952564,-0.995369553565979,-0.6436316967010498,40.69321060180664,-0.010999108,-0.009871407,0.35535145
239,47002565,-0.997747838497162,-0.6415804624557495,40.693267822265625,0.010062812,-0.0005431016,0.31535816
240,47052566,-0.989359974861145,-0.637220561504364,40.69423294067383,0.007636523,-0.006163768,0.32560444
241,47102567,-0.9884228110313416,-0.6366353034973145,40.69511413574219,-0.002984324,0.0109841395,0.3272848
242,47152568,-0.9892425537109376,-0.6388813853263855,40.69332504272461,-0.001286317,-0.008355186,0.32860374
243,47202569,-0.9902266263961792,-0.639388382434845,40.69339370727539,-0.0034867462,-0.0055587534,0.33373165
244,47252570,-0.9911003708839417,-0.6406317949295044,40.69347381591797,0.0062309615,0.009849091,0.32218075
245,47302571,-0.992541253566742,-0.6427997946739197,40.6939697265625,-0.0067137983,-0.0024370665,0.3319683
246,47352572,-0.9924658536911012,-0.6435825228691101,40.6948127746582,-0.015813256,-0.0014416865,0.29947758
247,47402573,-0.9928072690963744,-0.6443494558334351,40.695709228515625,-0.0029451882,-0.00076752953,0.31394196
248,47452574,-0.9924006462097168,-0.6461899280548096,40.69628143310547,0.009832614,0.004570889,0.32962513
249,47502575,-0.9920070767402648,-0.6485720276832581,40.69464492797852,-0.0075948793,0.011102304,0.31793308
250,47552576,-0.9915465712547302,-0.6478791236877441,40.69712448120117,0.007159092,0.002010045,0.31849766
251,47602577,-0.9897227883338928,-0.647834837436676,40.6939582824707,0.016723687,-0.0031529996,0.35017395
252,47652578,-0.9873474836349488,-0.6487941145896912,40.6942024230957,-0.008106284,-0.0017871573,0.34330082
253,47702579,-0.9872624278068542,-0.6477037668228149,40.69416427612305,0.017060932,0.00641237,0.33621216
254,47752580,-0.9896698594093324,-0.6486015915870667,40.692359924316406,0.008543112,-0.00045172317,0.34063244
255,47802581,-0.9893463253974916,-0.6503099203109741,40.69187545776367,0.016505748,-0.0016987858,0.34198284
256,47852582,-0.9905087351799012,-0.6512938737869263,40.69353103637695,-0.006555635,0.0047860094,0.33016872
257,47902583,-0.9906001687049866,-0.6516580581665039,40.6934700012207,0.007920454,-0.0082779145,0.33100224
258,47952584,-0.9901679754257202,-0.651874840259552,40.69405364990234,0.0013346378,-0.009210826,0.32976246
259,48002585,-0.9902353882789612,-0.6534753441810608,40.69140625,-0.008082137,-0.0046807313,0.33119774
260,48052586,-0.9886309504508972,-0.6521143317222595,40.69096755981445,0.0067968196,0.006616235,0.34042263
261,48102587,-0.9900140762329102,-0.6515231728553772,40.69165802001953,-0.00020745494,0.01350767,0.3265152
262,48152588,-0.9887166619300842,-0.653042197227478,40.691009521484375,-0.010414572,-0.00061809015,0.33627415
263,48202589,-0.9883315563201904,-0.6524112820625305,40.69080352783203,0.00076499407,-0.0018795275,0.31871128
264,48252590,-0.9870596528053284,-0.6528326869010925,40.6900520324707,0.0039432016,0.0053065713,0.32655334
265,48302591,-0.986195743083954,-0.6518365144729614,40.690032958984375,-0.0018969266,0.00355526,0.32628727
266,48352592,-0.9858344197273254,-0.6528568267822266,40.6888427734375,0.0020075794,-0.0032063317,0.3416748
267,48402593,-0.9853131771087646,-0.6533323526382446,40.68864822387695,-0.010771139,0.011156851,0.33169365
268,48452594,-0.9842098951339722,-0.6529423594474792,40.68851089477539,0.0032742901,0.004758591,0.33029747
269,48502595,-0.984009563922882,-0.6515568494796753,40.68678283691406,0.009625139,0.014340389,0.32797718
270,48552596,-0.9836235642433168,-0.6514062285423279,40.6878547668457,-0.014361078,0.0066088554,0.33795357
271,48602597,-0.9835399985313416,-0.652592122554779,40.68964767456055,-0.0068915193,-0.008151559,0.32383633
272,48652598,-0.983497440814972,-0.6531105041503906,40.69029235839844,-0.0032561438,-0.0047292407,0.34669113
273,48702599,-0.9850394129753112,-0.6541187167167664,40.69111633300781,-0.0063943285,0.004369951,0.3300562
274,48752600,-0.9840388894081116,-0.6537455320358276,40.68945693969727,0.0020615647,0.0053126863,0.32636738
275,48802601,-0.9830753207206726,-0.6521391272544861,40.69087219238281,-0.013270991,0.008754371,0.33982182
276,48852602,-0.9841784238815308,-0.6506919860839844,40.68929672241211,-0.0068509514,0.0029036428,0.32227516
277,48902603,-0.9860436916351318,-0.6505162119865417,40.68981552124024,-0.0029066324,-0.00088508334,0.3338499
278,48952604,-0.9895355105400084,-0.6521097421646118,40.69049453735352,-0.0024432202,0.006363194,0.32476997
279,49002605,-0.9886376857757568,-0.6536910533905029,40.689266204833984,-0.011726195,-0.004522879,0.35015774
280,49052606,-0.9897407293319702,-0.6440942287445068,40.69631576538086,0.0036987972,0.0060826605,0.34251213
281,49102607,-0.9914307594299316,-0.6432175040245056,40.69546508789063,-0.0045528123,-0.010273428,0.31252766
282,49152608,-0.9911082983016968,-0.6436294317245483,40.69493865966797,-0.0049643973,0.021993207,0.34518433
283,49202609,-0.9908149838447572,-0.6410942077636719,40.69310760498047,7.87045e-05,-0.0040252903,0.32635212
284,49252610,-0.9916238188743592,-0.6406566500663757,40.69400024414063,-0.0122262705,0.00039320817,0.34532642
285,49302611,-0.9910028576850892,-0.6420137286186218,40.69438171386719,-0.0086899465,0.006137718,0.3414364
286,49352612,-0.9908550977706908,-0.6419963836669922,40.6948356628418,-0.008290822,0.02039455,0.33123875
287,49402613,-0.990200936794281,-0.6405602693557739,40.6932373046875,-0.0056172227,-0.009720788,0.33394527
288,49452614,-0.9901874661445618,-0.6409507989883423,40.694034576416016,-0.0022846167,0.015993148,0.34627628
289,49502615,-0.9910813570022584,-0.6431849598884583,40.69355773925781,0.0059018177,0.00026314807,0.32615566
290,49552616,-0.9909855127334596,-0.644233226776123,40.69240188598633,0.0015117578,-0.010364925,0.31978226
291,49602617,-0.9923675060272216,-0.6460631489753723,40.69363784790039,-0.003002324,0.0043217908,0.33738708
292,49652618,-0.9924177527427672,-0.6472505927085876,40.694580078125,0.004265577,-0.0043112994,0.3310318
293,49702619,-0.99213707447052,-0.645704448223114,40.69447708129883,-0.017139344,0.00032912282,0.32827473
294,49752620,-0.9909903407096864,-0.6460490822792053,40.69313430786133,-0.005366965,-0.006603432,0.33755398
295,49802621,-0.9901154637336732,-0.6470218300819397,40.6929817199707,-0.0017729886,-0.009098828,0.3316164
296,49852622,-0.9910774230957032,-0.6475130915641785,40.69371032714844,-0.0009919296,-0.010149489,0.35551357
297,49902623,-0.990386724472046,-0.6484764814376831,40.696022033691406,0.0003122895,0.0033559352,0.32091522
298,49952624,-0.989465057849884,-0.6483864784240723,40.69675827026367,0.008091274,0.0016274328,0.3208847
299,50002625,-0.9904647469520568,-0.6475481390953064,40.69869995117188,-0.0035101662,0.0071198726,0.3382702
300,50052626,-0.9906221628189088,-0.6492422223091125,40.70063400268555,-0.010114066,-0.0072636786,0.32674503
301,50102627,-0.9906771183013916,-0.6524412631988525,40.69989013671875,-0.004673209,-0.002464,0.32477188
302,50152628,-0.9921729564666748,-0.6525254845619202,40.69898223876953,8.994301e-05,0.012096466,0.32611847
303,50202629,-0.9929730296134948,-0.6524380445480347,40.69829177856445,1.7846112e-05,0.012220732,0.31194115
304,50252630,-0.9933143258094788,-0.6513173580169678,40.69819259643555,-0.0011636084,0.019730397,0.3280897
305,50302631,-0.9938401579856871,-0.6506873965263367,40.69662094116211,0.00557822,0.01540826,0.34831333
306,50352632,-0.9942584037780762,-0.6495932936668396,40.69757080078125,-0.009736329,-0.0046269977,0.3291397
307,50402633,-0.9949405193328856,-0.6465184688568115,40.69571685791016,-0.007355225,0.0012109722,0.31469727
308,50452634,-0.9951325058937072,-0.6435469388961792,40.69668197631836,0.005500577,-0.0031152957,0.3228407
309,50502635,-0.9947338104248048,-0.6464040875434875,40.69643783569336,-0.003526378,0.006215899,0.35753345
310,50552636,-0.9945839643478394,-0.6455949544906616,40.69956207275391,0.0061524315,0.00077106385,0.34038067
311,50602637,-0.995076596736908,-0.6440693140029907,40.70052719116211,-0.008229768,6.0977127e-06,0.32902718
312,50652638,-0.995795488357544,-0.6428525447845459,40.70029830932617,0.0006566811,0.008615502,0.31542206
313,50702639,-0.995093047618866,-0.6435604691505432,40.70277786254883,0.0016602402,-0.007829491,0.32776356
314,50752640,-0.996673047542572,-0.6443266868591309,40.70468521118164,-0.004478117,0.005014108,0.33260632
315,50802641,-0.996119260787964,-0.6467546224594116,40.70458984375,0.0008530581,-0.012107752,0.33516598
316,50852642,-0.9958732724189758,-0.6471025347709656,40.704872131347656,0.0012288044,-0.0029454746,0.3344078
317,50902643,-0.9966244101524352,-0.6459234952926636,40.70820999145508,0.0023661081,0.012996384,0.33996582
318,50952644,-0.9967687726020812,-0.6475195288658142,40.70760726928711,0.0028910562,-0.001633265,0.32332993
319,51002645,-0.9973993301391602,-0.6475085616111755,40.70606994628906,0.011678014,0.007825507,0.35774136
320,51052646,-0.9893814921379088,-0.6444208025932312,40.698726654052734,-0.015929699,0.000113303606,0.33306503
321,51102647,-0.9891852736473083,-0.645682156085968,40.699798583984375,-0.0068375967,0.009916655,0.30716515
322,51152648,-0.987606942653656,-0.6461789011955261,40.70011901855469,0.0010786107,0.0001726882,0.35017586
323,51202649,-0.9888757467269896,-0.6479045748710632,40.6981086730957,-0.015935663,-0.0071091545,0.33063316
324,51252650,-0.9876580834388732,-0.6471822261810303,40.69860076904297,-0.002213379,0.010595674,0.32570744
325,51302651,-0.9885247349739076,-0.6455936431884766,40.69936752319336,-0.01227251,2.3671419e-05,0.34923744
326,51352652,-0.987436294555664,-0.6468476057052612,40.6994514465332,0.00019278692,-0.0056776903,0.34299278
327,51402653,-0.9874854683876038,-0.6459575891494751,40.70287322998047,-0.0010699845,0.0077997046,0.32859135
328,51452654,-0.9856263995170592,-0.6442335247993469,40.70216369628906,-0.0077454224,0.008147543,0.32783985
329,51502655,-0.9850571751594543,-0.6460093855857849,40.70458984375,0.0069472506,-0.0036287224,0.33022118
330,51552656,-0.9869831800460817,-0.6459709405899048,40.703311920166016,0.00094501977,-0.0043098642,0.32795048
331,51602657,-0.9872335195541382,-0.6475695967674255,40.70390319824219,-0.002521729,-0.00082259753,0.3201475
332,51652658,-0.9859694242477416,-0.6482506394386292,40.70393753051758,-0.0042335237,0.0044802437,0.34554005
333,51702659,-0.9868605136871338,-0.6466051340103149,40.70505905151367,0.0008711976,-0.00050552347,0.31836033
334,51752660,-0.987215518951416,-0.6464742422103882,40.70646286010742,0.007789182,-0.020341799,0.30319786
335,51802661,-0.9871289134025574,-0.6457028388977051,40.70686340332031,-0.0018028485,0.0038410074,0.32380486
336,51852662,-0.9871860146522522,-0.6461575031280518,40.70740509033203,-0.0045466376,0.012138859,0.32515335
337,51902663,-0.9878136515617372,-0.6501230001449585,40.70543670654297,0.0070754704,0.00035496303,0.33557892
338,51952664,-0.9870486855506896,-0.6506512761116028,40.70429992675781,0.001050022,0.002240672,0.31915665
339,52002665,-0.986702024936676,-0.6511439681053162,40.70570755004883,-0.014814488,-0.009548347,0.34749222
340,52052666,-0.9870805740356444,-0.6490954756736755,40.70700454711914,0.008157406,0.008698586,0.34375668
341,52102667,-0.9857335686683656,-0.6504659652709961,40.706485748291016,0.0009823046,0.008702365,0.35350037
342,52152668,-0.9853771924972534,-0.6498922109603882,40.706085205078125,0.026548604,0.017259115,0.31822586
343,52202669,-0.9850712418556212,-0.6496599912643433,40.70391845703125,-0.010576842,-0.015473125,0.29901505
344,52252670,-0.9827231764793396,-0.6499250531196594,40.70302200317383,0.016164854,-0.010765627,0.31887817
345,52302671,-0.9836443662643432,-0.6494215130805969,40.70585250854492,-0.00043888166,-0.0011364691,0.32825947
346,52352672,-0.9838952422142028,-0.6483477354049683,40.70621871948242,0.0006094081,0.01000372,0.32416248
347,52402673,-0.9846493601799012,-0.6496222615242004,40.7069206237793,0.002507096,0.0038491131,0.32666492
348,52452674,-0.9866475462913512,-0.6493034958839417,40.70934295654297,-0.00056110835,0.0023175464,0.32461834
349,52502675,-0.9862130284309388,-0.6475576758384705,40.70872116088867,0.00032594474,0.0054191556,0.3252077
350,52552676,-0.9865851998329164,-0.6491736173629761,40.70859146118164,0.004892398,-0.008685145,0.31746197
351,52602677,-0.9874654412269592,-0.6476657390594482,40.70760726928711,-0.0033819326,-0.0064304294,0.32522106
352,52652678,-0.9874597787857056,-0.64637690782547,40.70663070678711,-0.011963909,-0.008125461,0.33367062
353,52702679,-0.9875575304031372,-0.6459571719169617,40.707275390625,-0.0059552514,0.00392333,0.33238983
354,52752680,-0.9862337708473206,-0.6492175459861755,40.70878982543945,0.0040477286,-0.006533678,0.3563881
355,52802681,-0.9863714575767516,-0.6469361782073975,40.71033477783203,0.015093676,0.011629683,0.33858013
356,52852682,-0.9881690740585328,-0.6455907225608826,40.71156311035156,0.0014026415,0.008265669,0.33734035
357,52902683,-0.9868223071098328,-0.644673228263855,40.71164321899414,0.0060048224,-0.0093707945,0.3321247
358,52952684,-0.9883583784103394,-0.6448444724082947,40.71174621582031,-0.0058899224,0.006840321,0.33310223
359,53002685,-0.9894412755966188,-0.6455909013748169,40.71027755737305,0.0013695477,-0.0029493687,0.3601923
360,53052686,-0.9900490641593932,-0.6479214429855347,40.70556640625,0.0046009375,-0.01662648,0.31654835
361,53102687,-0.988862931728363,-0.6503462791442871,40.70553207397461,-0.008969121,-0.007880773,0.33807755
362,53152688,-0.9886924028396606,-0.6502302289009094,40.70305252075195,-0.0060656667,0.017230302,0.3164692
363,53202689,-0.9890343546867372,-0.6501641273498535,40.70328521728516,0.0034939335,0.00045380116,0.3490982
364,53252690,-0.9892449975013732,-0.6513480544090271,40.70356369018555,0.00319407,-0.0035021966,0.32199764
365,53302691,-0.9894999861717224,-0.6560702919960022,40.70230102539063,-0.0035876553,0.009447784,0.32304955
366,53352692,-0.9892929196357728,-0.6548287868499756,40.701446533203125,-0.0024187805,0.01575109,0.32713032
367,53402693,-0.989998459815979,-0.6547720432281494,40.70016098022461,-0.013558687,0.008479002,0.32084846
368,53452694,-0.9900572896003724,-0.6554082632064819,40.69880294799805,-0.005960378,0.008153162,0.32971382
369,53502695,-0.9885754585266112,-0.6582525372505188,40.69887924194336,-0.0065263268,-0.009560637,0.3395443
370,53552696,-0.9894402027130128,-0.6575820446014404,40.69696044921875,-0.011059784,-0.0007584598,0.32406425
371,53602697,-0.9905784130096436,-0.6600931882858276,40.69879531860352,-0.0012179151,-0.004803433,0.3371687
372,53652698,-0.9915359020233154,-0.6608226299285889,40.69903945922852,-0.007084802,-0.0077244923,0.32163143
373,53702699,-0.9904276132583618,-0.6602551341056824,40.7020263671875,0.0011504142,-0.0018686906,0.31694603
374,53752700,-0.991397500038147,-0.660824179649353,40.70079803466797,-0.018169675,0.0023001055,0.33984852
375,53802701,-0.9930962920188904,-0.6609895825386047,40.70194625854492,0.0054429597,-0.00260848,0.3146124
376,53852702,-0.9927749633789062,-0.6602757573127747,40.699703216552734,-0.0024251644,0.01207228,0.336792
377,53902703,-0.994361698627472,-0.6591795086860657,40.70125579833984,0.0147371525,-0.0058897445,0.33178806
378,53952704,-0.9955150485038756,-0.66046541929245,40.70394515991211,-0.0034521087,-0.013279215,0.32486343
379,54002705,-0.995117485523224,-0.6592949032783508,40.70418167114258,0.015134698,-0.013099371,0.3425808
380,54052706,-0.992952525615692,-0.6592064499855042,40.70520782470703,-0.0030160837,-0.003915402,0.33552265
381,54102707,-0.9942916631698608,-0.6556194424629211,40.70471954345703,-0.009088498,0.0054445732,0.33254814
382,54152708,-0.99430513381958,-0.6547750234603882,40.70608901977539,-0.00051602157,0.003600221,0.32414722
383,54202709,-0.9945658445358276,-0.6553968191146851,40.70786666870117,-0.008894907,0.0048836465,0.32978058
384,54252710,-0.996882438659668,-0.6561251878738403,40.70594024658203,0.002093157,-0.011255738,0.3193226
385,54302711,-0.9967085123062134,-0.6574388146400452,40.70449066162109,-0.009907422,0.01326417,0.34813976
386,54352712,-0.9967641234397888,-0.6576486229896545,40.70594024658203,-0.011636043,-0.0007815899,0.35464
387,54402713,-0.9954957962036132,-0.655598521232605,40.70840072631836,-0.0065801446,-0.0051280647,0.33100605
388,54452714,-0.9951378703117372,-0.6542659997940063,40.708229064941406,-0.008021594,-0.00022772478,0.31949806
389,54502715,-0.9957537651062012,-0.6533540487289429,40.7071418762207,-0.009323689,0.0012686735,0.33753395
390,54552716,-0.9970362186431884,-0.6535590291023254,40.70564651489258,-0.010329365,0.009394428,0.3215027
391,54602717,-0.9963822364807128,-0.6538403630256653,40.70709991455078,-0.0059606363,-0.0014184621,0.3363371
392,54652718,-0.993511438369751,-0.6551857590675354,40.70663070678711,-0.0054732803,-0.006311283,0.32629967
393,54702719,-0.9946500658988952,-0.6572760343551636,40.70509338378906,0.000669554,0.00013633592,0.3149376
394,54752720,-0.9949888586997986,-0.657905638217926,40.70774459838867,-0.007511998,0.0012712928,0.3309145
395,54802721,-0.9939299821853638,-0.6593909859657288,40.705867767333984,-0.011209726,0.0025769856,0.33118916
396,54852722,-0.9946811199188232,-0.6600995063781738,40.70661544799805,-0.0043224194,0.004861166,0.33232498
397,54902723,-0.9955145120620728,-0.6611430644989014,40.7067756652832,-0.007912729,0.009124263,0.3511305
398,54952724,-0.9961991310119628,-0.6608442068099976,40.708377838134766,-0.010953832,0.0022761407,0.3391857
399,55002725,-0.9973773956298828,-0.6592794060707092,40.70751190185547,-0.00535537,-0.00040097177,0.3265171
400,55052726,-0.9895174503326416,-0.6523832678794861,40.707557678222656,-0.0055071358,-0.0049997754,0.34890747
401,55102727,-0.988753855228424,-0.6519370675086975,40.70734024047852,-0.00013109035,0.0046330392,0.3273573
402,55152728,-0.9889091849327089,-0.6527340412139893,40.70647811889648,-0.008470911,-0.0032470147,0.3076191
403,55202729,-0.9892140626907348,-0.6538649201393127,40.70676040649414,-0.0065712947,0.0057577253,0.31546688
404,55252730,-0.9906935691833496,-0.6558650135993958,40.70719909667969,-0.003400526,-0.011292216,0.30649185
405,55302731,-0.9890119433403016,-0.6567456126213074,40.70512008666992,0.007432916,-0.008853805,0.3485031
406,55352732,-0.9880327582359314,-0.6573401689529419,40.70621490478516,0.016786452,-0.009324688,0.33733177
407,55402733,-0.987730085849762,-0.6589468717575073,40.70682907104492,-0.0028603163,0.003383801,0.33689022
408,55452734,-0.9867690801620485,-0.6610077619552612,40.70835876464844,0.0017227681,-0.00880251,0.34510326
409,55502735,-0.9863901138305664,-0.6600163578987122,40.70696640014648,-0.006388049,0.0059000994,0.31364632
410,55552736,-0.9858037829399108,-0.660118818283081,40.70561981201172,-0.010052524,-0.0037655402,0.32351875
411,55602737,-0.9849278926849364,-0.6621760725975037,40.70697021484375,-0.0010134426,-0.006942309,0.32475758
412,55652738,-0.985587477684021,-0.6615428924560547,40.706321716308594,-0.011320414,-0.012753412,0.34112453
413,55702739,-0.9850388765335084,-0.6615279316902161,40.70660781860352,-0.0026697225,0.007086063,0.321043
414,55752740,-0.9858297109603882,-0.6631472706794739,40.70619201660156,-0.0020668872,-0.00028186032,0.3360529
415,55802741,-0.9853290915489196,-0.66270911693573,40.70518112182617,-0.007924344,-0.0028913007,0.33660507
416,55852742,-0.983789086341858,-0.6640793681144714,40.70302963256836,-0.005622608,0.014072215,0.31274986
417,55902743,-0.9839680790901184,-0.6654001474380493,40.70436096191406,0.003735586,-0.00049625814,0.31851673
418,55952744,-0.9821845293045044,-0.6642052531242371,40.70333099365234,-7.688147e-05,0.002480613,0.3328848
419,56002745,-0.981326699256897,-0.6671988368034363,40.70218276977539,0.0026022915,0.0067699105,0.3210678
420,56052746,-0.9807055592536926,-0.6671373248100281,40.70001602172852,0.0018699443,0.005830454,0.29289722
421,56102747,-0.9808893203735352,-0.6684107780456543,40.70136260986328,-0.0032444932,-0.019194629,0.34837627
422,56152748,-0.9813746213912964,-0.6650083661079407,40.70116424560547,-0.0065934784,-0.0014235401,0.32684422
423,56202749,-0.980982542037964,-0.6653101444244385,40.69914627075195,-0.00085154246,-0.008772936,0.31765842
424,56252750,-0.9824164509773254,-0.6677739024162292,40.70192337036133,-0.010680434,-0.0027896583,0.3324299
425,56302751,-0.9819459915161132,-0.670792281627655,40.70355224609375,0.0009489173,0.0076363483,0.32191658
426,56352752,-0.9821522831916808,-0.6709504127502441,40.70552062988281,-0.002959528,-0.0046376633,0.3133011
427,56402753,-0.9832559823989868,-0.6710113286972046,40.70565032958984,-0.011430746,0.002910184,0.31770802
428,56452754,-0.9854577779769896,-0.6682530045509338,40.70580673217773,-0.008944451,0.0015462871,0.34108925
429,56502755,-0.9848876595497132,-0.6671594381332397,40.70367431640625,-0.0031871202,-0.002107308,0.3260765
430,56552756,-0.9830924272537231,-0.6660651564598083,40.703861236572266,-0.01369181,0.002705799,0.33376312
431,56602757,-0.98581862449646,-0.6670299768447876,40.70400238037109,-0.013246042,-0.0009820461,0.3243494
432,56652758,-0.9866724610328674,-0.6652336716651917,40.704872131347656,-0.0008048422,-0.0033605453,0.34006882
433,56702759,-0.9879525303840636,-0.6658066511154175,40.70573425292969,-0.0015670703,-0.022061508,0.3146553
434,56752760,-0.9877592325210572,-0.6649464964866638,40.70835876464844,-0.006148087,-0.002410657,0.33697128
435,56802761,-0.9880369305610656,-0.665293276309967,40.707008361816406,-0.005718502,0.004248702,0.32424068
436,56852762,-0.9892337322235109,-0.6650815010070801,40.70721435546875,0.0035485546,0.0006151251,0.34401035
437,56902763,-0.9889519810676576,-0.6648523211479187,40.7080192565918,-0.012431372,0.0058884034,0.34344864
438,56952764,-0.9904344081878662,-0.6643575429916382,40.70682907104492,-0.00086296955,0.0019522529,0.34140873
439,57002765,-0.9910247325897216,-0.6653796434402466,40.70651626586914,-0.0019251939,0.003870923,0.3086233
440,57052766,-0.988773226737976,-0.6576216220855713,40.71143341064453,-0.01126242,-0.0020820894,0.34109497
441,57102767,-0.9889321327209472,-0.6568846702575684,40.71029281616211,-0.006529477,-0.00026371385,0.33534622
442,57152768,-0.9882339239120485,-0.65854811668396,40.70942306518555,0.0027086209,-0.0051975492,0.33885098
443,57202769,-0.9859493374824524,-0.6579641699790955,40.70895767211914,-0.0016980419,0.0027541546,0.3200779
444,57252770,-0.9850186109542848,-0.6594672799110413,40.709205627441406,0.0010694257,-0.007139566,0.32388592
445,57302771,-0.9841670989990234,-0.6565075516700745,40.70915603637695,-0.001250548,-0.0047269915,0.31090355
446,57352772,-0.9861294031143188,-0.6582991480827332,40.70985412597656,0.002537291,-0.022498352,0.33138084
447,57402773,-0.9843465089797974,-0.6611690521240234,40.71215057373047,0.0020358607,0.010985232,0.338192
448,57452774,-0.9842575788497924,-0.6603929400444031,40.71141052246094,-0.0038459804,-0.01304102,0.343935
449,57502775,-0.9836994409561156,-0.6607818603515625,40.7105827331543,0.007153113,-0.00027076848,0.32888794
450,57552776,-0.982721209526062,-0.6640418171882629,40.70964431762695,-0.0019613123,-0.00081844156,0.3486433
451,57602777,-0.9826911091804504,-0.6645158529281616,40.70957565307617,-0.013713344,-0.013065897,0.33862495
452,57652778,-0.9837238788604736,-0.6664763689041138,40.70859909057617,-0.0042953044,-0.0065829977,0.33806324
453,57702779,-0.9822996854782104,-0.6659103631973267,40.70888137817383,-0.0014305947,0.00063212606,0.32893944
454,57752780,-0.9824348092079164,-0.6672481894493103,40.7098388671875,0.007724964,-0.008661082,0.33473682
455,57802781,-0.9835405349731444,-0.6662949323654175,40.70762634277344,-0.00168329,0.0020616206,0.30959988
456,57852782,-0.982184112071991,-0.6684603691101074,40.70792007446289,-0.002537759,-0.013971142,0.3235531
457,57902783,-0.981975257396698,-0.6693313121795654,40.70833587646485,0.0051697567,-0.015229817,0.3481531
458,57952784,-0.980229675769806,-0.6695952415466309,40.70831298828125,-0.007977924,-0.0051655383,0.3290043
459,58002785,-0.9791364669799804,-0.6718937158584595,40.705711364746094,0.009518341,-0.016256593,0.34924603
460,58052786,-0.9798162579536438,-0.6732087731361389,40.70497512817383,0.0050237123,-0.0056875525,0.3284378
461,58102787,-0.9796311855316162,-0.6739972829818726,40.70705032348633,0.0017220137,-0.006449023,0.33024025
462,58152788,-0.9799411296844482,-0.6748902201652527,40.70638275146485,0.007257361,0.0037367037,0.3449955
463,58202789,-0.9786328077316284,-0.6764782071113586,40.70546722412109,-0.0025893068,-0.0025343855,0.3503189
464,58252790,-0.9782755374908448,-0.6775078177452087,40.70560073852539,-0.00015860339,-0.0031808058,0.33814907
465,58302791,-0.9788042306900024,-0.6762393712997437,40.7034912109375,0.002102782,-0.011956253,0.3203163
466,58352792,-0.979913592338562,-0.6759659647941589,40.70345687866211,-0.007857242,-0.0058434075,0.3173113
467,58402793,-0.9811017513275146,-0.6764879822731018,40.70290756225586,-0.002713559,-0.008799635,0.3296194
468,58452794,-0.9804482460021972,-0.6748018264770508,40.70152282714844,-0.002831022,-0.0085981805,0.32671547
469,58502795,-0.9804248809814452,-0.6751691102981567,40.701541900634766,-0.0048808106,-0.0056996504,0.35677147
470,58552796,-0.9780789613723756,-0.6764416098594666,40.70043182373047,-0.0038065095,0.0027792964,0.3312111
471,58602797,-0.9773287773132324,-0.6769346594810486,40.70126724243164,0.012232669,0.0031224305,0.32705688
472,58652798,-0.9760358333587646,-0.6782742142677307,40.70219039916992,0.0011204635,-0.009580446,0.32003498
473,58702799,-0.9772289991378784,-0.6792124509811401,40.70188903808594,0.0057330932,0.004844734,0.3281288
474,58752800,-0.9771884679794312,-0.6786719560623169,40.70229721069336,-0.0037845422,-0.001347867,0.33153534
475,58802801,-0.976250171661377,-0.678968071937561,40.70074081420898,-0.0011207778,-0.011075423,0.32759
476,58852802,-0.9765532612800598,-0.6781928539276123,40.70109176635742,-0.013336557,-0.0009796049,0.31015587
477,58902803,-0.9753723740577698,-0.6744369268417358,40.70158004760742,-0.0033586314,0.00012286926,0.31180382
478,58952804,-0.9746116399765016,-0.67500239610672,40.70432662963867,-0.0108571,0.0013670332,0.31952858
479,59002805,-0.97419536113739,-0.6771218776702881,40.70536422729492,0.00069675274,0.001597461,0.33579254
480,59052806,-0.9841521382331848,-0.6620199680328369,40.71099090576172,-0.0031801423,-0.0047578365,0.32061958
481,59102807,-0.9827632904052734,-0.6607438921928406,40.71166229248047,0.0013187265,-0.0011601684,0.33521652
482,59152808,-0.982341170310974,-0.6614508032798767,40.71491241455078,0.0074751745,0.007567094,0.35099983
483,59202809,-0.9828413724899292,-0.6606919169425964,40.71507263183594,-0.004194549,-0.011107515,0.34085178
484,59252810,-0.9812281727790833,-0.6603369116783142,40.71484756469727,0.0023694749,-0.0033318866,0.33931446
485,59302811,-0.9801859259605408,-0.661457359790802,40.71565246582031,-0.00506092,0.013451625,0.34105396
486,59352812,-0.9821297526359558,-0.6592782735824585,40.715763092041016,0.0011376949,-0.0114903785,0.34038448
487,59402813,-0.9817338585853576,-0.6605153679847717,40.71735382080078,0.0071607404,-0.008255727,0.32505226
488,59452814,-0.982066810131073,-0.6616747975349426,40.7190055847168,0.002391009,-0.0043958607,0.349267
489,59502815,-0.9830808639526368,-0.6626515984535217,40.71990585327149,-0.012138402,0.0035761688,0.33830452
490,59552816,-0.9821084141731262,-0.6614501476287842,40.7217903137207,0.0014624522,0.004741188,0.33528042
491,59602817,-0.9819024801254272,-0.6607688069343567,40.724117279052734,0.0010783313,-0.008527015,0.3274746
492,59652818,-0.9817280769348145,-0.6591595411300659,40.72425842285156,0.008156588,-0.012411042,0.31455326
493,59702819,-0.9828991293907166,-0.6604130268096924,40.72433471679688,0.0152624985,-0.0012645734,0.3390417
494,59752820,-0.9816311597824096,-0.6574875712394714,40.72655487060547,-0.006099159,-0.008614364,0.31656265
495,59802821,-0.982189953327179,-0.6577613353729248,40.72454071044922,-0.0043452666,-0.004556207,0.3444414
496,59852822,-0.9815595746040344,-0.6559013724327087,40.72264862060547,0.0051141023,0.0019896564,0.31483746
497,59902823,-0.9812191128730774,-0.6541227698326111,40.7242317199707,-0.0061005414,0.010729858,0.31204605
498,59952824,-0.9823716878890992,-0.6542098522186279,40.72355270385742,-0.011030463,0.01391841,0.33948994
499,60002825,-0.9809656739234924,-0.6570407152175903,40.724796295166016,-0.008462319,-0.017061805,0.34142494
500,60052826,-0.9810747504234314,-0.6598682403564453,40.72633743286133,-0.011284596,0.0019117587,0.35096455
501,60102827,-0.9800028204917908,-0.6589548587799072,40.72637939453125,0.006741479,-0.0030688015,0.3153267
502,60152828,-0.9794927835464478,-0.6598359942436218,40.72664642333984,0.004187131,-0.012118743,0.33460236
503,60202829,-0.9768700003623962,-0.6771477460861206,39.96916961669922,-0.38455492,-0.49318627,0.3486662
504,60252830,-0.8077784776687622,-0.780561625957489,38.308719635009766,0.114723876,0.401957,0.32338428
505,60302831,-0.8122957348823547,-0.4207024574279785,35.384769439697266,-1.1243447,0.17200786,0.16440773
506,60352832,0.1729383766651153,0.0841042399406433,27.721694946289062,-0.65719694,0.8757806,0.69586754
507,60402833,0.4039302170276642,-0.2963715195655823,20.22614097595215,-0.34347814,1.6857569,0.8807335
508,60452834,1.7680689096450806,0.3067373037338257,14.745702743530272,-0.9797344,0.58368975,0.7128477
509,60502835,3.01086688041687,1.5948768854141235,8.785157203674316,0.101445936,0.26866072,-0.011023521
510,60552836,4.308346748352051,2.8109073638916016,5.07233476638794,-0.33019286,-0.12289931,0.07024193
511,60602837,5.653632640838623,3.369169950485229,2.3473777770996094,0.72968006,-0.3964925,-0.59092903
512,60652838,6.706230640411377,4.301337718963623,0.1843695491552353,0.21516992,-0.47091782,-0.2880726
513,60702839,7.122756481170654,4.862674236297607,-0.5611292123794556,0.34890896,-0.3831487,0.22791958
514,60752840,6.99112606048584,4.7873311042785645,-1.29300856590271,-0.20724407,-0.4340899,0.4140463
515,60802841,6.683383464813232,5.3746018409729,-3.04180908203125,0.7045963,-1.0292414,0.20903969
516,60852842,6.409358024597168,4.820624351501465,-3.862625360488892,-0.14795764,-0.6084977,0.37935543
517,60902843,6.140528202056885,4.461464881896973,-4.766303062438965,-0.15725653,-0.18556923,0.33575916
518,60952844,5.739201545715332,3.664462804794312,-4.592674732208252,0.004433128,0.101210356,0.9014349
519,61002845,5.412563323974609,2.646528482437134,-4.346014976501465,0.75200456,-0.35009336,0.010503769
520,61052846,5.173089504241943,2.19546890258789,-4.31560754776001,0.3182534,-0.30082682,-0.15716553
521,61102847,4.891438484191895,2.64026141166687,-4.4837493896484375,-0.8363324,-0.051331285,0.23773193
522,61152848,4.7793402671813965,3.3390510082244877,-4.140505790710449,0.40976536,-0.33642238,0.3306551
523,61202849,4.3013763427734375,2.220893859863281,-2.0696048736572266,0.029758263,-0.41881266,0.27408218
524,61252850,3.7659289836883545,1.6056363582611084,-1.3775947093963623,-0.3046458,-0.71624583,-0.050706863
525,61302851,2.9321248531341557,1.4161128997802734,-1.990861177444458,-0.6805135,0.114085704,0.3387928
526,61352852,2.778331756591797,1.055609941482544,-1.0300393104553225,0.060238354,-0.11336939,0.25692463
527,61402853,2.250768184661865,-0.0656738132238388,0.0613182783126831,-0.3174393,-0.0975308,0.37666798
528,61452854,0.741711437702179,-0.5005141496658325,-0.1929167360067367,-0.042628787,-0.05284496,0.3721161
529,61502855,0.1613910347223281,-0.5538154244422913,-1.233442306518555,0.53120345,-0.24599752,0.3370905
530,61552856,0.1758651733398437,-0.5516880750656128,-1.483734965324402,-0.021009022,-0.11353869,0.31840897
531,61602857,0.170804426074028,-0.5541111826896667,-1.52672278881073,0.06633002,-0.07661438,0.3414297
532,61652858,0.1702454090118408,-0.5541159510612488,-1.4258698225021362,-0.026313722,-0.15654385,0.31687927
533,61702859,0.162683755159378,-0.5552647113800049,-1.1450965404510498,-0.031706326,-0.05946382,0.34741497
534,61752860,0.162767007946968,-0.5558843612670898,-0.8964150547981262,-0.050181143,-0.07937837,0.33060455
535,61802861,0.1558340638875961,-0.551879346370697,-0.6986537575721741,-0.01482478,-0.08721926,0.3190384
536,61852862,0.1385937482118606,-0.5443283915519714,-0.3379920125007629,-0.020251788,-0.07479035,0.33363342
537,61902863,0.1322175413370132,-0.547046422958374,-0.1787229627370834,-0.04271756,-0.069929704,0.3412819
538,61952864,0.1294540017843246,-0.5477844476699829,-0.1804074048995971,-0.042078216,-0.081383504,0.33730793
539,62002865,0.1294868737459182,-0.5496341586112976,-0.0882440283894538,-0.035197012,-0.09158118,0.33240795
540,62052866,0.1259194165468216,-0.5483807921409607,0.0961870178580284,-0.027507177,-0.087044924,0.3275242
541,62102867,0.1148424670100212,-0.5431042313575745,0.3314721286296844,-0.03731896,-0.055074226,0.32562923
542,62152868,0.1092670634388923,-0.5389677882194519,0.3300926387310028,-0.028018473,-0.081270635,0.31468582
543,62202869,0.1102516576647758,-0.5411781668663025,0.3243851065635681,-0.03477684,-0.08373388,0.3265028
544,62252870,0.1087269559502601,-0.5415886044502258,0.3192986249923706,-0.03626481,-0.0874011,0.32430553
545,62302871,0.1102304458618164,-0.5448198914527893,0.3162771463394165,-0.036158245,-0.08053356,0.32809162
546,62352872,0.1101737841963768,-0.5446511507034302,0.3137010931968689,-0.023176834,-0.0737871,0.3126278
547,62402873,0.1084146499633789,-0.5437027812004089,0.3112563788890838,-0.035246283,-0.088386595,0.34735775
548,62452874,0.1082188263535499,-0.5436634421348572,0.3071895241737366,-0.026046485,-0.07007942,0.31427956
549,62502875,0.108440101146698,-0.5425898432731628,0.3042336404323578,-0.022394573,-0.071403764,0.31800175
550,62552876,0.1090601235628128,-0.5413631796836853,0.300302654504776,-0.031826295,-0.081679046,0.32272243
551,62602877,0.1073754057288169,-0.5418768525123596,0.2968520522117615,-0.024454871,-0.07400671,0.34841442
552,62652878,0.1058202758431434,-0.5409953594207764,0.2930378913879394,-0.032611944,-0.07435508,0.3323841
553,62702879,0.104521095752716,-0.5393202900886536,0.289526879787445,-0.017184941,-0.0743805,0.3571825
554,62752880,0.1038456335663795,-0.5409772396087646,0.2897257208824157,-0.0281269,-0.08887315,0.35393715
555,62802881,0.1030046641826629,-0.5401319265365601,0.2854710817337036,-0.032987885,-0.08200469,0.34167194
556,62852882,0.1032216921448707,-0.5405457615852356,0.2809001505374908,-0.034536567,-0.06877828,0.30842018
557,62902883,0.1034372299909591,-0.5403356552124023,0.2777381241321563,-0.030520547,-0.07566183,0.34840393
558,62952884,0.1028865799307823,-0.5398160815238953,0.2744836211204529,-0.022186926,-0.08033071,0.33413315
559,63002885,0.1022466868162155,-0.5389283299446106,0.2711784243583679,-0.027094044,-0.07750862,0.3274231
560,63052886,0.1005105748772621,-0.5404686331748962,0.2674653828144073,-0.036913414,-0.06329641,0.32827187
561,63102887,0.0996882691979408,-0.5411515235900879,0.2632719576358795,-0.032870054,-0.07689319,0.34942245
562,63152888,0.0986984446644783,-0.5404983162879944,0.2625405788421631,-0.032976527,-0.07470449,0.30988216
563,63202889,0.0983383804559707,-0.5416339635848999,0.2587336301803589,-0.02578121,-0.083465084,0.32760715
564,63252890,0.0989817678928375,-0.5436674952507019,0.2551365494728088,-0.036388002,-0.07092832,0.33307552
565,63302891,0.0993953049182891,-0.5428766012191772,0.2510398626327514,-0.037826307,-0.080247015,0.3176632
566,63352892,0.0986736938357353,-0.5428255796432495,0.2488535940647125,-0.028340435,-0.071037054,0.3436556
567,63402893,0.098870001733303,-0.5398408770561218,0.2460812628269195,-0.03730203,-0.08078753,0.35006332
568,63452894,0.0990270003676414,-0.539860188961029,0.2435108870267868,-0.041242834,-0.07480273,0.3217144
569,63502895,0.0983375459909439,-0.5390205979347229,0.2431618273258209,-0.03558721,-0.07377158,0.34424114
570,63552896,0.0990510135889053,-0.5398573875427246,0.2397302985191345,-0.032008436,-0.0701999,0.33969975
571,63602897,0.0978527218103408,-0.5429752469062805,0.2365608364343643,-0.031884044,-0.0806074,0.32642746
572,63652898,0.0968839302659034,-0.5449567437171936,0.2325725853443145,-0.029768737,-0.07968068,0.32891083
573,63702899,0.0953909456729888,-0.5451489686965942,0.2292230129241943,-0.03704374,-0.08617816,0.32572174
574,63752900,0.0933708772063255,-0.5433256030082703,0.2271526455879211,-0.034166384,-0.07020713,0.31835175
575,63802901,0.0937468409538269,-0.5425765514373779,0.2233104705810547,-0.03990838,-0.07909506,0.32328224
576,63852902,0.092327706515789,-0.5442702174186707,0.2241993546485901,-0.032401968,-0.08038507,0.32126045
577,63902903,0.088631235063076,-0.5442863702774048,0.223295047879219,-0.040865462,-0.081953384,0.32535267
578,63952904,0.0892989784479141,-0.5430783629417419,0.220569297671318,-0.025235144,-0.07318987,0.30003738
579,64002905,0.0900770351290702,-0.5412522554397583,0.2170726656913757,-0.02618268,-0.08877896,0.34120083
580,64052906,0.0870079696178436,-0.5407655835151672,0.2155174762010574,-0.021595543,-0.07769068,0.36026478
581,64102907,0.0861535221338272,-0.5451292991638184,0.2141110301017761,-0.031992037,-0.08118336,0.3179512
582,64152908,0.0876814648509025,-0.546132504940033,0.2097944766283035,-0.029916182,-0.07759489,0.32953358
583,64202909,0.0861463323235511,-0.5443761944770813,0.2089123129844665,-0.036695328,-0.079127714,0.322011
584,64252910,0.082678772509098,-0.5442942976951599,0.2057088762521743,-0.03369127,-0.07437937,0.3371992
585,64302911,0.0806648582220077,-0.542843222618103,0.2021932601928711,-0.027753055,-0.0671472,0.30799866
586,64352912,0.0795518904924392,-0.5400014519691467,0.1999401748180389,-0.035530798,-0.07915975,0.3159237
587,64402913,0.0757251381874084,-0.5375704765319824,0.1974179744720459,-0.026124727,-0.07673907,0.33904934
588,64452914,0.0745032429695129,-0.5380492806434631,0.1961675137281417,-0.038573664,-0.07741633,0.34741592
589,64502915,0.0739180147647857,-0.5393141508102417,0.1951131969690323,-0.037578736,-0.07838392,0.31744576
590,64552916,0.0736595094203949,-0.5390339493751526,0.1915624737739563,-0.039622452,-0.06330039,0.3337574
591,64602917,0.0717881098389625,-0.5396530032157898,0.1860994398593902,-0.025959508,-0.08349421,0.3330078
592,64652918,0.0704067647457122,-0.5413177609443665,0.1838492900133133,-0.03223226,-0.060606975,0.31981468
593,64702919,0.0701317265629768,-0.5413163304328918,0.1808302700519561,-0.026418336,-0.067358695,0.34170628
594,64752920,0.0692527294158935,-0.5424791574478149,0.1767498850822448,-0.035422884,-0.0859435,0.32261467
595,64802921,0.0677384808659553,-0.5442348122596741,0.1739074289798736,-0.041964255,-0.07175729,0.32874012
596,64852922,0.0673214793205261,-0.5448231101036072,0.1712679266929626,-0.031245407,-0.07362355,0.34169292
597,64902923,0.0646592155098915,-0.543095588684082,0.1712673455476761,-0.03447484,-0.08613,0.33783436
598,64952924,0.0624065585434436,-0.5410741567611694,0.1699096709489822,-0.04303617,-0.080512226,0.32011604
599,65002925,0.061471302062273,-0.5420311689376831,0.1675207316875457,-0.03719681,-0.07588479,0.3406105
600,65052926,0.070848099887371,-0.5324181914329529,0.1568411439657211,-0.041082926,-0.07478187,0.33339977
601,65102927,0.0696451365947723,-0.533457338809967,0.1553989350795745,-0.035469726,-0.07361836,0.3332014
602,65152928,0.0692782029509544,-0.531639039516449,0.1537348181009292,-0.041947592,-0.06876086,0.3118515
603,65202929,0.0671814382076263,-0.5322275757789612,0.1516246348619461,-0.040338747,-0.07529871,0.33290005
604,65252930,0.0659791976213455,-0.5314486622810364,0.1483240276575088,-0.027892852,-0.05334587,0.30823326
605,65302931,0.064640924334526,-0.5308265686035156,0.1459322422742843,-0.029688576,-0.08313074,0.32624435
606,65352932,0.0643046051263809,-0.5279874205589294,0.1441823542118072,-0.042280357,-0.074915394,0.35084152
607,65402933,0.063743770122528,-0.5264569520950317,0.1404439359903335,-0.03438417,-0.07500113,0.32859707
608,65452934,0.0625256225466728,-0.5261211395263672,0.1382011920213699,-0.041006353,-0.07652859,0.32776928
609,65502935,0.0630239993333816,-0.5276806354522705,0.134184256196022,-0.041912924,-0.056432813,0.33802032
610,65552936,0.062652014195919,-0.5266854763031006,0.1313564926385879,-0.027156958,-0.058149096,0.33355427
611,65602937,0.0624684654176235,-0.5269858837127686,0.1294837445020675,-0.03521564,-0.071170114,0.3384819
612,65652938,0.0596475414931774,-0.5259061455726624,0.1262609213590622,-0.032951448,-0.06509275,0.32516193
613,65702939,0.0584404729306697,-0.5278624296188354,0.1232086196541786,-0.0279813,-0.07014076,0.29740906
614,65752940,0.0562236420810222,-0.5265015363693237,0.1198948100209236,-0.04360988,-0.0739348,0.33306122
615,65802941,0.0541838146746158,-0.5282669067382812,0.1159345805644989,-0.034476712,-0.062317383,0.31966782
616,65852942,0.0513066463172435,-0.5271872282028198,0.113593652844429,-0.016490724,-0.073041745,0.32534122
617,65902943,0.0533438697457313,-0.5275470018386841,0.1108454391360282,-0.03674006,-0.051128153,0.32383156
618,65952944,0.0515029914677143,-0.5274220108985901,0.1080106124281883,-0.04457768,-0.06202919,0.3076172
619,66002945,0.0494358986616134,-0.5277044773101807,0.1079561486840248,-0.02998373,-0.055696573,0.3589735
620,66052946,0.0482378788292408,-0.527886688709259,0.1048957556486129,-0.034259655,-0.057667326,0.3367319
621,66102947,0.0480040721595287,-0.5302154421806335,0.1032210513949394,-0.033783086,-0.06143743,0.34053802
622,66152948,0.0473875179886817,-0.5296106934547424,0.102818951010704,-0.038945653,-0.06323532,0.3265791
623,66202949,0.0459682345390319,-0.5287118554115295,0.1002907752990722,-0.018815337,-0.054053247,0.32556915
624,66252950,0.0449691228568553,-0.5279932618141174,0.0977120846509933,-0.032555703,-0.060751095,0.30461693
625,66302951,0.0441565103828907,-0.527786374092102,0.0992450267076492,-0.034425795,-0.0578893,0.34426594
626,66352952,0.0442201048135757,-0.5275406241416931,0.0950502455234527,-0.035826977,-0.05754732,0.30340195
627,66402953,0.042013444006443,-0.5279105305671692,0.0920149460434913,-0.031251296,-0.06113101,0.32437325
628,66452954,0.0398122183978557,-0.5281664729118347,0.0889013260602951,-0.031022767,-0.08696236,0.34414387
629,66502955,0.0406383462250232,-0.5264673233032227,0.0866504311561584,-0.028366925,-0.055747718,0.32762623
630,66552956,0.0391675420105457,-0.5238592624664307,0.0823400914669036,-0.019494513,-0.06589897,0.31129265
631,66602957,0.0366739183664321,-0.5226066708564758,0.0793153271079063,-0.021645505,-0.07658968,0.3279457
632,66652958,0.0353529937565326,-0.5256895422935486,0.0764475166797638,-0.012019185,-0.060076762,0.32983875
633,66702959,0.0322209745645523,-0.525464653968811,0.071117915213108,-0.026647132,-0.05538948,0.32637882
634,66752960,0.0309904087334871,-0.5271067023277283,0.067167542874813,-0.03511238,-0.07061416,0.310503
635,66802961,0.0299746263772249,-0.5274161100387573,0.0666231364011764,-0.028736515,-0.06496525,0.31241226
636,66852962,0.0281391385942697,-0.5279375314712524,0.0661746188998222,-0.024665063,-0.06015961,0.3180952
637,66902963,0.0238760784268379,-0.5242785811424255,0.0643411874771118,-0.02514,-0.07497309,0.31819916
638,66952964,0.0233324225991964,-0.5229427218437195,0.0629127845168113,-0.034903962,-0.07040173,0.32001877
639,67002965,0.0203255731612443,-0.5224766135215759,0.0612697675824165,-0.03235454,-0.059522483,0.3272648
640,67052966,0.028857747092843,-0.5152753591537476,0.0643986240029335,-0.020131161,-0.073720835,0.3432827
641,67102967,0.0264418385922908,-0.5143595337867737,0.0613452307879924,-0.029116131,-0.054504838,0.31792355
642,67152968,0.0241004563868045,-0.5136092901229858,0.0594641603529453,-0.028962657,-0.06320804,0.32813644
643,67202969,0.0232372172176837,-0.5100470781326294,0.0593842267990112,-0.026353708,-0.056651052,0.32112312
644,67252970,0.0224392637610435,-0.5116992592811584,0.0583631135523319,-0.028421322,-0.059633244,0.32053947
645,67302971,0.0195540189743042,-0.5118563771247864,0.0572001151740551,-0.028000068,-0.061679404,0.32835197
646,67352972,0.0178976282477378,-0.5092096924781799,0.0535740032792091,-0.018441204,-0.0639135,0.33126068
647,67402973,0.0165621880441904,-0.5068604350090027,0.053665917366743,-0.027030205,-0.06111915,0.330348
648,67452974,0.0161996707320213,-0.5039997696876526,0.0530209392309188,-0.04187063,-0.06672209,0.33461666
649,67502975,0.0147814787924289,-0.5000194311141968,0.0499961711466312,-0.01507769,-0.054993898,0.31709003
650,67552976,0.0143854189664125,-0.4990153908729553,0.0483536534011364,-0.03322137,-0.058207016,0.338871
651,67602977,0.0119916619732975,-0.4979053139686584,0.0463929362595081,-0.023858856,-0.052644685,0.33877754
652,67652978,0.0109532354399561,-0.4973179697990417,0.0438108704984188,-0.03833945,-0.054657206,0.33115673
653,67702979,0.0093166977167129,-0.4988106489181518,0.0428487695753574,-0.017020905,-0.06179492,0.32131767
654,67752980,0.0078468471765518,-0.4988755285739898,0.0415651910007,-0.03152821,-0.059315395,0.32060146
655,67802981,0.0066049313172698,-0.4991184175014496,0.0399102941155433,-0.018820826,-0.05392377,0.31986046
656,67852982,0.0062627345323562,-0.4960422813892364,0.0365670770406723,-0.01317377,-0.06758663,0.33832073
657,67902983,0.0049721542745828,-0.4934130311012268,0.0359482057392597,-0.024761893,-0.060492776,0.34993553
658,67952984,0.0028978323098272,-0.4902072846889496,0.0347941629588604,-0.021261213,-0.060652614,0.31848907
659,68002985,0.0024361899122595,-0.4887016415596008,0.0304869264364242,-0.03752433,-0.0599914,0.32542992
660,68052986,0.0026773365680128,-0.4862928688526153,0.0280985012650489,-0.030597366,-0.060186025,0.3107891
661,68102987,0.002545207273215,-0.4855206310749054,0.0270241871476173,-0.02983723,-0.06711591,0.3273754
662,68152988,0.0035425119567662,-0.4831149280071258,0.0242147892713546,-0.029224588,-0.050026778,0.3167057
663,68202989,0.0046857348643243,-0.4785417914390564,0.0239236652851104,-0.024893237,-0.055035204,0.35156918
664,68252990,0.006137877702713,-0.4757515490055084,0.0212103184312582,-0.0299807,-0.060435772,0.3267994
665,68302991,0.0063118184916675,-0.4758449792861938,0.0191864129155874,-0.015045279,-0.05714152,0.35758877
666,68352992,0.0052107907831668,-0.4741218090057373,0.0172636806964874,-0.029665774,-0.06611824,0.33888435
667,68402993,0.004346277564764,-0.474573403596878,0.016747148707509,-0.024342056,-0.043277074,0.34001637
668,68452994,0.0055322651751339,-0.4765377044677734,0.014995913952589,-0.022044335,-0.047336757,0.32470798
669,68502995,0.0037517920136451,-0.4746089279651642,0.0129284532740712,-0.024489548,-0.052289598,0.34259415
670,68552996,0.0025194447953253,-0.4742176234722137,0.01041164342314,-0.025906261,-0.057556223,0.34917927
671,68602997,0.0020015430636703,-0.4748862981796264,0.0084773916751146,-0.021570764,-0.06062893,0.33002186
672,68652998,0.00033796863863244653,-0.4716500639915466,0.0060304957441985,-0.012778491,-0.07313038,0.3349266
673,68702999,-0.0006497563445009291,-0.4701244831085205,0.0056309215724468,-0.032362543,-0.051112466,0.33534622
674,68753000,-0.0020575546659529,-0.4699121713638305,0.0060826446861028,-0.022241887,-0.05109572,0.31766796
675,68803001,-0.0017966555897146,-0.4691237509250641,0.0019674983341246,-0.027548179,-0.05401053,0.31725216
676,68853002,-0.0026070377789437,-0.4669974744319916,0.00026368044200353324,-0.022864265,-0.061474808,0.32034683
677,68903003,-0.0051853256300091,-0.4646918177604675,-0.0020616380497813,-0.017081115,-0.06443727,0.3482151
678,68953004,-0.0059917797334492,-0.465141236782074,-0.0044326991774141,-0.023682984,-0.06466192,0.33730984
679,69003005,-0.0054266001097857,-0.4646569788455963,-0.0059233801439404,-0.021058494,-0.05735176,0.32795715
680,69053006,-0.0034626240376383,-0.4839344918727875,0.0055696372874081,-0.021198293,-0.048962682,0.31099987
681,69103007,-0.0047767139039933,-0.4841960072517395,0.0040673720650374,-0.029977592,-0.043510593,0.36260796
682,69153008,-0.0070363730192184,-0.4817894995212555,0.0033413800410926,-0.011185859,-0.06591776,0.32415104
683,69203009,-0.008041993714869,-0.4832839071750641,0.0018136113649234,-0.02562145,-0.04639245,0.31100464
684,69253010,-0.0128558427095413,-0.484860897064209,0.0011096496600657,-0.037576042,-0.07172897,0.34281063
685,69303011,-0.0154352821409702,-0.4849543869495392,-0.0009428137564100324,-0.010539498,-0.06299456,0.33015442
686,69353012,-0.0171767752617597,-0.4842863380908966,-0.0026211417280137,-0.035028696,-0.05189046,0.3510704
687,69403013,-0.0185756161808967,-0.4838258922100067,-0.0040402770973742,-0.031098843,-0.048331708,0.33883667
688,69453014,-0.0191919021308422,-0.4872918426990509,-0.0053711640648543,-0.03718819,-0.06305775,0.33361816
689,69503015,-0.0218239240348339,-0.4907468557357788,-0.0079797264188528,-0.016829226,-0.052661642,0.31861973
690,69553016,-0.0228469055145978,-0.4891580939292907,-0.0089999698102474,-0.01662968,-0.047506183,0.33595848
691,69603017,-0.0245100874453783,-0.4904548525810241,-0.0092699602246284,-0.013203368,-0.05362102,0.34215164
692,69653018,-0.0248093828558921,-0.4898249804973602,-0.0091945510357618,-0.019875206,-0.049222328,0.336627
693,69703019,-0.026827560737729,-0.4907083809375763,-0.0083014434203505,-0.025280816,-0.059055783,0.3386402
694,69753020,-0.0259551983326673,-0.4895334839820862,-0.0095691075548529,-0.027215498,-0.050225027,0.32394695
695,69803021,-0.0267995633184909,-0.4888305068016052,-0.0102716870605945,-0.028055798,-0.06451258,0.32707596
696,69853022,-0.0283114612102508,-0.4871209859848022,-0.0114025324583053,-0.020375682,-0.06447677,0.33800983
697,69903023,-0.0291621033102273,-0.4882984459400177,-0.0132932290434837,-0.023659978,-0.056674637,0.3084879
698,69953024,-0.0318517386913299,-0.4877797365188598,-0.0151143949478864,-0.028971994,-0.052656543,0.3368206
699,70003025,-0.033731672912836,-0.4888439476490021,-0.0176869127899408,-0.03604112,-0.051202856,0.31476212
700,70053026,-0.036179419606924,-0.4865375459194183,-0.0168737731873989,-0.012608324,-0.04292299,0.33992386
701,70103027,-0.0375827886164188,-0.4827656745910644,-0.017731811851263,-0.024794018,-0.064704426,0.32387924
702,70153028,-0.0375584699213504,-0.4778153300285339,-0.0192561168223619,-0.010243291,-0.052632403,0.32683182
703,70203029,-0.0373388230800628,-0.4735195636749267,-0.0220977757126092,-0.016201293,-0.043745656,0.3341875
704,70253030,-0.0358974002301692,-0.4714653491973877,-0.0235716849565505,-0.030353121,-0.051203005,0.3379345
705,70303031,-0.0361611507833004,-0.4684860408306122,-0.0267320442944765,-0.009271398,-0.056151524,0.32488537
706,70353032,-0.033420380204916,-0.4639543294906616,-0.0271755140274763,-0.01707702,-0.04118994,0.31994247
707,70403033,-0.0336715541779994,-0.4636138081550598,-0.0285140164196491,-0.018560858,-0.049713567,0.3452139
708,70453034,-0.0348057895898819,-0.4608820080757141,-0.0303371455520391,-0.024004254,-0.055872597,0.339262
709,70503035,-0.0357700400054454,-0.4616954326629638,-0.0310184881091117,-0.019306367,-0.047559384,0.3554945
710,70553036,-0.0343472771346569,-0.4590091407299042,-0.0336799398064613,-0.020981375,-0.039180428,0.35836887
711,70603037,-0.0364406555891037,-0.4592280387878418,-0.0368826650083065,-0.027046904,-0.061269045,0.3373356
712,70653038,-0.0390706099569797,-0.457994669675827,-0.0389525853097438,-0.017365672,-0.060444552,0.3336897
713,70703039,-0.0400499925017356,-0.4584016501903534,-0.0430651009082794,-0.022099921,-0.050749477,0.30920982
714,70753040,-0.0416152812540531,-0.458009660243988,-0.0444025322794914,-0.028216975,-0.03646124,0.31194973
715,70803041,-0.0421046763658523,-0.4582534730434418,-0.0445424988865852,-0.028944481,-0.04947402,0.3502426
716,70853042,-0.0452052280306816,-0.4557884633541107,-0.0443025082349777,-0.022420982,-0.054048285,0.30313873
717,70903043,-0.0481803640723228,-0.4573530554771423,-0.0429076254367828,-0.023293449,-0.044749517,0.33972263
718,70953044,-0.0500095188617706,-0.4565488398075104,-0.0440663881599903,-0.022336008,-0.046629567,0.31664753
719,71003045,-0.050872191786766,-0.4590120911598205,-0.043867602944374,-0.012477145,-0.05333822,0.3129511
720,71053046,-0.0526172630488872,-0.4586834907531738,-0.0437286235392093,-0.027188659,-0.04399013,0.33590984
721,71103047,-0.0522274710237979,-0.4626753032207489,-0.0444511100649833,-0.022519974,-0.044305466,0.32549286
722,71153048,-0.0532590337097644,-0.4638961553573608,-0.0462267324328422,-0.027621767,-0.038594175,0.31780148
723,71203049,-0.053561445325613,-0.4630177319049835,-0.0477735474705696,-0.016510535,-0.051966377,0.32908916
724,71253050,-0.0544057227671146,-0.4640189409255981,-0.050344318151474,-0.03927422,-0.045363702,0.3110342
725,71303051,-0.0553538240492343,-0.4631761014461517,-0.0528003238141536,-0.008316197,-0.044788554,0.34997082
726,71353052,-0.0572910346090793,-0.4614051580429077,-0.0550853013992309,-0.028264595,-0.046178512,0.31903458
727,71403053,-0.0594269074499607,-0.4621854722499847,-0.0551628395915031,-0.027986504,-0.043705612,0.31774044
728,71453054,-0.0600744821131229,-0.4616357982158661,-0.0575947985053062,-0.025485784,-0.049502432,0.3495102
729,71503055,-0.0593227632343769,-0.4593233466148376,-0.0589819140732288,-0.026756946,-0.04543654,0.31722927
730,71553056,-0.0625989511609077,-0.4597478210926056,-0.0593130625784397,-0.016051471,-0.038138,0.3367443
731,71603057,-0.0652751550078392,-0.459008514881134,-0.0600825324654579,-0.005631671,-0.05355868,0.3422804
732,71653058,-0.0661127045750618,-0.4595579802989959,-0.061688806861639,-0.018869242,-0.04566018,0.32833767
733,71703059,-0.0663637518882751,-0.4588643908500671,-0.0621000006794929,-0.023463376,-0.04448048,0.34808064
734,71753060,-0.0666746273636818,-0.457245409488678,-0.062245562672615,-0.01798053,-0.033669896,0.3373661
735,71803061,-0.0680392906069755,-0.4573874175548553,-0.0624827928841114,-0.013643377,-0.042635426,0.3275776
736,71853062,-0.070213533937931,-0.4594428837299347,-0.0644575655460357,-0.008244502,-0.034911726,0.33685112
737,71903063,-0.0715992227196693,-0.4582796990871429,-0.0684823766350746,-0.015425838,-0.05105287,0.34080887
738,71953064,-0.0742876231670379,-0.4565569460391998,-0.0711771845817565,-0.009513166,-0.048638392,0.32506847
739,72003065,-0.0751184150576591,-0.4568525850772857,-0.0724694579839706,-0.03130355,-0.035283107,0.3172369
740,72053066,-0.0750577226281166,-0.458252340555191,-0.0733599513769149,-0.0350524,-0.042068727,0.32504082
741,72103067,-0.0756025686860084,-0.4598276615142822,-0.0751882642507553,-0.00883231,-0.042620763,0.32158184
742,72153068,-0.0765983387827873,-0.4606738984584808,-0.0774780064821243,-0.027860241,-0.04753484,0.32886887
743,72203069,-0.0776934325695037,-0.4600166082382202,-0.0807801410555839,-0.02549691,-0.0424775,0.34784508
744,72253070,-0.0784923657774925,-0.4626059532165527,-0.0817092433571815,-0.023795184,-0.04512383,0.33337116
745,72303071,-0.0822833627462387,-0.4611557424068451,-0.0820120200514793,-0.019812575,-0.0465641,0.34100342
746,72353072,-0.0818185061216354,-0.4594082832336426,-0.0827479735016822,-0.012967965,-0.04381401,0.3273468
747,72403073,-0.081978365778923,-0.4582742750644684,-0.084463357925415,-0.028020173,-0.060733486,0.33232212
748,72453074,-0.0820856019854545,-0.4576320648193359,-0.0833121389150619,-0.015434773,-0.037786067,0.31561184
749,72503075,-0.0846802443265914,-0.458372563123703,-0.084533467888832,-0.02355974,-0.038845155,0.33430195
750,72553076,-0.0849857330322265,-0.4617291688919067,-0.08464065939188,-0.01790488,-0.027146187,0.32499886
751,72603077,-0.0852477252483367,-0.4612504839897156,-0.0845088064670562,-0.024648858,-0.054946244,0.35055828
752,72653078,-0.08683542907238,-0.461446613073349,-0.0861599892377853,-0.025627939,-0.04519779,0.3340273
753,72703079,-0.0888214632868766,-0.4621744155883789,-0.0887118354439735,-0.021836985,-0.02568372,0.3259039
754,72753080,-0.0919620916247367,-0.4615833759307861,-0.0905530676245689,-0.014272559,-0.03838646,0.33054066
755,72803081,-0.0929059013724327,-0.4610463082790375,-0.0935716703534126,-0.025590787,-0.029884653,0.30996895
756,72853082,-0.0911764353513717,-0.4593887627124786,-0.0940745174884796,-0.019436276,-0.03361469,0.32943916
757,72903083,-0.0923574492335319,-0.4604566097259521,-0.0946934074163436,-0.027359698,-0.033840887,0.3333931
758,72953084,-0.0929316654801368,-0.4621437788009643,-0.0965893641114234,-0.022103425,-0.04037282,0.34480762
759,73003085,-0.0950066149234771,-0.4599250257015228,-0.0986997410655021,-0.012932119,-0.04160098,0.33243465
760,73053086,-0.0905442163348198,-0.4466473162174225,-0.0849711075425148,-0.011377251,-0.044699363,0.3406477
761,73103087,-0.0908377841114997,-0.4447804689407348,-0.0864112600684166,-0.023927402,-0.049408726,0.31391144
762,73153088,-0.0913188755512237,-0.4413225948810577,-0.0860855504870414,-0.023948727,-0.03609098,0.33835602
763,73203089,-0.0932021215558052,-0.4393208622932434,-0.0863131880760192,-0.020207644,-0.045573305,0.32196045
764,73253090,-0.0930103436112403,-0.4387239813804626,-0.0858171805739402,-0.009160235,-0.05395314,0.34820938
765,73303091,-0.0924470648169517,-0.438560277223587,-0.0841995850205421,-0.02444669,-0.04485323,0.30479813
766,73353092,-0.091510996222496,-0.4362015128135681,-0.0843087509274482,-0.0052332627,-0.033767603,0.33774662
767,73403093,-0.091923750936985,-0.437134325504303,-0.0841014310717582,-0.022257786,-0.04507774,0.3247013
768,73453094,-0.0947897136211395,-0.4367424845695495,-0.084449827671051,-0.008471183,-0.050748613,0.3483467
769,73503095,-0.0949702188372612,-0.436849445104599,-0.0850459486246109,-0.0038879171,-0.0344471,0.33342934
770,73553096,-0.0950621366500854,-0.4348380863666534,-0.0857334733009338,-0.016299075,-0.038944893,0.32910156
771,73603097,-0.0961570516228675,-0.433193027973175,-0.0854995250701904,-0.03462351,-0.04917846,0.32628727
772,73653098,-0.097490407526493,-0.4306577444076538,-0.0869650542736053,-0.011610821,-0.04506574,0.30251217
773,73703099,-0.0988429337739944,-0.4304993450641632,-0.0866637900471687,-0.010934901,-0.029914387,0.31399536
774,73753100,-0.1025244295597076,-0.4277884364128113,-0.0862978622317314,-0.01792868,-0.046653893,0.32992077
775,73803101,-0.106629729270935,-0.4281810224056244,-0.0881810635328292,-0.0049409284,-0.034532655,0.32730007
776,73853102,-0.1058373376727104,-0.4263871014118194,-0.0913328528404235,-0.025959115,-0.040646937,0.3080721
777,73903103,-0.1056876182556152,-0.4264157712459564,-0.0926063731312751,-0.01321506,-0.04361511,0.2946968
778,73953104,-0.1068079397082328,-0.4268727600574493,-0.0951723977923393,-0.018938974,-0.03389858,0.31107903
779,74003105,-0.1072592213749885,-0.4264816641807556,-0.0962977930903434,-0.02354717,-0.049314775,0.33035278
780,74053106,-0.1068439334630966,-0.4279636442661285,-0.0958854779601097,-0.020039491,-0.040676787,0.33191395
781,74103107,-0.1075823009014129,-0.4273742437362671,-0.0971315950155258,-0.022102494,-0.03410084,0.3259821
782,74153108,-0.108221024274826,-0.4283153116703033,-0.1010715290904045,-0.019915037,-0.05052501,0.31936932
783,74203109,-0.1086478605866432,-0.4269221723079681,-0.1040045544505119,-0.011165469,-0.047008745,0.35349274
784,74253110,-0.1092839017510414,-0.4240785837173462,-0.1041774004697799,-0.011531529,-0.041579995,0.31062698
785,74303111,-0.109189935028553,-0.4234336018562317,-0.1053709238767623,-0.0141056795,-0.048181262,0.3315096
786,74353112,-0.1105745807290077,-0.4227203726768493,-0.1076873689889907,-0.01593807,-0.03700267,0.33791637
787,74403113,-0.1098427847027778,-0.4210940301418304,-0.1099888980388641,-0.016901212,-0.041755155,0.3411293
788,74453114,-0.1113653182983398,-0.4188883304595947,-0.1112565770745277,-0.018652093,-0.039440576,0.32084942
789,74503115,-0.1119365841150283,-0.4188017249107361,-0.1127064973115921,-0.022459522,-0.034831185,0.32979488
790,74553116,-0.1124725937843322,-0.4180888533592224,-0.1118615791201591,-0.01417588,-0.041568182,0.31024933
791,74603117,-0.1132886409759521,-0.4181366860866546,-0.1154367327690124,-0.02441404,-0.033667594,0.3119011
792,74653118,-0.1128522306680679,-0.4184129238128662,-0.1154525056481361,-0.017410226,-0.035952684,0.3451109
793,74703119,-0.1144180595874786,-0.4165814220905304,-0.1145755723118782,-0.010906737,-0.03900935,0.31371784
794,74753120,-0.1139457002282142,-0.4185056686401367,-0.1155575811862945,-0.016838642,-0.041568387,0.3131628
795,74803121,-0.1152898967266082,-0.4147871434688568,-0.1169383227825164,-0.02444432,-0.03943559,0.3318348
796,74853122,-0.1169468238949775,-0.4147814512252807,-0.1183871105313301,-0.018907286,-0.03688589,0.311862
797,74903123,-0.1187815964221954,-0.4155426025390625,-0.1198057606816291,-0.009515488,-0.044200122,0.33243656
798,74953124,-0.1170190274715423,-0.4129310250282287,-0.1204663291573524,-0.019853478,-0.034953676,0.32168865
799,75003125,-0.1216265931725502,-0.4118815064430237,-0.1203127056360244,-0.0042825397,-0.046112504,0.31340122
800,75053126,-0.1206511333584785,-0.4286847710609436,-0.1148865595459938,-0.014202867,-0.03621966,0.33115292
801,75103127,-0.1224400550127029,-0.4302068650722503,-0.1161765158176422,-0.01760578,-0.03745689,0.32018375
802,75153128,-0.1212629526853561,-0.4300058484077453,-0.117473304271698,-0.02124345,-0.036231805,0.33842468
803,75203129,-0.1209148243069648,-0.4310515224933624,-0.1159056574106216,-0.013669378,-0.04964734,0.3128147
804,75253130,-0.1218427717685699,-0.4307179152965545,-0.1151597499847412,-0.008693226,-0.037241254,0.3295393
805,75303131,-0.1230699270963668,-0.4288695454597473,-0.1151342317461967,-0.010200486,-0.02712256,0.33538342
806,75353132,-0.1236875876784324,-0.4296253323554992,-0.1172711327672004,-0.017071366,-0.029684955,0.33268642
807,75403133,-0.1249494031071662,-0.4285660982131958,-0.1188745871186256,-0.0064075436,-0.04534029,0.32705593
808,75453134,-0.1255632042884826,-0.4275296330451965,-0.119801253080368,-0.020731227,-0.034719817,0.3275547
809,75503135,-0.1273486763238906,-0.4238846600055694,-0.1198630034923553,-0.0052862735,-0.04159066,0.32543564
810,75553136,-0.1288253664970398,-0.4217176735401153,-0.1205908358097076,-0.0071381796,-0.039319754,0.34012508
811,75603137,-0.1305205374956131,-0.4236546754837036,-0.1202068999409675,-0.021021461,-0.027180195,0.32901478
812,75653138,-0.1309234797954559,-0.4237402975559234,-0.1207304149866104,-0.00827835,-0.037567765,0.34613705
813,75703139,-0.1307814866304397,-0.4227421283721924,-0.1244165375828743,-0.0063916636,-0.017519016,0.3292656
814,75753140,-0.1315080672502517,-0.4206352829933166,-0.1260044127702713,0.0014110582,-0.038083337,0.31919956
815,75803141,-0.1318518966436386,-0.4197906255722046,-0.1246320903301239,-0.011450099,-0.046211217,0.32540035
816,75853142,-0.1318404674530029,-0.4182879030704498,-0.1263666152954101,-0.021398854,-0.037683286,0.34448814
817,75903143,-0.1317613422870636,-0.4176566898822784,-0.1271597892045974,-0.011320112,-0.03917756,0.32913113
818,75953144,-0.1297683268785476,-0.4154612720012665,-0.127747967839241,-0.016801285,-0.03800214,0.34577465
819,76003145,-0.1306917518377304,-0.4152779877185821,-0.1263831257820129,-0.022069603,-0.03832588,0.34809208
820,76053146,-0.1307514160871505,-0.4140019714832306,-0.127341940999031,-0.0032902504,-0.028453663,0.33266354
821,76103147,-0.1301050931215286,-0.4139045178890228,-0.1264326125383377,-0.004949527,-0.03373719,0.31167793
822,76153148,-0.1309380233287811,-0.4144397377967834,-0.1275011152029037,-0.0057666902,-0.033279955,0.3218031
823,76203149,-0.1311311721801757,-0.4149294197559356,-0.1281762570142746,-0.005228904,-0.027244546,0.34748554
824,76253150,-0.1343413889408111,-0.4140857458114624,-0.1282864212989807,-0.022719258,-0.03745114,0.34219837
825,76303151,-0.1322522014379501,-0.413851648569107,-0.1304806619882583,-0.010241128,-0.042451765,0.33480453
826,76353152,-0.132983386516571,-0.4119775593280792,-0.1312808841466903,-0.0074185994,-0.03576564,0.3412218
827,76403153,-0.1335823982954025,-0.4151041507720947,-0.1314064711332321,-0.015218692,-0.034322035,0.32850456
828,76453154,-0.1357183903455734,-0.4153524041175842,-0.1308735162019729,-0.011211145,-0.02595058,0.31515694
829,76503155,-0.1368162184953689,-0.4129981398582458,-0.1306350976228714,-0.01164889,-0.027999077,0.3112526
830,76553156,-0.1374056190252304,-0.4121098816394806,-0.1327395290136337,-0.006255726,-0.046126105,0.3313179
831,76603157,-0.1401267200708389,-0.4101230800151825,-0.131998673081398,-0.0065703834,-0.058871754,0.3336296
832,76653158,-0.1394352912902832,-0.4089764654636383,-0.1322493851184845,-0.008167249,-0.039466377,0.32706547
833,76703159,-0.1423706710338592,-0.407172828912735,-0.1326881796121597,-0.014969857,-0.037153784,0.3179989
834,76753160,-0.1434376388788223,-0.4036387801170349,-0.1337948739528656,-0.008113712,-0.048754375,0.3356142
835,76803161,-0.1434429883956909,-0.4038890600204468,-0.1358397006988525,-0.020140547,-0.03578466,0.31812286
836,76853162,-0.1450299471616745,-0.4023235440254211,-0.135295495390892,-0.0070157973,-0.026902024,0.31868553
837,76903163,-0.1453275978565216,-0.4012311697006225,-0.1351617127656936,-0.0024093683,-0.032991316,0.3536911
838,76953164,-0.1472203284502029,-0.3971294164657593,-0.1349182277917862,-0.01623189,-0.023695415,0.31066513
839,77003165,-0.1473030298948288,-0.3967940807342529,-0.1329835206270218,-0.0062101698,-0.04096241,0.32869625
840,77053166,-0.1476002633571624,-0.4083999395370483,-0.1304141730070114,-0.009876937,-0.044023093,0.29996014
841,77103167,-0.1508001983165741,-0.4068911075592041,-0.1309520453214645,0.0018734263,-0.03274532,0.32905293
842,77153168,-0.1510527282953262,-0.407364547252655,-0.1321570724248886,-0.0077116718,-0.02055327,0.3211136
843,77203169,-0.1510125994682312,-0.4088578820228576,-0.134988248348236,-0.012409982,-0.03278158,0.3349743
844,77253170,-0.1538379788398742,-0.4057278633117676,-0.1358481794595718,-0.013770013,-0.037329458,0.32042027
845,77303171,-0.1551641225814819,-0.4066250026226043,-0.1358147114515304,0.003598803,-0.031581637,0.33455753
846,77353172,-0.1565238833427429,-0.4060328900814056,-0.1351705342531204,-0.01763111,-0.025385767,0.32962608
847,77403173,-0.1581840515136718,-0.409144252538681,-0.1357844322919845,-0.005078714,-0.02750325,0.34653568
848,77453174,-0.1576069444417953,-0.4112537801265716,-0.1369618922472,-0.016251927,-0.017118858,0.3203516
849,77503175,-0.1592146903276443,-0.41427743434906,-0.140771210193634,-0.0035601843,-0.045776676,0.32747173
850,77553176,-0.1627693474292755,-0.4132861793041229,-0.1404854208230972,-0.007974385,-0.033562757,0.33700466
851,77603177,-0.1642903238534927,-0.4153580665588379,-0.1392231434583664,-0.0063610496,-0.031847544,0.3111992
852,77653178,-0.1652449369430542,-0.4160189032554626,-0.1388396620750427,-0.009604964,-0.023014853,0.30532455
853,77703179,-0.1668918132781982,-0.4147473275661468,-0.1400524228811264,-0.0071007307,-0.025258068,0.34485435
854,77753180,-0.1664122492074966,-0.4138998687267303,-0.1396310329437255,-0.01876792,-0.03791386,0.3291149
855,77803181,-0.1683667600154876,-0.4141215980052948,-0.1405201256275177,-0.01921181,-0.026816987,0.32963753
856,77853182,-0.1701348274946212,-0.4140185117721557,-0.1408100724220276,-0.017912779,-0.015278523,0.33317947
857,77903183,-0.1717501282691955,-0.4164413511753082,-0.1391317248344421,-0.010279268,-0.028567031,0.34661865
858,77953184,-0.1727474927902221,-0.4172622263431549,-0.1379812061786651,0.003545855,-0.008491766,0.31158352
859,78003185,-0.1737672984600067,-0.4160785973072052,-0.1353861540555954,-0.0067199133,-0.04441844,0.3509693
860,78053186,-0.1745751053094864,-0.4182934165000915,-0.1355622112751007,-0.012243292,-0.03559388,0.3274212
861,78103187,-0.1742617189884185,-0.4201613366603851,-0.1347480118274688,-0.01826791,-0.015871495,0.3486309
862,78153188,-0.1750051081180572,-0.4178940951824188,-0.1363842785358429,-0.020144261,-0.031510368,0.33058357
863,78203189,-0.1746706068515777,-0.4136117398738861,-0.1353394389152526,-0.013715026,-0.03560147,0.31612396
864,78253190,-0.1728489398956298,-0.4140170514583587,-0.1373467445373535,-0.019858511,-0.023260554,0.3164978
865,78303191,-0.1733474880456924,-0.4134505093097687,-0.1364874392747879,-0.018483808,-0.03611751,0.3280506
866,78353192,-0.1747474074363708,-0.4127281010150909,-0.1388890445232391,-0.003706152,-0.02628947,0.32105637
867,78403193,-0.17574143409729,-0.4152403771877289,-0.1410731971263885,-0.015706724,-0.040488567,0.33119106
868,78453194,-0.1766730695962906,-0.4147270023822784,-0.1421166211366653,-0.01294015,-0.026205866,0.34102345
869,78503195,-0.1764509379863739,-0.4149229824542999,-0.1454104930162429,0.0038293463,-0.028444378,0.34377766
870,78553196,-0.1767335385084152,-0.4139350056648254,-0.1465878039598465,-0.030248372,-0.031092733,0.2974863
871,78603197,-0.1763476878404617,-0.4136054813861847,-0.1477078944444656,-0.0055118017,-0.036881696,0.34143066
872,78653198,-0.1767500191926956,-0.4098419547080993,-0.1471842229366302,-0.010540029,-0.020783868,0.31707668
873,78703199,-0.1783655732870102,-0.4077969193458557,-0.1497152745723724,-0.01748177,-0.020552646,0.32375622
874,78753200,-0.1789216697216034,-0.4085989594459533,-0.1507777720689773,-0.01635548,-0.032812905,0.34204102
875,78803201,-0.1774853765964508,-0.4105269908905029,-0.1501604914665222,-0.016096633,-0.027792208,0.3359995
876,78853202,-0.1797481179237365,-0.4084096848964691,-0.1510887295007705,-0.013179019,-0.023585685,0.3418684
877,78903203,-0.1809685230255127,-0.4098611176013946,-0.1510972380638122,-0.016605718,-0.017523425,0.3276806
878,78953204,-0.1824489533901214,-0.4105672538280487,-0.1489740908145904,-0.012734167,-0.01906273,0.33697796
879,79003205,-0.1848775148391723,-0.4108232855796814,-0.1490407884120941,-0.00948524,-0.024837397,0.32158375
880,79053206,-0.1759666949510574,-0.4025881588459015,-0.1485289335250854,-0.009500067,-0.034642275,0.324337
881,79103207,-0.1770636588335037,-0.4014388918876648,-0.1501407027244568,-0.011225922,-0.025291925,0.32761288
882,79153208,-0.1768480837345123,-0.3985368013381958,-0.1510561257600784,-0.011568245,-0.024312865,0.33766365
883,79203209,-0.1787956804037094,-0.3973835408687591,-0.1496829241514206,-0.008038144,-0.021158023,0.31755543
884,79253210,-0.1803840398788452,-0.397529274225235,-0.1479500830173492,-0.023943493,-0.029696574,0.31827164
885,79303211,-0.1790238320827484,-0.3955847322940826,-0.1472424566745758,-0.013186262,-0.020810993,0.34064674
886,79353212,-0.1813501268625259,-0.3959389328956604,-0.1491245627403259,-0.008310328,-0.030179983,0.3217678
887,79403213,-0.1810041069984436,-0.3945966362953186,-0.1498728543519973,0.007126843,-0.024720503,0.32695198
888,79453214,-0.1829005479812622,-0.3971180617809295,-0.1480344384908676,-0.002158098,-0.041973583,0.32055187
889,79503215,-0.1841053813695907,-0.3972021639347076,-0.1479727923870086,0.0012162771,-0.008867564,0.31613064
890,79553216,-0.1850434690713882,-0.3974004089832306,-0.1496833860874176,0.011535577,-0.025308508,0.33234692
891,79603217,-0.1846846640110016,-0.3966334760189056,-0.1506701707839965,-0.00796787,-0.01771375,0.32768726
892,79653218,-0.183958351612091,-0.3951928615570068,-0.1507693976163864,0.00040599034,-0.02646732,0.33504963
893,79703219,-0.1852374225854873,-0.3953911662101745,-0.153704896569252,-0.0034319472,-0.013926259,0.33462048
894,79753220,-0.1860139518976211,-0.3959285020828247,-0.1536321640014648,0.0016027485,-0.017347528,0.3189144
895,79803221,-0.1853607445955276,-0.3961806893348694,-0.1545014530420303,-0.008931337,-0.026753126,0.34201527
896,79853222,-0.185794711112976,-0.3983677327632904,-0.1569266617298126,-0.006086485,-0.01890031,0.32900143
897,79903223,-0.1871510297060012,-0.3992819488048553,-0.1571776121854782,-0.008426674,-0.016549986,0.3139305
898,79953224,-0.1873659491539001,-0.3993983268737793,-0.157224953174591,-0.019989077,-0.019850733,0.33831787
899,80003225,-0.1874333322048187,-0.3970370888710022,-0.1564605385065078,-0.010545109,-0.0137218395,0.3340397
900,80053226,-0.1867317855358123,-0.3985044956207275,-0.1561289727687835,-0.018909642,-0.017611936,0.32161808
901,80103227,-0.1870903074741363,-0.3983892202377319,-0.1557487696409225,-0.003529671,-0.0307808,0.3299303
902,80153228,-0.1864267289638519,-0.3984548449516296,-0.1572925001382827,-0.01824951,-0.0122382315,0.34445477
903,80203229,-0.1866856068372726,-0.4000188708305359,-0.1581973284482956,-0.0076574036,-0.039955437,0.3166561
904,80253230,-0.1884241253137588,-0.3986555635929107,-0.1599750071763992,0.0034673705,-0.03594505,0.33320427
905,80303231,-0.1881102919578552,-0.4001264572143554,-0.1620831787586212,-0.002023564,-0.028101975,0.33978176
906,80353232,-0.1879604905843734,-0.3981934487819671,-0.1623717993497848,-0.001085138,-0.021157203,0.3266678
907,80403233,-0.190026044845581,-0.3973584175109863,-0.163883700966835,-0.012275468,-0.028988197,0.3106861
908,80453234,-0.1919528841972351,-0.3935384750366211,-0.1647599637508392,-0.014600349,-0.022391316,0.33491135
909,80503235,-0.1928078979253769,-0.3937641084194183,-0.1662029772996902,-0.008405235,-0.025454206,0.30560112
910,80553236,-0.1945564448833465,-0.3938403725624084,-0.1669559031724929,-0.016228551,-0.02197124,0.33883667
911,80603237,-0.1928820163011551,-0.3951780796051025,-0.1685523390769958,-0.014965174,-0.013180798,0.34127617
912,80653238,-0.1929028779268264,-0.3953161835670471,-0.1694283336400985,0.0011689414,-0.03180799,0.3317814
913,80703239,-0.1919373869895935,-0.3977006673812866,-0.1707111895084381,-0.0047247494,-0.036403693,0.32151604
914,80753240,-0.1897482573986053,-0.3958384692668915,-0.1712577641010284,-0.0007818064,-0.032537565,0.34269142
915,80803241,-0.1891380101442337,-0.3962240517139435,-0.1719566732645034,-0.018852666,-0.011253568,0.33625603
916,80853242,-0.189269408583641,-0.3954105675220489,-0.1723987907171249,-0.010335901,-0.0126878265,0.32642174
917,80903243,-0.1906823217868805,-0.3990069031715393,-0.1725101470947265,-0.011675198,-0.03589364,0.31765938
918,80953244,-0.1923439502716064,-0.397641658782959,-0.1714458465576172,-0.01725161,-0.017750533,0.31419563
919,81003245,-0.1937536150217056,-0.3973364233970642,-0.1703749150037765,-0.015991593,-0.033814862,0.3221264
920,81053246,-0.1964180469512939,-0.3935184180736542,-0.1647087186574936,-0.021169275,-0.021665093,0.31976318
921,81103247,-0.1981702744960785,-0.391826719045639,-0.1633468121290207,-0.004013395,-0.017598944,0.33780575
922,81153248,-0.2002587616443634,-0.3907717764377594,-0.1652660518884658,-0.0019860629,-0.02161544,0.32798767
923,81203249,-0.1986858397722244,-0.3893425166606903,-0.1668320000171661,-0.005835099,-0.022530114,0.34335136
924,81253250,-0.197880133986473,-0.3899246156215668,-0.1680906116962433,-0.013621962,-0.024721026,0.32249832
925,81303251,-0.1987604349851608,-0.3908441662788391,-0.1689545512199401,-0.008974525,-0.025055276,0.33400154
926,81353252,-0.1991530358791351,-0.390872985124588,-0.1705214828252792,-0.0061851414,-0.030173054,0.3231573
927,81403253,-0.2003445774316787,-0.3882322013378143,-0.1694837808609008,-0.001140604,-0.021615788,0.32876492
928,81453254,-0.2024434059858322,-0.3843725323677063,-0.1684944480657577,0.0014351069,-0.0449871,0.35385227
929,81503255,-0.2037418484687805,-0.3843333721160888,-0.1681978851556778,-0.008360132,-0.019826852,0.31522942
930,81553256,-0.2033840417861938,-0.3842970728874206,-0.1700231879949569,-0.012327371,-0.02224126,0.33174896
931,81603257,-0.2035749405622482,-0.3840823769569397,-0.1707862317562103,-0.0007823303,-0.035543967,0.3068447
932,81653258,-0.202422097325325,-0.3861071169376373,-0.1717958748340606,0.002117174,-0.028342292,0.32003307
933,81703259,-0.2037206292152404,-0.3854314982891083,-0.1735283732414245,-0.00816361,-0.03595319,0.34011555
934,81753260,-0.202767863869667,-0.3841907978057861,-0.1724104732275009,-0.0076959543,-0.021327043,0.3144436
935,81803261,-0.2036857306957245,-0.3840855360031128,-0.1719574928283691,-0.009834532,-0.022661168,0.3347292
936,81853262,-0.2071406692266464,-0.3856794238090515,-0.1735945343971252,-0.0011034975,-0.024382057,0.31010246
937,81903263,-0.2064344137907028,-0.3835307657718658,-0.1744400858879089,-0.013040394,-0.023888564,0.33224678
938,81953264,-0.2077149599790573,-0.381779283285141,-0.1769064515829086,-0.0018748441,-0.022827804,0.33275223
939,82003265,-0.2064638435840606,-0.3853707313537597,-0.1772648096084594,-0.014761213,-0.023615563,0.3334694
940,82053266,-0.2061862796545028,-0.3836993873119354,-0.1760993599891662,-0.019522987,-0.007471745,0.30877495
941,82103267,-0.2072349786758422,-0.3810881972312927,-0.1777755618095398,-0.0065132217,-0.022722213,0.31776047
942,82153268,-0.2083628922700882,-0.3813342154026031,-0.178076684474945,-0.0051511093,-0.021213936,0.31977367
943,82203269,-0.208758071064949,-0.3827020227909088,-0.1797595918178558,0.009633213,-0.020701755,0.31091213
944,82253270,-0.2091424763202667,-0.3836539387702942,-0.179293543100357,0.0017065144,-0.024396189,0.31577873
945,82303271,-0.2098410576581955,-0.3811589479446411,-0.1786940544843673,-0.016974395,-0.031184368,0.3432684
946,82353272,-0.2101145386695861,-0.3822892010211944,-0.1794368326663971,-0.013342005,-0.03150819,0.32661724
947,82403273,-0.2103737890720367,-0.3823045790195465,-0.1806152909994125,-0.0123349745,-0.013115441,0.32728577
948,82453274,-0.210672840476036,-0.3838655352592468,-0.1809633821249008,0.00086479954,-0.028807957,0.33843517
949,82503275,-0.2117706686258316,-0.3821263909339905,-0.1798943728208542,-0.017846841,-0.026153145,0.34034443
950,82553276,-0.212269589304924,-0.3826070725917816,-0.1828643530607223,0.0015065542,-0.035479963,0.32371235
951,82603277,-0.212738960981369,-0.3835495114326477,-0.1822770684957504,-0.01778635,-0.016359257,0.30640125
952,82653278,-0.2129379212856292,-0.3830782771110534,-0.1834839582443237,-0.01629996,-0.021673704,0.30994892
953,82703279,-0.2108728289604187,-0.3808417618274688,-0.1836223304271698,-0.0052918037,-0.015452303,0.31412506
954,82753280,-0.2134677767753601,-0.3826328217983246,-0.1839244663715362,0.00316787,-0.04234346,0.3051033
955,82803281,-0.2143706083297729,-0.3816927969455719,-0.1847113072872162,-0.0098236725,-0.033907343,0.31819344
956,82853282,-0.2145134359598159,-0.3813659250736236,-0.1833584457635879,-0.015768945,-0.022197459,0.3541565
957,82903283,-0.2171889841556549,-0.380046397447586,-0.1856832504272461,0.00034774424,-0.017866127,0.32657433
958,82953284,-0.2184089571237564,-0.3774637281894684,-0.1871862709522247,-0.001762473,-0.017480705,0.31704235
959,83003285,-0.219397947192192,-0.377418041229248,-0.1885697692632675,-0.01206477,-0.016435685,0.33362484
960,83053286,-0.2156415730714798,-0.3846080303192138,-0.1768026649951934,-0.0047214055,-0.024509307,0.3361721
961,83103287,-0.2166792601346969,-0.3851675391197204,-0.1763036847114563,-0.0042185523,-0.012743975,0.31056023
962,83153288,-0.2179797887802124,-0.3854320049285888,-0.1748126596212387,-0.012017143,-0.016075114,0.3500738
963,83203289,-0.2186701595783233,-0.3839201331138611,-0.173316553235054,-0.013985611,-0.02138697,0.3295889
964,83253290,-0.2179521322250366,-0.3850913941860199,-0.1731197834014892,-0.014442185,-0.017355613,0.33721733
965,83303291,-0.2166259735822677,-0.3868014812469482,-0.1711234152317047,-0.018893352,-0.024320683,0.34008121
966,83353292,-0.2160887122154235,-0.3856287896633148,-0.1697710007429123,-0.018470282,-0.010813782,0.34655476
967,83403293,-0.2162213623523712,-0.3850159645080566,-0.169825866818428,-0.0050157337,-0.029677061,0.3278885
968,83453294,-0.2168242186307907,-0.3832960426807403,-0.169180765748024,-0.014025577,-0.019436892,0.34012318
969,83503295,-0.218978002667427,-0.3822336494922638,-0.1694360226392746,-0.008843571,-0.025503533,0.3282385
970,83553296,-0.2217140942811966,-0.383831262588501,-0.1697459667921066,0.0023266652,-0.011501357,0.31852436
971,83603297,-0.2227421402931213,-0.3837769627571106,-0.1701753586530685,-0.026054647,-0.0061335135,0.3177042
972,83653298,-0.222144067287445,-0.3846047818660736,-0.1699653267860412,-0.00519592,-0.024732377,0.31619167
973,83703299,-0.222542256116867,-0.3831810355186462,-0.1677595674991607,-0.005600386,-0.03134517,0.313056
974,83753300,-0.2223367989063263,-0.3850578367710113,-0.1672481894493103,-0.007060816,-0.02168573,0.33614063
975,83803301,-0.221611201763153,-0.3837479948997497,-0.1677080541849136,-0.010578313,-0.025622584,0.3202324
976,83853302,-0.220944195985794,-0.3846133351325989,-0.1689402610063552,-0.012287145,-0.020592242,0.3438797
977,83903303,-0.2204963117837906,-0.3838850557804107,-0.1683771312236786,-0.012316135,-0.022719951,0.32745457
978,83953304,-0.2200560569763183,-0.3845395445823669,-0.1691028177738189,-0.008799183,-0.015538495,0.33240032
979,84003305,-0.2207529097795486,-0.3839646577835083,-0.171248972415924,-0.016425986,-0.022356492,0.3182993
980,84053306,-0.2208418250083923,-0.3831655979156494,-0.1697624772787094,-0.022480877,-0.016792508,0.3116684
981,84103307,-0.2233323603868484,-0.3820049464702606,-0.1682728230953216,-0.0064069307,-0.010914667,0.35641003
982,84153308,-0.2226333022117614,-0.3873478770256042,-0.1718993037939071,-0.010240971,-0.024322122,0.32367897
983,84203309,-0.2225815057754516,-0.3874188065528869,-0.1722516268491745,-0.009550546,-0.02843454,0.330163
984,84253310,-0.222076341509819,-0.3863870203495025,-0.172192633152008,-0.01863155,-0.017436786,0.3204136
985,84303311,-0.2217874974012375,-0.3865677714347839,-0.1723160445690155,-0.016062832,-0.019635368,0.3228321
986,84353312,-0.221824049949646,-0.385776549577713,-0.1712963581085205,-0.016910398,-0.023995088,0.3083706
987,84403313,-0.2229399979114532,-0.3846479058265686,-0.170785367488861,-0.0129250735,-0.031904787,0.3164835
988,84453314,-0.2226371020078659,-0.3834612965583801,-0.1710823625326156,-0.011980466,-0.016573168,0.31319332
989,84503315,-0.222001701593399,-0.3810519576072693,-0.1705598086118698,-0.014234862,-0.015323488,0.32968426
990,84553316,-0.2230753451585769,-0.381407618522644,-0.1705998480319976,-0.0032128068,-0.015597557,0.33608913
991,84603317,-0.2220941334962844,-0.3802386224269867,-0.1688066571950912,-0.017686382,-0.017344614,0.33106422
992,84653318,-0.2229744493961334,-0.3823412358760834,-0.1686906814575195,-0.0046519088,-0.027247287,0.3322153
993,84703319,-0.2218380868434906,-0.383116602897644,-0.1678400188684463,-0.007667055,-0.027583437,0.32062912
994,84753320,-0.2221070826053619,-0.3844488263130188,-0.1711226254701614,0.00106008,-0.030836934,0.3232336
995,84803321,-0.2219478338956833,-0.3871447145938873,-0.1697186976671219,-0.01130635,-0.010994695,0.32610798
996,84853322,-0.2208764404058456,-0.3870457112789154,-0.1690634489059448,0.0013205041,-0.017359408,0.3268366
997,84903323,-0.2194831818342209,-0.3856806755065918,-0.1693039089441299,-0.005739612,-0.014569807,0.33307838
998,84953324,-0.2198571413755417,-0.3849770128726959,-0.1705160588026046,-0.005803837,-0.026473187,0.34220314
999,85003325,-0.2212882936000824,-0.3853747844696045,-0.1694798171520233,-0.0046368497,-0.012087489,0.32963467
1000,85053326,-0.2246789634227752,-0.3780142366886139,-0.1838436275720596,-0.013396132,0.0015902772,0.34192657
1001,85103327,-0.2236569821834564,-0.3779419064521789,-0.1860028505325317,0.009051887,-0.018697344,0.33997726
1002,85153328,-0.2237745374441146,-0.3791539072990417,-0.1869737803936004,-0.014903262,-0.014491499,0.32588673
1003,85203329,-0.2241566479206085,-0.3787040114402771,-0.1877811104059219,-0.0076264767,-0.021169817,0.31997776
1004,85253330,-0.2248091697692871,-0.3815387487411499,-0.1904129534959793,-0.014465392,-0.026154932,0.3173628
1005,85303331,-0.22369085252285,-0.3839395344257355,-0.1925215423107147,-0.00963656,-0.03089155,0.32064438
1006,85353332,-0.2219399213790893,-0.3821490705013275,-0.1920996457338333,0.020998025,-0.033524554,0.34503174
1007,85403333,-0.2220647633075714,-0.382706880569458,-0.1944431811571121,-0.0052778935,-0.023626126,0.3344469
1008,85453334,-0.2217463999986648,-0.3835189938545227,-0.196350485086441,-0.019835927,-0.016407795,0.3156891
1009,85503335,-0.2214607745409011,-0.3851226270198822,-0.1961518824100494,0.0020413473,-0.024824684,0.3522129
1010,85553336,-0.2212693989276886,-0.3873494863510132,-0.1952376216650009,-0.0053137867,-0.011117918,0.33924675
1011,85603337,-0.2229082882404327,-0.3900153040885925,-0.1968221366405487,-0.0072187614,-0.01535102,0.34721088
1012,85653338,-0.2237992733716964,-0.3898578286170959,-0.1989968568086624,-0.006223708,-0.021365581,0.35631084
1013,85703339,-0.2237123996019363,-0.3903356492519378,-0.1993094384670257,-0.019956054,-0.026739487,0.31084442
1014,85753340,-0.2241515219211578,-0.3896885216236114,-0.1979892551898956,-0.011486718,-0.009501848,0.31346607
1015,85803341,-0.2227333486080169,-0.3886783123016357,-0.1964441686868667,-0.0037384008,-0.022434,0.32047653
1016,85853342,-0.2236009538173675,-0.3889182507991791,-0.1958971321582794,-0.008842619,-0.021113776,0.3311062
1017,85903343,-0.2258252650499344,-0.3888231515884399,-0.196449875831604,-0.0007890566,-0.02717935,0.33257866
1018,85953344,-0.2259522676467895,-0.3912964165210724,-0.1960714608430862,-0.0084471535,-0.008498753,0.32598877
1019,86003345,-0.2246412485837936,-0.3917585015296936,-0.1975036412477493,-0.011377026,-0.02410825,0.32253265
1020,86053346,-0.2240955233573913,-0.390772670507431,-0.198492094874382,-0.008647284,-0.007203433,0.32568455
1021,86103347,-0.2242254316806793,-0.3907209038734436,-0.1995947062969207,-0.00021771908,-0.0026009155,0.32727623
1022,86153348,-0.2244212329387664,-0.390924721956253,-0.1991009712219238,-0.018654807,-0.016676199,0.32508564
1023,86203349,-0.221427246928215,-0.388611376285553,-0.2006005346775055,-0.008552313,-0.020078264,0.3254156
1024,86253350,-0.220848336815834,-0.387206882238388,-0.2008093446493148,0.0007394088,-0.015301969,0.33300018
1025,86303351,-0.2196954190731048,-0.3843935430049896,-0.2012405544519424,-0.0056234063,-0.020222854,0.32162952
1026,86353352,-0.2220383882522583,-0.3840035200119018,-0.2007793337106704,-0.012877575,-0.01804632,0.33082676
1027,86403353,-0.2225202172994613,-0.3827444612979889,-0.2013913542032241,-0.005574504,-0.03857582,0.34406662
1028,86453354,-0.222878411412239,-0.381213515996933,-0.2011185586452484,-0.00509141,-0.021690622,0.3173628
1029,86503355,-0.2224527299404144,-0.381399929523468,-0.200939193367958,-0.015778944,-0.021528428,0.32175732
1030,86553356,-0.2226229310035705,-0.382647156715393,-0.2010268718004226,-0.0021437197,-0.027978776,0.3100376
1031,86603357,-0.2237750738859176,-0.384560227394104,-0.2009121179580688,-0.024459282,-0.023969714,0.32819557
1032,86653358,-0.2241396009922027,-0.3817239701747894,-0.1992047429084777,-0.008307041,-0.033379804,0.32000446
1033,86703359,-0.2253558188676834,-0.3785330951213836,-0.199632927775383,-0.015938887,-0.013649086,0.32090664
1034,86753360,-0.2230927348136901,-0.3803910911083221,-0.1977084130048751,-0.0027871158,-0.00869819,0.3183174
1035,86803361,-0.2231946438550949,-0.3795226216316223,-0.1967330574989318,-0.015872046,-0.01588736,0.34332561
1036,86853362,-0.2229774892330169,-0.376798540353775,-0.1965195387601852,-0.010780849,-0.023436042,0.3424778
1037,86903363,-0.2223156839609146,-0.3785968720912933,-0.1968506276607513,-0.0024544029,-0.011470896,0.3524618
1038,86953364,-0.2235348522663116,-0.3788203001022339,-0.1981720030307769,-0.008367723,-0.021745129,0.32877827
1039,87003365,-0.2212150245904922,-0.3810634911060333,-0.200340449810028,-0.003654877,-0.011570426,0.3347149
1040,87053366,-0.2305168807506561,-0.3772806525230407,-0.197564885020256,-0.00028088942,-0.009970902,0.3487568
1041,87103367,-0.2329353392124176,-0.3772388100624084,-0.1991415917873382,-0.011047191,-0.019374562,0.3136778
1042,87153368,-0.2337827831506729,-0.3773338794708252,-0.1990175396203994,-0.0125158485,-0.027059505,0.32400417
1043,87203369,-0.2347133904695511,-0.3778882324695587,-0.2022089213132858,-0.013837403,-0.018650012,0.33138752
1044,87253370,-0.235142633318901,-0.3752037584781647,-0.2039380073547363,-0.003322981,-0.025212148,0.34153748
1045,87303371,-0.2360675632953643,-0.3770745098590851,-0.2020430415868759,-0.001274621,-0.023089448,0.3081684
1046,87353372,-0.236479640007019,-0.375482827425003,-0.1998625993728637,-0.000364609,-0.009941502,0.32249546
1047,87403373,-0.2362067550420761,-0.3746803402900696,-0.2011970728635788,-0.0022070543,-0.0144879855,0.35439682
1048,87453374,-0.2364816665649414,-0.3719395995140075,-0.2020118087530136,0.0011484026,-0.004045501,0.31609726
1049,87503375,-0.2347749769687652,-0.3716320693492889,-0.2009167373180389,0.0064317705,-0.027847199,0.32298756
1050,87553376,-0.2343921065330505,-0.3715992867946625,-0.2025137543678283,0.007028826,-0.024141194,0.34510326
1051,87603377,-0.2369360029697418,-0.3734732270240783,-0.2035680264234542,-0.0033514407,-0.017575458,0.34804916
1052,87653378,-0.2382420748472213,-0.3736091256141662,-0.1998199820518493,0.0012618809,-0.021506414,0.30016613
1053,87703379,-0.2361840456724167,-0.3740380406379699,-0.2000813782215118,-0.0058392147,-0.026496693,0.3334179
1054,87753380,-0.2372715473175048,-0.3723190426826477,-0.1999678313732147,-0.020430246,-0.009949402,0.31564522
1055,87803381,-0.2376540601253509,-0.3707793056964874,-0.1993265599012375,-0.011629204,0.0026388864,0.3462677
1056,87853382,-0.239520862698555,-0.3714744448661804,-0.1981818228960037,4.2677006e-05,-0.006332822,0.33141136
1057,87903383,-0.238401249051094,-0.373031735420227,-0.1971969902515411,-0.016557872,-0.016392656,0.34219646
1058,87953384,-0.238824263215065,-0.3728134036064148,-0.1966519057750702,-0.015724288,-0.01617814,0.3456316
1059,88003385,-0.2398395091295242,-0.3707320690155029,-0.1971413046121597,-0.008446774,-0.011084226,0.31965828
1060,88053386,-0.2401154041290283,-0.3707852959632873,-0.1972738951444625,-0.0059894226,-0.01838602,0.33906937
1061,88103387,-0.2405510991811752,-0.3706393539905548,-0.195018008351326,0.0011343072,-0.01208328,0.32815933
1062,88153388,-0.241100937128067,-0.3725202977657318,-0.195404440164566,0.000113768096,-0.025430378,0.31359482
1063,88203389,-0.240854725241661,-0.3695213794708252,-0.1954558342695236,0.002953378,-0.023646522,0.32124996
1064,88253390,-0.2407232671976089,-0.3672941327095032,-0.1965214610099792,-0.00040432796,-0.01635864,0.31770706
1065,88303391,-0.2398493736982345,-0.3679880201816559,-0.1982286274433136,-0.00486708,-0.010579116,0.319664
1066,88353392,-0.240280270576477,-0.3664343357086181,-0.1978990286588668,-0.017658036,-0.023622384,0.34028816
1067,88403393,-0.2413442283868789,-0.36847785115242,-0.1996767520904541,-0.0025999097,-0.0042036953,0.31741905
1068,88453394,-0.2406709492206573,-0.3701806962490082,-0.1981305629014969,0.011066825,-0.022797976,0.31950665
1069,88503395,-0.2395653873682022,-0.3709920346736908,-0.1982805132865905,0.0036192755,-0.012705978,0.32355118
1070,88553396,-0.2402411252260208,-0.3712936639785766,-0.1988769918680191,-0.002817887,-0.0068357894,0.33686733
1071,88603397,-0.2402271777391433,-0.3698737323284149,-0.1986037790775299,0.0016880258,0.0008086315,0.3329277
1072,88653398,-0.2412627190351486,-0.368566483259201,-0.1971760541200637,-0.0046148477,-0.006385903,0.3269663
1073,88703399,-0.2405267208814621,-0.3674835562705993,-0.1978381872177124,-0.005744529,-0.02080737,0.32506752
1074,88753400,-0.2395354360342025,-0.3667773604393005,-0.1967691034078598,-0.018362282,-0.02148163,0.34312153
1075,88803401,-0.2379273772239685,-0.3657081127166748,-0.1988917291164398,-0.0069842353,-0.012003119,0.34488392
1076,88853402,-0.2352621555328369,-0.3635208904743194,-0.1985459625720977,-0.00822036,-0.025771774,0.323905
1077,88903403,-0.2341509163379669,-0.362240582704544,-0.1959649175405502,0.00021837564,-0.028206548,0.33342648
1078,88953404,-0.2344798296689987,-0.3605290055274963,-0.1946485936641693,-0.0065691294,-0.030255556,0.34333515
1079,89003405,-0.2358948290348053,-0.3623099029064178,-0.1929915100336074,0.0044700564,-0.023137277,0.32936954
1080,89053406,-0.2377164959907531,-0.3706158101558685,-0.1967870891094207,-0.0056655994,-0.023652619,0.32498932
1081,89103407,-0.237914964556694,-0.3700437843799591,-0.1947771161794662,-0.0073710484,-0.0117418915,0.32102394
1082,89153408,-0.2386007905006408,-0.3697024285793304,-0.19672791659832,0.005128749,-0.021275667,0.31132793
1083,89203409,-0.2396039962768554,-0.3720993399620056,-0.1963944137096405,-0.0029504444,-0.005078265,0.31614304
1084,89253410,-0.2375666052103042,-0.3708382248878479,-0.1967228353023529,-0.024071798,-0.0036538083,0.35023975
1085,89303411,-0.2372520714998245,-0.3688130974769592,-0.196268692612648,-0.007328543,-0.023836266,0.34127235
1086,89353412,-0.2386399060487747,-0.3702939450740814,-0.1989342272281646,0.0027271933,-0.01780609,0.35339642
1087,89403413,-0.2377995252609253,-0.3705838322639465,-0.1981362998485565,0.009938196,-0.01778425,0.336586
1088,89453414,-0.2374819666147232,-0.3683862090110779,-0.1989253312349319,-0.007878109,-0.030018803,0.32998466
1089,89503415,-0.2365520447492599,-0.3671315908432007,-0.1997047066688537,0.0022109586,-0.00877768,0.34599495
1090,89553416,-0.2359942197799682,-0.3657744526863098,-0.1993962079286575,-0.0032103062,-0.018076263,0.3036728
1091,89603417,-0.2357532382011413,-0.3668307065963745,-0.1994742155075073,-0.0063863886,-0.017952457,0.3108282
1092,89653418,-0.2361264675855636,-0.366821825504303,-0.1998929232358932,-0.014312137,-0.02031956,0.3167734
1093,89703419,-0.2356035560369491,-0.3681387901306152,-0.1987564861774444,-0.007539621,-0.019525807,0.34428406
1094,89753420,-0.2348386347293853,-0.3691240549087524,-0.2001903802156448,-0.012655264,-0.017016111,0.3411579
1095,89803421,-0.2367901504039764,-0.3699494898319244,-0.2010204941034317,-0.008478077,-0.014287697,0.34073448
1096,89853422,-0.2347513437271118,-0.3726704120635986,-0.2005684673786163,-0.00584024,-0.0063550235,0.35255718
1097,89903423,-0.2355196475982666,-0.374374121427536,-0.2017395049333572,0.0006283159,-0.02135023,0.3316841
1098,89953424,-0.2364286482334137,-0.3730952441692352,-0.2015749365091323,-0.014714504,-0.012351042,0.3325863
1099,90003425,-0.2360533475875854,-0.3737563788890838,-0.2006158083677292,0.0038972907,-0.019980207,0.32457733
1100,90053426,-0.2377512007951736,-0.3725996315479278,-0.2001540064811706,-0.0020719406,-0.016651189,0.33960247
1101,90103427,-0.239431157708168,-0.3709352016448974,-0.2008928060531616,0.0064016697,-0.0060842163,0.3395977
1102,90153428,-0.2401496618986129,-0.3729558289051056,-0.2003919035196304,-0.011929051,-0.03148563,0.33773422
1103,90203429,-0.2405813634395599,-0.3729054927825928,-0.1999043524265289,-0.019465914,-0.01361049,0.32924747
1104,90253430,-0.2389868795871734,-0.3717826604843139,-0.2013375163078308,-0.0030978196,-0.019252535,0.32845116
1105,90303431,-0.2392807900905609,-0.3756229281425476,-0.2044056504964828,0.008027405,-0.016713072,0.3344488
1106,90353432,-0.2402639091014862,-0.3734008371829986,-0.2028927057981491,-0.012492061,-0.005555989,0.34691048
1107,90403433,-0.2427338808774948,-0.3722862899303436,-0.2033439725637436,-0.017225884,-0.015657498,0.3374567
1108,90453434,-0.2443931102752685,-0.3719311952590942,-0.2029448747634887,-0.0005050485,-0.007402859,0.306736
1109,90503435,-0.2438774555921554,-0.3695638477802276,-0.2003461867570877,-0.015959797,-0.018942637,0.33760643
1110,90553436,-0.242257609963417,-0.3684420585632324,-0.1997400522232055,-0.006820945,-0.012899565,0.3334694
1111,90603437,-0.2430477440357208,-0.3619965016841888,-0.200730875134468,-0.00436953,-0.015205127,0.33061218
1112,90653438,-0.2440015226602554,-0.3642731010913849,-0.1977482885122299,-0.0031095296,-0.01614788,0.32051373
