PacketCounter,SampleTimeFine,dq_W,dq_X,dq_Y,dq_Z,dv[1],dv[2],dv[3]
1,54701342,1.0,-5.045346915721893e-05,-0.0001835878938436508,9.54633578658104e-05,0.0044695138931274,-0.0005499720573425293,0.1689777970314026
2,54751343,0.9999998211860656,-0.00013734586536884308,-0.0005232635885477066,0.0003026137128472328,0.0129724144935607,-0.0009762048721313475,0.5062683820724487
3,54801344,0.9999998211860656,-0.000136522576212883,-0.0005417820066213608,0.0002782801166176796,0.0136890411376953,-0.0013504028320312,0.5063884854316711
4,54851345,0.9999998211860656,-0.00011896155774593352,-0.0005270950496196747,0.0002800663933157921,0.0135504007339477,-0.0014008283615112,0.5070887207984924
5,54901346,0.9999998211860656,-0.00014024227857589722,-0.0005157291889190674,0.00029424671083688736,0.01271253824234,-0.0014004707336425,0.5071731209754944
6,54951347,0.9999998211860656,-0.0001314245164394379,-0.0005357507616281509,0.0003050649538636208,0.0131986737251281,-0.0016326308250427,0.5069523453712463
7,55001348,0.9999998211860656,-0.00013454072177410126,-0.000535452738404274,0.0002867942675948143,0.0132318139076232,-0.0014817118644714,0.5067532658576965
8,55051349,0.9999998211860656,-0.000133393332362175,-0.0005288291722536087,0.00028996821492910385,0.0135062336921691,-0.0014132261276245,0.5073620676994324
9,55101350,0.9999998211860656,-0.00013274140655994415,-0.0005330648273229599,0.00029271747916936874,0.0130138397216796,-0.0011677145957946,0.5069084167480469
10,55151351,0.9999998211860656,-0.00013686157763004303,-0.0005413927137851715,0.0002979366108775139,0.0136678218841552,-0.0015838146209716,0.5073857307434082
11,55201352,0.9999998211860656,-0.00013334304094314575,-0.000520678237080574,0.0002889474853873253,0.0133523941040039,-0.0014888644218444,0.5068170428276062
12,55251353,0.9999998211860656,-0.0001258794218301773,-0.0005188994109630585,0.00027888547629117966,0.013227641582489,-0.0016670823097229,0.5073078274726868
13,55301354,0.9999998211860656,-0.00014135800302028656,-0.0005329195410013199,0.0002846410498023033,0.0132645368576049,-0.0008696317672729492,0.506293535232544
14,55351355,0.9999998211860656,-0.0001575089991092682,-0.0005571935325860977,0.0002849949523806572,0.013308048248291,-0.0014677643775939,0.5060929656028748
15,55401356,0.9999998211860656,-0.0001321006566286087,-0.0005417186766862869,0.0002956883981823921,0.0131399631500244,-0.0013114213943481,0.506952702999115
16,55451357,0.9999998211860656,-0.00011532194912433624,-0.0005362629890441895,0.0002908678725361824,0.0134577751159667,-0.0009568929672241212,0.5074403882026672
17,55501358,0.9999998211860656,-0.00013577379286289215,-0.000516057014465332,0.00028167571872472763,0.0133386850357055,-0.0010342001914978,0.5071559548377991
18,55551359,0.9999997615814208,-0.00013695470988750458,-0.0005829241126775742,0.0002894354984164238,0.0128724575042724,-0.0012860894203186,0.5075436234474182
19,55601360,0.9999998211860656,-0.0001394767314195633,-0.0005272738635540009,0.0002886774018406868,0.013188898563385,-0.0010764002799987,0.5068945288658142
20,55651361,0.9999998211860656,-0.00011721625924110413,-0.0005089305341243744,0.0002922089770436287,0.0131293535232543,-0.0011467337608337,0.5064436197280884
21,55701362,0.9999998211860656,-0.00011892803013324738,-0.0005161426961421967,0.0002842610701918602,0.013315200805664,-0.0011226534843444,0.5066085457801819
22,55751363,0.9999998211860656,-0.00014181435108184814,-0.0005352627485990524,0.0002877386286854744,0.0132497549057006,-0.0011337399482727,0.5073509812355042
23,55801364,0.9999998211860656,-0.00012353062629699707,-0.0005347225815057755,0.0002852538600564003,0.0134196281433105,-0.0016005635261535,0.5069908499717712
24,55851365,0.9999998211860656,-0.0001440681517124176,-0.000540195032954216,0.0002779737114906311,0.0134465098381042,-0.0011523962020874,0.5064275860786438
25,55901366,0.9999998211860656,-0.00013530254364013672,-0.0005447771400213242,0.0002898899838328361,0.0131359696388244,-0.001622200012207,0.5076359510421753
26,55951367,0.9999998211860656,-0.00012889690697193146,-0.0005201399326324463,0.0002926969900727272,0.0134660005569458,-0.0014200210571289,0.5068596601486206
27,56001368,0.9999998211860656,-0.00013093091547489166,-0.0005413126200437546,0.0002931905910372734,0.0132230520248413,-0.0013614296913146,0.5071722269058228
28,56051369,0.9999998211860656,-0.0001294054090976715,-0.0005111638456583023,0.0002921177074313164,0.0133379101753234,-0.0012409090995788,0.5068199634552002
29,56101370,0.9999998211860656,-0.00014316849410533905,-0.0005568545311689377,0.0002842014655470848,0.0130114555358886,-0.0012178421020507,0.5071435570716858
30,56151371,0.9999998211860656,-0.0001233462244272232,-0.0005181077867746353,0.00030473899096250534,0.0135639309883117,-0.0011317133903503,0.5068104863166809
31,56201372,0.9999998211860656,-0.0001321900635957718,-0.0005440171808004379,0.00029882509261369705,0.0130162835121154,-0.0015503168106079,0.5068033337593079
32,56251373,0.9999998211860656,-0.00013074465095996857,-0.000553598627448082,0.0003015035763382912,0.0130946040153503,-0.0014513134956359,0.507356584072113
33,56301374,0.9999998211860656,-0.00013937056064605713,-0.0005195997655391693,0.0002662474289536476,0.0134397745132446,-0.0015215277671813,0.5073955655097961
34,56351375,0.9999998211860656,-0.00012139976024627686,-0.0005254894495010376,0.0003000134602189064,0.0133225917816162,-0.0015288591384887,0.5068458914756775
35,56401376,0.9999998211860656,-0.00012688897550106049,-0.0005122870206832886,0.00029479246586561203,0.0128161311149597,-0.00097733736038208,0.5065961480140686
36,56451377,0.9999998211860656,-0.00014775805175304413,-0.0005228519439697266,0.00026257243007421494,0.0133810639381408,-0.0014035105705261,0.507233738899231
37,56501378,0.9999998211860656,-0.00014030002057552338,-0.0005172770470380783,0.00026160385459661484,0.013295292854309,-0.0014622807502746,0.5070604681968689
38,56551379,0.9999998211860656,-0.00013343431055545807,-0.0005157645791769028,0.00029262062162160873,0.0133466720581054,-0.0012654662132263,0.5073922276496887
39,56601380,0.9999998211860656,-0.0001251455396413803,-0.0004831049591302872,0.0003072088584303856,0.0133540630340576,-0.0012856721878051,0.5067928433418274
40,56651381,0.9999998211860656,-0.00012951716780662537,-0.0005124174058437347,0.00030265096575021744,0.0135300159454345,-0.0010614395141601,0.5077839493751526
41,56701382,0.9999998211860656,-0.00013557635247707367,-0.0005268435925245285,0.00029970426112413406,0.0134441256523132,-0.00141042470932,0.5067160129547119
42,56751383,0.9999998211860656,-0.00014191120862960815,-0.0005317199975252151,0.0003051506355404854,0.0135624408721923,-0.0008239150047302246,0.5069393515586853
43,56801384,0.9999998211860656,-0.00014198198914527893,-0.0005198940634727478,0.0002969009801745415,0.0131382942199707,-0.0010408163070678,0.5067328810691833
44,56851385,0.9999998211860656,-0.00012886710464954376,-0.0005206912755966187,0.0002908119931817055,0.0130451917648315,-0.0010784268379211,0.5071590542793274
45,56901386,0.9999997615814208,-0.0001395139843225479,-0.0005641672760248184,0.0002903668209910393,0.013506531715393,-0.00101900100708,0.5068816542625427
46,56951387,0.9999998211860656,-0.0001391097903251648,-0.000522444024682045,0.000298977829515934,0.0129126906394958,-0.0016654133796691,0.5073627829551697
47,57001388,0.9999998211860656,-0.00014800578355789185,-0.0005241334438323975,0.0002881130203604698,0.0133986473083496,-0.0012613534927368,0.5076165795326233
48,57051389,0.9999998211860656,-0.00013817846775054932,-0.0005185548216104507,0.00029292795807123184,0.0134148001670837,-0.0017101764678955,0.5071532726287842
49,57101390,0.9999998211860656,-0.00013067573308944702,-0.000553663820028305,0.00029005203396081924,0.0131478309631347,-0.0014593005180358,0.5069513916969299
50,57151391,0.9999998211860656,-0.00012422725558280945,-0.0005238894373178482,0.0002805003896355629,0.0131751894950866,-0.0015602707862854,0.5068624019622803
51,57201392,0.9999998211860656,-0.0001303795725107193,-0.0005437694489955902,0.0002700416371226311,0.0131176710128784,-0.0013765096664428,0.5068140029907227
52,57251393,0.9999998211860656,-0.00013212673366069794,-0.0005480442196130753,0.0003034593537449837,0.0132388472557067,-0.000930488109588623,0.5070488452911377
53,57301394,0.9999998211860656,-0.00013954564929008484,-0.0005047954618930817,0.00028170179575681686,0.0132253170013427,-0.0007876753807067871,0.507485568523407
54,57351395,0.9999998211860656,-0.0001314803957939148,-0.0005307849496603012,0.0003078067675232887,0.0134804248809814,-0.0006844997406005859,0.5071784853935242
55,57401396,0.9999998211860656,-0.00012804009020328522,-0.000521661713719368,0.0002924324944615364,0.0135469436645507,-0.001171052455902,0.5066846609115601
56,57451397,0.9999998211860656,-0.0001574251800775528,-0.0005334354937076569,0.0002939430996775627,0.0132082104682922,-0.001644492149353,0.507879376411438
57,57501398,0.9999998211860656,-0.0001370515674352646,-0.0005238223820924759,0.0002993280068039894,0.0131977796554565,-0.0012802481651306,0.5072526931762695
58,57551399,0.9999998211860656,-0.0001392792910337448,-0.0005386099219322205,0.00030467938631772995,0.0133215188980102,-0.0011432170867919,0.5074199438095093
59,57601400,0.9999998211860656,-0.0001218542456626892,-0.0005273502320051193,0.0002895137295126915,0.0132243633270263,-0.0012910962104797,0.5065386295318604
60,57651401,0.9999998211860656,-0.00012351199984550476,-0.0005195029079914093,0.0002889903262257576,0.0130146145820617,-0.0010255575180053,0.5075210332870483
61,57701402,0.9999998211860656,-0.00012942776083946228,-0.0005440358072519302,0.0002804519608616829,0.0136088132858276,-0.0007062554359436035,0.5073002576828003
62,57751403,0.9999998211860656,-0.00013308413326740265,-0.0005249828100204468,0.0002804556861519813,0.0130709409713745,-0.001608669757843,0.5071702003479004
63,57801404,0.9999998211860656,-0.0001354217529296875,-0.0005206763744354248,0.00029331352561712265,0.0134959816932678,-0.0012601613998413,0.5068014860153198
64,57851405,0.9999998211860656,-0.00012277252972126007,-0.0005290433764457703,0.0002974988892674446,0.0133551955223083,-0.0014179348945617,0.507277250289917
65,57901406,0.9999998211860656,-0.00012514367699623108,-0.0005285590887069702,0.0003186305984854698,0.0130818486213684,-0.0015204548835754,0.5073413848876953
66,57951407,0.9999998211860656,-0.0001308750361204147,-0.000519217923283577,0.00028606969863176346,0.0131393074989318,-0.0012837648391723,0.5065714716911316
67,58001408,0.9999998211860656,-0.00011687539517879486,-0.000522661954164505,0.0002916017547249794,0.0135323405265808,-0.0012816786766052,0.5071571469306946
68,58051409,0.9999998211860656,-0.00012138299643993378,-0.0005554817616939545,0.00030380208045244217,0.0129768252372741,-0.0017673969268798,0.5065410733222961
69,58101410,0.9999998211860656,-0.00013205595314502716,-0.000537702813744545,0.00028443243354558945,0.0132026672363281,-0.0018559694290161,0.507710874080658
70,58151411,0.9999998211860656,-0.00012777000665664673,-0.000536726787686348,0.0002795131877064705,0.0129173994064331,-0.0014780163764953,0.5075793862342834
71,58201412,0.9999998211860656,-0.00013084150850772858,-0.0005238540470600128,0.00026590656489133835,0.0130567550659179,-0.0016201734542846,0.5069632530212402
72,58251413,0.9999998211860656,-0.00011660531163215636,-0.0005381740629673004,0.00028540845960378647,0.0133787989616394,-0.0011551976203918,0.5063621401786804
73,58301414,0.9999998211860656,-0.00012972764670848846,-0.0005174949765205383,0.0002666870132088661,0.0129851698875427,-0.0014744400978088,0.5072667598724365
74,58351415,0.9999998211860656,-0.00012148171663284302,-0.0005220025777816772,0.0002856766805052757,0.0128786563873291,-0.001640498638153,0.5070603489875793
75,58401416,0.9999998211860656,-0.0001256149262189865,-0.0005479883402585983,0.00029044877737760544,0.012849748134613,-0.0011386275291442,0.506813645362854
76,58451417,0.9999998211860656,-0.0001322086900472641,-0.0005488749593496323,0.0002931980416178704,0.0135688185691833,-0.0008695125579833984,0.5075113773345947
77,58501418,0.9999998211860656,-0.00013390928506851196,-0.0005342699587345123,0.00031336303800344467,0.0131300687789917,-0.001360535621643,0.5066874027252197
78,58551419,0.9999998211860656,-0.00012940913438796997,-0.0005172844976186752,0.00029504578560590744,0.0132209062576293,-0.0010971426963806,0.5065973401069641
79,58601420,0.9999998211860656,-0.00013716891407966614,-0.0005060862749814987,0.0002831770107150078,0.0136594176292419,-0.0015219449996948,0.5069081783294678
80,58651421,0.9999998211860656,-0.00012369267642498016,-0.0005288571119308472,0.00028291065245866776,0.0129489302635192,-0.0012382268905639,0.5071154832839966
81,58701422,0.9999998211860656,-0.00013247691094875336,-0.0005409736186265945,0.0002902774140238762,0.0130530595779418,-0.0011630058288574,0.5072762370109558
82,58751423,0.9999998211860656,-0.0001354571431875229,-0.0005465224385261536,0.0002841772511601448,0.013172447681427,-0.001448631286621,0.5064715147018433
83,58801424,0.9999998211860656,-0.0001285150647163391,-0.0005236603319644928,0.00029182154685258865,0.0134898424148559,-0.0016533732414245,0.5069769620895386
84,58851425,0.9999998211860656,-0.0001390129327774048,-0.0005431324243545532,0.00027480442076921463,0.0132489204406738,-0.0015801191329956,0.5073503851890564
85,58901426,0.9999998211860656,-0.00012466683983802795,-0.00052652508020401,0.0002877144142985344,0.0130869150161743,-0.0011277198791503,0.5075362324714661
86,58951427,0.9999998211860656,-0.00013410113751888275,-0.0005455687642097473,0.000280073843896389,0.0135853886604309,-0.0011533498764038,0.5068563222885132
87,59001428,0.9999998211860656,-0.00013426318764686584,-0.0005159564316272736,0.0002975696697831154,0.0136565566062927,-0.0013434886932373,0.5069193243980408
88,59051429,0.9999998211860656,-0.00012711994349956512,-0.0005450006574392319,0.00027227867394685745,0.0135017037391662,-0.0013315677642822,0.5070611834526062
89,59101430,0.9999998211860656,-0.00014167092740535736,-0.0005185622721910477,0.00028205569833517075,0.013373851776123,-0.0011890530586242,0.5071360468864441
90,59151431,0.9999998211860656,-0.00011558271944522858,-0.0005232710391283035,0.0002894783392548561,0.0139445662498474,-0.0017431378364562,0.5073262453079224
91,59201432,0.9999998211860656,-0.00010713376104831696,-0.0005361773073673248,0.00028721150010824203,0.0137420296669006,-0.0015723705291748,0.5069100260734558
92,59251433,0.9999998211860656,-0.0001288149505853653,-0.0005248468369245529,0.00027527380734682083,0.0132722854614257,-0.0016161203384399,0.5075395107269287
93,59301434,0.9999998211860656,-0.00012991204857826233,-0.0005296934396028519,0.0002790139988064766,0.0136455297470092,-0.0015737414360046,0.5064774751663208
94,59351435,0.9999998211860656,-0.0001427195966243744,-0.0005213096737861633,0.0002990392968058586,0.0131716132164001,-0.0013286471366882,0.5074480175971985
95,59401436,0.9999998211860656,-0.0001304391771554947,-0.0005302373319864273,0.00030596088618040085,0.0131858587265014,-0.0017754435539245,0.5073993802070618
96,59451437,0.9999998211860656,-0.00011342205107212068,-0.0005291271954774857,0.0002693450078368187,0.0133091807365417,-0.0014333128929138,0.5067293643951416
97,59501438,0.9999998211860656,-0.00013532117009162903,-0.0005324147641658783,0.0002830708399415016,0.0134255290031433,-0.0011079907417297,0.5074806809425354
98,59551439,0.9999998211860656,-0.0001396331936120987,-0.0005296915769577026,0.00027639325708150864,0.0132893919944763,-0.0016906857490539,0.5069572329521179
99,59601440,0.9999998211860656,-0.00015493109822273254,-0.0005456190556287766,0.0002947421744465828,0.0133552551269531,-0.0012457370758056,0.5078395009040833
100,59651441,0.9999998211860656,-0.00014586560428142548,-0.0005193445831537247,0.0003097495064139366,0.0136318802833557,-0.0012990832328796,0.5062142014503479
101,59701442,0.9999998211860656,-0.000132611021399498,-0.000533565878868103,0.0002718130126595497,0.0130674242973327,-0.0013744831085205,0.5065165758132935
102,59751443,0.9999998211860656,-0.0001294054090976715,-0.0005242861807346344,0.00029628630727529526,0.0132740139961242,-0.001189112663269,0.5073511004447937
103,59801444,0.9999998211860656,-0.00012247823178768158,-0.0005439389497041702,0.00027130451053380966,0.0133693814277648,-0.0011153817176818,0.5073124170303345
104,59851445,0.9999998211860656,-0.000136522576212883,-0.0005468204617500305,0.00028608087450265884,0.0132567882537841,-0.0012890696525573,0.5073102116584778
105,59901446,0.9999998211860656,-0.00014281831681728363,-0.0005389340221881866,0.0002716267481446266,0.0132365822792053,-0.0014765858650207,0.506841778755188
106,59951447,0.9999998211860656,-0.00013919174671173096,-0.0005331076681613922,0.00027147773653268814,0.0131518840789794,-0.0012598633766174,0.5069951415061951
107,60001448,0.9999998211860656,-0.0001233275979757309,-0.0005254428833723068,0.00028661545366048813,0.0135719180107116,-0.0014219284057617,0.5069299340248108
108,60051449,0.9999998211860656,-0.0001452900469303131,-0.0005335099995136261,0.000278831459581852,0.0131363272666931,-0.0011829733848571,0.5071228742599487
109,60101450,0.9999998211860656,-0.00012621842324733734,-0.0005338415503501892,0.0002786843106150627,0.0131519436836242,-0.00108003616333,0.5073804259300232
110,60151451,0.9999998211860656,-0.0001501757651567459,-0.0005432087928056717,0.0002917880192399025,0.0133261084556579,-0.0012346506118774,0.50692218542099
111,60201452,0.9999998211860656,-0.0001412220299243927,-0.0005310084670782089,0.0002989983186125756,0.0132065415382385,-0.0013464093208312,0.5062990784645081
112,60251453,0.9999998211860656,-0.0001425035297870636,-0.0005124956369400024,0.0003008907660841942,0.0130860209465026,-0.0013749599456787,0.5068647861480713
113,60301454,0.9999998211860656,-0.0001260600984096527,-0.0005119871348142624,0.0002778535708785057,0.0131406784057617,-0.0015965104103088,0.5070441365242004
114,60351455,0.9999998211860656,-0.00013419799506664276,-0.0005228407680988312,0.00030280742794275284,0.0130912065505981,-0.0014781951904296,0.5065748691558838
115,60401456,0.9999998211860656,-0.00012815557420253754,-0.0005513131618499756,0.0002949470654129982,0.0131395459175109,-0.0017802119255065,0.5080118179321289
116,60451457,0.9999998211860656,-0.00012895092368125916,-0.0005181748420000076,0.00028451066464185715,0.0133397579193115,-0.0013675689697265,0.5071622133255005
117,60501458,0.9999998211860656,-0.00012659095227718353,-0.0005363896489143372,0.00027253013104200363,0.0131881237030029,-0.0010497570037841,0.5073585510253906
118,60551459,0.9999998211860656,-0.00014753080904483795,-0.0005519501864910126,0.0002755476161837578,0.0130031704902648,-0.0011164546012878,0.5067977905273438
119,60601460,0.9999998211860656,-0.00013313628733158112,-0.0005316678434610367,0.00027955230325460434,0.0131319165229797,-0.001211404800415,0.5067980289459229
120,60651461,0.9999998211860656,-0.00011835619807243349,-0.0005246158689260483,0.0002825735136866569,0.0134450197219848,-0.0015528798103332,0.5070106387138367
121,60701462,0.9999998211860656,-0.00011395476758480072,-0.0005177445709705353,0.0002916967496275902,0.0130742788314819,-0.001220703125,0.5072484612464905
122,60751463,0.9999998211860656,-0.0001198314130306244,-0.0005164574831724167,0.0002929186448454857,0.0131964683532714,-0.0018187761306762,0.5065389275550842
123,60801464,0.9999998211860656,-0.00012887641787528992,-0.0005247350782155991,0.000295259989798069,0.013449490070343,-0.0014832019805908,0.5075331330299377
124,60851465,0.9999998211860656,-0.00013021938502788544,-0.0005215127021074295,0.0002668360248208046,0.0135847330093383,-0.0014035105705261,0.5071123242378235
125,60901466,0.9999998211860656,-0.00014449097216129303,-0.0005376581102609634,0.0002858182415366173,0.0129873752593994,-0.0013396143913269,0.5067892670631409
126,60951467,0.9999998211860656,-0.00014114752411842346,-0.000548316165804863,0.00027153361588716507,0.0135437250137329,-0.0014600753784179,0.5068020224571228
127,61001468,0.9999998211860656,-0.00014490075409412384,-0.0005329400300979614,0.0002884538844227791,0.0130695104598999,-0.001615822315216,0.5074893832206726
128,61051469,0.9999998211860656,-0.00012250617146492004,-0.0005110781639814377,0.0002708649262785912,0.0130048990249633,-0.0017101764678955,0.5064564943313599
129,61101470,0.9999998211860656,-0.00012785755097866058,-0.0005350429564714432,0.0002778293564915657,0.0129836797714233,-0.0014041662216186,0.507371723651886
130,61151471,0.9999998211860656,-0.00012193992733955385,-0.0005465429276227951,0.00028634537011384964,0.0133315920829772,-0.0015079379081726,0.5073181390762329
131,61201472,0.9999998211860656,-0.00012152455747127532,-0.0005278922617435455,0.0002682926133275032,0.0132712125778198,-0.0011097192764282,0.5071837902069092
132,61251473,0.9999998211860656,-0.00012191571295261384,-0.0005379952490329742,0.0002805357798933983,0.0134092569351196,-0.0011495947837829,0.5061724185943604
133,61301474,0.9999998211860656,-0.0001326184719800949,-0.0005445349961519241,0.0002708854153752327,0.0130679607391357,-0.001175582408905,0.5068566799163818
134,61351475,0.9999998211860656,-0.00011728331446647644,-0.0005355179309844971,0.0002718279138207436,0.013361632823944,-0.0019447803497314,0.5063671469688416
135,61401476,0.9999998211860656,-0.00014647096395492554,-0.0005264990031719208,0.0002879751846194268,0.0132629871368408,-0.0017439723014831,0.5070944428443909
136,61451477,0.9999998211860656,-0.00011625513434410097,-0.0005421284586191177,0.000273178331553936,0.0132994651794433,-0.0016592741012573,0.5071295499801636
137,61501478,0.9999998211860656,-0.00012394599616527555,-0.0005249530076980591,0.0002766260877251625,0.0133014321327209,-0.0011078715324401,0.507236659526825
138,61551479,0.9999998211860656,-0.00012981705367565155,-0.0005293525755405426,0.00026762206107378006,0.0135266184806823,-0.0013496875762939,0.5070781111717224
139,61601480,0.9999998211860656,-0.0001354273408651352,-0.0005476456135511398,0.0002995496615767479,0.0130059123039245,-0.0010904073715209,0.5068708658218384
140,61651481,0.9999998211860656,-0.00014395453035831451,-0.0005169585347175598,0.00027907732874155045,0.0131643414497375,-0.0016031265258789,0.5070546269416809
141,61701482,0.9999998211860656,-0.00014363043010234833,-0.0005308613181114197,0.0002919575199484825,0.0130937099456787,-0.0014678835868835,0.5073872804641724
142,61751483,0.9999998211860656,-0.00011668354272842409,-0.0005067288875579834,0.00029769446700811386,0.01303631067276,-0.0013444423675537,0.5067339539527893
143,61801484,0.9999998211860656,-0.00013151206076145172,-0.0005268044769763947,0.000283549539744854,0.013149082660675,-0.0016520619392395,0.5070621371269226
144,61851485,0.9999998211860656,-0.00013634003698825836,-0.0005108918994665146,0.0002996930852532387,0.0129697918891906,-0.0013400316238403,0.5070082545280457
145,61901486,0.9999998211860656,-0.00011638179421424866,-0.000526774674654007,0.0002868464216589928,0.0130948424339294,-0.0017734169960021,0.5074706077575684
146,61951487,0.9999998211860656,-0.00013605132699012756,-0.0005482006818056107,0.00027908850461244583,0.0133675336837768,-0.0017456412315368,0.5068619251251221
147,62001488,0.9999998211860656,-0.0001317821443080902,-0.0005347821861505508,0.0002755457535386085,0.0131410360336303,-0.0008595585823059082,0.5075120329856873
148,62051489,0.9999998211860656,-0.00012074783444404602,-0.000539807602763176,0.0002713659778237343,0.0132350921630859,-0.0012094378471374,0.5067297220230103
149,62101490,0.9999998211860656,-0.0001314561814069748,-0.0005387142300605774,0.0002833297476172447,0.0133194923400878,-0.0011954307556152,0.5074337124824524
150,62151491,0.9999998211860656,-0.00012655742466449738,-0.0005291830748319626,0.0002906797453761101,0.0131952762603759,-0.001726746559143,0.5061976313591003
151,62201492,0.9999998211860656,-0.00012054108083248138,-0.0005452875047922134,0.0002896776422858238,0.0131022334098815,-0.0014171600341796,0.5070046782493591
152,62251493,0.9999998211860656,-0.00014700926840305328,-0.0005328003317117691,0.000285574235022068,0.0134572386741638,-0.0015771389007568,0.5072171688079834
153,62301494,0.9999998211860656,-0.0001329239457845688,-0.0005157329142093658,0.00026076938956975937,0.0131914615631103,-0.0013020634651184,0.5068897604942322
154,62351495,0.9999998211860656,-0.0001324787735939026,-0.0005257539451122284,0.0002940157428383827,0.0133888125419616,-0.0013995766639709,0.5067881941795349
155,62401496,0.9999998211860656,-0.00013435445725917816,-0.0005234219133853912,0.0002857828512787819,0.0131680369377136,-0.0011262893676757,0.5073563456535339
156,62451497,0.9999998211860656,-0.0001366753131151199,-0.00051170215010643,0.00028597284108400345,0.0128463506698608,-0.0015631318092346,0.5078432559967041
157,62501498,0.9999998211860656,-0.00011829473078250884,-0.0005499757826328278,0.000272178091108799,0.0135783553123474,-0.0014992952346801,0.5068919658660889
158,62551499,0.9999998211860656,-0.0001354031264781952,-0.0005218740552663803,0.00029129255563020706,0.0133149027824401,-0.0015311241149902,0.506916880607605
159,62601500,0.9999998211860656,-0.00012714974582195282,-0.0005239192396402359,0.0002969549968838692,0.0134254097938537,-0.0014136433601379,0.506481945514679
160,62651501,0.9999998211860656,-0.00012516602873802185,-0.0005185548216104507,0.00030002277344465256,0.0131728649139404,-0.0013209581375122,0.5065081715583801
161,62701502,0.9999998211860656,-0.0001294706016778946,-0.0005519390106201172,0.000295381061732769,0.0132023692131042,-0.0014529228210449,0.5066124796867371
162,62751503,0.9999998211860656,-0.00014431215822696686,-0.0005165114998817444,0.00027676578611135483,0.0128575563430786,-0.0012826919555664,0.5063542127609253
163,62801504,0.9999998211860656,-0.00012249313294887543,-0.0005329325795173645,0.0002672141417860985,0.0131800770759582,-0.0013701319694519,0.5071769952774048
164,62851505,0.9999998211860656,-0.00013100355863571167,-0.0005132853984832764,0.00027733203023672104,0.0128684043884277,-0.001491367816925,0.5063208937644958
165,62901506,0.9999998211860656,-0.00013645179569721222,-0.0005177296698093414,0.0002906220033764839,0.0131285190582275,-0.0015070438385009,0.5066378712654114
166,62951507,0.9999998211860656,-0.00012785568833351135,-0.0005195531994104385,0.00030205119401216507,0.0132637023925781,-0.001408040523529,0.5071113109588623
167,63001508,0.9999998211860656,-0.00014016591012477875,-0.0005557574331760406,0.0002879546955227852,0.0129586458206176,-0.0011888742446899,0.5065263509750366
168,63051509,0.9999998211860656,-0.00011320412158966064,-0.0005164202302694321,0.0003065550699830055,0.0132547616958618,-0.0012645125389099,0.5068809390068054
169,63101510,0.9999998211860656,-0.00012611225247383118,-0.0005247145891189575,0.00028580334037542343,0.0135628581047058,-0.0014398694038391,0.5071002244949341
170,63151511,0.9999998211860656,-0.00014180690050125122,-0.0005165450274944305,0.0002928217872977257,0.0130165815353393,-0.0012707114219665,0.5071959495544434
171,63201512,0.9999998211860656,-0.0001375693827867508,-0.0005564820021390915,0.00027901213616132736,0.0130667090415954,-0.0014772415161132,0.5063689351081848
172,63251513,0.9999998211860656,-0.00011473149061203004,-0.0005387868732213974,0.0002880925312638283,0.0133675932884216,-0.0013927817344665,0.5071377754211426
173,63301514,0.9999998211860656,-0.0001324489712715149,-0.0005484037101268768,0.0002748211845755577,0.0131596326828002,-0.0016790628433227,0.5069112777709961
174,63351515,0.9999998211860656,-0.00013723038136959076,-0.0005514901131391525,0.00029059965163469315,0.013012945652008,-0.0016117691993713,0.5069043040275574
175,63401516,0.9999998211860656,-0.00013987720012664795,-0.0005289223045110703,0.0002858126536011696,0.0134580135345458,-0.0014972686767578,0.5064875483512878
176,63451517,0.9999998211860656,-0.00010588206350803377,-0.0005317572504281998,0.00027559977024793625,0.013382077217102,-0.0013529062271118,0.5062416195869446
177,63501518,0.9999998211860656,-0.00012886710464954376,-0.0005470961332321167,0.0002867719158530236,0.0133421421051025,-0.0011129975318908,0.5064362287521362
178,63551519,0.9999998211860656,-0.00012571178376674652,-0.0005485191941261292,0.0003016805276274681,0.0132571458816528,-0.0012732148170471,0.5067801475524902
179,63601520,0.9999998211860656,-0.00014407746493816376,-0.0005207248032093048,0.00026966724544763565,0.0135022401809692,-0.001409888267517,0.5064557194709778
180,63651521,0.9999998211860656,-0.00011368654668331146,-0.0005392152816057205,0.0002769762650132179,0.0134751200675964,-0.0011684894561767,0.5065953135490417
181,63701522,0.9999998211860656,-0.00010558776557445526,-0.0005208589136600494,0.0002710102126002312,0.0134742856025695,-0.0012024044990539,0.5075228214263916
182,63751523,0.9999998211860656,-0.0001103859394788742,-0.0005107801407575607,0.0002826964482665062,0.0136104226112365,-0.0013582110404968,0.5064255595207214
183,63801524,0.9999998211860656,-0.00011390633881092072,-0.0005400069057941437,0.0003022504970431328,0.01326584815979,-0.0013797879219055,0.5071759223937988
184,63851525,0.9999998211860656,-0.0001447666436433792,-0.0005295407027006149,0.000286485068500042,0.0133312940597534,-0.001132845878601,0.5070704221725464
185,63901526,0.9999998211860656,-0.0001187734305858612,-0.0005244296044111252,0.0002794237807393074,0.0134554505348205,-0.0011044740676879,0.5074735283851624
186,63951527,0.9999998211860656,-0.00012189336121082306,-0.0005504284054040909,0.0002413010224699974,0.0129780173301696,-0.0013242959976196,0.5077711343765259
187,64001528,0.9999998211860656,-0.00013496913015842438,-0.0005403701215982437,0.00028243567794561386,0.0131366252899169,-0.001207411289215,0.5070229768753052
188,64051529,0.9999998211860656,-0.00014202110469341278,-0.0005408488214015961,0.00027795787900686264,0.0133262276649475,-0.0009792447090148926,0.5075833797454834
189,64101530,0.9999998211860656,-0.00011913664638996124,-0.0005119051784276962,0.0002941945567727089,0.0133084654808044,-0.0008707642555236816,0.5073023438453674
190,64151531,0.9999998211860656,-0.00012812204658985138,-0.0005662702023983002,0.0002755550667643547,0.0130326151847839,-0.0016305446624755,0.5069392323493958
191,64201532,0.9999998211860656,-0.0001287665218114853,-0.0005335677415132523,0.00028783921152353287,0.0135173201560974,-0.0012858510017395,0.507080614566803
192,64251533,0.9999998211860656,-0.0001219678670167923,-0.0005299672484397888,0.0002819923684000969,0.0132430791854858,-0.000993788242340088,0.5063346028327942
193,64301534,0.9999998211860656,-0.00013410300016403198,-0.000517532229423523,0.0002931999042630196,0.0131617784500122,-0.0013056397438049,0.5069897770881653
194,64351535,0.9999998211860656,-0.0001475978642702103,-0.0005201026797294617,0.00028205011039972305,0.0131367444992065,-0.0014786124229431,0.5076558589935303
195,64401536,0.9999998211860656,-0.0001161079853773117,-0.000527581200003624,0.0002608848735690117,0.0131490230560302,-0.0014040470123291,0.506281316280365
196,64451537,0.9999998211860656,-0.00013153627514839172,-0.0005280822515487671,0.00026245880872011185,0.0133401155471801,-0.001666784286499,0.5071228742599487
197,64501538,0.9999998211860656,-0.0001240447163581848,-0.0005227848887443542,0.00030230823904275894,0.0128383040428161,-0.0010243654251098,0.5070068836212158
198,64551539,0.9999998211860656,-0.00012197904288768768,-0.000541025772690773,0.0002836240455508232,0.0135219097137451,-0.0012672543525695,0.5069924592971802
199,64601540,0.9999998211860656,-0.00013111717998981476,-0.0005274713039398193,0.00028911884874105453,0.0126245617866516,-0.0014787316322326,0.5071282386779785
200,64651541,0.9999998211860656,-0.00013753585517406464,-0.0005502104759216309,0.0002872804179787636,0.0132821202278137,-0.0007472634315490723,0.506702721118927
201,64701542,0.9999998211860656,-0.0001225695013999939,-0.0005356632173061371,0.000283573754131794,0.0132140517234802,-0.0010817050933837,0.5065156817436218
202,64751543,0.9999998211860656,-0.0001276712864637375,-0.0005547013133764267,0.0002904320135712624,0.0132361650466918,-0.0011762380599975,0.506926953792572
203,64801544,0.9999998211860656,-0.0001350361853837967,-0.0005269534885883331,0.0002987673506140709,0.0134908556938171,-0.0013364553451538,0.5071814060211182
204,64851545,0.9999998211860656,-0.00014161691069602966,-0.0005371104925870895,0.0002785315737128258,0.0131619572639465,-0.001550555229187,0.5070646405220032
205,64901546,0.9999998211860656,-0.00013489462435245514,-0.0005273632705211639,0.0002743871882557869,0.0132538080215454,-0.0012321472167968,0.5061538219451904
206,64951547,0.9999998211860656,-0.0001476425677537918,-0.0005486775189638138,0.00028613489121198654,0.0131492018699646,-0.0009323358535766602,0.5067616105079651
207,65001548,0.9999998211860656,-0.0001443848013877869,-0.0005205255001783371,0.0002794293686747551,0.0134229660034179,-0.0015046000480651,0.5067189931869507
208,65051549,0.9999998211860656,-0.00013262778520584106,-0.0005231816321611404,0.000295897014439106,0.0133944749832153,-0.0011230111122131,0.5067143440246582
209,65101550,0.9999998211860656,-0.00013647973537445068,-0.0005493964999914169,0.000284452922642231,0.0134482383728027,-0.0010387301445007,0.5066279172897339
210,65151551,0.9999998211860656,-0.00012957490980625153,-0.000517532229423523,0.0002859188243746757,0.0135024189949035,-0.0017864108085632,0.5065933465957642
211,65201552,0.9999998211860656,-0.00013168901205062866,-0.0005075298249721527,0.00028499867767095566,0.0130736231803894,-0.0012014508247375,0.5068802237510681
212,65251553,0.9999998211860656,-0.00013895146548748016,-0.0005119219422340393,0.00030014943331480026,0.0130655765533447,-0.0014339685440063,0.5064741373062134
213,65301554,0.9999998211860656,-0.00012466125190258026,-0.0005344618111848831,0.0003046169877052307,0.0133655667304992,-0.0011040568351745,0.507036566734314
214,65351555,0.9999998211860656,-0.00014488212764263153,-0.0005336068570613861,0.00027112197130918503,0.0134603977203369,-0.0012385249137878,0.5070983171463013
215,65401556,0.9999998211860656,-0.0001389533281326294,-0.0005201976746320724,0.00028524454683065414,0.013004720211029,-0.0011815428733825,0.5071964859962463
216,65451557,0.9999998211860656,-0.00014112703502178192,-0.00054972805082798,0.00030378159135580063,0.0130281448364257,-0.0008155703544616699,0.5065589547157288
217,65501558,0.9999998211860656,-0.00011643022298812866,-0.0005292836576700211,0.000275186263024807,0.0133605599403381,-0.0013962984085083,0.5079783201217651
218,65551559,0.9999998211860656,-0.0001184176653623581,-0.0005401447415351868,0.000293646939098835,0.0131134986877441,-0.0011368989944458,0.5068640112876892
219,65601560,0.9999998211860656,-0.00013992004096508026,-0.0005367044359445572,0.0003057727590203285,0.013123333454132,-0.0016896724700927,0.5068690776824951
220,65651561,0.9999998211860656,-0.00014319084584712982,-0.0005458835512399673,0.0002764621749520302,0.0133612155914306,-0.001278281211853,0.507041335105896
221,65701562,0.9999998211860656,-0.00012774765491485596,-0.0005248244851827621,0.0002691196277737617,0.0134283900260925,-0.0013905763626098,0.5065698623657227
222,65751563,0.9999998211860656,-0.0001238025724887848,-0.0005328208208084106,0.00028892699629068375,0.01320081949234,-0.0013572573661804,0.5073731541633606
223,65801564,0.9999998211860656,-0.00012218207120895386,-0.0005171094089746475,0.0002892399206757545,0.0135210156440734,-0.0014704465866088,0.506801187992096
224,65851565,0.9999998211860656,-0.00013344548642635343,-0.0005377400666475296,0.0002752235159277916,0.0133492946624755,-0.0010628700256347,0.5073140263557434
225,65901566,0.9999998211860656,-0.00013778358697891235,-0.0004996750503778458,0.000293816439807415,0.01331627368927,-0.0019311904907226,0.5068290829658508
226,65951567,0.9999998211860656,-0.00012838654220104218,-0.0005419589579105377,0.0002846764400601387,0.0131331086158752,-0.0014698505401611,0.5064628720283508
227,66001568,0.9999998211860656,-0.00013751350343227386,-0.0005302242934703827,0.0002703731879591942,0.0130853056907653,-0.001164972782135,0.5070399045944214
228,66051569,0.9999998211860656,-0.0001321360468864441,-0.0005292072892189026,0.00028905365616083145,0.0134268403053283,-0.0011141896247863,0.5068648457527161
229,66101570,0.9999998211860656,-0.0001234970986843109,-0.0005391873419284821,0.0002948017790913582,0.0132107734680175,-0.0009776949882507324,0.5067047476768494
230,66151571,0.9999998211860656,-0.0001438446342945099,-0.0005127694457769394,0.000287364237010479,0.0134838819503784,-0.0009679198265075684,0.5065308809280396
231,66201572,0.9999998211860656,-0.0001219864934682846,-0.0005191583186388016,0.0002757711336016655,0.0133476853370666,-0.0012322664260864,0.5073810815811157
232,66251573,0.9999998211860656,-0.00013855472207069397,-0.0005143154412508011,0.000294259749352932,0.0134574770927429,-0.0011495947837829,0.5062268972396851
233,66301574,0.9999998211860656,-0.00011485256254673004,-0.0005161408334970474,0.000294380821287632,0.0134877562522888,-0.0012441873550415,0.5063717365264893
234,66351575,0.9999998211860656,-0.0001376904547214508,-0.0005357768386602402,0.0002804463729262352,0.0131699442863464,-0.0010204911231994,0.5067948698997498
235,66401576,0.9999998211860656,-0.0001355186104774475,-0.0005302093923091888,0.0002806885167956352,0.013040542602539,-0.0012751817703247,0.5066816210746765
236,66451577,0.9999998211860656,-0.00011640973389148712,-0.0005402769893407822,0.0002940939739346504,0.0134161710739135,-0.0011658072471618,0.5071826577186584
237,66501578,0.9999998211860656,-0.00014426186680793762,-0.0005231127142906189,0.0002959882840514183,0.0132173299789428,-0.0014891624450683,0.5071308016777039
238,66551579,0.9999998211860656,-0.00013888999819755554,-0.0005302038043737411,0.0002777138724923134,0.013193666934967,-0.0010422468185424,0.5068876147270203
239,66601580,0.9999998211860656,-0.00012722425162792206,-0.0005430672317743301,0.000291590578854084,0.0133790969848632,-0.0014495849609375,0.5067662000656128
240,66651581,0.9999998211860656,-0.00014105439186096191,-0.0005142688751220703,0.0002683578059077263,0.0129998922348022,-0.0012449026107788,0.5072332620620728
241,66701582,0.9999998211860656,-0.00011648982763290404,-0.0005343630909919739,0.0002935612574219704,0.013315737247467,-0.0006222128868103027,0.5069606900215149
242,66751583,0.9999998211860656,-0.00012676231563091278,-0.0005200430750846863,0.0002701887860894203,0.01303631067276,-0.0010581016540527,0.5075326561927795
243,66801584,0.9999998211860656,-0.000118989497423172,-0.000528920441865921,0.0002764603123068809,0.01302170753479,-0.0013167858123779,0.5070311427116394
244,66851585,0.9999998211860656,-0.000130482017993927,-0.0005353372544050217,0.000280057080090046,0.0126942992210388,-0.0012248158454895,0.5068326592445374
245,66901586,0.9999998211860656,-0.00014706142246723175,-0.0005173236131668091,0.00028307829052209854,0.0135816931724548,-0.0011393427848815,0.5071170926094055
246,66951587,0.9999998211860656,-0.00012671202421188354,-0.000540073961019516,0.00029053445905447006,0.0134742856025695,-0.0008779168128967285,0.5061162114143372
247,67001588,0.9999998211860656,-0.00013503432273864746,-0.0005379095673561096,0.00027596671134233475,0.0128360986709594,-0.0012034177780151,0.5070449709892273
248,67051589,0.9999998211860656,-0.00012752041220664978,-0.0005282796919345856,0.000277041457593441,0.0134599804878234,-0.0011703372001647,0.5064965486526489
249,67101590,0.9999998211860656,-0.00013622641563415527,-0.000527041032910347,0.000292263925075531,0.0136093497276306,-0.0016115307807922,0.5067516565322876
250,67151591,0.9999998211860656,-0.00013843178749084473,-0.0005443431437015533,0.000276726670563221,0.0131289362907409,-0.0009931325912475586,0.5066315531730652
251,67201592,0.9999998211860656,-0.00012060627341270448,-0.000531097874045372,0.0002850620076060295,0.0131032466888427,-0.001343548297882,0.5075283646583557
252,67251593,0.9999998211860656,-0.00012664124369621277,-0.00054917111992836,0.0002948092296719551,0.0134782791137695,-0.0015580654144287,0.5072243809700012
253,67301594,0.9999998211860656,-0.00013048574328422546,-0.0005182232707738876,0.0002905158326029777,0.0132004618644714,-0.0010073781013488,0.5065591335296631
254,67351595,0.9999998211860656,-0.0001375693827867508,-0.0005144290626049042,0.0002929149195551872,0.0135918855667114,-0.0010469555854797,0.5071882009506226
255,67401596,0.9999998211860656,-0.00013741850852966309,-0.0005334634333848953,0.0002904823049902916,0.0136622190475463,-0.001111626625061,0.5061113238334656
256,67451597,0.9999998211860656,-0.00012036971747875214,-0.0005176085978746414,0.0003006337210536003,0.0133351683616638,-0.0012091994285583,0.5071803331375122
257,67501598,0.9999998211860656,-0.00014503113925457,-0.0005367342382669449,0.0002673221752047539,0.013249397277832,-0.0008452534675598145,0.5060397386550903
258,67551599,0.9999998211860656,-0.0001341402530670166,-0.000535380095243454,0.00029781367629766464,0.0136605501174926,-0.0012678503990173,0.5069749355316162
259,67601600,0.9999998211860656,-0.000135933980345726,-0.0005385726690292358,0.0002939244732260704,0.0130470395088195,-0.000926077365875244,0.5072893500328064
260,67651601,0.9999998211860656,-0.00012171454727649687,-0.0005017276853322983,0.00027143675833940506,0.0130768418312072,-0.0012460947036743,0.5066285729408264
261,67701602,0.9999998211860656,-0.00012244842946529388,-0.0005093999207019806,0.0002948390319943428,0.0126025676727294,-0.001518428325653,0.5073907375335693
262,67751603,0.9999998211860656,-0.0001204460859298706,-0.0005277451127767563,0.00028575118631124496,0.0134386420249938,-0.0010361671447753,0.5075390338897705
263,67801604,0.9999998211860656,-0.00012141652405261992,-0.0005359966307878494,0.0002853153273463249,0.0134364962577819,-0.0010343194007873,0.5066563487052917
264,67851605,0.9999998211860656,-0.0001613665372133255,-0.0005355682224035263,0.0002921959385275841,0.0129995346069335,-0.0011088252067565,0.5067155361175537
265,67901606,0.9999998211860656,-0.00012582726776599884,-0.0005153492093086243,0.00029372330754995346,0.013257086277008,-0.0013042092323303,0.5071256160736084
266,67951607,0.9999998211860656,-0.00014112330973148346,-0.0005099531263113022,0.00027413200587034225,0.0133000612258911,-0.0011550188064575,0.5070465207099915
267,68001608,0.9999998211860656,-0.00013346783816814425,-0.000530315563082695,0.0002896944060921669,0.0131016969680786,-0.0013105869293212,0.5070762038230896
268,68051609,0.9999998211860656,-0.0001312997192144394,-0.0005310438573360443,0.000298243947327137,0.013324499130249,-0.0009123682975769044,0.5067974328994751
269,68101610,0.9999998211860656,-0.00013611651957035065,-0.0005366355180740356,0.00030114781111478806,0.0132545232772827,-0.0013038516044616,0.5064656138420105
270,68151611,0.9999998211860656,-0.00011480972170829772,-0.00054905004799366,0.00028854142874479294,0.013488233089447,-0.0007774829864501953,0.5067214965820312
271,68201612,0.9999998211860656,-0.00011509843170642851,-0.0005249269306659698,0.0002760114148259163,0.0133993625640869,-0.0011208057403564,0.5071246027946472
272,68251613,0.9999998211860656,-0.00012287870049476624,-0.0005219634622335434,0.00028540100902318954,0.0131240487098693,-0.0010991692543029,0.5069625973701477
273,68301614,0.9999998211860656,-0.00012119859457015993,-0.0005527622997760773,0.0002719024196267128,0.0135155320167541,-0.0012188553810119,0.5071327090263367
274,68351615,0.9999998211860656,-0.00013089366257190704,-0.000548969954252243,0.0003070579841732979,0.0131608247756958,-0.001128077507019,0.5073204636573792
275,68401616,0.9999998211860656,-0.00013175420463085177,-0.0004946533590555191,0.00027747731655836105,0.0128574967384338,-0.0011947154998779,0.5075464248657227
276,68451617,0.9999998211860656,-0.00013966672122478485,-0.0005250107496976852,0.0002740053460001945,0.0131043791770935,-0.0012919902801513,0.5071892738342285
277,68501618,0.9999998211860656,-0.00013060122728347778,-0.000529089942574501,0.00028272252529859543,0.0132691264152526,-0.000760197639465332,0.5074992775917053
278,68551619,0.9999998211860656,-0.00012493878602981567,-0.0005216803401708603,0.00029661599546670914,0.0133396387100219,-0.0010671019554138,0.5069044232368469
279,68601620,0.9999998211860656,-0.00012840330600738523,-0.0005232784897089005,0.00027551595121622086,0.0131962895393371,-0.0012763142585754,0.5069641470909119
280,68651621,0.9999998211860656,-0.00012409314513206482,-0.0005050655454397202,0.00030618999153375626,0.013509452342987,-0.0015456080436706,0.5074177980422974
281,68701622,0.9999998211860656,-0.00012811832129955292,-0.0005278810858726501,0.00027993787080049515,0.0133068561553955,-0.0010547637939453,0.5063724517822266
282,68751623,0.9999998211860656,-0.00011320412158966064,-0.0005431510508060455,0.0002789376303553581,0.0133208632469177,-0.0012571215629577,0.5072304606437683
283,68801624,0.9999998211860656,-0.00012472085654735565,-0.0005330387502908707,0.00027807150036096573,0.0133142471313476,-0.0010280013084411,0.5067272186279297
284,68851625,0.9999998211860656,-0.00013232789933681488,-0.0005484316498041153,0.00029403623193502426,0.0132499933242797,-0.0012633800506591,0.5074806213378906
285,68901626,0.9999998211860656,-0.00014204904437065125,-0.0005552619695663452,0.0002696989104151726,0.0130002498626708,-0.0013744235038757,0.5065258741378784
286,68951627,0.9999998211860656,-0.0001223478466272354,-0.0005399454385042191,0.00028105173259973526,0.0133811235427856,-0.0013077855110168,0.5070408582687378
287,69001628,0.9999998211860656,-0.00013833865523338318,-0.0005164742469787598,0.00028175394982099533,0.0132554173469543,-0.0014616250991821,0.5064422488212585
288,69051629,0.9999998211860656,-0.00011814013123512268,-0.0005402788519859314,0.0002876492217183113,0.0130022764205932,-0.0012800097465515,0.5073353052139282
289,69101630,0.9999998211860656,-0.0001094583421945572,-0.0005270224064588547,0.00029053445905447006,0.0133206844329833,-0.0011487603187561,0.5068726539611816
290,69151631,0.9999998211860656,-0.00012227892875671387,-0.0005214419215917587,0.0002972325310111046,0.0128886103630065,-0.001186728477478,0.5071909427642822
291,69201632,0.9999998211860656,-0.00013544224202632904,-0.0005231611430644989,0.00030235107988119125,0.0129573345184326,-0.0015327930450439,0.5076612830162048
292,69251633,0.9999998211860656,-0.00014315545558929443,-0.0005222484469413757,0.0002921679988503456,0.0137707591056823,-0.001393437385559,0.5069754123687744
293,69301634,0.9999998211860656,-0.0001465100795030594,-0.0005206577479839325,0.00027592945843935013,0.0133563876152038,-0.0012380480766296,0.5069155097007751
294,69351635,0.9999998211860656,-0.00012322701513767242,-0.0005228985100984573,0.0002915719524025917,0.0130316615104675,-0.0013942718505859,0.5065142512321472
295,69401636,0.9999998211860656,-0.00012573786079883575,-0.000517016276717186,0.00029100198298692703,0.013106346130371,-0.0009306073188781738,0.5068278312683105
296,69451637,0.9999998211860656,-0.0001287497580051422,-0.0005487427115440369,0.0002984544262290001,0.0135053396224975,-0.0015933513641357,0.507117509841919
297,69501638,0.9999998211860656,-0.00013105012476444244,-0.0005318280309438705,0.00028632860630750656,0.0132333040237426,-0.0015397667884826,0.5070716142654419
298,69551639,0.9999998211860656,-0.00014439038932323456,-0.000527113676071167,0.0002762274816632271,0.0133088827133178,-0.0014713406562805,0.5071716904640198
299,69601640,0.9999998211860656,-0.000130360946059227,-0.0005211550742387772,0.0002868650481104851,0.0133483409881591,-0.001419723033905,0.5068017840385437
300,69651641,0.9999998211860656,-0.00013493746519088745,-0.0005400460213422775,0.0002926355227828026,0.0131295919418334,-0.001064658164978,0.5068688988685608
301,69701642,0.9999998211860656,-0.0001384597271680832,-0.0005178190767765045,0.0002783527597784996,0.0134303569793701,-0.0017600059509277,0.5074690580368042
302,69751643,0.9999998211860656,-0.0001386459916830063,-0.0005500335246324539,0.0002911509945988655,0.0133512616157531,-0.0016772747039794,0.506683349609375
303,69801644,0.9999998211860656,-0.0001345016062259674,-0.0005411058664321899,0.0002698739990592003,0.0136589407920837,-0.0012203454971313,0.5062388181686401
304,69851645,0.9999998211860656,-0.00013838335871696472,-0.0005144104361534119,0.0002937531098723412,0.0135474801063537,-0.001382827758789,0.5077774524688721
305,69901646,0.9999998211860656,-0.00013263151049613953,-0.0005460083484649658,0.00029150117188692093,0.0134500265121459,-0.0013999342918395,0.5072609186172485
306,69951647,0.9999998211860656,-0.00012440979480743408,-0.0005216654390096664,0.00028536561876535416,0.0131533741950988,-0.0009758472442626952,0.5071722269058228
307,70001648,0.9999998211860656,-0.00011759623885154724,-0.0005414336919784546,0.0002878187224268913,0.013625681400299,-0.0010144710540771,0.5067734718322754
308,70051649,0.9999998211860656,-0.00012002140283584596,-0.0005303565412759781,0.0002929074689745903,0.0132670998573303,-0.0011727809906005,0.5065292716026306
309,70101650,0.9999998211860656,-0.00015680678188800812,-0.0005470477044582367,0.0002828044816851616,0.0133216381072998,-0.0011543035507202,0.5068106651306152
310,70151651,0.9999998211860656,-0.0001340620219707489,-0.0005319882184267044,0.000312228687107563,0.0133571028709411,-0.0010944008827209,0.5075274109840393
311,70201652,0.9999998211860656,-0.00011473335325717926,-0.0005309227854013443,0.0002932427451014519,0.0135990977287292,-0.0014722347259521,0.5071262121200562
312,70251653,0.9999998211860656,-0.00014122575521469116,-0.000512588769197464,0.0002781534567475319,0.0131211280822753,-0.0015264749526977,0.5072029829025269
313,70301654,0.9999998211860656,-0.00013872236013412476,-0.0005101170390844345,0.000284573994576931,0.0135001540184021,-0.0013969540596008,0.506449282169342
314,70351655,0.9999998211860656,-0.00014809146523475647,-0.0005275923758745193,0.0002866080030798912,0.0132323503494262,-0.0012551546096801,0.506501317024231
315,70401656,0.9999998211860656,-0.00012120604515075684,-0.0005416832864284515,0.0002674935385584831,0.0137927532196044,-0.0011882185935974,0.5080005526542664
316,70451657,0.9999998211860656,-0.0001302957534790039,-0.0005357470363378525,0.0002951519563794136,0.0136892795562744,-0.001210868358612,0.5065868496894836
317,70501658,0.9999998211860656,-0.00012842565774917605,-0.0005147885531187057,0.0002877442166209221,0.0131118297576904,-0.0011878013610839,0.5071929097175598
318,70551659,0.9999998211860656,-0.00013713538646697998,-0.0005478169769048691,0.0002855071797966957,0.0138353109359741,-0.0014040470123291,0.5069259405136108
319,70601660,0.9999998211860656,-0.00014276988804340365,-0.0005272459238767624,0.00030425284057855606,0.0133246779441833,-0.001697301864624,0.50643390417099
320,70651661,0.9999998211860656,-0.000134982168674469,-0.0005253106355667114,0.0002941032871603966,0.0133387446403503,-0.0010830163955688,0.5073722004890442
321,70701662,0.9999998211860656,-0.00012835301458835602,-0.0005367249250411987,0.00030103418976068497,0.0134645700454711,-0.0011189579963684,0.5070931911468506
322,70751663,0.9999998211860656,-0.00013465434312820437,-0.0005494207143783569,0.0002969754859805107,0.0135005712509155,-0.0014729499816894,0.5067821145057678
323,70801664,0.9999998211860656,-0.00011444091796875,-0.0005036592483520508,0.0002892492339015007,0.0134791135787963,-0.0013999342918395,0.5074412822723389
324,70851665,0.9999998211860656,-0.0001409687101840973,-0.0005036331713199615,0.0002794312313199044,0.0135304927825927,-0.0015644431114196,0.5067188143730164
325,70901666,0.9999998211860656,-0.00013245642185211182,-0.0005379766225814819,0.0002803867682814598,0.0134133100509643,-0.000947117805480957,0.5071240663528442
326,70951667,0.9999998211860656,-0.0001272875815629959,-0.00056423619389534,0.0002758121117949486,0.0131690502166748,-0.0012335181236267,0.506568193435669
327,71001668,0.9999998211860656,-0.0001385323703289032,-0.0005375202745199203,0.00030599813908338547,0.0136940479278564,-0.0012409090995788,0.5067810416221619
328,71051669,0.9999998211860656,-0.00011628679931163788,-0.0005441661924123764,0.00027987267822027206,0.0129650831222534,-0.0011484622955322,0.5063857436180115
329,71101670,0.9999998211860656,-0.00014655478298664093,-0.0005297400057315826,0.0002959715202450752,0.0132947564125061,-0.0019607543945312,0.5072028636932373
330,71151671,0.9999998211860656,-0.000125126913189888,-0.0005244240164756775,0.0003128396347165108,0.0134268999099731,-0.0012029409408569,0.5070411562919617
331,71201672,0.9999998211860656,-0.00013053975999355316,-0.0005238857120275497,0.0002767732366919517,0.0134758949279785,-0.001121163368225,0.5069641470909119
332,71251673,0.9999998211860656,-0.0001417212188243866,-0.0005403291434049606,0.0002841772511601448,0.013357937335968,-0.0013844370841979,0.5060431957244873
333,71301674,0.9999998211860656,-0.00014058686792850494,-0.0005407370626926422,0.000258701853454113,0.0131940841674804,-0.0013867020606994,0.5068106055259705
334,71351675,0.9999998211860656,-0.00013443641364574432,-0.0005244668573141098,0.0002824878320097924,0.0133991837501525,-0.0009188055992126464,0.5070804953575134
335,71401676,0.9999998211860656,-0.00012645311653614044,-0.0005318261682987213,0.00028540100902318954,0.0134265422821044,-0.0017030239105224,0.5063132047653198
336,71451677,0.9999998211860656,-0.0001290552318096161,-0.0005266051739454269,0.0003049885854125023,0.0131087303161621,-0.0010457634925842,0.5072252154350281
337,71501678,0.9999998211860656,-0.00013528764247894287,-0.0005453303456306458,0.0002881428226828575,0.0131402015686035,-0.0013561248779296,0.5067027807235718
338,71551679,0.9999998211860656,-0.00013379938900470734,-0.0005249399691820145,0.0002644723281264305,0.0133761763572692,-0.0012649297714233,0.5065143704414368
339,71601680,0.9999998211860656,-0.00013410113751888275,-0.0005459580570459366,0.00028626713901758194,0.0135250091552734,-0.0014198422431945,0.5061224102973938
340,71651681,0.9999998211860656,-0.0001347362995147705,-0.0005249548703432083,0.000280492939054966,0.0134708881378173,-0.001262605190277,0.5063506364822388
341,71701682,0.9999998211860656,-0.0001416243612766266,-0.0005399379879236221,0.0002903016284108162,0.013213574886322,-0.0010592937469482,0.5073314309120178
342,71751683,0.9999998211860656,-0.000133562833070755,-0.0005297381430864334,0.000290687195956707,0.0134867429733276,-0.001249611377716,0.5066884756088257
343,71801684,0.9999998211860656,-0.0001406800001859665,-0.0005297418683767319,0.0003003263846039772,0.0134412050247192,-0.0008478164672851562,0.5074232816696167
344,71851685,0.9999998211860656,-0.0001260712742805481,-0.0005342047661542892,0.00027424562722444534,0.0131285786628723,-0.0010020732879638,0.5068400502204895
345,71901686,0.9999998211860656,-0.00011449307203292848,-0.0005274340510368347,0.0003020996227860451,0.013197898864746,-0.0013444423675537,0.5071393251419067
346,71951687,0.9999998211860656,-0.0001478586345911026,-0.0005345307290554047,0.00028555747121572495,0.0137479901313781,-0.000994265079498291,0.5066312551498413
347,72001688,0.9999998211860656,-0.00011534988880157472,-0.0005248710513114929,0.00029488373547792435,0.0135545134544372,-0.0014974474906921,0.5067854523658752
348,72051689,0.9999998211860656,-0.0001228097826242447,-0.0005318652838468552,0.00029745232313871384,0.0130069851875305,-0.001217782497406,0.5065233707427979
349,72101690,0.9999998211860656,-0.0001284424215555191,-0.0005220212042331696,0.0002913800999522209,0.0136079788208007,-0.0010325908660888,0.5068523287773132
350,72151691,0.9999998211860656,-0.00010018795728683472,-0.0005116034299135208,0.00030815135687589645,0.0136828422546386,-0.0012246966361999,0.5064331293106079
351,72201692,0.9999998211860656,-0.00013284757733345032,-0.0005142707377672195,0.00028214138001203537,0.013818621635437,-0.0013667941093444,0.5068808794021606
352,72251693,0.9999998211860656,-0.00012378208339214325,-0.000560985878109932,0.00026163551956415176,0.0138121843338012,-0.0015262365341186,0.5070980191230774
353,72301694,0.9999998211860656,-0.00012978166341781616,-0.0005364194512367249,0.00026882532984018326,0.0137898921966552,-0.0009680986404418944,0.5070737600326538
354,72351695,0.9999998211860656,-0.0001345612108707428,-0.0005199890583753586,0.0002988753840327263,0.0134377479553222,-0.0013587474822998,0.5070419907569885
355,72401696,0.9999998211860656,-0.0001518838107585907,-0.0005297176539897919,0.00028723012655973434,0.0131553411483764,-0.0014411211013793,0.5069456696510315
356,72451697,0.9999998211860656,-0.00013172626495361328,-0.0005285255610942841,0.0002811867743730545,0.0132436752319335,-0.0013923645019531,0.5067448019981384
357,72501698,0.9999998211860656,-0.00013385340571403503,-0.0005377847701311111,0.00028315652161836624,0.0132914185523986,-0.0012989044189453,0.5072846412658691
358,72551699,0.9999998211860656,-0.00012402422726154327,-0.0005340408533811569,0.0002973368391394615,0.0133293271064758,-0.001327633857727,0.5068747997283936
359,72601700,0.9999998211860656,-0.0001107342541217804,-0.0005475636571645737,0.00028822850435972214,0.0132307410240173,-0.001059353351593,0.507350742816925
360,72651701,0.9999998211860656,-0.00013815611600875854,-0.0005339719355106354,0.0002776114270091057,0.0134609341621398,-0.0012750625610351,0.5071681141853333
361,72701702,0.9999998211860656,-0.00011169537901878356,-0.0005484558641910553,0.00028744619339704514,0.0130612850189208,-0.0017973184585571,0.5072494149208069
362,72751703,0.9999998211860656,-0.00013440661132335663,-0.0005519036203622818,0.00029376987367868423,0.0132374763488769,-0.0011985898017883,0.50679612159729
363,72801704,0.9999998211860656,-0.0001283343881368637,-0.0005424655973911285,0.0002777138724923134,0.0133195519447326,-0.0013013482093811,0.5067040324211121
364,72851705,0.9999998211860656,-0.00013373233377933502,-0.0005297046154737473,0.00027585308998823166,0.0136131048202514,-0.0015917420387268,0.5067980885505676
365,72901706,0.9999998211860656,-0.00012892484664916992,-0.0005323849618434906,0.0002826536074280739,0.0135256648063659,-0.0011810660362243,0.5068957805633545
366,72951707,0.9999998211860656,-0.00014706328511238098,-0.0005370955914258957,0.0002863304689526558,0.0134652853012084,-0.0010179281234741,0.5069321990013123
367,73001708,0.9999998211860656,-0.0001209266483783722,-0.0005323607474565506,0.00029737967997789383,0.0138089060783386,-0.0013591051101684,0.5064586997032166
368,73051709,0.9999998211860656,-0.0001310594379901886,-0.0005273148417472839,0.0002815993502736092,0.0134164690971374,-0.0011030435562133,0.506504476070404
369,73101710,0.9999998211860656,-0.0001368541270494461,-0.000541171059012413,0.0002942206338047981,0.0134783387184143,-0.000988006591796875,0.5071430206298828
370,73151711,0.9999998211860656,-0.00011941976845264436,-0.0005279500037431717,0.0002809753641486168,0.0134875178337097,-0.0012943148612976,0.5070896148681641
371,73201712,0.9999998211860656,-0.00013360939919948578,-0.0005329903215169907,0.00028925854712724686,0.0133402943611145,-0.0014169812202453,0.506937563419342
372,73251713,0.9999998211860656,-0.00012561306357383728,-0.0005495231598615646,0.0002722153440117836,0.0132588744163513,-0.0011545419692993,0.50738525390625
373,73301714,0.9999998211860656,-0.00012798048555850983,-0.0005259104073047638,0.0002932017669081688,0.0133981704711914,-0.0013250112533569,0.5068956613540649
374,73351715,0.9999998211860656,-0.0001429542899131775,-0.0005312561988830566,0.00029352959245443344,0.0135180354118347,-0.0008342862129211426,0.5066162943840027
375,73401716,0.9999998211860656,-0.00012969039380550385,-0.0005059428513050079,0.00027482304722070694,0.0131711959838867,-0.0012440085411071,0.5077112913131714
376,73451717,0.9999998211860656,-0.00013299472630023956,-0.0005242209881544113,0.0002864161506295204,0.0127211809158325,-0.0012392997741699,0.5063968896865845
377,73501718,0.9999998211860656,-0.00014024972915649414,-0.000536009669303894,0.00028545502573251724,0.0130077600479125,-0.0007306933403015137,0.5075870156288147
378,73551719,0.9999998211860656,-0.00012614205479621887,-0.0004959329962730408,0.0002953214570879936,0.0136345624923706,-0.0009748935699462892,0.5066189765930176
379,73601720,0.9999998211860656,-0.0001223310828208923,-0.0005312301218509674,0.00028640124946832657,0.0130388736724853,-0.0017070174217224,0.5066489577293396
380,73651721,0.9999998211860656,-0.00012219324707984924,-0.0005338508635759354,0.0002913186326622963,0.013156235218048,-0.0015986561775207,0.5064143538475037
381,73701722,0.9999998211860656,-0.00015031546354293823,-0.0005225501954555511,0.00029267650097608566,0.0130727887153625,-0.0013277530670166,0.5074787735939026
382,73751723,0.9999998211860656,-0.0001289714127779007,-0.0005445424467325211,0.0002768049016594887,0.0132834911346435,-0.0014925599098205,0.5069606304168701
383,73801724,0.9999998211860656,-0.00014061294496059418,-0.0005397014319896698,0.00027681421488523483,0.0133953690528869,-0.0011271238327026,0.5071583986282349
384,73851725,0.9999998211860656,-0.0001069195568561554,-0.0005292762070894241,0.0002911454066634178,0.0134949684143066,-0.0013623237609863,0.5071648955345154
385,73901726,0.9999998211860656,-0.00011670216917991638,-0.0005124155431985855,0.0003039175644516945,0.0134578347206115,-0.0011983513832092,0.5064533352851868
386,73951727,0.9999998211860656,-0.0001226440072059631,-0.0005307476967573166,0.0002795448526740074,0.0133333802223205,-0.0008300542831420898,0.507515549659729
387,74001728,0.9999998211860656,-0.00012093223631381989,-0.0005320291966199875,0.00028720591217279434,0.013324499130249,-0.0010227560997009,0.5065373778343201
388,74051729,0.9999998211860656,-0.0001337192952632904,-0.0005272421985864639,0.00029927585273981094,0.0134385228157043,-0.0014171004295349,0.5067161321640015
389,74101730,0.9999998211860656,-0.00013359449803829193,-0.000529266893863678,0.0002810647711157799,0.0132492780685424,-0.0011012554168701,0.5066450834274292
390,74151731,0.9999998211860656,-0.00012547336518764496,-0.0005532689392566681,0.0002902364358305931,0.013254165649414,-0.001322329044342,0.5069981813430786
391,74201732,0.9999998211860656,-0.00013798661530017853,-0.000525008887052536,0.00028109829872846603,0.0129039883613586,-0.0009524822235107422,0.5066571831703186
392,74251733,0.9999998211860656,-0.00014483556151390076,-0.0005405042320489883,0.00031085219234228134,0.0135150551795959,-0.0014598965644836,0.5067755579948425
393,74301734,0.9999998211860656,-0.00013393349945545197,-0.0005318447947502136,0.00028942618519067764,0.0134246945381164,-0.0010435581207275,0.5071797370910645
394,74351735,0.9999998211860656,-0.00011599436402320862,-0.0005362257361412048,0.0002932613715529442,0.0138194561004638,-0.0016578435897827,0.5068122744560242
395,74401736,0.9999998211860656,-0.00012641586363315582,-0.0005254354327917099,0.00030121300369501114,0.0131608843803405,-0.0016227960586547,0.5071712732315063
396,74451737,0.9999998211860656,-0.0001405701041221619,-0.0005376599729061127,0.0002928869798779488,0.013309359550476,-0.0005912184715270996,0.5068492889404297
397,74501738,0.9999998211860656,-0.00015081651508808136,-0.0005280431360006332,0.00028839241713285446,0.0132812857627868,-0.0011014938354492,0.5072860717773438
398,74551739,0.9999998211860656,-0.00012042000889778136,-0.000524912029504776,0.00030434969812631607,0.0131011605262756,-0.0017128586769104,0.5072886943817139
399,74601740,0.9999998211860656,-0.00012626871466636658,-0.0005360152572393417,0.00030226167291402817,0.0133076906204223,-0.0012249946594238,0.5070682764053345
400,74651741,0.9999997615814208,-0.0001147892326116562,-0.0005663167685270309,0.0003124205395579338,0.0126956701278686,-0.0016270875930786,0.5105304718017578
401,74701742,0.9999997615814208,-7.589906454086304e-05,-0.0006051789969205856,0.0002554627135396004,0.0132429003715515,-0.0013239383697509,0.5040096044540405
402,74751743,0.9999998211860656,-0.00011531263589859007,-0.0005551520735025406,0.0002889065071940422,0.0129498243331909,-0.0011663436889648,0.5079448223114014
403,74801744,0.9999998211860656,-0.00011701509356498718,-0.0005471073091030121,0.0002753911539912224,0.0134125351905822,-0.0013676881790161,0.5062408447265625
404,74851745,0.9999998211860656,-0.00014713220298290253,-0.0005104374140501022,0.0002869041636586189,0.0137831568717956,-0.0013210177421569,0.5073596835136414
405,74901746,0.9999998211860656,-0.00013885647058486938,-0.0005210787057876587,0.00028573814779520035,0.0137854814529418,-0.0012281537055969,0.5061337947845459
406,74951747,0.9999998211860656,-0.00013831257820129397,-0.0005448199808597565,0.000287412665784359,0.0138959884643554,-0.0012808442115783,0.5075469613075256
407,75001748,0.9999998211860656,-0.00012494809925556183,-0.000522347167134285,0.00031101983040571213,0.0134900212287902,-0.0008261203765869141,0.5061920285224915
408,75051749,0.9999998211860656,-0.00011278502643108368,-0.0005579683929681778,0.00027521420270204544,0.0134027600288391,-0.0012475848197937,0.5070597529411316
409,75101750,0.9999998211860656,-0.00013192370533943176,-0.0005330778658390045,0.00028233136981725693,0.0134977102279663,-0.0010268092155456,0.5075762271881104
410,75151751,0.9999998211860656,-0.00013160519301891327,-0.0005207043141126633,0.0002752253785729408,0.0132200121879577,-0.0010703206062316,0.5070115327835083
411,75201752,0.9999998211860656,-0.00010546669363975524,-0.0005155336111783981,0.0002692500129342079,0.0139340162277221,-0.001428484916687,0.5072615146636963
412,75251753,0.9999998211860656,-0.00011045671999454498,-0.0004990957677364349,0.0002862876281142235,0.0136348009109497,-0.0013320446014404,0.5066322684288025
413,75301754,0.9999998211860656,-0.0001314505934715271,-0.0005130171775817871,0.00029127951711416245,0.013702392578125,-0.000968337059020996,0.5061964392662048
414,75351755,0.9999998211860656,-0.00011761486530303956,-0.0005340576171875,0.00029256660491228104,0.0132915377616882,-0.0007507801055908203,0.5074846148490906
415,75401756,0.9999998211860656,-0.00011798180639743804,-0.0005019679665565491,0.00029078777879476547,0.013038158416748,-0.0008852481842041016,0.5068067312240601
416,75451757,0.9999998211860656,-0.00012336857616901398,-0.0005289036780595779,0.0002969810739159584,0.0136672854423522,-0.0008456707000732422,0.5074518918991089
417,75501758,0.9999998211860656,-0.0001289527863264084,-0.0005134530365467072,0.00030173826962709427,0.0134559869766235,-0.0010056495666503,0.5070884227752686
418,75551759,0.9999998211860656,-0.00013282150030136108,-0.0004815161228179932,0.0002798764035105705,0.0132825374603271,-0.0011951327323913,0.5073795914649963
419,75601760,0.9999998211860656,-0.00015673786401748657,-0.0005187671631574631,0.0002890760079026222,0.0136225223541259,-0.000903785228729248,0.5067579746246338
420,75651761,0.9999998211860656,-0.00011996179819107056,-0.0005155466496944427,0.0002945614978671074,0.013265311717987,-0.0011773705482482,0.5070890784263611
421,75701762,0.9999998211860656,-0.00012978538870811462,-0.000536033883690834,0.0002987692132592201,0.0135105848312377,-0.0012869834899902,0.5064451098442078
422,75751763,0.9999998211860656,-0.00011965259909629822,-0.0005243811756372452,0.0002886028960347176,0.0133334398269653,-0.000815272331237793,0.5067579746246338
423,75801764,0.9999998211860656,-0.00010689720511436462,-0.00051107257604599,0.000285872258245945,0.0135474801063537,-0.0014063119888305,0.5075492262840271
424,75851765,0.9999998211860656,-0.00013617798686027527,-0.0005291830748319626,0.00029988307505846024,0.0134937763214111,-0.0013650655746459,0.5076820850372314
425,75901766,0.9999998211860656,-0.00012412108480930328,-0.0005411617457866669,0.00029659178107976913,0.0135361552238464,-0.00048160552978515625,0.5071510076522827
426,75951767,0.9999998211860656,-0.00013692490756511688,-0.0005550943315029144,0.00025952886790037155,0.0133402347564697,-0.0009464621543884276,0.5077998638153076
427,76001768,0.9999998211860656,-0.00012625381350517273,-0.0005302708595991135,0.00029703695327043533,0.0134568810462951,-0.0012653470039367,0.5073779821395874
428,76051769,0.9999998211860656,-0.0001232977956533432,-0.0005313865840435028,0.0002613188698887825,0.0131253004074096,-0.0011702179908752,0.5062029957771301
429,76101770,0.9999998211860656,-0.0001270603388547897,-0.0005234722048044205,0.0002727648243308068,0.0135083198547363,-0.0013167858123779,0.5070682168006897
430,76151771,0.9999998211860656,-0.00013104453682899475,-0.0005406178534030914,0.0002843746915459633,0.0136545896530151,-0.0012293457984924,0.5067132115364075
431,76201772,0.9999998211860656,-0.0001347847282886505,-0.0005322527140378952,0.00029738713055849075,0.0133824348449707,-0.0010784268379211,0.5074307322502136
432,76251773,0.9999998211860656,-0.00012468919157981873,-0.0005243681371212006,0.00028633978217840195,0.013403296470642,-0.0010871887207031,0.5070400238037109
433,76301774,0.9999998211860656,-0.0001044049859046936,-0.00051116943359375,0.00029429513961076736,0.0134364366531372,-0.0013021826744079,0.5068387389183044
434,76351775,0.9999998211860656,-0.0001374073326587677,-0.0005483068525791168,0.0002947980538010597,0.013467788696289,-0.0011054873466491,0.5068892240524292
435,76401776,0.9999995827674866,-0.000116102397441864,-0.0005811620503664017,0.0006994875147938728,0.0164608359336853,-0.00023382902145385745,0.5073493123054504
436,76451777,0.9999935030937196,-0.00015328265726566315,-0.0004065316170454025,0.0035762237384915,0.0101979374885559,-0.0017527341842651,0.5067316293716431
437,76501778,0.9999961853027344,-8.024275302886963e-05,-0.0006303973495960236,-0.0026897434145212,0.0131651163101196,-0.0005819201469421387,0.5069400072097778
438,76551779,0.9999998211860656,-0.0001427121460437775,-0.0005342215299606323,0.00022498611360788345,0.0133111476898193,-0.0012477040290832,0.5070917010307312
439,76601780,0.9999969005584716,-0.00022361986339092252,-0.0009256955236196518,0.0022952100262045,0.0143393874168396,-0.000361323356628418,0.5067166686058044
440,76651781,0.999996304512024,-0.0002773106098175049,-0.0013762302696704,0.0023237923160195,0.0142925381660461,-0.000273287296295166,0.507401704788208
441,76701782,0.9999871850013732,-0.00034003332257270813,-0.0011737067252397,0.0049150688573718,0.0302674174308776,-0.0062357783317565,0.5070942044258118
442,76751783,0.9999849200248718,9.088311344385148e-05,0.0002520522102713585,0.0054839206859469,-0.000574648380279541,0.0031813383102416,0.5062522292137146
443,76801784,0.9999998211860656,-9.399093687534332e-05,-0.00018046796321868896,0.000584878958761692,0.0128283500671386,-0.0020261406898498,0.5074039101600647
444,76851785,0.9999999403953552,-7.672980427742004e-05,-0.00021584145724773407,-0.00016383454203605652,0.0141333937644958,-0.002859354019165,0.5062237977981567
445,76901786,0.9999998211860656,-0.00010038353502750395,-0.0005454346537590027,6.08665868639946e-05,0.0135610103607177,-0.0004486441612243652,0.5065145492553711
446,76951787,0.9999988079071044,-0.00012599676847457886,-0.0005353223532438278,-0.0014274306595325,0.0136511921882629,-0.0021049380302429,0.5062267780303955
447,77001788,0.999997079372406,-0.00011088326573371889,-0.000513838604092598,-0.0023682303726673,0.0121342539787292,-0.007580280303955,0.5068699717521667
448,77051789,0.9999862313270568,-5.802325904369354e-05,-0.0005321428179740906,-0.0052178632467985,0.0128443837165832,0.0015667080879211,0.506834089756012
449,77101790,0.9999909996986388,-0.00012811273336410522,-0.0009225867688655852,-0.0041423477232456,0.0150890350341796,0.0009015798568725586,0.506025493144989
450,77151791,0.9999948143959044,-0.0001416131854057312,-0.0005909651517868042,-0.0031680297106504,0.014299988746643,-0.0018646717071533,0.5075019001960754
451,77201792,0.9999922513961792,-5.574338138103485e-05,-0.00012421607971191406,-0.0039323046803474,0.0157440900802612,-0.0054475665092468,0.5068861842155457
452,77251793,0.9999877214431764,-8.393079042434692e-06,-0.0003456864506006241,-0.0049401987344026,0.0159404277801513,-0.0019508600234985,0.5069444179534912
453,77301794,0.9999868869781494,-6.565079092979431e-05,-0.0003913268446922302,-0.0051105096936225,0.010002851486206,0.0043398141860961,0.5067214965820312
454,77351795,0.9999808073043824,-6.355531513690948e-05,-0.00019677169620990756,-0.0061920713633298,0.0114834308624267,-0.0015243291854858,0.5072863698005676
455,77401796,0.9999522566795348,-1.576542854309082e-05,-0.0004654731601476669,-0.0097585059702396,0.0090170502662658,0.0019015073776245,0.5072976350784302
456,77451797,0.999964952468872,-8.530355989933014e-05,-0.0003729984164237976,-0.0083642937242984,0.0152451992034912,-0.0013649463653564,0.506872296333313
457,77501798,0.9999735355377196,-1.9237399101257324e-05,-0.0007065460085868835,-0.0072375442832708,0.0137886404991149,0.001068890094757,0.506899893283844
458,77551799,0.9999805688858032,-8.176453411579132e-05,-0.0005330368876457214,-0.0062077064067125,0.0154831409454345,-0.0033744573593139,0.5072163939476013
459,77601800,0.9999884963035583,-4.820525646209717e-05,-0.0005203969776630402,-0.0047676395624876,0.0100137591361999,0.0039964914321899,0.5076671242713928
460,77651801,0.9999958872795104,-0.00013677775859832764,-0.0006527937948703766,-0.0027834121137857,0.0128453373908996,0.0022075772285461,0.5062904357910156
461,77701802,0.999995768070221,-9.68482345342636e-05,-0.0005292203277349472,-0.0028620492666959,0.0126237273216247,0.00016433000564575195,0.5066705942153931
462,77751803,0.999996304512024,-9.116344153881072e-05,-0.0005917027592658997,-0.0026566851884126,0.0137039422988891,0.001333475112915,0.5070176124572754
463,77801804,0.9999973177909852,-0.000170975923538208,-0.0006643906235694885,-0.0022218693047761,0.0124003291130065,0.0006661415100097656,0.5075828433036804
464,77851805,0.9999988675117492,-0.00014964677393436432,-0.0008415952324867249,-0.0012458395212888,0.0130710005760192,0.0004396438598632813,0.5070733428001404
465,77901806,0.9999997615814208,-0.00017206184566020966,-0.0005689114332199097,-0.0002699624747037888,0.0130553841590881,0.0020905137062072,0.5069106817245483
466,77951807,0.9999997615814208,-0.00017646700143814087,-0.0005690213292837143,0.0003696614876389504,0.0129523277282714,0.001153826713562,0.5069379806518555
467,78001808,0.9999998211860656,-9.964592754840852e-05,-0.0004374086856842041,0.00038685742765665054,0.0133695602416992,0.001215636730194,0.5072985887527466
468,78051809,0.9999996423721312,-0.00013852491974830627,-0.0005976911634206772,0.0006048912182450294,0.0131294727325439,0.0010194778442382,0.506992518901825
469,78101810,0.9999984502792358,-0.00021471455693244931,-0.0006662905216217041,0.0016225101426243,0.014469027519226,-0.0013598203659057,0.5066902041435242
470,78151811,0.9999971389770508,-9.7593292593956e-05,-0.0005639735609292984,0.0023145666345953,0.0132532119750976,0.0018109679222106,0.5069303512573242
471,78201812,0.9999861121177672,-0.0001711379736661911,-0.000705234706401825,0.0052170557901263,0.0187253355979919,-0.0067830085754394,0.5071297883987427
472,78251813,0.9999744296073914,-0.00018117204308509827,-0.000611569732427597,0.0071208914741873,0.0167316198348999,-0.0044054985046386,0.5070742964744568
473,78301814,0.9999679327011108,-8.277036249637604e-05,-0.0003692395985126496,0.0079995198175311,0.0127233266830444,-0.0002297759056091309,0.5071276426315308
474,78351815,0.9999850392341614,-0.00012054666876792908,-0.0004961024969816208,0.0054511735215783,0.0089661478996276,0.0086055994033813,0.50699383020401
475,78401816,0.9999984502792358,-5.644559860229492e-05,-9.695254266262054e-05,-0.0017485693097114,0.012027621269226,3.427267074584961e-05,0.5072021484375
476,78451817,0.9999952912330629,-0.00010102055966854095,-0.0008140057325363159,0.0029510902240872,0.01613050699234,-0.00032085180282592773,0.5074272155761719
477,78501818,0.999995768070221,-0.0001758784055709839,-0.00040129758417606354,0.0028716782107949,0.0121444463729858,0.0021008253097534,0.5068061351776123
478,78551819,0.9999659657478333,-0.00020615197718143463,-0.0005710069090127945,0.0082268780097365,0.0194787383079528,-0.0057458281517028,0.5067347884178162
479,78601820,0.9999890327453612,-0.0001627206802368164,-0.0003543626517057419,0.0046664429828524,0.0043757557868957,0.0070976018905639,0.5068278908729553
480,78651821,0.999993085861206,-7.546879351139069e-05,-0.00032665394246578217,-0.0036995206028223,0.0154860615730285,0.00018978118896484372,0.506561815738678
481,78701822,0.9999998211860656,-0.00011778250336647034,-0.0005171485245227814,0.00035573262721300125,0.0140801072120666,-0.0016224980354309,0.5066264271736145
482,78751823,0.999999701976776,-8.72444361448288e-05,-0.0005322806537151337,-0.0005071572959423065,0.0110580921173095,0.0028815269470214,0.5068912506103516
483,78801824,0.9999995827674866,-0.00011724047362804411,-0.0005477257072925568,-0.0006957631558179855,0.0127742290496826,-0.0018223524093627,0.5071170926094055
484,78851825,0.9999989867210388,-0.00013349391520023346,-0.0005555618554353714,0.0012929877266287,0.0154116153717041,0.000978529453277588,0.5067784786224365
485,78901826,0.9999990463256836,-0.0001465342938899994,-0.0004344489425420761,0.0013003991916775,0.0126041173934936,-0.0017212629318237,0.5067411065101624
486,78951827,0.9999997615814208,-0.00019169971346855164,-0.00039632804691791534,-0.0005024783313274384,0.0141350626945495,0.00039076805114746094,0.5080947875976562
487,79001828,0.9999913573265076,-0.00017049163579940796,-0.0006004776805639267,0.0041081728413701,0.0115612745285034,0.00043845176696777344,0.5075284242630005
488,79051829,0.9999991059303284,-0.00015584193170070648,-0.0005121827125549316,0.0012248521670699,0.0118224620819091,0.0027724504470825,0.5070162415504456
489,79101830,0.9999998807907104,-0.00014907494187355042,-0.0005111731588840485,-6.955303251743317e-05,0.0141652226448059,-0.002265989780426,0.5068323612213135
490,79151831,0.999996542930603,-0.00011673197150230408,-0.000599367544054985,0.0025526704266667,0.0140949487686157,-0.0021613836288452,0.5073855519294739
491,79201832,0.9999945759773254,-0.00012345053255558014,-0.0005332492291927338,0.0032430002465844,0.0143549442291259,0.0018592476844787,0.5070108771324158
492,79251833,0.9999902248382568,-0.00014393962919712067,-0.0004972554743289948,0.0043857628479599,0.0110029578208923,0.0020630955696105,0.5067524909973145
493,79301834,0.9999991059303284,-0.00014775991439819336,-0.0004794076085090637,0.001219437457621,0.010747492313385,0.0010058283805847,0.5071731805801392
494,79351835,0.9999997615814208,-0.00010930374264717102,-0.0006134547293186188,0.00033682119101285934,0.0124382972717285,0.0033216476440429,0.5072067975997925
495,79401836,0.9999992847442628,-0.0001475028693675995,-0.0005122032016515732,0.0010884283110499,0.0143089294433593,-0.0005459189414978027,0.5074183344841003
496,79451837,0.9999983906745912,-0.00014874152839183807,-0.0006131697446107864,0.0016669211909174,0.0126243233680725,0.0016925334930419,0.5068987607955933
497,79501838,0.9999991059303284,-0.00015097670257091522,-0.0005348566919565201,0.0012081554159522,0.0143388509750366,-0.00017499923706054688,0.5065897703170776
498,79551839,0.9999680519104004,-0.0004280358552932739,-0.0006980188190937042,0.0079479170963168,0.0160580873489379,-0.0060919523239135,0.5068035125732422
499,79601840,0.9999911785125732,-0.0002887733280658722,-0.0007256437093019485,0.0041236067190766,0.0091188549995422,0.0044074058532714,0.5054383873939514
500,79651841,0.9999997615814208,-3.285892307758331e-05,-0.000408124178647995,0.0005116453394293785,0.013912558555603,-0.0006690621376037598,0.5067763924598694
501,79701842,0.999987244606018,-0.00024321861565113068,-0.0005859397351741791,0.0050149513408541,0.0173295140266418,-0.0055262446403503,0.5067337155342102
502,79751843,0.99996680021286,-0.0003265328705310821,-0.0006692800670862198,0.0081168683245778,0.0143188834190368,-0.0014405846595764,0.5078189969062805
503,79801844,0.9999691247940063,-0.00021471455693244931,-0.0005697049200534821,0.0078316694125533,0.0143569111824035,-0.0026494264602661,0.5074331760406494
504,79851845,0.9999441504478456,-0.00016637705266475675,-0.0002353619784116745,0.0105629106983542,0.0147817134857177,0.0048325657844543,0.5061237215995789
505,79901846,0.9999645352363586,-0.0003420226275920868,0.0003475798293948173,0.008405745960772,0.0134873390197753,0.0006971955299377441,0.5077151656150818
506,79951847,0.9999505877494812,-0.0004557203501462936,0.0008237818256020546,0.0098981754854321,0.0121639966964721,-0.00027507543563842773,0.5077154636383057
507,80001848,0.9998975396156312,-0.0008690841495990753,0.0004192227497696877,0.0142832724377512,0.0109874010086059,0.0037813186645507,0.5053759217262268
508,80051849,0.9999699592590332,0.00016421452164649963,-0.0017424523830413,0.0075543504208326,0.015975534915924,0.0015004277229309,0.5060175657272339
509,80101850,0.9998586773872375,-0.0007796380668878555,-0.0021919645369052,0.0166493766009807,0.0127153396606445,-0.00296151638031,0.5075507760047913
510,80151851,0.9998595714569092,-0.0007284916937351227,-0.001598123461008,0.0166670978069305,0.0133385062217712,-0.0018752813339233,0.5077518820762634
511,80201852,0.9997460842132568,-0.00044929608702659607,-0.0007893014699220657,0.0225162617862224,0.0132066011428833,-0.00022745132446289065,0.506794810295105
512,80251853,0.9998407959938048,-0.00010299496352672576,-0.0006238687783479691,0.0178319700062274,0.0134496092796325,-0.0154876112937927,0.5070673227310181
513,80301854,0.999886989593506,-1.959316432476044e-05,-0.0006540697067975998,0.0150180654600262,0.0130104422569274,-0.005566120147705,0.5071141123771667
514,80351855,0.999904990196228,0.00012280698865652084,-0.000604771077632904,0.0137693965807557,0.0061877369880676,0.0034853219985961,0.5066335797309875
515,80401856,0.9999114274978638,-0.0001264084130525589,-0.0005268696695566177,0.0132980374619364,0.0181398391723632,-0.0089102387428283,0.5063537359237671
516,80451857,0.999941110610962,-0.00022481754422187805,-0.000627392902970314,0.0108313560485839,0.0111442804336547,-0.0108367204666137,0.5067281126976013
517,80501858,0.9999638199806212,0.0002333158627152443,-0.00031935423612594604,0.0084955031052231,0.0151954293251037,-0.0048009753227233,0.506173849105835
518,80551859,0.9999051094055176,0.00014612730592489245,7.628556340932846e-05,0.0137729039415717,0.012955904006958,0.0059401392936706,0.5079330801963806
519,80601860,0.9999602437019348,-0.00023268908262252808,-0.0005003362894058228,0.0088968845084309,0.0147432088851928,0.0018579959869384,0.5073133707046509
520,80651861,0.9999330639839172,-0.0005433913320302963,0.0005433624610304832,0.0115464115515351,0.0117073655128479,0.0163396000862121,0.5062763690948486
521,80701862,0.999851405620575,-0.00033916905522346497,-0.0006631165742874146,0.0172231085598468,0.0106777548789978,-0.0217827558517456,0.506422758102417
522,80751863,0.9999597072601318,-0.0002953857183456421,-0.0006433352828025818,0.0089498227462172,0.0162532925605773,-0.0271113514900207,0.5067809820175171
523,80801864,0.9999598264694214,-0.00023109838366508484,-0.0005653873085975647,0.0089403958991169,0.0061442255973815,-0.0078213810920715,0.5065800547599792
524,80851865,0.999968409538269,-0.0003414098173379898,-0.0003908108919858933,0.0079280445352196,0.0141189098358154,-0.0043500065803527,0.5059972405433655
525,80901866,0.9999154806137084,-0.00022705458104610443,-0.0003895163536071777,0.0129922227934002,0.0089999437332153,-0.0054636597633361,0.5071242451667786
526,80951867,0.9999873638153076,-0.00025173649191856384,-0.0006003472954034805,0.00498169939965,0.0024435520172119,0.0059563517570495,0.5067563056945801
527,81001868,0.9999960064888,-0.0003868993371725082,-0.0008272044360637665,0.0026679309085011,0.0208178758621215,-0.0188840627670288,0.5071457028388977
528,81051869,0.9999499320983888,-0.0005149226635694504,-0.0006526429206132889,0.0099706510081887,0.0132297277450561,-0.0101956129074096,0.5074476003646851
529,81101870,0.999856412410736,-0.0004822220653295517,-0.0005440600216388702,0.0169294364750385,0.0196228623390197,-0.0154741406440734,0.506473183631897
530,81151871,0.9997603893280028,-0.0003596115857362747,-0.0003962833434343338,0.0218830108642578,0.009899616241455,-0.0044033527374267,0.5076424479484558
531,81201872,0.999771773815155,-0.0007592849433422089,-0.0005909893661737442,0.0213425159454345,0.0124912858009338,-0.0131602883338928,0.5075682401657104
532,81251873,0.9998745918273926,-0.0005423538386821747,-0.000685403123497963,0.0158114433288574,0.0023555159568786,-0.0348463654518127,0.5067594051361084
533,81301874,0.9999298453330994,-0.000418512150645256,-0.0006841942667961121,0.0118196392431855,0.0091463327407836,-0.0130901336669921,0.5064032077789307
534,81351875,0.9998178482055664,0.00028292927891016006,-0.0015500038862228,0.0190195590257644,0.0232347249984741,-0.0116258859634399,0.506884753704071
535,81401876,0.9998281598091124,0.00022389087826013565,-0.0004652906209230423,0.0185313001275062,0.0087230801582336,-0.0206096768379211,0.5068202018737793
536,81451877,0.999709129333496,-0.00033981166779994965,-0.00023713894188404083,0.0241135470569133,0.0102887749671936,-0.0120602846145629,0.5076169371604919
537,81501878,0.9995125532150269,-0.0010374914854764,-0.0012041460722684,0.0311787463724613,-0.003688097000122,-0.0233705043792724,0.5066455602645874
538,81551879,0.9999998211860656,-0.00019632652401924133,-0.000540606677532196,0.0002710474655032158,0.0090259313583374,-0.0159525275230407,0.5071685910224915
539,81601880,0.9999998211860656,-0.0002195611596107483,-0.0004927348345518112,0.00026857759803533554,0.0102571845054626,-0.0152562856674194,0.5070302486419678
540,81651881,0.9999998211860656,-0.00015879608690738678,-0.0005226116627454758,0.00028801802545785904,0.010413110256195,-0.0151786804199218,0.5068079829216003
541,81701882,0.9999998211860656,-0.00013600662350654602,-0.0005197674036026001,0.00029191840440034866,0.0101529359817504,-0.0153600573539733,0.5076695084571838
542,81751883,0.9999998211860656,-0.000122925266623497,-0.000532856211066246,0.00028146523982286453,0.0104431509971618,-0.0151045322418212,0.5073160529136658
543,81801884,0.9999998211860656,-0.00012305937707424164,-0.0005334261804819107,0.0002871723845601082,0.0107187032699584,-0.0151576995849609,0.507290244102478
544,81851885,0.9984830021858216,-0.0012207627296447,-0.0012729056179523,0.0550329163670539,0.0781195163726806,0.0098785161972045,0.5074582099914551
545,81901886,0.9938030242919922,-0.0004523973912000656,-0.00011834129691123962,0.1111547946929931,-0.0315549969673156,-0.0260355472564697,0.5073045492172241
546,81951887,0.999863624572754,-0.00018865801393985748,-0.0006424915045499802,0.016502272337675,-0.0088014006614685,-0.0138010382652282,0.5067766308784485
547,82001888,0.9991959929466248,-0.0004690904170274735,-0.0006932169198989868,0.0400838032364845,0.0072993636131286,-0.016664445400238,0.5075996518135071
548,82051889,0.9992495179176332,-0.0005604960024356842,-0.0007228180766105652,0.0387246645987033,0.0021601319313049,-0.0161464810371398,0.5072192549705505
549,82101890,0.9989410638809204,-0.0004561860114336014,-0.0005673486739397049,0.0460022464394569,0.0076575279235839,-0.0169208049774169,0.5066252946853638
550,82151891,0.999396562576294,-0.0004936568439006805,-0.0005840174853801727,0.0347260385751724,-0.0071786046028137,-0.024523913860321,0.5068095326423645
551,82201892,0.9995908141136168,-0.0003343764692544937,-0.0005157142877578735,0.0285974666476249,0.0061200857162475,-0.0161717534065246,0.5066754817962646
552,82251893,0.9998162388801576,-0.0002651326358318329,-0.0004797745496034622,0.0191619433462619,-0.0061172842979431,-0.0229369401931762,0.5070702433586121
553,82301894,0.9995867013931274,-0.0003603007644414902,-0.0006209425628185272,0.0287378840148448,0.0083886981010437,-0.0140374898910522,0.5069522857666016
554,82351895,0.9998365044593812,-0.00028621405363082886,-0.0006942581385374069,0.0180651620030403,-0.0133624672889709,-0.0257936120033264,0.5063167810440063
555,82401896,0.9998630881309508,-0.00023167580366134644,-0.0004746802151203156,0.0165374055504798,0.0030112266540527,-0.0174738764762878,0.507101833820343
556,82451897,0.9999037384986876,-0.00022276118397712708,-0.000622941181063652,0.0138572780415415,-0.009076714515686,-0.0231139063835144,0.5074813365936279
557,82501898,0.999998152256012,-0.00015581585466861725,-0.0005557350814342499,0.0018386198207736,0.0006659030914306641,-0.0174672603607177,0.507432222366333
558,82551899,0.9999817609786988,-0.00013042613863945007,-0.0005721133202314377,0.0060069235041737,-0.002941608428955,-0.0199687480926513,0.5063402652740479
559,82601900,0.9999980330467224,-0.00012857280671596527,-0.0005929358303546906,0.0018954714760184,-0.0042778849601745,-0.0207021832466125,0.5073460936546326
560,82651901,0.9997860193252563,6.188545376062393e-05,-0.0007523931562900543,-0.020671097561717,-0.0231500267982482,-0.0248805880546569,0.5056988000869751
561,82701902,0.9986909627914428,0.0003307564184069633,-0.00047082826495170593,-0.0511470586061477,-0.0111958980560302,-0.0200453400611877,0.507197916507721
562,82751903,0.9989901781082152,-0.00019317306578159327,-0.0002749953418970108,-0.0449272580444812,-0.0038938522338867,-0.0179632306098938,0.5068469643592834
563,82801904,0.9985271692276,0.00016136188060045242,-7.294118404388428e-06,-0.054253950715065,0.0014334917068481,-0.0210461020469665,0.505908727645874
564,82851905,0.9990551471710204,-0.0030039232224226,0.0075847459957003,-0.0426885709166526,-0.0098190307617187,-0.0267355442047119,0.5199592113494873
565,82901906,0.998893976211548,-0.0142558217048645,0.0051825875416398,-0.0445060469210147,0.0030757188796997,-0.0270836949348449,0.562952995300293
566,82951907,0.999332070350647,0.0074579818174242,-0.0118046980351209,-0.0337705127894878,-0.0394425988197326,-0.0591025948524475,0.5221548080444336
567,83001908,0.999043345451355,-0.0115338508039712,-0.0121130459010601,-0.0404059030115604,-0.0214658975601196,-0.0415022373199462,0.5494402050971985
568,83051909,0.9994103908538818,0.0054999673739075,-0.0261093638837337,-0.0216082204133272,0.0075087547302246,-0.0437573790550231,0.509680449962616
569,83101910,0.9992151856422424,0.0141313094645738,-0.0288108084350824,-0.0232227351516485,0.0354634523391723,-0.0344665646553039,0.5071777105331421
570,83151911,0.9986873269081116,0.0364951938390731,-0.030485725030303,-0.0190366432070732,0.0438283681869506,-0.0455501675605773,0.4697135090827942
571,83201912,0.9993478655815125,0.0220818854868412,-0.0161674860864877,-0.0235562529414892,0.0914180874824523,0.0249697566032409,0.4665559530258178
572,83251913,0.9998686909675598,-0.0009246040135622025,-0.0048868134617805,-0.0154248643666505,0.0942533016204834,0.0615319609642028,0.535248875617981
573,83301914,0.9996459484100342,0.0145923802629113,-0.0094195436686277,-0.0201585534960031,0.0847063064575195,0.0188158750534057,0.5520622134208679
574,83351915,0.9994430541992188,-0.0241609755903482,-0.0059608742594718,-0.0222322735935449,0.0798834562301635,0.0168871283531188,0.5330309271812439
575,83401916,0.9993979930877686,-0.0141112618148326,-0.0088857188820838,-0.0304229035973548,0.0431882143020629,-0.0200206637382507,0.4849259257316589
576,83451917,0.9989500045776368,-0.0242420267313718,-0.0039881579577922,-0.0386698022484779,0.0468465685844421,-0.008694589138031,0.4454777240753174
577,83501918,0.998866856098175,-0.0171820931136608,-0.0012289639562368,-0.0443649590015411,0.046847641468048,-0.00048154592514038086,0.4704441428184509
578,83551919,0.998360514640808,-0.0184815693646669,0.00033193547278642654,-0.0541717372834682,0.0814657807350158,0.0397889018058776,0.4491007924079895
579,83601920,0.998155415058136,-0.0215881671756505,0.0091219283640384,-0.0560047216713428,0.1042338609695434,0.0357668995857238,0.4202017188072204
580,83651921,0.9987088441848756,-0.0199823044240474,0.013147291727364,-0.0448166169226169,0.1032318472862243,0.092092216014862,0.463489830493927
581,83701922,0.9992326498031616,-0.0003938339650630951,0.011111362837255,-0.0375566594302654,0.1001340746879577,0.1287953853607177,0.4685764908790588
582,83751923,0.9994219541549684,0.0089746499434113,0.0138436658307909,-0.0297240521758794,0.1157849431037902,0.1415283679962158,0.4494627118110657
583,83801924,0.9994855523109436,-0.0013823471963405,0.0165447518229484,-0.027440033853054,0.1068816184997558,0.1373689174652099,0.4524993896484375
584,83851925,0.9997326135635376,0.0017813900485634,0.0162857919931411,-0.0163172781467437,0.0937943458557128,0.105834424495697,0.4865131974220276
585,83901926,0.9995501041412354,-0.0228664465248584,0.0172799564898014,-0.0088370647281408,0.0588235855102539,0.079079270362854,0.5220261216163635
586,83951927,0.9997493028640748,0.0121693788096308,0.0135422898456454,-0.0130340419709682,0.0317116975784301,0.0361881256103515,0.5074583888053894
587,84001928,0.9998903274536132,0.0106945717707276,0.0082020042464137,-0.0061377845704555,0.0076417922973632,0.0183429718017578,0.5696234107017517
588,84051929,0.9997997283935548,-0.0082606486976146,0.0095607815310359,-0.0155180897563695,0.0001487135887145996,0.0385777950286865,0.5151050090789795
589,84101930,0.9997899532318116,-0.0025937873870134,0.011015391908586,-0.0170871596783399,-0.0130260586738586,0.0182838439941406,0.4941971898078918
590,84151931,0.9981959462165833,-0.047210868448019,-0.0368631705641746,0.0041403276845812,-0.0147246718406677,0.0184520483016967,0.6380298137664795
591,84201932,0.9999187588691713,-0.0021591521799564,-0.0008776020258665085,-0.0125313643366098,-0.0117512345314025,-0.0320619940757751,0.5095994472503662
592,84251933,0.999963402748108,-0.0023561660200357,-0.0004577357321977616,-0.0082114972174167,0.0266168713569641,-0.0057438611984252,0.5065857172012329
593,84301934,0.9999989867210388,-0.0006624609231948853,-0.0007346495985984802,0.0010319175198674,0.0093711614608764,-0.02693772315979,0.5085813999176025
594,84351935,0.9997394680976868,0.0225913077592849,-0.0005449708551168442,0.0032092528417706,0.0053797364234924,-0.0387297272682189,0.5179311633110046
595,84401936,0.9999998807907104,0.00017694663256406784,0.00010204780846834184,0.0004882151260972023,0.0064169764518737,0.0004069805145263672,0.4926030039787292
596,84451937,0.9999998807907104,-5.587935447692871e-06,-0.000452214851975441,0.0002996856346726417,0.0067486763000488,-0.006487488746643,0.507477879524231
597,84501938,0.9999998807907104,-2.9714778065681458e-05,-0.0004204455763101578,0.0002590203657746315,0.0063958764076232,-0.0063571333885192,0.5076171159744263
598,84551939,0.9999998807907104,-2.6300549507141117e-05,-0.00032508186995983124,0.0002734372392296791,0.0064401626586914,-0.0062396526336669,0.5073124766349792
599,84601940,0.9999998807907104,-3.788992762565613e-05,-0.0003659613430500031,0.0002515884116292,0.0061187744140625,-0.0061191320419311,0.506926953792572
600,84651941,0.9999998807907104,-9.276717901229858e-05,-0.0004634391516447067,0.0002687377855181694,0.0071237087249755,-0.0064021944999694,0.5072011947631836
601,84701942,0.9999998211860656,-0.00011724233627319336,-0.0004734303802251816,0.0002965489402413368,0.0061851143836975,-0.0062422156333923,0.5073394775390625
602,84751943,0.9999998211860656,-0.00011244043707847597,-0.000484611839056015,0.0002879360690712929,0.0060522556304931,-0.0061798691749572,0.506736695766449
603,84801944,0.9999998211860656,-0.0001406930387020111,-0.000555187463760376,0.0002772929146885872,0.0059887170791625,-0.0059670805931091,0.5064926147460938
604,84851945,0.9999998211860656,-0.00015304237604141235,-0.0005609039217233658,0.0002710232511162758,0.0062893629074096,-0.0065340995788574,0.5069965124130249
605,84901946,0.9999997615814208,-0.00014166906476020813,-0.0005827881395816803,0.0002981415018439293,0.0064115524291992,-0.0059376955032348,0.5069324970245361
606,84951947,0.9999997615814208,-0.00013331696391105652,-0.0005704015493392944,0.00028194207698106766,0.0056371688842773,-0.0059090852737426,0.5067750215530396
607,85001948,0.9999997615814208,-0.00014609470963478088,-0.0005790069699287415,0.00027149636298418045,0.0061020255088806,-0.0061908364295959,0.506965696811676
608,85051949,0.9999997615814208,-0.00014436990022659302,-0.0006139203906059265,0.0002309037372469902,0.0060480237007141,-0.0057383179664611,0.5067731142044067
609,85101950,0.9999998211860656,-0.00012599676847457886,-0.0005446840077638626,0.0002500982955098152,0.0061818957328796,-0.0065045952796936,0.5071992874145508
610,85151951,0.9999997615814208,-0.0001561976969242096,-0.0005906242877244949,0.0002790624275803566,0.0064083337783813,-0.0061506032943725,0.506442129611969
611,85201952,0.9999998211860656,-0.00013145990669727323,-0.0005567483603954315,0.00028981734067201614,0.0060594081878662,-0.0059974789619445,0.5065338611602783
612,85251953,0.9999998211860656,-0.00014028139412403107,-0.0005588289350271225,0.00028140563517808914,0.0062298774719238,-0.0060852169990539,0.5073489546775818
613,85301954,0.9999998211860656,-0.00015914812684059143,-0.0005462039262056351,0.00028083566576242447,0.0064030885696411,-0.0061599612236022,0.5070751905441284
614,85351955,0.9999997615814208,-0.0001500006765127182,-0.0006196033209562302,0.0002837022766470909,0.0068152546882629,-0.0060095787048339,0.5071473121643066
615,85401956,0.9999997615814208,-0.0001546088606119156,-0.0006472580134868622,0.0002652602270245552,0.0064040422439575,-0.0062545537948608,0.5071916580200195
616,85451957,0.9999998211860656,-0.0001317281275987625,-0.0005527790635824203,0.00026849936693906784,0.0067123174667358,-0.0062086582183837,0.5067014098167419
617,85501958,0.9999998211860656,-0.00010687671601772308,-0.0005531385540962219,0.0003027627244591713,0.0065622329711914,-0.0063533782958984,0.5073760151863098
618,85551959,0.9999998211860656,-0.00013370811939239502,-0.0005322322249412537,0.000319027341902256,0.0065463185310363,-0.0063125491142272,0.5070782899856567
619,85601960,0.9999998211860656,-0.00014601647853851318,-0.0005376357585191727,0.00028821174055337906,0.0069504380226135,-0.0061147212982177,0.5071899890899658
620,85651961,0.9999998211860656,-0.0001246761530637741,-0.0005336236208677292,0.000303865410387516,0.0065469741821289,-0.0063005089759826,0.5072348713874817
621,85701962,0.9999998211860656,-0.00012013502418994904,-0.0005663875490427017,0.00026878807693719864,0.0065848231315612,-0.0063011050224304,0.5071144700050354
622,85751963,0.9999998211860656,-0.00011625699698925018,-0.000558994710445404,0.00029552821069955826,0.0066894888877868,-0.0058169364929199,0.5076412558555603
623,85801964,0.9999998211860656,-0.0001463722437620163,-0.0005337372422218323,0.0003159167245030403,0.0066683888435363,-0.0062320232391357,0.5072418451309204
624,85851965,0.9999998211860656,-0.00014340318739414215,-0.0005418397486209869,0.00031188223510980606,0.0064282417297363,-0.0067613124847412,0.5064492225646973
625,85901966,0.9999998211860656,-0.00012733973562717438,-0.0005247611552476883,0.000255742110311985,0.006594181060791,-0.0062475800514221,0.5067925453186035
626,85951967,0.9999998211860656,-0.00013605691492557526,-0.0005127489566802979,0.0002261614426970482,0.0065444707870483,-0.0059875845909118,0.5069003105163574
627,86001968,0.9999998211860656,-0.00012895651161670685,-0.0005328617990016937,0.00025286804884672165,0.0067936778068542,-0.0059849619865417,0.507146954536438
628,86051969,0.9999998211860656,-0.00015053153038024902,-0.0005360022187232971,0.00027748849242925644,0.0068119764328002,-0.0064870119094848,0.5074739456176758
629,86101970,0.9999998211860656,-0.00012019090354442596,-0.00054159015417099,0.0002868911251425743,0.006751537322998,-0.0063803195953369,0.5074620246887207
630,86151971,0.9999998211860656,-0.0001339484006166458,-0.0005380697548389435,0.0002794479951262474,0.0068389177322387,-0.0065342783927917,0.5067124962806702
631,86201972,0.9999998211860656,-0.0001487378031015396,-0.0005405917763710022,0.0002830261364579201,0.006561279296875,-0.0066195726394653,0.5065755248069763
632,86251973,0.9999997615814208,-0.00013466551899909973,-0.0005630701780319214,0.0003104275092482567,0.0061157345771789,-0.0062677264213562,0.5067036151885986
633,86301974,0.9999998211860656,-0.00014693103730678558,-0.0005394499748945236,0.00030224304646253586,0.006588339805603,-0.0063677430152893,0.5067350268363953
634,86351975,0.9999998211860656,-0.00012435764074325562,-0.0005561020225286484,0.0002980446442961693,0.0067914128303527,-0.0062035322189331,0.5064774751663208
635,86401976,0.9999998211860656,-0.0001177079975605011,-0.0005500093102455139,0.00027197133749723434,0.0063555836677551,-0.0065406560897827,0.506984531879425
636,86451977,0.9999998211860656,-0.00011991336941719057,-0.000529678538441658,0.00025876518338918686,0.006774365901947,-0.0063455700874328,0.5071287751197815
637,86501978,0.9999998211860656,-0.00011890195310115814,-0.0005434304475784302,0.00027412455528974533,0.0071479082107543,-0.0065217018127441,0.5071771144866943
638,86551979,0.9999998211860656,-0.00013584643602371216,-0.0005445946007966995,0.00028907787054777145,0.0068069100379943,-0.0061310529708862,0.5068891644477844
639,86601980,0.9999998211860656,-0.00012947432696819303,-0.0005392171442508698,0.00032206345349550247,0.0070595741271972,-0.0062988996505737,0.5076833963394165
640,86651981,0.9999997615814208,-0.00013617612421512604,-0.0005509071052074432,0.00033993739634752274,0.0068995356559753,-0.0062512755393981,0.5066792964935303
641,86701982,0.9999886751174928,0.0012580240145325,2.5122426450252533e-05,0.0045891171321272,0.0274053812026977,-0.0405018925666809,0.5071513652801514
642,86751983,0.9999907612800598,0.0007040994241833687,0.000532940961420536,0.0042102197185158,-0.0110370516777038,0.0351892709732055,0.507267415523529
643,86801984,0.9999952912330629,4.646368324756622e-06,0.00027155596762895584,0.0030501643195748,0.0029229521751403,-0.0096687078475952,0.5080957412719727
644,86851985,0.9999784231185912,-0.001928137615323,0.0045327832922339,0.0043419813737273,0.0052517056465148,-0.0052998661994934,0.5110638737678528
645,86901986,0.9999460577964784,0.0017849719151854,0.0098296394571661,0.0028486968949437,0.0070399045944213,0.0026392340660095,0.5149545669555664
646,86951987,0.9996718764305116,0.0255535021424293,-0.0017862822860479,-0.00010038726031780244,0.0032685995101928,-0.0091725587844848,0.5700459480285645
647,87001988,0.9999156594276428,0.0119086606428027,-0.0048524029552936,-0.0018233060836791,-0.0088818669319152,0.0230436325073242,0.603436291217804
648,87051989,0.9999457001686096,0.0056406510993838,-0.0070461258292198,-0.0052140355110168,-0.0069420933723449,0.052101731300354,0.5998260378837585
649,87101990,0.9999391436576844,0.0030699437484145,-0.01009370572865,-0.0032213870435953,0.005858302116394,0.0439044833183288,0.5640140771865845
650,87151991,0.9999508857727052,0.00027054641395807266,-0.0098204277455806,0.0013108802959322,0.011834442615509,0.0509364604949951,0.5303158760070801
651,87201992,0.9999014139175416,-0.0109434146434068,-0.0083293709903955,0.0028311731293797,0.0212664604187011,0.0496638417243957,0.5324351787567139
652,87251993,0.9999374747276306,-0.0020527057349681,-0.009780092164874,0.0050214240327477,0.0167958736419677,0.0571836829185485,0.5087586045265198
653,87301994,0.999902606010437,0.0117454165592789,-0.0067290961742401,0.0033893538638949,0.0327112078666687,0.0528087615966796,0.4827401638031006
654,87351995,0.9999370574951172,-0.001717859879136,-0.0078225638717412,0.0078550716862082,0.020784318447113,0.033316433429718,0.5311309695243835
655,87401996,0.9999261498451232,0.0017289342358708,-0.0111873596906661,0.0044180219992995,0.0324049592018127,0.0276213288307189,0.4934792518615722
656,87451997,0.9999012351036072,-0.0065776538103818,-0.0109688229858875,0.0058246338739991,0.0465166568756103,0.0153464674949646,0.4984833002090454
657,87501998,0.9999251961708068,-0.0071828588843345,-0.0091773867607116,0.003714588470757,0.0690886974334716,0.0211446285247802,0.4867390990257263
658,87551999,0.9997633099555968,-0.0176863800734281,-0.0076645072549581,0.0100887222215533,0.0721956491470336,0.015436053276062,0.5004891157150269
659,87602000,0.9999281167984008,-0.0093567576259374,-0.0037707537412643,0.006476349197328,0.0808302164077758,0.0137864351272583,0.495599627494812
660,87652001,0.9999768137931824,-0.0033602844923734,-0.0056542046368122,0.0017699571326375,0.0885280966758728,-0.0122257471084594,0.5065365433692932
661,87702002,0.9999839663505554,-5.344487726688385e-05,-0.0045620389282703,-0.0033614076673984,0.0952183604240417,-0.0010543465614318,0.4803825616836548
662,87752003,0.999970018863678,-0.0044078435748815,-0.0063560418784618,-0.0003230869770050049,0.1100487112998962,-0.0126733779907226,0.5036600828170776
663,87802004,0.99995356798172,-0.0057223048061132,-0.0077504236251115,0.00014665815979242325,0.0981053709983825,0.004122257232666,0.4869836568832397
664,87852005,0.9998847842216492,-0.0112340282648801,-0.0095544345676898,0.0036015333607792,0.1029943823814392,-0.0104373693466186,0.5046801567077637
665,87902006,0.9998921155929564,-0.0056599732488393,-0.0132529232650995,0.0028428947553038,0.0997419953346252,-0.0218337178230285,0.4438700675964355
666,87952007,0.9999450445175172,0.0002844342961907387,-0.0103890821337699,0.0013763671740889,0.1325827240943908,-0.0450358986854553,0.445840060710907
667,88002008,0.9999167919158936,-0.0095025803893804,-0.0085147600620985,0.0018903175368905,0.1312191486358642,-0.0356616377830505,0.4048300981521606
668,88052009,0.9999937415122986,-0.0010303203016519,-0.0033731125295162,-0.00015954859554767609,0.1457569003105163,-0.0298187732696533,0.423015296459198
669,88102010,0.9999441504478456,-0.0088789220899343,-0.0039281193166971,0.0041700387373566,0.1407172679901123,-0.0325163006782531,0.4364013075828552
670,88152011,0.9999808669090272,0.0060716765001416,-0.0008402969688177109,0.0008415365591645241,0.1390148401260376,-0.0575217008590698,0.4160950779914856
671,88202012,0.9999974370002748,0.0015255575999617,0.00026171375066041946,0.0016703968867659,0.1415684819221496,-0.053709864616394,0.4049543738365173
672,88252013,0.9999672770500184,0.0065722716972231,0.0045446353033185,-0.0012636072933673,0.1414506435394287,-0.0550586581230163,0.3939689397811889
673,88302014,0.9999719262123108,0.0032581845298409,0.0067340722307562,-0.0004218537360429764,0.134492814540863,-0.0394557118415832,0.4154044985771179
674,88352015,0.9998614192008972,0.0123924994841218,0.0104368543252348,-0.0038318783044815,0.1266151666641235,-0.0403101444244384,0.4129219055175781
675,88402016,0.9998344779014589,0.0120246494188904,0.0134153412654995,-0.0025447085499763,0.1179820895195007,-0.0301900506019592,0.4257110357284546
676,88452017,0.9997929930686952,0.0121932039037346,0.0158010348677635,-0.0039521642029285,0.1205163598060607,0.014153242111206,0.4537936449050903
677,88502018,0.9998576045036316,-0.0011747404932975,0.0167949944734573,-0.0011337026953697,0.0956922769546508,0.027190625667572,0.491992712020874
678,88552019,0.9998896718025208,0.0036885561421513,0.0143567351624369,-0.0009729694575071336,0.067672312259674,0.0074361562728881,0.501129150390625
679,88602020,0.9998627305030824,0.0088337464258074,0.0127330711111426,-0.0058615934103727,0.0637545585632324,0.0192763209342956,0.5102470517158508
680,88652021,0.9999405145645142,-0.00018545985221862796,0.0107527459040284,-0.0018101874738931,0.0394641757011413,0.0151005983352661,0.5091195106506348
681,88702022,0.9998295307159424,0.0167188867926597,0.0073194941505789,-0.0028018727898597,0.0396448373794555,0.0424489378929138,0.528023362159729
682,88752023,0.9999677538871764,-0.0031392686069011,0.0067818602547049,0.0029330560937523,0.0360742807388305,0.0356490015983581,0.5269749164581299
683,88802024,0.9999839067459106,0.0022137137129902,0.0033820765092968,0.0039872704073786,0.0339724421501159,0.0446773767471313,0.5236831903457642
684,88852025,0.9999839067459106,0.0046081198379397,0.0028283735737204,0.0017032781615853,0.0363863110542297,0.0302454829216003,0.5294334292411804
685,88902026,0.9999873638153076,0.0009562084451317788,-0.0013092514127492,0.0047559225931763,0.0153514146804809,0.0191013813018798,0.5167447328567505
686,88952027,0.999958336353302,0.0044654896482825,0.0033312505111098,-0.0072288364171981,0.0298654437065124,0.0420479774475097,0.5021365284919739
687,89002028,0.9999476075172424,-0.00438710488379,0.006855689920485,0.0062105851247906,0.0298591256141662,0.0401620864868164,0.5137445330619812
688,89052029,0.9999560117721558,-0.0056926570832729,0.0067467475309967,0.0031683789566159,0.0083338618278503,0.0360686182975769,0.5528891086578369
689,89102030,0.9999914169311525,0.0009276112541556358,0.0012194449082016,0.0038467021659016,0.0040560364723205,0.0335180759429931,0.552680253982544
690,89152031,0.9999932646751404,0.0012157568708062,-0.0005517173558473587,0.003415991552174,0.0104910135269165,0.0268297791481018,0.5351967215538025
691,89202032,0.9999966025352478,0.0011946866288781,-0.0011985078454017,0.001992424018681,0.009448230266571,0.0411409735679626,0.5098485350608826
692,89252033,0.9999899864196776,0.0027798684313893,0.0032849581912159,0.0012252936139702,0.0075750350952148,0.0338813662528991,0.5057671666145325
693,89302034,0.9999614953994752,0.0078879026696085,0.0035907523706555,0.0013802098110318,-0.0046542286872863,0.0506678819656372,0.5184256434440613
694,89352035,0.9999713897705078,0.0021560071036219,0.0070601655170321,-0.0016602221876382,0.0017697215080261,0.0389014482498168,0.5146447420120239
695,89402036,0.9999772906303406,-0.0038029216229915,0.0054487893357872,0.0011124173179268,-0.0020653009414672,0.0443562865257263,0.5339211225509644
696,89452037,0.9999923706054688,-0.002431321889162,0.0029684538021683,-0.0007216446101665497,-0.0098360180854797,0.0524044036865234,0.5247614979743958
697,89502038,0.9999693632125854,-0.0073106288909912,0.0023781945928931,0.0014654556289315,-0.0075970888137817,0.0373718738555908,0.5413408875465393
698,89552039,0.9999701380729676,-0.0014154091477394,-0.0062917657196521,0.0042592706158757,-0.0061932206153869,0.0532246232032775,0.5549076199531555
699,89602040,0.9999752044677734,-0.00022366829216480252,-0.0047693755477666,0.005176761187613,0.0013412833213806,0.0337938666343688,0.4869462251663208
700,89652041,0.99972802400589,-0.0228035133332014,0.0015558740124106,0.0046301027759909,-0.0151223540306091,0.0260581374168396,0.5243564248085022
701,89702042,0.999761700630188,-0.0216440260410308,0.0022757863625884,0.0017115948721766,-0.0066666603088378,0.0125716924667358,0.5118290185928345
702,89752043,0.9999920129776,-0.003375619649887,0.0021348493173718,6.922800093889236e-05,-0.0119150876998901,-0.0107954740524292,0.5116066932678223
703,89802044,0.9999996423721312,-0.0003008004277944565,-0.0007782746106386185,0.0002830112352967262,-0.0148494243621826,-0.010640263557434,0.505339503288269
704,89852045,0.9999956488609314,0.0013530468568205,-0.0025834012776613,-0.0004333965480327606,-0.0165982246398925,-0.0115513205528259,0.5078797340393066
705,89902046,0.9999947547912598,0.000958440825343132,-0.0026253657415509,0.0016265138983726,-0.0124204158782958,-0.0103435516357421,0.5066473484039307
706,89952047,0.9999929666519164,0.0025427928194403,-0.0018783770501613,0.0020086644217371,-0.0103759765625,-0.0083946585655212,0.5069506168365479
707,90002048,0.9999979734420776,0.0017941733822226,-0.0007310938090085983,-0.0005081500858068466,-0.0090686082839965,-0.0080459713935852,0.507941484451294
708,90052049,0.9999982118606568,0.0012515662238001,-0.0013350639492273,-0.0004315916448831558,-0.0099756717681884,-0.0042502284049987,0.5075281858444214
709,90102050,0.9999942183494568,0.0021734097972512,-0.0023372583091259,-0.0011849608272314,-0.0090141296386718,-0.0026202201843261,0.505932629108429
710,90152051,0.999994456768036,0.0018594171851873,-0.002688018605113,-0.0006100479513406754,-0.0066046118736267,-0.0031195282936096,0.5076278448104858
711,90202052,0.9999980330467224,-0.0005006957799196243,-0.0015987884253263,0.0010869773104786,-0.0042332410812377,0.0010901093482971,0.5068264603614807
712,90252053,0.999999463558197,-0.00035486742854118347,-0.0007826350629329681,0.0005910033360123634,-0.0031662583351135,0.0003883242607116699,0.5071865916252136
713,90302054,0.9999988675117492,3.7523917853832245e-05,-0.0012231208384037,0.0008778730407357216,-0.0037122964859008,0.0004067420959472656,0.5073891282081604
714,90352055,0.999999463558197,-0.00013493746519088745,-0.0009627919644117356,0.0004285657778382301,-0.0022140741348266,0.0006672143936157227,0.5073513388633728
715,90402056,0.9999998211860656,-0.00021541304886341092,-0.0005873069167137146,0.00012661423534154892,-0.0022856593132019,0.0004379749298095703,0.5070405006408691
716,90452057,0.9999993443489076,0.0004163002595305443,-0.0009638648480176926,-0.0004928447306156158,-0.0020638704299926,0.0003261566162109375,0.5070763230323792
717,90502058,0.9999991059303284,0.00010767299681901932,-0.001267759129405,-0.000466126948595047,-0.001290738582611,0.0009136795997619628,0.5068061947822571
718,90552059,0.9999983310699464,0.0005362462252378464,-0.0014092028141021,-0.0010346062481403,-0.0030589699745178,0.0010298490524291,0.5073628425598145
719,90602060,0.9999993443489076,-0.0008042920380830765,5.628634244203568e-05,0.0008444236591458321,0.0009253621101379396,-0.0021545886993408,0.5099190473556519
720,90652061,0.9999886751174928,0.0011824863031506,-0.0046102199703454,0.00015959981828927994,-0.0015361309051513,0.01339852809906,0.5116711854934692
721,90702062,0.999787449836731,0.0162465125322341,-0.0113221481442451,0.0057375943288207,0.026087462902069,0.0197532176971435,0.5130773186683655
722,90752063,0.999447762966156,0.0302999578416347,-0.0131672639399766,0.0035640960559248,0.008066713809967,0.0712237954139709,0.5748408436775208
723,90802064,0.9999263882637024,0.0024240231141448,-0.0097965952008962,-0.0067369248718023,0.0375352501869201,0.1269910931587219,0.5509126782417297
724,90852065,0.999907374382019,-0.002062901854515,-0.0088464170694351,-0.0101338159292936,0.0558095574378967,0.1273354291915893,0.5341969132423401
725,90902066,0.9999427199363708,-0.0053338557481765,-0.0092441458255052,0.0007820697501301765,0.0642715096473693,0.1288571953773498,0.506413459777832
726,90952067,0.9999492168426514,0.0022892719134688,-0.0057898629456758,0.0079232091084122,0.0629411935806274,0.145179271697998,0.4565959572792053
727,91002068,0.9998526573181152,0.0053403107449412,-0.0004750378429889679,0.0163077116012573,0.0684282183647155,0.0981525778770446,0.4510295391082763
728,91052069,0.9998095631599426,0.0021719010546803,0.0017186263576149,0.0193171948194503,0.0640937685966491,0.0914025902748107,0.4676552414894104
729,91102070,0.9997811913490297,0.0014802990481257,0.0026176730170845,0.020701915025711,0.0713959336280822,0.0831547379493713,0.466507077217102
730,91152071,0.9997706413269044,-0.0030813720077276,0.0047955969348549,0.0206444188952446,0.0565024614334106,0.1057521700859069,0.4633868932723999
731,91202072,0.9996135830879213,0.0056530935689806,0.0048060147091746,0.026787593960762,0.0518011450767517,0.0880569219589233,0.4941639900207519
732,91252073,0.9994140267372132,0.0031247856095433,0.0027270810678601,0.0339760966598987,0.0306126475334167,0.0923978090286254,0.4921666383743286
733,91302074,0.9992563724517822,0.0028780819848179,0.0035296278074383,0.0382884182035923,0.0435217022895813,0.0444741249084472,0.4536969065666199
734,91352075,0.9992073774337769,0.0030641136690974,0.0051378617063164,0.039355382323265,0.0340567827224731,-0.006671667098999,0.4938823580741882
735,91402076,0.9989555478096008,0.0023238351568579,0.0062073329463601,0.0452098548412323,0.0420241355895996,0.0142736434936523,0.470974326133728
736,91452077,0.9983395338058472,-0.0079293716698884,0.0053551429882645,0.0568037666380405,0.029838740825653,0.0331161618232727,0.5112738609313965
737,91502078,0.9984903931617736,0.0125615233555436,0.0060916515067219,0.0531233586370945,0.008417785167694,-0.0412076115608215,0.491966962814331
738,91552079,0.999431848526001,0.0002007652074098587,0.008922254666686,0.0325022339820861,-0.0111843943595886,-0.0332013368606567,0.5226300954818726
739,91602080,0.9997381567955016,-0.0025766305625438,0.0095808366313576,0.0206214413046836,-0.0429989695549011,-4.422664642333984e-05,0.5926525592803955
740,91652081,0.999896764755249,0.0119459545239806,0.0039468286558985,0.0069381175562739,-0.020893394947052,0.0028197765350341,0.4735869765281677
741,91702082,0.9997628927230836,-0.0181176532059907,0.0117598576471209,0.0027546817436814,-0.0331836342811584,0.0071741938591003,0.488444983959198
742,91752083,0.9997745156288148,-0.0163122992962598,0.0089903743937611,-0.0101960562169551,-0.0440648198127746,-0.0031326413154602,0.516844630241394
743,91802084,0.9997711181640624,-0.0106848664581775,0.0085658701136708,-0.016435794532299,-0.0260801911354064,-0.008004605770111,0.5000437498092651
744,91852085,0.9998094439506532,-0.0009411517530679704,0.00742560159415,-0.0180284511297941,-0.029039978981018,-0.0134698152542114,0.507618248462677
745,91902086,0.9999358654022216,-0.0066327434033155,0.0049705365672707,-0.0077205877751111,-0.0256512761116027,-0.0031918287277221,0.496239960193634
746,91952087,0.9999330043792723,-0.0103432908654212,0.0049169426783919,-0.0016840398311614,-0.0254599452018737,-0.0165632963180542,0.510750412940979
747,92002088,0.999991536140442,0.0031129596754908,0.0006377482786774635,0.0026204204186797,-0.0454866290092468,-0.0361500978469848,0.5774745345115662
748,92052089,0.9999920129776,0.001036855392158,-0.003076123073697,0.0023211603984236,-0.0329970121383667,-0.0131766200065612,0.5063123106956482
749,92102090,0.9999375939369202,0.0029290607199072,-0.0086138322949409,0.0064867911860346,-0.0233253240585327,-0.0128711462020874,0.5039464831352234
750,92152091,0.999943196773529,1.1797063052654266e-05,-0.0102312453091144,0.0029871305450797,-0.0128703713417053,-0.0073614716529846,0.5087550282478333
751,92202092,0.9999848008155824,-0.0004813466221094132,-0.0054768212139606,-0.0004542544484138489,-0.0028131008148193,-0.0151283740997314,0.508734941482544
752,92252093,0.9999885559082032,0.0015404922887682,-0.0042151808738708,-0.0016547441482543,-0.0010946989059448,-0.0030386447906494,0.5064367055892944
753,92302094,0.9999886751174928,0.0025430275127291,-0.00321451947093,-0.0024247001856565,0.0036202073097229,-0.0050659775733947,0.5076286792755127
754,92352095,0.9999852180480956,0.0014188149943947,-0.0002765413373708725,-0.0052378438413143,0.0078144073486328,-0.0034614205360412,0.5072005391120911
755,92402096,0.9999950528144836,-0.001010688021779,6.397254765033722e-06,-0.0029741898179054,0.0059355497360229,-0.0024568438529968,0.5072387456893921
756,92452097,0.9999939799308776,-0.0006064586341381073,-0.001173049211502,-0.0032016802579164,0.0053880810737609,-0.0035934448242187,0.5068565607070923
757,92502098,0.9999610185623168,-0.0074097886681556,-0.0047914329916238,-0.0003440137952566147,0.0038721561431884,0.0003706216812133789,0.5053719878196716
758,92552099,0.9999374747276306,-0.0104806814342737,-0.0013305488973855,0.0036667240783572,0.0146079063415527,-0.0166815519332885,0.5092518329620361
759,92602100,0.9999997615814208,-0.00017757341265678406,-0.0005580689758062363,0.0003466540947556496,0.0116747021675109,-0.0213872790336608,0.507066011428833
760,92652101,0.9999998211860656,-0.00014558807015419006,-0.0005015525966882706,0.00032875407487154007,0.0114518404006958,-0.0211240649223327,0.5067782402038574
761,92702102,0.9999998211860656,-0.0001286529004573822,-0.0005180723965167999,0.0003250846639275551,0.0117698311805725,-0.0212267637252807,0.5070353150367737
762,92752103,0.9999998211860656,-0.00015162862837314606,-0.0004938151687383652,0.0003102617338299752,0.0111773610115051,-0.0212089419364929,0.5070889592170715
763,92802104,0.9999998211860656,-0.00010181590914726256,-0.000534404069185257,0.0002946900203824044,0.0113875269889831,-0.0214149951934814,0.5067711472511292
764,92852105,0.9999909996986388,0.0001852875575423241,-0.0008429046720266342,0.0041578812524676,0.0126292705535888,-0.0189833641052246,0.5065116286277771
765,92902106,0.9999403953552246,0.0003087455406785012,-0.0009713098406791688,0.0108701987192034,0.0130712389945983,-0.0131157636642456,0.5069898962974548
766,92952107,0.9997009038925172,-0.000321434810757637,-0.0004211459308862686,0.0244499184191226,0.0089961886405944,-0.0208684206008911,0.5070040822029114
767,93002108,0.9992060661315918,-0.0091049298644065,0.0100532518699765,0.0374609194695949,0.0220342874526977,-0.0031222105026245,0.5240581035614014
